File: xdidata/Mn/Mn-Bixbyite.xdi
# XDI/1.0 BlueSky/1.10.0 BMM/2023-1.0-py310-tiled
# Beamline.name: BMM (06BM) -- Beamline for Materials Measurement (NIST)
# Beamline.xray_source: NSLS-II three-pole wiggler
# Beamline.collimation: paraboloid mirror, 5 nm Rh on 30 nm Pt
# Beamline.focusing: not in use
# Beamline.harmonic_rejection: flat mirror, Si stripe, pitch = 7.0 mrad relative to beam
# Beamline.software: Bluesky 1.10.0, Ophyd 1.7.0, DataBroker 2.0.0b13, Python 3.10.8, 2023-1.0-py310-tiled
# Detector.I0: 10 cm N2
# Detector.I1: 25 cm N2
# Detector.I2: 25 cm N2
# Element.symbol: Mn
# Element.edge: K
# Element.reference: Mn
# Element.reference_material: Mn metal powder
# Facility.name: NSLS-II
# Facility.energy: 3.0
# Facility.current: 399.4
# Facility.mode: top-off
# Facility.GUP: 123456
# Facility.SAF: 301027
# Facility.cycle: 2023-2
# Mono.name: Si(111)
# Mono.d_spacing: 3.13519
# Mono.encoder_resolution: 0.0000050 deg/ct
# Mono.angle_offset: 16.0754 deg
# Mono.scan_mode: pseudo channel cut
# Mono.scan_type: step
# Mono.direction: forward in energy
# Sample.name: Mn2O3
# Sample.prep: powder on tape
# Sample.x: 123.848 mm
# Sample.y: 114.690 mm
# Sample.SDD_position: 205.000 mm
# Scan.experimenters: Bruce Ravel
# Scan.edge_energy: 6539.0
# Scan.start_time: 2023-05-08T11:20:18
# Scan.end_time: 2023-05-08T11:28:20
# Scan.transient_id: 75368
# Scan.uid: 0b910304-90be-4c4d-b50a-b0a22d34e52a
# Scan.plot_hint: ln(I0/It)  --  ln($5/$6)
# Column.1: energy eV
# Column.2: requested_energy eV
# Column.3: measurement_time seconds
# Column.4: xmu
# Column.5: I0 nA
# Column.6: It nA
# Column.7: Ir nA
# ///////////
# Welcome to BMM
# -----------
# energy  requested_energy  measurement_time  xmu  I0  It  Ir
  6339.001  6339.000  0.500  2.388038  150.443  13.8121  0.707224
  6349.011  6349.000  0.500  2.373458  150.666  14.0358  0.728183
  6359.024  6359.000  0.500  2.359327  150.905  14.2581  0.750193
  6369.006  6369.000  0.500  2.345515  151.133  14.4782  0.771544
  6379.051  6379.000  0.500  2.331936  151.359  14.6981  0.793437
  6388.998  6389.000  0.500  2.317868  151.562  14.9263  0.816352
  6399.010  6399.000  0.500  2.304076  151.735  15.1509  0.839877
  6409.011  6409.000  0.500  2.290947  152.172  15.3953  0.864099
  6419.015  6419.000  0.500  2.277143  152.711  15.6646  0.890433
  6429.012  6429.000  0.500  2.263297  152.845  15.8969  0.914974
  6439.014  6439.000  0.500  2.249915  152.985  16.1258  0.939715
  6449.011  6449.000  0.500  2.236581  150.366  16.0626  0.947484
  6459.015  6459.000  0.500  2.223368  152.903  16.5508  0.987681
  6469.014  6469.000  0.500  2.210444  153.474  16.8288  1.015818
  6479.010  6479.000  0.500  2.197354  153.554  17.0593  1.041142
  6489.704  6489.000  0.500  2.184339  153.657  17.2945  1.066511
  6498.979  6499.000  0.500  2.172030  153.895  17.5357  1.089830
  6508.981  6509.000  0.500  2.159639  154.056  17.773  1.110239
  6510.982  6511.000  0.500  2.157591  154.082  17.8124  1.113301
  6512.981  6513.000  0.500  2.155279  154.114  17.8573  1.116431
  6514.991  6515.000  0.500  2.153240  154.115  17.8939  1.117900
  6516.987  6517.000  0.500  2.150963  154.168  17.9408  1.120294
  6518.990  6519.000  0.500  2.148376  154.197  17.9907  1.121753
  6520.996  6521.000  0.500  2.146256  154.239  18.0338  1.121765
  6522.992  6523.000  0.500  2.144151  154.256  18.0737  1.120132
  6524.995  6525.000  0.500  2.142109  154.264  18.1117  1.116752
  6526.994  6527.000  0.500  2.140289  154.287  18.1474  1.110722
  6528.998  6529.000  0.500  2.138798  154.327  18.1791  1.100499
  6529.283  6529.300  0.500  2.138598  154.311  18.1809  1.097850
  6529.586  6529.600  0.500  2.138348  154.302  18.1844  1.095528
  6529.884  6529.900  0.500  2.138830  154.303  18.1757  1.092492
  6530.183  6530.200  0.500  2.138304  154.31  18.1862  1.089721
  6530.483  6530.500  0.500  2.137916  154.308  18.1929  1.086992
  6530.784  6530.800  0.500  2.137355  154.301  18.2023  1.084478
  6531.086  6531.100  0.500  2.137175  154.303  18.2059  1.081150
  6531.385  6531.400  0.500  2.137063  154.313  18.2091  1.076889
  6531.691  6531.700  0.500  2.137330  154.311  18.204  1.072253
  6531.988  6532.000  0.500  2.137392  154.314  18.2031  1.067324
  6532.290  6532.300  0.500  2.136868  154.318  18.2132  1.063069
  6532.586  6532.600  0.500  2.136435  154.323  18.2217  1.058413
  6532.888  6532.900  0.500  2.136249  154.319  18.2246  1.052214
  6533.186  6533.200  0.500  2.136475  154.314  18.22  1.045284
  6533.487  6533.500  0.500  2.136548  154.307  18.2178  1.037222
  6533.791  6533.800  0.500  2.136641  154.313  18.2167  1.028490
  6534.093  6534.100  0.500  2.136760  154.314  18.2147  1.019523
  6534.392  6534.400  0.500  2.136430  154.306  18.2197  1.009078
  6534.694  6534.700  0.500  2.136119  154.308  18.2257  0.996850
  6534.992  6535.000  0.500  2.136301  154.318  18.2235  0.982493
  6535.296  6535.300  0.500  2.136773  154.323  18.2155  0.964564
  6535.594  6535.600  0.500  2.136928  154.318  18.2122  0.944911
  6535.893  6535.900  0.500  2.136713  154.317  18.2159  0.921345
  6536.193  6536.200  0.500  2.137266  154.309  18.2049  0.891585
  6536.493  6536.500  0.500  2.138243  154.317  18.188  0.852597
  6536.791  6536.800  0.500  2.138935  154.317  18.1755  0.802326
  6537.090  6537.100  0.500  2.139813  154.319  18.1598  0.733647
  6537.397  6537.400  0.500  2.140934  154.322  18.1398  0.643053
  6537.695  6537.700  0.500  2.142674  154.316  18.1076  0.535220
  6537.998  6538.000  0.500  2.145538  154.307  18.0547  0.418144
  6538.298  6538.300  0.500  2.150645  154.305  17.9625  0.315080
  6538.598  6538.600  0.500  2.157731  154.327  17.8382  0.239322
  6538.900  6538.900  0.500  2.165624  154.288  17.6935  0.190854
  6539.201  6539.200  0.500  2.172677  154.282  17.5684  0.160635
  6539.499  6539.500  0.500  2.177956  154.287  17.4766  0.140097
  6539.796  6539.800  0.500  2.180625  154.284  17.4296  0.124439
  6540.097  6540.100  0.500  2.180897  154.292  17.4258  0.112093
  6540.394  6540.400  0.500  2.180819  154.297  17.4277  0.102019
  6540.696  6540.700  0.500  2.181899  154.303  17.4095  0.093574
  6540.997  6541.000  0.500  2.184571  154.304  17.3632  0.087045
  6541.299  6541.300  0.500  2.187558  154.303  17.3113  0.082999
  6541.598  6541.600  0.500  2.190819  154.299  17.2545  0.080865
  6541.900  6541.900  0.500  2.193967  154.28  17.1982  0.079963
  6542.199  6542.200  0.500  2.196697  154.282  17.1515  0.079672
  6542.498  6542.500  0.500  2.199407  154.282  17.1051  0.078425
  6542.797  6542.800  0.500  2.202089  154.278  17.0589  0.076005
  6543.098  6543.100  0.500  2.204268  154.276  17.0215  0.072904
  6543.393  6543.400  0.500  2.206723  154.288  16.981  0.069008
  6543.694  6543.700  0.500  2.208970  154.286  16.9427  0.065018
  6543.995  6544.000  0.500  2.211658  154.29  16.8977  0.061623
  6544.294  6544.300  0.500  2.215468  154.289  16.8333  0.058533
  6544.597  6544.600  0.500  2.220307  154.286  16.7518  0.055769
  6544.901  6544.900  0.500  2.226704  154.285  16.6448  0.053942
  6545.199  6545.200  0.500  2.235086  154.287  16.5061  0.052103
  6545.501  6545.500  0.500  2.246181  154.275  16.3227  0.050032
  6545.801  6545.800  0.500  2.260928  154.263  16.0825  0.047383
  6546.098  6546.100  0.500  2.279106  154.264  15.7929  0.044334
  6546.396  6546.400  0.500  2.302025  154.266  15.4352  0.041094
  6546.697  6546.700  0.500  2.327621  154.271  15.0457  0.037653
  6546.994  6547.000  0.500  2.355512  154.275  14.6322  0.034182
  6547.299  6547.300  0.500  2.385898  154.277  14.1945  0.030968
  6547.600  6547.600  0.500  2.416358  154.276  13.7686  0.027825
  6547.900  6547.900  0.500  2.445576  154.282  13.3726  0.024935
  6548.205  6548.200  0.500  2.472202  154.273  13.0204  0.022477
  6548.504  6548.500  0.500  2.497916  154.269  12.6896  0.020312
  6548.800  6548.800  0.500  2.524436  154.279  12.3583  0.018389
  6549.100  6549.100  0.500  2.554582  154.268  11.9904  0.016401
  6549.395  6549.400  0.500  2.586410  154.26  11.6142  0.014774
  6549.697  6549.700  0.500  2.618755  154.27  11.2453  0.013188
  6549.998  6550.000  0.500  2.648454  154.275  10.9166  0.011847
  6550.302  6550.300  0.500  2.675998  154.264  10.6192  0.010709
  6550.601  6550.600  0.500  2.701654  154.255  10.3496  0.009698
  6550.903  6550.900  0.500  2.727575  154.245  10.0842  0.008657
  6551.204  6551.200  0.500  2.754465  154.239  9.816245  0.007958
  6551.501  6551.500  0.500  2.782807  154.24  9.541997  0.007349
  6551.797  6551.800  0.500  2.813778  154.245  9.251324  0.006577
  6552.097  6552.100  0.500  2.845886  154.245  8.958993  0.006035
  6552.398  6552.400  0.500  2.880721  154.243  8.652133  0.005473
  6552.698  6552.700  0.500  2.917779  154.244  8.337454  0.005055
  6553.000  6553.000  0.500  2.956392  154.247  8.021800  0.004545
  6553.302  6553.300  0.500  2.995534  154.241  7.713586  0.004161
  6553.603  6553.600  0.500  3.032437  154.251  7.434578  0.003963
  6553.905  6553.900  0.500  3.065872  154.238  7.189515  0.003690
  6554.204  6554.200  0.500  3.094978  154.229  6.982857  0.003395
  6554.505  6554.500  0.500  3.121043  154.229  6.803201  0.003165
  6554.798  6554.800  0.500  3.143771  154.233  6.650492  0.002968
  6555.100  6555.100  0.500  3.163178  154.253  6.523552  0.002883
  6555.393  6555.400  0.500  3.178510  154.267  6.424844  0.002976
  6555.701  6555.700  0.500  3.189970  154.281  6.352232  0.002888
  6556.001  6556.000  0.500  3.198337  154.289  6.299624  0.002914
  6556.303  6556.300  0.500  3.203950  154.289  6.264373  0.002884
  6556.601  6556.600  0.500  3.207300  154.279  6.243026  0.002948
  6556.903  6556.900  0.500  3.209413  154.272  6.229539  0.003042
  6557.204  6557.200  0.500  3.210977  154.263  6.219440  0.003138
  6557.500  6557.500  0.500  3.212404  154.255  6.210260  0.003259
  6557.804  6557.800  0.500  3.213896  154.265  6.201408  0.003189
  6558.101  6558.100  0.500  3.215346  154.257  6.192100  0.003417
  6558.400  6558.400  0.500  3.215654  154.276  6.190947  0.003449
  6558.699  6558.700  0.500  3.212298  154.281  6.211974  0.003572
  6558.999  6559.000  0.500  3.206098  154.279  6.250512  0.003763
  6559.298  6559.300  0.500  3.197237  154.274  6.305952  0.003815
  6559.604  6559.600  0.500  3.185357  154.28  6.381549  0.003849
  6559.901  6559.900  0.500  3.171899  154.295  6.468629  0.003913
  6560.201  6560.200  0.500  3.157302  154.297  6.563831  0.004130
  6560.500  6560.500  0.500  3.143935  154.288  6.651778  0.004194
  6560.799  6560.800  0.500  3.131952  154.278  6.731548  0.004146
  6561.100  6561.100  0.500  3.121176  154.271  6.804148  0.004269
  6561.397  6561.400  0.500  3.112696  154.205  6.859174  0.004314
  6561.699  6561.700  0.500  3.106267  154.065  6.897150  0.004216
  6561.998  6562.000  0.500  3.102027  153.984  6.922818  0.004286
  6562.303  6562.300  0.500  3.099065  153.964  6.942462  0.004355
  6562.604  6562.600  0.500  3.096425  154.114  6.967595  0.004182
  6562.905  6562.900  0.500  3.094101  154.211  6.988205  0.004240
  6563.205  6563.200  0.500  3.091574  154.251  7.007686  0.004169
  6563.506  6563.500  0.500  3.088811  154.263  7.027601  0.004275
  6563.806  6563.800  0.500  3.085983  154.274  7.048000  0.004311
  6564.005  6564.000  0.500  3.083869  154.291  7.063735  0.004106
  6565.001  6564.990  0.500  3.070576  154.303  7.158802  0.004055
  6566.006  6565.990  0.500  3.052169  154.308  7.292030  0.004271
  6567.031  6567.010  0.500  3.034438  154.308  7.422482  0.004232
  6568.049  6568.060  0.500  3.022101  154.325  7.515429  0.004197
  6569.106  6569.120  0.500  3.016252  154.31  7.558779  0.004316
  6570.192  6570.200  0.500  3.014013  154.332  7.576811  0.004441
  6571.286  6571.300  0.500  3.015195  154.347  7.568594  0.004250
  6572.415  6572.420  0.500  3.017411  154.36  7.552491  0.004397
  6573.554  6573.560  0.500  3.013753  154.36  7.580156  0.004344
  6574.707  6574.710  0.500  3.001210  154.389  7.677264  0.004326
  6575.893  6575.890  0.500  2.978817  154.418  7.852609  0.004423
  6577.080  6577.080  0.500  2.950908  154.445  8.076254  0.004424
  6578.304  6578.300  0.500  2.922668  154.453  8.308008  0.004520
  6579.539  6579.530  0.500  2.895976  154.441  8.532086  0.004409
  6580.786  6580.780  0.500  2.871710  154.453  8.742368  0.004379
  6582.055  6582.050  0.500  2.849618  154.453  8.937643  0.004275
  6583.345  6583.340  0.500  2.832542  154.462  9.092068  0.004268
  6584.655  6584.650  0.500  2.821094  154.478  9.197766  0.004332
  6585.984  6585.980  0.500  2.813649  154.421  9.263045  0.004311
  6587.334  6587.330  0.500  2.809408  154.899  9.331191  0.004402
  6588.704  6588.700  0.500  2.808489  154.965  9.343769  0.004683
  6590.090  6590.080  0.500  2.809313  154.991  9.337638  0.004796
  6591.493  6591.490  0.500  2.813669  155.005  9.297909  0.004995
  6592.918  6592.910  0.500  2.822624  155.026  9.216286  0.005080
  6594.347  6594.350  0.500  2.837703  155.042  9.079261  0.005158
  6595.822  6595.810  0.500  2.856198  155.067  8.914349  0.005240
  6597.298  6597.290  0.500  2.874572  155.082  8.752863  0.005414
  6598.798  6598.790  0.500  2.888519  155.078  8.631424  0.005514
  6600.318  6600.310  0.500  2.901318  155.075  8.521478  0.005576
  6601.858  6601.850  0.500  2.912437  155.079  8.427503  0.005504
  6603.414  6603.410  0.500  2.919343  154.8  8.354429  0.005314
  6604.988  6604.980  0.500  2.921382  155.09  8.353036  0.005272
  6606.587  6606.580  0.500  2.919798  155.12  8.367874  0.005214
  6608.203  6608.190  0.500  2.916069  155.143  8.400374  0.005052
  6609.834  6609.830  0.500  2.910548  155.161  8.447871  0.005014
  6611.493  6611.480  0.500  2.903888  155.189  8.505869  0.004888
  6613.159  6613.150  0.500  2.896099  155.184  8.572091  0.004839
  6614.849  6614.840  0.500  2.887748  155.193  8.644476  0.004764
  6616.557  6616.550  0.500  2.880236  155.183  8.709087  0.004794
  6618.291  6618.280  0.500  2.872670  155.163  8.774091  0.004767
  6620.040  6620.030  0.500  2.867648  155.165  8.818414  0.004845
  6621.795  6621.790  0.500  2.865206  155.165  8.839958  0.004938
  6623.594  6623.580  0.500  2.865602  155.185  8.837615  0.005001
  6625.387  6625.380  0.500  2.869428  155.197  8.804568  0.004897
  6627.220  6627.210  0.500  2.874481  155.21  8.760886  0.005037
  6629.056  6629.050  0.500  2.878615  155.156  8.721700  0.005131
  6630.917  6630.910  0.500  2.879093  155.208  8.720498  0.005357
  6632.801  6632.790  0.500  2.875865  155.216  8.749129  0.005338
  6634.698  6634.690  0.500  2.870765  155.239  8.795136  0.005412
  6636.619  6636.610  0.500  2.865547  155.239  8.841192  0.005183
  6638.561  6638.550  0.500  2.862350  155.24  8.869546  0.005303
  6640.515  6640.510  0.500  2.861445  155.23  8.876971  0.005097
  6642.487  6642.480  0.500  2.861010  155.244  8.881677  0.005061
  6644.491  6644.480  0.500  2.860263  155.258  8.889082  0.005226
  6646.495  6646.490  0.500  2.857891  155.263  8.910518  0.005292
  6648.527  6648.520  0.500  2.852689  155.274  8.957604  0.005439
  6650.591  6650.580  0.500  2.843484  155.275  9.040507  0.005532
  6652.655  6652.650  0.500  2.831240  155.265  9.151272  0.005719
  6654.750  6654.740  0.500  2.817131  155.264  9.281256  0.005876
  6656.862  6656.850  0.500  2.802956  155.281  9.414781  0.005930
  6658.989  6658.980  0.500  2.789268  155.284  9.544742  0.006248
  6661.126  6661.120  0.500  2.776966  155.28  9.662603  0.006465
  6663.305  6663.290  0.500  2.766066  155.284  9.768736  0.006510
  6665.486  6665.480  0.500  2.758881  155.285  9.839285  0.006557
  6667.685  6667.680  0.500  2.755110  155.285  9.876412  0.006444
  6669.907  6669.900  0.500  2.755200  155.288  9.875754  0.006391
  6672.156  6672.150  0.500  2.758223  155.281  9.845509  0.006341
  6674.419  6674.410  0.500  2.762930  155.273  9.798721  0.006118
  6676.700  6676.690  0.500  2.767922  155.258  9.749046  0.005951
  6678.995  6678.990  0.500  2.772813  155.268  9.702054  0.005878
  6681.319  6681.310  0.500  2.777171  155.274  9.660253  0.005988
  6683.651  6683.650  0.500  2.781339  155.282  9.620541  0.006073
  6686.004  6686.000  0.500  2.783266  155.268  9.601213  0.005935
  6688.383  6688.380  0.500  2.783932  155.257  9.594088  0.006084
  6690.782  6690.770  0.500  2.783247  155.251  9.600295  0.006039
  6693.200  6693.190  0.500  2.781059  155.234  9.620318  0.006119
  6695.623  6695.620  0.500  2.777526  155.226  9.653816  0.006323
  6698.076  6698.070  0.500  2.772384  155.212  9.702744  0.006310
  6700.564  6700.550  0.500  2.765751  155.204  9.766785  0.006623
  6703.042  6703.040  0.500  2.758195  155.199  9.840563  0.006801
  6705.557  6705.550  0.500  2.749205  155.183  9.928376  0.006965
  6708.078  6708.070  0.500  2.739709  155.175  10.0226  0.007213
  6710.633  6710.620  0.500  2.730537  155.171  10.1147  0.007247
  6713.200  6713.190  0.500  2.723000  155.164  10.1908  0.007220
  6715.773  6715.770  0.500  2.717726  155.16  10.2444  0.007289
  6718.390  6718.380  0.500  2.714606  155.122  10.2739  0.007214
  6721.011  6721.000  0.500  2.713446  155.111  10.2851  0.007335
  6723.662  6723.650  0.500  2.711968  155.12  10.3009  0.007465
  6726.316  6726.310  0.500  2.709275  155.134  10.3296  0.007429
  6729.000  6728.990  0.500  2.705831  155.1  10.363  0.007404
  6731.700  6731.690  0.500  2.701515  155.066  10.4055  0.007562
  6734.422  6734.410  0.500  2.697675  155.063  10.4454  0.007467
  6737.161  6737.150  0.500  2.695378  155.016  10.4662  0.007492
  6739.907  6739.900  0.500  2.694316  154.986  10.4753  0.007344
  6742.689  6742.680  0.500  2.693164  154.94  10.4843  0.007580
  6745.481  6745.470  0.500  2.691195  154.897  10.502  0.007545
  6748.297  6748.290  0.500  2.688400  154.873  10.5298  0.007776
  6751.133  6751.120  0.500  2.685121  154.862  10.5636  0.007803
  6753.977  6753.970  0.500  2.680493  154.842  10.6112  0.008122
  6756.860  6756.850  0.500  2.674515  154.828  10.6739  0.008080
  6759.755  6759.740  0.500  2.667108  154.809  10.7519  0.008141
  6762.664  6762.650  0.500  2.657781  154.764  10.8495  0.008291
  6765.586  6765.570  0.500  2.648224  154.748  10.9526  0.008343
  6768.530  6768.520  0.500  2.639148  154.716  11.0501  0.008632
  6771.497  6771.490  0.500  2.631485  154.693  11.1335  0.008556
  6774.485  6774.470  0.500  2.624600  154.67  11.2088  0.008707
  6777.491  6777.480  0.500  2.618846  154.649  11.2719  0.008858
  6780.526  6780.500  0.500  2.614066  154.659  11.3266  0.009149
  6783.563  6783.550  0.500  2.610488  154.622  11.3645  0.009290
  6786.624  6786.610  0.500  2.607933  154.623  11.3936  0.009416
  6789.705  6789.690  0.500  2.606070  154.62  11.4147  0.009534
  6792.804  6792.790  0.500  2.604079  154.536  11.4312  0.009664
  6795.922  6795.910  0.500  2.601282  152.074  11.2806  0.009598
  6799.060  6799.050  0.500  2.599329  154.069  11.4509  0.009899
  6802.216  6802.200  0.500  2.596950  154.194  11.4875  0.009865
  6805.410  6805.380  0.500  2.594866  154.226  11.5139  0.009958
  6808.588  6808.570  0.500  2.593069  154.104  11.5255  0.009939
  6811.806  6811.790  0.500  2.590115  144.206  10.8171  0.009379
  6815.035  6815.020  0.500  2.587179  153.799  11.5706  0.010003
  6818.287  6818.270  0.500  2.582336  153.953  11.6384  0.009938
  6821.564  6821.550  0.500  2.577155  153.641  11.6751  0.010093
  6824.850  6824.840  0.500  2.571346  152.732  11.6737  0.010260
  6828.161  6828.150  0.500  2.565153  153.619  11.8144  0.010317
  6831.479  6831.470  0.500  2.558920  153.671  11.8923  0.010496
  6834.831  6834.820  0.500  2.552957  153.655  11.9622  0.010612
  6838.201  6838.190  0.500  2.546937  153.33  12.009  0.010721
  6841.583  6841.570  0.500  2.541349  150.849  11.8809  0.010609
  6844.995  6844.980  0.500  2.536573  153.031  12.1104  0.011058
  6848.409  6848.400  0.500  2.531771  153.141  12.1775  0.011133
  6851.864  6851.850  0.500  2.527040  153.139  12.2351  0.011292
  6855.325  6855.310  0.500  2.522407  153.106  12.2893  0.011349
  6858.804  6858.790  0.500  2.517217  153.082  12.3512  0.011546
  6862.301  6862.290  0.500  2.511982  152.898  12.4012  0.011742
  6865.822  6865.810  0.500  2.506821  153.073  12.4796  0.012016
  6869.356  6869.350  0.500  2.501745  153.049  12.5411  0.012173
  6872.910  6872.900  0.500  2.496941  153.043  12.601  0.012283
  6876.486  6876.480  0.500  2.492610  153.029  12.6545  0.012539
  6880.088  6880.080  0.500  2.488173  152.972  12.7061  0.012679
  6883.706  6883.690  0.500  2.483842  152.899  12.7552  0.012741
  6887.325  6887.320  0.500  2.479423  152.863  12.8087  0.012844
  6890.989  6890.980  0.500  2.475561  152.827  12.8552  0.013001
  6894.659  6894.650  0.500  2.471007  152.755  12.9077  0.013152
  6898.355  6898.340  0.500  2.466141  152.712  12.9671  0.013310
  6902.060  6902.050  0.500  2.461366  152.637  13.0228  0.013415
  6905.794  6905.780  0.500  2.456275  152.56  13.0826  0.013618
  6909.533  6909.520  0.500  2.450449  152.467  13.151  0.013657
  6913.309  6913.290  0.500  2.444309  152.316  13.2189  0.013804
  6917.097  6917.080  0.500  2.438006  152.223  13.2943  0.014056
  6920.893  6920.880  0.500  2.432453  152.069  13.3549  0.014156
  6924.718  6924.710  0.500  2.427513  151.983  13.4134  0.014433
  6928.562  6928.550  0.500  2.422258  151.894  13.4762  0.014508
  6932.422  6932.410  0.500  2.416913  151.806  13.5406  0.014689
  6936.301  6936.290  0.500  2.412176  151.751  13.5999  0.014864
  6940.203  6940.190  0.500  2.407683  151.685  13.6553  0.015041
  6944.120  6944.110  0.500  2.403350  151.587  13.7057  0.015133
  6948.061  6948.050  0.500  2.399203  151.498  13.7545  0.015244
  6952.022  6952.010  0.500  2.394926  151.428  13.8071  0.015503
  6955.994  6955.980  0.500  2.390305  151.362  13.865  0.015685
  6959.992  6959.980  0.500  2.385503  151.28  13.9242  0.015735
  6964.004  6963.990  0.500  2.380676  151.228  13.9868  0.016080
  6968.042  6968.030  0.500  2.375564  151.126  14.049  0.016399
  6972.086  6972.080  0.500  2.370620  151.07  14.1134  0.016583
  6976.166  6976.150  0.500  2.365699  150.953  14.1721  0.016711
  6980.253  6980.240  0.500  2.361105  150.841  14.2267  0.017072
  6984.357  6984.350  0.500  2.356181  150.734  14.2868  0.017239
  6988.481  6988.480  0.500  2.351316  150.638  14.3473  0.017486
  6992.633  6992.630  0.500  2.346390  150.548  14.4095  0.017535
  6996.802  6996.790  0.500  2.341390  150.429  14.4703  0.017700
  7000.985  7000.980  0.500  2.336233  150.325  14.5351  0.018006
  7005.186  7005.180  0.500  2.330465  150.233  14.6102  0.018219
  7009.413  7009.410  0.500  2.325019  150.085  14.6755  0.018411
  7013.653  7013.650  0.500  2.319219  149.969  14.7495  0.018750
  7017.915  7017.910  0.500  2.313211  149.865  14.8281  0.018927
  7022.191  7022.190  0.500  2.307614  149.754  14.9002  0.019177
  7026.496  7026.490  0.500  2.301947  149.636  14.9732  0.019370
  7030.816  7030.810  0.500  2.296663  149.511  15.0399  0.019609
  7035.161  7035.150  0.500  2.291220  149.365  15.1072  0.019883
  7039.520  7039.510  0.500  2.285764  149.24  15.1772  0.020005
  7043.904  7043.890  0.500  2.279982  149.082  15.249  0.020274
  7048.291  7048.280  0.500  2.274864  148.939  15.3126  0.020455
  7052.707  7052.700  0.500  2.269756  148.811  15.3778  0.020820
  7057.135  7057.130  0.500  2.264666  148.683  15.443  0.020959
  7061.588  7061.580  0.500  2.259887  148.56  15.504  0.021217
  7066.065  7066.050  0.500  2.254882  148.406  15.5657  0.021584
  7070.553  7070.540  0.500  2.249819  147.745  15.575  0.021807
  7075.068  7075.050  0.500  2.245176  147.055  15.5744  0.021821
  7079.604  7079.580  0.500  2.240240  147.976  15.7495  0.022273
  7084.144  7084.130  0.500  2.235169  147.685  15.7985  0.022647
  7088.712  7088.700  0.500  2.230121  147.678  15.8776  0.022839
  7093.296  7093.280  0.500  2.224875  147.549  15.9472  0.023044
  7097.903  7097.890  0.500  2.219322  147.397  16.0195  0.023563
  7102.502  7102.510  0.500  2.213653  147.261  16.0957  0.023639
  7107.196  7107.160  0.500  2.207922  147.164  16.1775  0.024080
  7111.820  7111.820  0.500  2.202352  147.313  16.2844  0.024398
  7116.496  7116.500  0.500  2.196812  147.089  16.3499  0.024510
  7121.212  7121.200  0.500  2.191456  146.805  16.406  0.024669
  7125.905  7125.920  0.500  2.186044  146.479  16.4584  0.024824
  7130.656  7130.660  0.500  2.180809  146.068  16.4985  0.025264
  7135.396  7135.410  0.500  2.175559  145.838  16.5591  0.025537
  7140.212  7140.190  0.500  2.170153  145.712  16.6345  0.025807
  7145.028  7144.990  0.500  2.164714  145.617  16.7143  0.026066
  7149.786  7149.800  0.500  2.159424  145.508  16.7904  0.026415
  7154.607  7154.630  0.500  2.154107  145.379  16.8649  0.026710
  7159.523  7159.490  0.500  2.148499  145.202  16.9391  0.027055
  7164.378  7164.360  0.500  2.143734  145.011  16.9977  0.027433
  7169.276  7169.250  0.500  2.138766  144.788  17.0561  0.027653
  7174.179  7174.160  0.500  2.133642  144.603  17.1217  0.028078
  7179.113  7179.090  0.500  2.128372  144.434  17.1921  0.028346
  7184.032  7184.030  0.500  2.123147  144.235  17.2584  0.028728
  7189.006  7189.000  0.500  2.117735  144.07  17.3322  0.028997
  7194.027  7193.990  0.500  2.112022  143.746  17.3923  0.029588
  7199.012  7198.990  0.500  2.106675  143.619  17.47  0.029802
  7204.001  7204.020  0.500  2.101115  143.415  17.5425  0.030199
  7209.038  7209.060  0.500  2.095695  143.187  17.6098  0.030545
  7214.152  7214.120  0.500  2.090009  142.986  17.6854  0.030895
  7219.185  7219.200  0.500  2.084146  142.755  17.7607  0.031129
  7224.284  7224.300  0.500  2.078289  142.521  17.8356  0.031725
  7229.410  7229.420  0.500  2.072584  142.509  17.9362  0.032230
  7234.550  7234.560  0.500  2.066965  142.264  18.0062  0.032705
  7239.711  7239.720  0.500  2.061372  142.075  18.0832  0.032988
  7244.899  7244.900  0.500  2.056040  139.469  17.8464  0.032846
  7250.069  7250.090  0.500  2.050550  141.623  18.2218  0.033703
  7255.296  7255.310  0.500  2.044979  141.337  18.2866  0.034212
  7260.523  7260.540  0.500  2.039949  141.066  18.3435  0.034592
  7265.790  7265.790  0.500  2.034350  140.087  18.3185  0.034737
  7271.038  7271.060  0.500  2.029547  141.382  18.5769  0.035581
  7276.368  7276.350  0.500  2.024793  141.317  18.6568  0.036048
  7281.648  7281.660  0.500  2.018951  141.134  18.7418  0.036433
  7287.005  7286.990  0.500  2.013707  140.781  18.7932  0.036772
  7292.321  7292.340  0.500  2.008352  140.692  18.8822  0.037319
  7297.713  7297.710  0.500  2.003009  140.506  18.9583  0.037775
  7303.075  7303.090  0.500  1.997523  140.504  19.0624  0.038335
  7308.481  7308.500  0.500  1.991987  140.267  19.1359  0.038745
  7313.903  7313.920  0.500  1.986675  140.056  19.2088  0.039249
  7319.357  7319.370  0.500  1.980986  139.887  19.295  0.039802
  7324.821  7324.830  0.500  1.975544  139.689  19.3729  0.040397
  7330.286  7330.310  0.500  1.970013  139.495  19.4533  0.040783
  7335.809  7335.810  0.500  1.964175  139.33  19.544  0.041257
  7341.314  7341.330  0.500  1.958862  139.046  19.6081  0.041734
  7346.880  7346.870  0.500  1.953250  138.898  19.6974  0.042560
  7352.419  7352.420  0.500  1.947710  138.687  19.7768  0.042904
  7357.988  7358.000  0.500  1.942366  138.49  19.8546  0.043404
  7363.583  7363.600  0.500  1.937106  138.273  19.9279  0.043759
  7369.189  7369.210  0.500  1.931653  138.093  20.0109  0.044524
  7374.832  7374.850  0.500  1.925723  137.882  20.0992  0.045148
  7380.479  7380.500  0.500  1.920243  137.673  20.1789  0.045699
  7386.160  7386.170  0.500  1.914752  137.452  20.2575  0.046302
  7391.837  7391.860  0.500  1.909469  137.25  20.3348  0.046762