File: xdidata/Mn/Mn-Braunite.xdi
# XDI/1.0 BlueSky/1.10.0 BMM/2023-1.0-py310-tiled
# Beamline.name: BMM (06BM) -- Beamline for Materials Measurement (NIST)
# Beamline.xray_source: NSLS-II three-pole wiggler
# Beamline.collimation: paraboloid mirror, 5 nm Rh on 30 nm Pt
# Beamline.focusing: not in use
# Beamline.harmonic_rejection: flat mirror, Si stripe, pitch = 7.0 mrad relative to beam
# Beamline.software: Bluesky 1.10.0, Ophyd 1.7.0, DataBroker 2.0.0b13, Python 3.10.8, 2023-1.0-py310-tiled
# Detector.I0: 10 cm N2
# Detector.I1: 25 cm N2
# Detector.I2: 25 cm N2
# Element.symbol: Mn
# Element.edge: K
# Element.reference: Mn
# Element.reference_material: Mn metal powder
# Facility.name: NSLS-II
# Facility.energy: 3.0
# Facility.current: 399.6
# Facility.mode: top-off
# Facility.GUP: 123456
# Facility.SAF: 301027
# Facility.cycle: 2023-2
# Mono.name: Si(111)
# Mono.d_spacing: 3.13519
# Mono.encoder_resolution: 0.0000050 deg/ct
# Mono.angle_offset: 16.0754 deg
# Mono.scan_mode: pseudo channel cut
# Mono.scan_type: step
# Mono.direction: forward in energy
# Sample.name: Mn6O8(SiO4)
# Sample.prep: PEG pellet
# Sample.x: 123.848 mm
# Sample.y: 114.690 mm
# Sample.SDD_position: 205.000 mm
# Scan.experimenters: Bruce Ravel
# Scan.edge_energy: 6539.0
# Scan.start_time: 2023-05-08T11:46:13
# Scan.end_time: 2023-05-08T11:54:10
# Scan.transient_id: 75371
# Scan.uid: 16e80592-699e-4016-84db-69fb0064d1ee
# Scan.plot_hint: ln(I0/It)  --  ln($5/$6)
# Column.1: energy eV
# Column.2: requested_energy eV
# Column.3: measurement_time seconds
# Column.4: xmu
# Column.5: I0 nA
# Column.6: It nA
# Column.7: Ir nA
# ///////////
# Braunite, Manganese Mine, Copper Harbor, Keweenaw Co., Michigan, USA; 0.2x abs. @Mn
# -----------
# energy  requested_energy  measurement_time  xmu  I0  It  Ir
  6338.994  6339.000  0.500  2.079048  150.533  18.824  0.968646
  6349.010  6349.000  0.500  2.066039  150.761  19.0994  0.995892
  6359.026  6359.000  0.500  2.053119  151.001  19.3786  1.023621
  6369.001  6369.000  0.500  2.040645  151.238  19.6526  1.051799
  6379.000  6379.000  0.500  2.028112  151.462  19.9299  1.080873
  6389.005  6389.000  0.500  2.015406  151.671  20.2126  1.110310
  6399.009  6399.000  0.500  2.003064  151.852  20.488  1.140581
  6409.013  6409.000  0.500  1.990808  152.035  20.7657  1.170302
  6419.012  6419.000  0.500  1.978225  152.267  21.0608  1.202111
  6429.016  6429.000  0.500  1.966465  152.402  21.3287  1.232836
  6439.018  6439.000  0.500  1.954621  152.56  21.6053  1.263779
  6449.012  6449.000  0.500  1.942443  149.898  21.4884  1.272488
  6459.008  6459.000  0.500  1.930150  152.447  22.1241  1.325758
  6469.016  6469.000  0.500  1.918208  153.044  22.4776  1.361684
  6479.013  6479.000  0.500  1.906607  153.148  22.7553  1.393794
  6490.632  6489.000  0.500  1.894159  153.131  23.0377  1.426458
  6498.980  6499.000  0.500  1.883147  153.419  23.3366  1.455996
  6508.983  6509.000  0.500  1.872104  153.572  23.6193  1.481938
  6510.986  6511.000  0.500  1.870368  153.579  23.6615  1.484807
  6512.983  6513.000  0.500  1.867796  153.612  23.7275  1.489223
  6514.985  6515.000  0.500  1.865999  153.612  23.7702  1.491571
  6516.989  6517.000  0.500  1.863798  153.672  23.8319  1.494154
  6518.990  6519.000  0.500  1.861568  153.701  23.8896  1.495823
  6520.996  6521.000  0.500  1.859508  153.734  23.944  1.495164
  6522.992  6523.000  0.500  1.858185  153.77  23.9812  1.492455
  6524.997  6525.000  0.500  1.855964  153.765  24.0337  1.488006
  6526.992  6527.000  0.500  1.854166  153.785  24.0801  1.480117
  6528.996  6529.000  0.500  1.852545  153.813  24.1237  1.466070
  6529.283  6529.300  0.500  1.852431  153.81  24.1259  1.463406
  6529.583  6529.600  0.500  1.852135  153.79  24.1299  1.459867
  6529.884  6529.900  0.500  1.852071  153.794  24.132  1.456252
  6530.183  6530.200  0.500  1.851513  153.79  24.145  1.453288
  6530.485  6530.500  0.500  1.851347  153.809  24.1519  1.450195
  6530.784  6530.800  0.500  1.851322  154.226  24.218  1.449154
  6531.088  6531.100  0.500  1.851381  154.379  24.2406  1.446191
  6531.387  6531.400  0.500  1.851255  154.405  24.2477  1.441106
  6531.691  6531.700  0.500  1.850914  154.41  24.2568  1.436290
  6531.988  6532.000  0.500  1.850515  154.422  24.2683  1.430066
  6532.288  6532.300  0.500  1.850210  154.424  24.2761  1.423765
  6532.586  6532.600  0.500  1.850230  154.427  24.276  1.416471
  6532.888  6532.900  0.500  1.850627  154.423  24.2659  1.408340
  6533.188  6533.200  0.500  1.850525  154.43  24.2693  1.398904
  6533.486  6533.500  0.500  1.850327  154.436  24.2751  1.389307
  6533.787  6533.800  0.500  1.850289  154.43  24.2751  1.377657
  6534.087  6534.100  0.500  1.850241  154.423  24.2752  1.366326
  6534.391  6534.400  0.500  1.850012  154.412  24.279  1.351384
  6534.691  6534.700  0.500  1.849786  154.406  24.2836  1.336659
  6534.994  6535.000  0.500  1.849643  154.41  24.2876  1.316840
  6535.294  6535.300  0.500  1.849459  154.398  24.2903  1.295035
  6535.594  6535.600  0.500  1.849665  154.397  24.285  1.268453
  6535.893  6535.900  0.500  1.849773  154.406  24.2839  1.237349
  6536.196  6536.200  0.500  1.850027  154.416  24.2793  1.198745
  6536.493  6536.500  0.500  1.850233  154.408  24.273  1.149312
  6536.795  6536.800  0.500  1.850711  154.418  24.263  1.083592
  6537.091  6537.100  0.500  1.851011  154.419  24.2559  0.995504
  6537.395  6537.400  0.500  1.852152  154.425  24.2291  0.877668
  6537.697  6537.700  0.500  1.853323  154.422  24.2003  0.734955
  6537.998  6538.000  0.500  1.855112  154.426  24.1578  0.580190
  6538.296  6538.300  0.500  1.857968  154.426  24.0889  0.439025
  6538.598  6538.600  0.500  1.862175  154.407  23.9847  0.333539
  6538.899  6538.900  0.500  1.866958  154.407  23.8703  0.265776
  6539.195  6539.200  0.500  1.871621  154.403  23.7586  0.223554
  6539.499  6539.500  0.500  1.875169  154.391  23.6727  0.194720
  6539.794  6539.800  0.500  1.877070  154.405  23.6299  0.173113
  6540.093  6540.100  0.500  1.877590  154.403  23.6172  0.155962
  6540.394  6540.400  0.500  1.877528  154.405  23.619  0.141696
  6540.694  6540.700  0.500  1.878456  154.409  23.5977  0.129816
  6540.995  6541.000  0.500  1.880307  154.401  23.5528  0.120755
  6541.299  6541.300  0.500  1.882572  154.393  23.4984  0.114719
  6541.598  6541.600  0.500  1.884932  154.405  23.4448  0.111487
  6541.900  6541.900  0.500  1.886951  154.396  23.3961  0.110406
  6542.201  6542.200  0.500  1.888858  154.398  23.3518  0.109938
  6542.500  6542.500  0.500  1.891311  154.408  23.2961  0.108684
  6542.801  6542.800  0.500  1.893426  154.4  23.2457  0.105543
  6543.100  6543.100  0.500  1.895772  154.385  23.1889  0.101357
  6543.399  6543.400  0.500  1.898014  154.388  23.1374  0.096013
  6543.699  6543.700  0.500  1.900175  154.392  23.0882  0.090354
  6543.997  6544.000  0.500  1.902444  154.39  23.0356  0.085563
  6544.298  6544.300  0.500  1.905832  154.379  22.956  0.081301
  6544.600  6544.600  0.500  1.910184  154.378  22.8561  0.077870
  6544.901  6544.900  0.500  1.915848  154.387  22.7284  0.075177
  6545.200  6545.200  0.500  1.923083  154.386  22.5644  0.072568
  6545.503  6545.500  0.500  1.932561  154.386  22.3516  0.069805
  6545.801  6545.800  0.500  1.944806  154.375  22.0779  0.066415
  6546.100  6546.100  0.500  1.960720  154.385  21.7308  0.062429
  6546.396  6546.400  0.500  1.979716  154.381  21.3214  0.058125
  6546.695  6546.700  0.500  2.002783  154.377  20.8347  0.053584
  6546.996  6547.000  0.500  2.030320  154.369  20.2676  0.048660
  6547.292  6547.300  0.500  2.060836  154.373  19.659  0.044031
  6547.597  6547.600  0.500  2.094623  154.369  19.0054  0.039318
  6547.898  6547.900  0.500  2.127480  154.365  18.3906  0.035375
  6548.201  6548.200  0.500  2.157930  154.371  17.8398  0.031759
  6548.500  6548.500  0.500  2.185103  154.363  17.3606  0.028648
  6548.802  6548.800  0.500  2.210687  154.354  16.9211  0.025752
  6549.096  6549.100  0.500  2.234601  154.358  16.5217  0.023203
  6549.397  6549.400  0.500  2.257931  154.364  16.1413  0.020959
  6549.701  6549.700  0.500  2.281109  154.351  15.7702  0.018865
  6550.002  6550.000  0.500  2.303194  154.362  15.4268  0.017166
  6550.300  6550.300  0.500  2.325062  154.35  15.092  0.015547
  6550.603  6550.600  0.500  2.348447  154.345  14.7427  0.013987
  6550.901  6550.900  0.500  2.373800  154.349  14.3739  0.012898
  6551.201  6551.200  0.500  2.400922  154.35  13.9894  0.011546
  6551.501  6551.500  0.500  2.430092  154.352  13.5874  0.010643
  6551.800  6551.800  0.500  2.459606  154.353  13.1924  0.009655
  6552.104  6552.100  0.500  2.489136  154.352  12.8084  0.008836
  6552.402  6552.400  0.500  2.519471  154.35  12.4255  0.008003
  6552.696  6552.700  0.500  2.550685  154.337  12.0426  0.007390
  6553.000  6553.000  0.500  2.582831  154.335  11.6615  0.006751
  6553.296  6553.300  0.500  2.613939  154.337  11.3045  0.006189
  6553.603  6553.600  0.500  2.643350  154.342  10.9772  0.005781
  6553.900  6553.900  0.500  2.669156  154.338  10.6973  0.005283
  6554.204  6554.200  0.500  2.693321  154.335  10.4417  0.004999
  6554.504  6554.500  0.500  2.714262  154.332  10.2251  0.004836
  6554.800  6554.800  0.500  2.731580  154.334  10.0496  0.004562
  6555.102  6555.100  0.500  2.745417  154.333  9.911491  0.004574
  6555.399  6555.400  0.500  2.755322  154.341  9.814347  0.004317
  6555.701  6555.700  0.500  2.761604  154.336  9.752540  0.004343
  6555.999  6556.000  0.500  2.764127  154.338  9.728082  0.004280
  6556.303  6556.300  0.500  2.763841  154.335  9.730702  0.004552
  6556.601  6556.600  0.500  2.761604  154.337  9.752586  0.004467
  6556.903  6556.900  0.500  2.757790  154.324  9.789062  0.004545
  6557.200  6557.200  0.500  2.754099  154.317  9.824831  0.004857
  6557.500  6557.500  0.500  2.751593  154.326  9.850017  0.004895
  6557.803  6557.800  0.500  2.750476  154.31  9.860014  0.005172
  6558.099  6558.100  0.500  2.750120  154.317  9.863946  0.005324
  6558.400  6558.400  0.500  2.750133  154.307  9.863227  0.005407
  6558.700  6558.700  0.500  2.750426  154.316  9.860900  0.005581
  6559.003  6559.000  0.500  2.749636  154.328  9.869426  0.005651
  6559.301  6559.300  0.500  2.747337  154.33  9.892291  0.005830
  6559.602  6559.600  0.500  2.742914  154.32  9.935521  0.005964
  6559.901  6559.900  0.500  2.735780  154.325  10.007  0.006135
  6560.201  6560.200  0.500  2.726981  154.326  10.0955  0.006232
  6560.502  6560.500  0.500  2.716380  154.328  10.2032  0.006421
  6560.803  6560.800  0.500  2.704750  154.329  10.3226  0.006497
  6561.102  6561.100  0.500  2.693088  154.321  10.4432  0.006420
  6561.397  6561.400  0.500  2.681251  154.255  10.563  0.006676
  6561.701  6561.700  0.500  2.670998  154.119  10.6624  0.006679
  6562.000  6562.000  0.500  2.662038  154.023  10.7517  0.006550
  6562.306  6562.300  0.500  2.654166  153.996  10.8348  0.006548
  6562.604  6562.600  0.500  2.648251  154.151  10.91  0.006687
  6562.906  6562.900  0.500  2.644081  154.259  10.9633  0.006624
  6563.207  6563.200  0.500  2.641381  154.294  10.9954  0.006590
  6563.505  6563.500  0.500  2.639733  154.308  11.0146  0.006631
  6563.806  6563.800  0.500  2.639388  154.323  11.0195  0.006472
  6564.000  6564.000  0.500  2.639602  154.333  11.0178  0.006479
  6565.002  6564.990  0.500  2.642416  154.354  10.9883  0.006387
  6566.004  6565.990  0.500  2.644871  154.363  10.962  0.006405
  6567.035  6567.010  0.500  2.643654  154.349  10.9744  0.006352
  6568.048  6568.060  0.500  2.639486  154.335  11.0192  0.006244
  6569.110  6569.120  0.500  2.632264  154.36  11.1009  0.006271
  6570.192  6570.200  0.500  2.621718  154.37  11.2193  0.006447
  6571.288  6571.300  0.500  2.608422  154.373  11.3697  0.006437
  6572.417  6572.420  0.500  2.595113  154.384  11.5228  0.006522
  6573.557  6573.560  0.500  2.582071  154.392  11.6747  0.006717
  6574.705  6574.710  0.500  2.569367  154.415  11.8257  0.006694
  6575.892  6575.890  0.500  2.555332  154.426  11.9937  0.006673
  6577.082  6577.080  0.500  2.538266  154.437  12.2011  0.006810
  6578.304  6578.300  0.500  2.518488  154.449  12.4457  0.006614
  6579.536  6579.530  0.500  2.497584  154.453  12.709  0.006555
  6580.782  6580.780  0.500  2.477756  154.466  12.9646  0.006563
  6582.052  6582.050  0.500  2.459888  154.475  13.1991  0.006497
  6583.341  6583.340  0.500  2.444812  154.472  13.3993  0.006408
  6584.650  6584.650  0.500  2.433636  154.487  13.5512  0.006469
  6585.988  6585.980  0.500  2.426655  154.241  13.6243  0.006472
  6587.330  6587.330  0.500  2.423858  154.468  13.6827  0.006524
  6588.702  6588.700  0.500  2.423673  154.491  13.6873  0.006667
  6590.084  6590.080  0.500  2.426008  154.5  13.6561  0.007113
  6591.493  6591.490  0.500  2.431566  154.509  13.5812  0.007286
  6592.916  6592.910  0.500  2.441077  154.526  13.4541  0.007467
  6594.353  6594.350  0.500  2.453649  154.54  13.2873  0.007542
  6595.816  6595.810  0.500  2.468123  154.546  13.0968  0.007657
  6597.298  6597.290  0.500  2.483169  154.563  12.9026  0.007895
  6598.800  6598.790  0.500  2.491324  154.569  12.7983  0.008241
  6600.313  6600.310  0.500  2.495499  154.573  12.7454  0.008272
  6601.861  6601.850  0.500  2.498147  154.569  12.7113  0.008297
  6603.416  6603.410  0.500  2.500250  154.274  12.6604  0.008166
  6604.988  6604.980  0.500  2.500691  154.584  12.6803  0.008047
  6606.581  6606.580  0.500  2.499009  154.59  12.7021  0.007938
  6608.197  6608.190  0.500  2.496038  154.621  12.7425  0.007806
  6609.838  6609.830  0.500  2.492100  154.655  12.7955  0.007754
  6611.489  6611.480  0.500  2.487508  154.651  12.8541  0.007394
  6613.159  6613.150  0.500  2.482386  154.65  12.92  0.007389
  6614.845  6614.840  0.500  2.477764  154.65  12.9799  0.007205
  6616.557  6616.550  0.500  2.474773  154.667  13.0202  0.007324
  6618.287  6618.280  0.500  2.472469  154.643  13.0482  0.007034
  6620.037  6620.030  0.500  2.471608  154.642  13.0594  0.007141
  6621.798  6621.790  0.500  2.472546  154.634  13.0464  0.007198
  6623.590  6623.580  0.500  2.475556  154.651  13.0086  0.007349
  6625.389  6625.380  0.500  2.479671  154.661  12.9561  0.007424
  6627.220  6627.210  0.500  2.483754  154.675  12.9045  0.007559
  6629.059  6629.050  0.500  2.484925  154.61  12.8839  0.007649
  6630.915  6630.910  0.500  2.482939  154.684  12.9157  0.007875
  6632.795  6632.790  0.500  2.478961  154.714  12.9697  0.007977
  6634.701  6634.690  0.500  2.473572  154.715  13.0399  0.007872
  6636.614  6636.610  0.500  2.468188  154.718  13.1106  0.007707
  6638.561  6638.550  0.500  2.462652  154.718  13.1833  0.007744
  6640.522  6640.510  0.500  2.456916  154.693  13.257  0.007641
  6642.488  6642.480  0.500  2.451785  154.71  13.3267  0.007687
  6644.486  6644.480  0.500  2.446449  154.718  13.3987  0.007761
  6646.497  6646.490  0.500  2.440909  154.731  13.4743  0.007998
  6648.527  6648.520  0.500  2.434973  154.726  13.554  0.008150
  6650.589  6650.580  0.500  2.428562  154.737  13.6422  0.008391
  6652.657  6652.650  0.500  2.422125  154.737  13.7302  0.008713
  6654.748  6654.740  0.500  2.415450  155.033  13.8487  0.008891
  6656.858  6656.850  0.500  2.408868  155.234  13.9581  0.009083
  6658.991  6658.980  0.500  2.402816  155.249  14.0443  0.009316
  6661.133  6661.120  0.500  2.396882  155.251  14.128  0.009432
  6663.300  6663.290  0.500  2.391872  155.248  14.1987  0.009466
  6665.488  6665.480  0.500  2.387601  155.244  14.2591  0.009481
  6667.693  6667.680  0.500  2.383490  155.243  14.3177  0.009521
  6669.910  6669.900  0.500  2.381844  155.249  14.3419  0.009406
  6672.154  6672.150  0.500  2.382310  155.239  14.3343  0.009197
  6674.416  6674.410  0.500  2.383331  155.235  14.3193  0.008938
  6676.700  6676.690  0.500  2.384332  155.227  14.3042  0.008876
  6678.997  6678.990  0.500  2.385131  155.225  14.2926  0.008862
  6681.315  6681.310  0.500  2.384919  155.235  14.2966  0.008887
  6683.655  6683.650  0.500  2.384132  155.247  14.309  0.008808
  6686.008  6686.000  0.500  2.382029  155.243  14.3387  0.009024
  6688.385  6688.380  0.500  2.378890  155.231  14.3826  0.009071
  6690.780  6690.770  0.500  2.375593  155.228  14.4299  0.009177
  6693.204  6693.190  0.500  2.371796  155.206  14.4828  0.009372
  6695.630  6695.620  0.500  2.368041  155.214  14.5379  0.009631
  6698.081  6698.070  0.500  2.364379  155.192  14.5892  0.009743
  6700.555  6700.550  0.500  2.360611  155.188  14.644  0.009907
  6703.049  6703.040  0.500  2.357235  155.175  14.6922  0.010167
  6705.557  6705.550  0.500  2.354174  155.153  14.7351  0.010504
  6708.076  6708.070  0.500  2.351197  155.137  14.7776  0.010778
  6710.631  6710.620  0.500  2.347939  155.129  14.8251  0.010728
  6713.204  6713.190  0.500  2.344447  155.125  14.8766  0.010777
  6715.777  6715.770  0.500  2.340708  155.142  14.9339  0.010840
  6718.386  6718.380  0.500  2.337386  155.1  14.9796  0.010909
  6721.011  6721.000  0.500  2.334292  155.077  15.0237  0.010892
  6723.660  6723.650  0.500  2.331420  155.058  15.065  0.010948
  6726.323  6726.310  0.500  2.328913  155.073  15.1043  0.010854
  6728.995  6728.990  0.500  2.325659  155.054  15.1517  0.010978
  6731.695  6731.690  0.500  2.322077  155.026  15.2033  0.010803
  6734.426  6734.410  0.500  2.317463  154.992  15.2703  0.011018
  6737.165  6737.150  0.500  2.312518  154.973  15.3441  0.011093
  6739.912  6739.900  0.500  2.308329  154.954  15.4067  0.011192
  6742.685  6742.680  0.500  2.304546  154.92  15.4617  0.011205
  6745.481  6745.470  0.500  2.300662  154.887  15.5185  0.011232
  6748.303  6748.290  0.500  2.296691  154.865  15.578  0.011519
  6751.133  6751.120  0.500  2.292527  154.837  15.6402  0.011832
  6753.980  6753.970  0.500  2.287668  154.811  15.7138  0.012044
  6756.860  6756.850  0.500  2.282684  154.807  15.7919  0.012150
  6759.751  6759.740  0.500  2.277819  154.788  15.8669  0.012320
  6762.659  6762.650  0.500  2.272820  154.771  15.9447  0.012288
  6765.580  6765.570  0.500  2.267464  154.731  16.0262  0.012181
  6768.530  6768.520  0.500  2.261732  154.722  16.1174  0.012544
  6771.497  6771.490  0.500  2.256145  154.682  16.2035  0.012675
  6774.481  6774.470  0.500  2.250828  154.661  16.2877  0.012779
  6777.497  6777.480  0.500  2.245617  154.639  16.3704  0.013045
  6780.516  6780.500  0.500  2.240921  154.617  16.4451  0.013294
  6783.564  6783.550  0.500  2.237372  154.606  16.5024  0.013715
  6786.624  6786.610  0.500  2.233949  154.605  16.5589  0.013839
  6789.707  6789.690  0.500  2.230535  154.622  16.6173  0.013926
  6792.800  6792.790  0.500  2.227543  154.525  16.6567  0.014253
  6795.924  6795.910  0.500  2.224987  151.929  16.4188  0.014137
  6799.060  6799.050  0.500  2.222428  154.073  16.6932  0.014433
  6802.216  6802.200  0.500  2.220181  154.215  16.7461  0.014569
  6805.396  6805.380  0.500  2.217928  154.228  16.7853  0.014596
  6808.582  6808.570  0.500  2.215635  154.134  16.8136  0.014708
  6811.816  6811.790  0.500  2.211907  143.841  15.7493  0.013836
  6815.037  6815.020  0.500  2.207698  153.79  16.9097  0.014758
  6818.283  6818.270  0.500  2.202741  153.929  17.0091  0.014937
  6821.560  6821.550  0.500  2.197791  153.656  17.0633  0.014905
  6824.854  6824.840  0.500  2.192970  152.647  17.0331  0.014957
  6828.163  6828.150  0.500  2.188430  153.617  17.2193  0.015130
  6831.483  6831.470  0.500  2.183824  153.658  17.3034  0.015455
  6834.833  6834.820  0.500  2.179334  153.652  17.3806  0.015520
  6838.201  6838.190  0.500  2.174852  153.35  17.4244  0.015782
  6841.581  6841.570  0.500  2.170813  150.767  17.2002  0.015663
  6844.999  6844.980  0.500  2.166386  153.038  17.5368  0.016088
  6848.411  6848.400  0.500  2.162244  153.132  17.6204  0.016285
  6851.856  6851.850  0.500  2.157841  153.122  17.697  0.016460
  6855.323  6855.310  0.500  2.153608  153.112  17.7709  0.016662
  6858.808  6858.790  0.500  2.148835  153.097  17.8541  0.016849
  6862.305  6862.290  0.500  2.143899  152.909  17.9205  0.017177
  6865.820  6865.810  0.500  2.138954  153.08  18.0295  0.017414
  6869.360  6869.350  0.500  2.134522  153.063  18.1075  0.017735
  6872.912  6872.900  0.500  2.130354  153.041  18.1805  0.017850
  6876.494  6876.480  0.500  2.126459  153.024  18.2495  0.018273
  6880.094  6880.080  0.500  2.122277  152.954  18.3176  0.018218
  6883.700  6883.690  0.500  2.118452  152.902  18.3814  0.018687
  6887.333  6887.320  0.500  2.114127  152.878  18.4583  0.018819
  6890.993  6890.980  0.500  2.109588  152.827  18.5361  0.018971
  6894.669  6894.650  0.500  2.104650  152.774  18.6213  0.019197
  6898.349  6898.340  0.500  2.099787  152.715  18.7049  0.019434
  6902.060  6902.050  0.500  2.094952  152.654  18.7881  0.019752
  6905.788  6905.780  0.500  2.089915  152.583  18.8741  0.019879
  6909.531  6909.520  0.500  2.085000  152.482  18.9546  0.020030
  6913.303  6913.290  0.500  2.080062  152.31  19.0269  0.020252
  6917.089  6917.080  0.500  2.074976  152.247  19.116  0.020361
  6920.893  6920.880  0.500  2.070687  152.093  19.1788  0.020686
  6924.722  6924.710  0.500  2.066009  151.972  19.2534  0.020930
  6928.556  6928.550  0.500  2.061683  151.884  19.3256  0.021004
  6932.422  6932.410  0.500  2.057148  151.807  19.4036  0.021347
  6936.305  6936.290  0.500  2.053128  151.736  19.4728  0.021418
  6940.201  6940.190  0.500  2.049277  151.661  19.5381  0.021706
  6944.120  6944.110  0.500  2.045510  151.588  19.6025  0.021812
  6948.057  6948.050  0.500  2.041181  151.506  19.6769  0.022152
  6952.022  6952.010  0.500  2.037558  151.415  19.7365  0.022400
  6955.994  6955.980  0.500  2.033560  151.373  19.8099  0.022649
  6959.999  6959.980  0.500  2.029463  151.274  19.8784  0.023024
  6964.006  6963.990  0.500  2.025052  151.192  19.9554  0.023203
  6968.040  6968.030  0.500  2.020540  151.13  20.0374  0.023513
  6972.094  6972.080  0.500  2.015613  151.053  20.1261  0.023735
  6976.153  6976.150  0.500  2.010888  150.975  20.211  0.024213
  6980.240  6980.240  0.500  2.006101  150.852  20.2914  0.024574
  6984.351  6984.350  0.500  2.000934  150.754  20.3832  0.024903
  6988.485  6988.480  0.500  1.996079  150.676  20.4718  0.025056
  6992.629  6992.630  0.500  1.991247  150.6  20.5606  0.025390
  6996.794  6996.790  0.500  1.986619  150.494  20.6415  0.025721
  7000.981  7000.980  0.500  1.981807  150.363  20.7231  0.025931
  7005.180  7005.180  0.500  1.977151  150.263  20.8059  0.026419
  7009.408  7009.410  0.500  1.972152  150.139  20.8929  0.026625
  7013.655  7013.650  0.500  1.967428  150.038  20.9777  0.026951
  7017.913  7017.910  0.500  1.962582  149.951  21.0675  0.027172
  7022.191  7022.190  0.500  1.957935  149.845  21.1505  0.027524
  7026.496  7026.490  0.500  1.953645  149.728  21.2248  0.027788
  7030.818  7030.810  0.500  1.949271  149.608  21.3008  0.028008
  7035.155  7035.150  0.500  1.944490  149.46  21.3818  0.028341
  7039.516  7039.510  0.500  1.940059  149.354  21.4615  0.028649
  7043.895  7043.890  0.500  1.935384  149.26  21.5485  0.029053
  7048.280  7048.280  0.500  1.930743  149.116  21.6278  0.029299
  7052.705  7052.700  0.500  1.925809  149.017  21.7204  0.029630
  7057.137  7057.130  0.500  1.921089  148.93  21.8104  0.029997
  7061.588  7061.580  0.500  1.916281  148.782  21.8938  0.030261
  7066.057  7066.050  0.500  1.911500  148.65  21.9791  0.030684
  7070.549  7070.540  0.500  1.906659  147.937  21.9798  0.031005
  7075.066  7075.050  0.500  1.901937  147.356  21.9972  0.031248
  7079.590  7079.580  0.500  1.897307  148.297  22.2404  0.031947
  7084.140  7084.130  0.500  1.892240  147.996  22.3079  0.032180
  7088.718  7088.700  0.500  1.887075  147.987  22.4222  0.032829
  7093.279  7093.280  0.500  1.882174  147.836  22.5093  0.033143
  7097.890  7097.890  0.500  1.877445  147.764  22.6049  0.033526
  7102.523  7102.510  0.500  1.872953  147.566  22.6764  0.033924
  7107.190  7107.160  0.500  1.868048  147.397  22.7618  0.034257
  7111.844  7111.820  0.500  1.862792  147.116  22.838  0.034492
  7116.146  7116.500  0.500  1.860333  146.916  22.8632  0.034496
  7121.184  7121.200  0.500  1.853831  146.558  22.9563  0.035023
  7125.956  7125.920  0.500  1.849744  146.282  23.0069  0.035245
  7130.690  7130.660  0.500  1.845332  145.852  23.0406  0.035532
  7135.428  7135.410  0.500  1.840467  145.633  23.1183  0.036011
  7140.209  7140.190  0.500  1.835757  145.513  23.2083  0.036247
  7144.976  7144.990  0.500  1.831181  145.436  23.3024  0.036880
  7149.777  7149.800  0.500  1.826324  145.307  23.3951  0.037354
  7154.648  7154.630  0.500  1.821014  145.194  23.5012  0.037573
  7159.478  7159.490  0.500  1.816016  145.044  23.5947  0.038231
  7164.349  7164.360  0.500  1.811395  144.846  23.6717  0.038621
  7169.241  7169.250  0.500  1.806495  144.629  23.7523  0.039130
  7174.148  7174.160  0.500  1.801446  144.437  23.8408  0.039527
  7179.071  7179.090  0.500  1.796386  144.264  23.9329  0.040047
  7184.063  7184.030  0.500  1.791360  144.099  24.0261  0.040423
  7189.037  7189.000  0.500  1.786331  143.933  24.1194  0.041049
  7194.025  7193.990  0.500  1.781399  143.599  24.1824  0.041436
  7199.014  7198.990  0.500  1.776479  143.471  24.2799  0.041920
  7204.032  7204.020  0.500  1.771592  143.259  24.363  0.042452
  7209.066  7209.060  0.500  1.766742  143.037  24.4435  0.042898
  7214.108  7214.120  0.500  1.761923  142.818  24.5238  0.043397
  7219.192  7219.200  0.500  1.756992  142.619  24.6108  0.044066
  7224.279  7224.300  0.500  1.752031  142.397  24.6947  0.044485
  7229.405  7229.420  0.500  1.747432  142.374  24.8046  0.045067
  7234.563  7234.560  0.500  1.742337  142.126  24.8878  0.045632
  7239.711  7239.720  0.500  1.737324  141.929  24.9782  0.046264
  7244.875  7244.900  0.500  1.732757  139.335  24.634  0.045779
  7250.071  7250.090  0.500  1.727710  141.469  25.1378  0.047126
  7255.296  7255.310  0.500  1.722614  141.179  25.2144  0.047769
  7260.523  7260.540  0.500  1.718019  140.937  25.2871  0.048289
  7265.772  7265.790  0.500  1.712986  139.871  25.2224  0.048550
  7271.052  7271.060  0.500  1.708214  141.23  25.5893  0.049659
  7276.335  7276.350  0.500  1.703354  141.183  25.7055  0.050263
  7281.639  7281.660  0.500  1.698438  140.988  25.7964  0.050735
  7286.972  7286.990  0.500  1.693561  140.642  25.8589  0.051222
  7292.328  7292.340  0.500  1.688550  140.561  25.9738  0.051949
  7297.693  7297.710  0.500  1.683752  140.348  26.0593  0.052749
  7303.107  7303.090  0.500  1.678656  140.348  26.1924  0.053369
  7308.481  7308.500  0.500  1.674261  140.148  26.2703  0.053962
  7313.907  7313.920  0.500  1.669490  140.492  26.4608  0.054774
  7319.344  7319.370  0.500  1.664588  140.326  26.5592  0.055438
  7324.809  7324.830  0.500  1.659311  140.11  26.6588  0.056135
  7330.292  7330.310  0.500  1.654254  139.928  26.7591  0.056759
  7335.793  7335.810  0.500  1.649613  139.747  26.8489  0.057379
  7341.362  7341.330  0.500  1.644751  139.459  26.9241  0.058186
  7346.857  7346.870  0.500  1.639909  139.317  27.0271  0.058916
  7352.407  7352.420  0.500  1.635143  139.111  27.1162  0.059485
  7357.991  7358.000  0.500  1.630095  138.925  27.2169  0.060072
  7363.583  7363.600  0.500  1.625078  138.712  27.3118  0.060827
  7369.194  7369.210  0.500  1.620131  138.506  27.4065  0.061724
  7374.834  7374.850  0.500  1.615378  138.288  27.4938  0.062597
  7380.520  7380.500  0.500  1.610316  138.075  27.5908  0.063272
  7386.158  7386.170  0.500  1.605141  137.866  27.6919  0.063842
  7391.853  7391.860  0.500  1.600392  137.678  27.7858  0.064721