File: xdidata/Mn/Mn-K-Pennantite.xdi
# XDI/1.0 BlueSky/1.5.3
# Beamline.name: 6BM
# Beamline.xray_source: NSLS-II three-pole wiggler
# Beamline.collimation: paraboloid mirror, 5 nm Rh on 30 nm Pt
# Beamline.focusing: not in use
# Beamline.harmonic_rejection: flat mirror, Si stripe, pitch = 7.0 mrad relative to beam
# Detector.i0: 10 cm N2
# Detector.i1: 25 cm N2
# Detector.i2: 25 cm N2
# Element.symbol: Mn
# Element.edge: K
# Facility.name: NSLS-II
# Facility.energy: 3.0
# Facility.current: 399.8
# Facility.mode: top-off
# Facility.gup: 305081
# Facility.saf: 305123
# Mono.name: Si(111)
# Mono.d_spacing: 3.13532
# Mono.encoder_resolution: 0.0000050 deg/ct
# Mono.angle_offset: 16.0581 deg
# Mono.scan_mode: fixed exit
# Mono.scan_type: step
# Mono.direction: forward in energy
# Sample.name: Mn9Al6Si5O20(OH)16
# Sample.prep: Powder in polyethylene glycol pellet
# Sample.x_position: -120.140 mm
# Sample.y_position: 112.312 mm
# Scan.experimenters: Neil Hyatt, Martin Stennett, Lucy Mottram
# Scan.edge_energy: 6539.0
# Scan.start_time: 2019-11-11T17:15:46
# Scan.end_time: 2019-11-12T03:18:48
# Scan.transient_id: 17905
# Scan.uid: 9c8bfa9d-e248-4b07-a703-e2380b455f0d
# Scan.plot_hint: ln(I0/It)  --  ln($5/$6)
# Scan.sequence: merge of 3 scans
# Column.1: energy eV
# Column.2: requested_energy eV
# Column.3: measurement_time seconds
# Column.4: mutrans
# Column.5: i0
# Column.6: itrans
# Column.7: irefer
# /////
#  Harstigen Mine, Persberg, Sweden
# -----
# energy   requested_energy   measurement_time   mutrans   i0   itrans   irefer
6339 6339 0.500000 2.048874 89.6305 11.5517 2.650540
6349.02 6349 0.500000 2.036681 89.9516 11.7354 2.711698
6359.01 6359 0.500000 2.024448 90.108 11.9004 2.769296
6369.02 6369 0.500000 2.012417 90.2684 12.0659 2.827020
6379.02 6379 0.500000 2.000270 90.4483 12.2377 2.887011
6389.01 6389 0.500000 1.988352 90.6019 12.4053 2.946609
6399.02 6399 0.500000 1.976524 90.7511 12.5737 3.006915
6409.02 6409 0.500000 1.964743 90.8914 12.7424 3.067355
6419.01 6419 0.500000 1.952955 91.1669 12.9325 3.134474
6429.01 6429 0.500000 1.941235 91.3073 13.1052 3.196963
6439.01 6439 0.500000 1.929519 91.4271 13.277 3.259315
6449.01 6449 0.500000 1.918208 91.387 13.4221 3.317304
6459.01 6459 0.500000 1.906755 91.3664 13.5736 3.376680
6469 6469 0.500000 1.895408 91.773 13.7895 3.451624
6479.01 6479 0.500000 1.883990 91.9322 13.9721 3.519969
6489 6489 0.500000 1.872698 92.0946 14.1557 3.588159
6499 6499 0.500000 1.861540 92.2422 14.3375 3.655839
6508.91 6509 0.500000 1.850461 92.4251 14.5251 3.724357
6510.99 6511 0.500000 1.848303 92.4365 14.5591 3.737319
6512.99 6513 0.500000 1.846203 92.4536 14.5924 3.749867
6515 6515 0.500000 1.844098 92.4778 14.6271 3.762749
6516.99 6517 0.500000 1.841904 92.4982 14.6624 3.774497
6518.99 6519 0.500000 1.839776 92.5274 14.6982 3.787501
6521.36 6521 0.500000 1.837597 92.5762 14.742 3.802235
6523.08 6523 0.500000 1.835461 92.7223 14.7938 3.818283
6524.98 6525 0.500000 1.833167 92.746 14.8266 3.828113
6526.98 6527 0.500000 1.831409 92.753 14.8576 3.836974
6528.98 6529 0.500000 1.829357 92.783 14.8931 3.845767
6529.09 6529.1 0.500000 1.829338 92.7885 14.8943 3.845937
6529.19 6529.2 0.500000 1.829214 92.7855 14.8957 3.846504
6529.29 6529.3 0.500000 1.829108 92.7748 14.8951 3.846244
6529.4 6529.4 0.500000 1.829000 92.7725 14.8969 3.846294
6529.53 6529.5 0.500000 1.828925 92.76 14.8963 3.846017
6529.58 6529.6 0.500000 1.828801 92.7557 14.897 3.846017
6529.68 6529.7 0.500000 1.828667 92.7515 14.8983 3.846050
6529.78 6529.8 0.500000 1.828707 92.742 14.8962 3.845527
6529.89 6529.9 0.500000 1.828524 92.7474 14.8998 3.846469
6529.98 6530 0.500000 1.828394 92.7402 14.9005 3.846440
6530.08 6530.1 0.500000 1.828327 92.7392 14.9015 3.846065
6530.19 6530.2 0.500000 1.828261 92.7348 14.9018 3.846740
6530.29 6530.3 0.500000 1.828163 92.7386 14.9038 3.847174
6530.39 6530.4 0.500000 1.828028 92.7296 14.9044 3.847106
6530.48 6530.5 0.500000 1.827915 92.7261 14.9055 3.846928
6530.58 6530.6 0.500000 1.827840 92.7442 14.9095 3.847612
6530.69 6530.7 0.500000 1.827691 92.7278 14.909 3.846640
6530.79 6530.8 0.500000 1.827612 92.7343 14.9113 3.847859
6530.89 6530.9 0.500000 1.827562 92.7239 14.9103 3.846863
6530.99 6531 0.500000 1.827435 92.7177 14.9113 3.847350
6531.11 6531.1 0.500000 1.827316 92.7265 14.9146 3.847896
6531.2 6531.2 0.500000 1.827274 92.7359 14.9167 3.848170
6531.29 6531.3 0.500000 1.827117 92.7246 14.9171 3.847559
6531.4 6531.4 0.500000 1.827039 92.7187 14.9174 3.847534
6531.49 6531.5 0.500000 1.826910 92.7199 14.9193 3.847340
6531.6 6531.6 0.500000 1.826831 92.7156 14.92 3.847084
6531.7 6531.7 0.500000 1.826836 92.7073 14.9186 3.846653
6531.8 6531.8 0.500000 1.826703 92.7085 14.9207 3.847057
6531.9 6531.9 0.500000 1.826643 92.7119 14.9222 3.847124
6532 6532 0.500000 1.826585 92.7163 14.9239 3.846930
6532.1 6532.1 0.500000 1.826439 92.7214 14.9267 3.847243
6532.2 6532.2 0.500000 1.826354 92.7191 14.9276 3.846290
6532.31 6532.3 0.500000 1.826220 92.713 14.9287 3.846297
6532.4 6532.4 0.500000 1.826144 92.709 14.9292 3.846306
6532.51 6532.5 0.500000 1.826008 92.7123 14.9318 3.846189
6532.6 6532.6 0.500000 1.825985 92.7191 14.9332 3.845778
6532.7 6532.7 0.500000 1.825848 92.7108 14.9339 3.845330
6532.8 6532.8 0.500000 1.825803 92.7069 14.934 3.845077
6532.9 6532.9 0.500000 1.825732 92.7066 14.935 3.844636
6533 6533 0.500000 1.825551 92.7051 14.9374 3.844159
6533.1 6533.1 0.500000 1.825476 92.7005 14.9378 3.844441
6533.2 6533.2 0.500000 1.825400 92.7112 14.9406 3.843846
6533.3 6533.3 0.500000 1.825348 92.7176 14.9424 3.843573
6533.4 6533.4 0.500000 1.825332 92.7207 14.9433 3.843155
6533.5 6533.5 0.500000 1.825208 92.7157 14.9442 3.842371
6533.6 6533.6 0.500000 1.825138 92.7145 14.9451 3.841782
6533.7 6533.7 0.500000 1.824924 92.7006 14.946 3.840357
6533.8 6533.8 0.500000 1.824928 92.706 14.9469 3.840436
6533.9 6533.9 0.500000 1.824769 92.7073 14.9494 3.839246
6534 6534 0.500000 1.824701 92.7113 14.9511 3.838476
6534.1 6534.1 0.500000 1.824574 92.7144 14.9534 3.837599
6534.2 6534.2 0.500000 1.824595 92.7152 14.9533 3.836718
6534.3 6534.3 0.500000 1.824415 92.7193 14.9566 3.836379
6534.4 6534.4 0.500000 1.824418 92.7203 14.9568 3.834602
6534.49 6534.5 0.500000 1.824367 92.7079 14.9555 3.832906
6534.6 6534.6 0.500000 1.824261 92.7104 14.9574 3.831381
6534.7 6534.7 0.500000 1.824175 92.716 14.9597 3.830333
6534.8 6534.8 0.500000 1.824051 92.7027 14.9594 3.828199
6534.9 6534.9 0.500000 1.823989 92.6998 14.9598 3.825878
6535 6535 0.500000 1.823929 92.712 14.9627 3.824501
6535.1 6535.1 0.500000 1.823871 92.7114 14.9635 3.821713
6535.2 6535.2 0.500000 1.823795 92.6994 14.9627 3.819287
6535.3 6535.3 0.500000 1.823735 92.692 14.9624 3.816010
6535.4 6535.4 0.500000 1.823673 92.6922 14.9634 3.812459
6535.5 6535.5 0.500000 1.823628 92.6994 14.9652 3.810019
6535.6 6535.6 0.500000 1.823582 92.6949 14.9652 3.806304
6535.7 6535.7 0.500000 1.823435 92.6998 14.9681 3.802202
6535.8 6535.8 0.500000 1.823414 92.6907 14.967 3.798612
6535.9 6535.9 0.500000 1.823331 92.6828 14.967 3.792233
6536 6536 0.500000 1.823295 92.7006 14.9704 3.787137
6536.1 6536.1 0.500000 1.823196 92.6949 14.971 3.780761
6536.2 6536.2 0.500000 1.823135 92.695 14.9719 3.773937
6536.3 6536.3 0.500000 1.823094 92.7295 14.9781 3.767016
6536.4 6536.4 0.500000 1.823033 92.7949 14.9896 3.761118
6536.5 6536.5 0.500000 1.822980 92.7982 14.991 3.751468
6536.6 6536.6 0.500000 1.822987 92.7946 14.9903 3.738389
6536.7 6536.7 0.500000 1.822978 92.8039 14.9919 3.724443
6536.8 6536.8 0.500000 1.822809 92.8118 14.9956 3.710366
6536.9 6536.9 0.500000 1.822744 92.8043 14.9955 3.690497
6537 6537 0.500000 1.822750 92.8013 14.9949 3.668675
6537.1 6537.1 0.500000 1.822789 92.7978 14.9938 3.644463
6537.2 6537.2 0.500000 1.822803 92.7961 14.9932 3.617307
6537.3 6537.3 0.500000 1.822807 92.7991 14.9937 3.587586
6537.4 6537.4 0.500000 1.822741 92.7949 14.994 3.556892
6537.5 6537.5 0.500000 1.822900 92.7898 14.9908 3.523112
6537.6 6537.6 0.500000 1.822825 92.7723 14.9891 3.488530
6537.69 6537.7 0.500000 1.822853 92.7865 14.991 3.456736
6537.8 6537.8 0.500000 1.823013 92.7862 14.9885 3.422839
6537.9 6537.9 0.500000 1.823122 92.8992 15.0052 3.394549
6537.99 6538 0.500000 1.823288 92.9078 15.0042 3.366685
6538.1 6538.1 0.500000 1.823402 92.901 15.0013 3.338810
6538.2 6538.2 0.500000 1.823597 92.8951 14.9974 3.312561
6538.3 6538.3 0.500000 1.823745 92.8921 14.9948 3.289533
6538.4 6538.4 0.500000 1.823935 92.908 14.9945 3.268427
6538.5 6538.5 0.500000 1.824087 92.9116 14.9927 3.247954
6538.6 6538.6 0.500000 1.824355 92.9053 14.9877 3.229283
6538.7 6538.7 0.500000 1.824508 92.8991 14.9844 3.212565
6538.8 6538.8 0.500000 1.824571 92.9023 14.984 3.196721
6538.9 6538.9 0.500000 1.824629 92.9056 14.9836 3.182894
6539 6539 0.500000 1.824550 92.9 14.9839 3.169794
6539.1 6539.1 0.500000 1.824654 92.9079 14.9836 3.155807
6539.2 6539.2 0.500000 1.824688 92.902 14.9822 3.144071
6539.3 6539.3 0.500000 1.824587 93.0214 15.0028 3.135834
6539.4 6539.4 0.500000 1.824522 93.019 15.0034 3.124536
6539.5 6539.5 0.500000 1.824464 93.0157 15.0038 3.113941
6539.6 6539.6 0.500000 1.824338 93.0089 15.0045 3.104575
6539.7 6539.7 0.500000 1.824171 93.0158 15.0082 3.094374
6539.81 6539.8 0.500000 1.824037 93.0207 15.011 3.085724
6539.9 6539.9 0.500000 1.823859 93.0064 15.0113 3.076521
6540 6540 0.500000 1.823589 93.0082 15.0156 3.068477
6540.1 6540.1 0.500000 1.823320 92.9964 15.0178 3.060789
6540.2 6540.2 0.500000 1.823115 93.0162 15.024 3.053651
6540.3 6540.3 0.500000 1.822934 93.0065 15.0252 3.046360
6540.4 6540.4 0.500000 1.822781 92.9856 15.0242 3.038610
6540.5 6540.5 0.500000 1.822637 93.0034 15.0292 3.033468
6540.6 6540.6 0.500000 1.822555 93.0049 15.0307 3.028084
6540.7 6540.7 0.500000 1.822503 93.0011 15.0308 3.023012
6540.8 6540.8 0.500000 1.822475 93.0134 15.0332 3.019589
6540.9 6540.9 0.500000 1.822448 93.0023 15.0318 3.014734
6541 6541 0.500000 1.822435 93.0046 15.0324 3.011912
6541.1 6541.1 0.500000 1.822491 93.0005 15.0309 3.009182
6541.2 6541.2 0.500000 1.822462 93 15.0313 3.008106
6541.3 6541.3 0.500000 1.822495 92.9998 15.0307 3.006970
6541.39 6541.4 0.500000 1.822626 92.9954 15.0281 3.005377
6541.5 6541.5 0.500000 1.822694 92.9939 15.0268 3.003811
6541.6 6541.6 0.500000 1.822829 92.9834 15.0231 3.002351
6541.7 6541.7 0.500000 1.822914 92.9948 15.0236 3.001831
6541.8 6541.8 0.500000 1.823070 92.9928 15.021 2.999606
6541.9 6541.9 0.500000 1.823282 92.9927 15.0178 2.997802
6542 6542 0.500000 1.823418 92.9838 15.0143 2.994185
6542.1 6542.1 0.500000 1.823720 92.9816 15.0095 2.990695
6542.2 6542.2 0.500000 1.824034 92.9886 15.0058 2.986924
6542.3 6542.3 0.500000 1.824298 92.9868 15.0016 2.982149
6542.4 6542.4 0.500000 1.824665 92.9812 14.9953 2.976155
6542.5 6542.5 0.500000 1.825062 92.9761 14.9882 2.970804
6542.6 6542.6 0.500000 1.825544 92.9655 14.9794 2.962735
6542.7 6542.7 0.500000 1.826104 92.9825 14.974 2.956303
6542.8 6542.8 0.500000 1.826772 92.97 14.9618 2.948696
6542.9 6542.9 0.500000 1.827483 92.98 14.9525 2.940198
6543 6543 0.500000 1.828440 92.975 14.9375 2.931299
6543.1 6543.1 0.500000 1.829293 92.963 14.9227 2.921658
6543.2 6543.2 0.500000 1.830324 92.9635 14.9075 2.912971
6543.3 6543.3 0.500000 1.831499 92.9611 14.8898 2.903413
6543.4 6543.4 0.500000 1.832785 92.9657 14.8712 2.893668
6543.5 6543.5 0.500000 1.834111 92.9571 14.85 2.883555
6543.6 6543.6 0.500000 1.835523 92.957 14.8295 2.874170
6543.7 6543.7 0.500000 1.836967 92.9464 14.8065 2.864333
6543.8 6543.8 0.500000 1.838710 92.9546 14.7814 2.853912
6543.9 6543.9 0.500000 1.840496 92.9549 14.7551 2.842723
6544 6544 0.500000 1.842267 92.9542 14.729 2.832036
6544.1 6544.1 0.500000 1.844228 92.9575 14.7003 2.821727
6544.2 6544.2 0.500000 1.846185 92.9482 14.6713 2.809801
6544.3 6544.3 0.500000 1.848202 92.9475 14.6412 2.798823
6544.4 6544.4 0.500000 1.850122 92.9466 14.6122 2.787867
6544.5 6544.5 0.500000 1.852142 92.9462 14.5826 2.776361
6544.59 6544.6 0.500000 1.854155 92.9376 14.553 2.764805
6544.7 6544.7 0.500000 1.856169 92.9418 14.5237 2.753298
6544.8 6544.8 0.500000 1.858128 92.9383 14.4945 2.741584
6544.9 6544.9 0.500000 1.860002 92.9358 14.468 2.730463
6545 6545 0.500000 1.861935 92.9394 14.44 2.718850
6545.1 6545.1 0.500000 1.863841 92.9359 14.4118 2.706547
6545.19 6545.2 0.500000 1.865788 92.9232 14.3829 2.695151
6545.3 6545.3 0.500000 1.867817 92.9223 14.353 2.682666
6545.4 6545.4 0.500000 1.870024 92.9255 14.3218 2.670054
6545.5 6545.5 0.500000 1.872367 92.9281 14.2887 2.656734
6545.6 6545.6 0.500000 1.874725 92.9206 14.2537 2.643009
6545.7 6545.7 0.500000 1.877310 92.8957 14.2125 2.627604
6545.8 6545.8 0.500000 1.880209 92.9103 14.1744 2.613769
6545.9 6545.9 0.500000 1.883318 92.9065 14.1303 2.598290
6546 6546 0.500000 1.886755 92.9058 14.0807 2.580757
6546.1 6546.1 0.500000 1.890377 92.91 14.0307 2.563899
6546.2 6546.2 0.500000 1.894303 92.8922 13.9735 2.546410
6546.3 6546.3 0.500000 1.898477 92.9008 13.9151 2.527181
6546.4 6546.4 0.500000 1.902911 92.9056 13.8553 2.508418
6546.5 6546.5 0.500000 1.907506 92.9051 13.7923 2.488905
6546.6 6546.6 0.500000 1.912479 92.9107 13.7241 2.468329
6546.7 6546.7 0.500000 1.917631 92.9004 13.6511 2.447395
6546.8 6546.8 0.500000 1.922757 92.8877 13.5818 2.426828
6546.9 6546.9 0.500000 1.928057 92.8944 13.5096 2.406799
6547 6547 0.500000 1.933664 92.8948 13.4335 2.384433
6547.1 6547.1 0.500000 1.938988 92.8888 13.3631 2.364449
6547.2 6547.2 0.500000 1.944547 92.8815 13.2858 2.342504
6547.3 6547.3 0.500000 1.950296 92.8858 13.2103 2.321346
6547.4 6547.4 0.500000 1.955997 92.8911 13.1379 2.301381
6547.5 6547.5 0.500000 1.961654 92.8793 13.0611 2.279531
6547.6 6547.6 0.500000 1.967523 92.8908 12.9851 2.258361
6547.7 6547.7 0.500000 1.973295 92.8932 12.9139 2.238553
6547.8 6547.8 0.500000 1.979034 92.8937 12.8386 2.217978
6547.9 6547.9 0.500000 1.985073 92.8796 12.7589 2.196034
6548 6548 0.500000 1.990811 92.8739 12.6841 2.175496
6548.1 6548.1 0.500000 1.996578 92.8765 12.6125 2.155503
6548.2 6548.2 0.500000 2.002345 92.8816 12.5383 2.134772
6548.3 6548.3 0.500000 2.008129 92.8733 12.4677 2.115190
6548.4 6548.4 0.500000 2.013607 92.8741 12.3985 2.095533
6548.5 6548.5 0.500000 2.019027 92.8392 12.3276 2.076399
6548.6 6548.6 0.500000 2.024228 92.8669 12.2675 2.058827
6548.7 6548.7 0.500000 2.028973 92.8645 12.2093 2.041388
6548.8 6548.8 0.500000 2.033241 92.8595 12.1556 2.024344
6548.9 6548.9 0.500000 2.037163 92.8589 12.1083 2.009782
6549 6549 0.500000 2.040584 92.8433 12.066 1.996372
6549.1 6549.1 0.500000 2.043491 92.8323 12.0285 1.982987
6549.2 6549.2 0.500000 2.046003 92.848 11.9999 1.971285
6549.3 6549.3 0.500000 2.047895 92.9143 11.9869 1.962674
6549.4 6549.4 0.500000 2.049317 92.9282 11.9712 1.953329
6549.51 6549.5 0.500000 2.050211 92.9299 11.9607 1.944415
6549.6 6549.6 0.500000 2.050756 92.9257 11.9539 1.937438
6549.7 6549.7 0.500000 2.050971 92.9329 11.9521 1.930618
6549.81 6549.8 0.500000 2.050955 92.9296 11.9519 1.924071
6549.9 6549.9 0.500000 2.050624 92.9207 11.9546 1.918331
6550 6550 0.500000 2.050049 92.9033 11.9593 1.913250
6550.1 6550.1 0.500000 2.049684 92.9092 11.9645 1.907240
6550.2 6550.2 0.500000 2.048901 92.917 11.9747 1.903792
6550.3 6550.3 0.500000 2.048159 92.9192 11.984 1.898773
6550.4 6550.4 0.500000 2.047238 92.8901 11.9914 1.894770
6550.5 6550.5 0.500000 2.046173 92.8878 12.0035 1.890855
6550.6 6550.6 0.500000 2.045052 92.8847 12.0166 1.887736
6550.7 6550.7 0.500000 2.043960 92.8926 12.0316 1.884446
6550.8 6550.8 0.500000 2.042582 92.8791 12.0456 1.881081
6550.9 6550.9 0.500000 2.041226 92.8618 12.0598 1.878343
6551 6551 0.500000 2.039729 93.0014 12.0964 1.879210
6551.1 6551.1 0.500000 2.037909 92.9962 12.1173 1.877291
6551.2 6551.2 0.500000 2.036234 92.9759 12.1354 1.874813
6551.3 6551.3 0.500000 2.034449 92.9755 12.1567 1.873340
6551.4 6551.4 0.500000 2.032637 92.982 12.1801 1.871814
6551.49 6551.5 0.500000 2.030808 92.9799 12.201 1.869648
6551.6 6551.6 0.500000 2.029219 92.9697 12.22 1.867523
6551.7 6551.7 0.500000 2.027399 92.9576 12.2401 1.866324
6551.8 6551.8 0.500000 2.025768 92.9619 12.2609 1.864742
6551.9 6551.9 0.500000 2.024115 92.9573 12.2808 1.861991
6552 6552 0.500000 2.022486 92.9593 12.3012 1.860990
6552.1 6552.1 0.500000 2.021003 92.9542 12.318 1.858692
6552.2 6552.2 0.500000 2.019677 92.9407 12.3328 1.855921
6552.3 6552.3 0.500000 2.018182 92.9501 12.3529 1.854565
6552.4 6552.4 0.500000 2.016639 93.0483 12.3847 1.855508
6552.5 6552.5 0.500000 2.015248 93.0368 12.4003 1.853633
6552.6 6552.6 0.500000 2.013699 93.0441 12.4211 1.852046
6552.7 6552.7 0.500000 2.012144 93.0472 12.4406 1.851032
6552.8 6552.8 0.500000 2.010472 93.0388 12.4599 1.850134
6552.9 6552.9 0.500000 2.008502 93.0274 12.4837 1.849603
6553.01 6553 0.500000 2.006488 93.0214 12.5077 1.850255
6553.1 6553.1 0.500000 2.004371 93.0313 12.5354 1.850494
6553.2 6553.2 0.500000 2.002089 93.0325 12.5648 1.851286
6553.31 6553.3 0.500000 1.999428 93.0366 12.5989 1.852795
6553.4 6553.4 0.500000 1.996854 93.0251 12.6288 1.853985
6553.5 6553.5 0.500000 1.993945 93.0189 12.6652 1.856440
6553.6 6553.6 0.500000 1.991024 93.0157 12.7024 1.859225
6553.7 6553.7 0.500000 1.988061 93.0175 12.7403 1.862176
6553.8 6553.8 0.500000 1.984946 93.0213 12.7795 1.866152
6553.9 6553.9 0.500000 1.981820 93.022 12.8208 1.869711
6554 6554 0.500000 1.978923 93.0184 12.8559 1.873765
6554.1 6554.1 0.500000 1.976026 93.008 12.8926 1.876904
6554.2 6554.2 0.500000 1.973194 93.0153 12.9312 1.881497
6554.3 6554.3 0.500000 1.970520 93.0122 12.9643 1.884968
6554.4 6554.4 0.500000 1.968096 93.0137 12.9963 1.889026
6554.5 6554.5 0.500000 1.965761 93.0178 13.0275 1.892532
6554.6 6554.6 0.500000 1.963562 93.0233 13.0565 1.896643
6554.7 6554.7 0.500000 1.961533 93.0039 13.0805 1.899885
6554.8 6554.8 0.500000 1.959544 92.9933 13.1054 1.903342
6554.9 6554.9 0.500000 1.957897 93.0173 13.1302 1.907049
6554.99 6555 0.500000 1.956346 93.0168 13.1499 1.910468
6555.1 6555.1 0.500000 1.954839 93.014 13.1697 1.913840
6555.19 6555.2 0.500000 1.953449 93.0028 13.1859 1.917528
6555.29 6555.3 0.500000 1.952281 92.9901 13.1996 1.919982
6555.4 6555.4 0.500000 1.951193 92.9965 13.2153 1.924807
6555.5 6555.5 0.500000 1.950091 93.0076 13.2313 1.928043
6555.6 6555.6 0.500000 1.949211 93.0024 13.2422 1.931754
6555.7 6555.7 0.500000 1.948202 93.0005 13.2556 1.935450
6555.8 6555.8 0.500000 1.947396 92.9981 13.2658 1.939274
6555.9 6555.9 0.500000 1.946657 92.9759 13.2724 1.942941
6556 6556 0.500000 1.945892 92.9843 13.2838 1.946417
6556.1 6556.1 0.500000 1.945268 92.9862 13.2924 1.951278
6556.2 6556.2 0.500000 1.944726 92.9956 13.3007 1.954581
6556.3 6556.3 0.500000 1.944104 92.9876 13.308 1.958048
6556.4 6556.4 0.500000 1.943601 92.9942 13.3157 1.962885
6556.5 6556.5 0.500000 1.943188 92.9816 13.3192 1.966332
6556.6 6556.6 0.500000 1.942741 92.9753 13.3244 1.969455
6556.7 6556.7 0.500000 1.942466 92.9675 13.327 1.973489
6556.8 6556.8 0.500000 1.942290 92.9775 13.3307 1.977423
6556.9 6556.9 0.500000 1.942263 92.9686 13.3298 1.980579
6557.01 6557 0.500000 1.942265 92.9726 13.3304 1.984159
6557.1 6557.1 0.500000 1.942304 92.9776 13.3305 1.987528
6557.2 6557.2 0.500000 1.942629 92.9837 13.3271 1.989899
6557.3 6557.3 0.500000 1.943012 92.9739 13.3206 1.992276
6557.4 6557.4 0.500000 1.943500 92.9793 13.3149 1.994286
6557.5 6557.5 0.500000 1.944102 92.9656 13.3049 1.995529
6557.6 6557.6 0.500000 1.944772 92.974 13.297 1.997826
6557.7 6557.7 0.500000 1.945551 92.9798 13.2876 1.998776
6557.8 6557.8 0.500000 1.946518 92.9757 13.2741 1.999857
6557.9 6557.9 0.500000 1.947578 92.9691 13.2588 2.000044
6558 6558 0.500000 1.948751 92.9678 13.2434 2.000305
6558.1 6558.1 0.500000 1.949883 92.9677 13.2282 1.999920
6558.2 6558.2 0.500000 1.951237 92.9622 13.2097 1.999419
6558.3 6558.3 0.500000 1.952698 92.9578 13.1898 1.998852
6558.4 6558.4 0.500000 1.954206 92.9503 13.1691 1.996968
6558.5 6558.5 0.500000 1.955646 92.9684 13.1526 1.997120
6558.6 6558.6 0.500000 1.957344 92.9578 13.1285 1.995404
6558.7 6558.7 0.500000 1.958934 92.9687 13.1096 1.993693
6558.8 6558.8 0.500000 1.960543 92.9566 13.0867 1.992428
6558.9 6558.9 0.500000 1.962186 92.9536 13.0653 1.991111
6559 6559 0.500000 1.963819 92.951 13.0435 1.989054
6559.09 6559.1 0.500000 1.965421 92.9568 13.0235 1.987591
6559.2 6559.2 0.500000 1.967184 92.9519 12.9994 1.984947
6559.3 6559.3 0.500000 1.968610 92.9375 12.9789 1.982929
6559.4 6559.4 0.500000 1.970115 92.936 12.9593 1.980350
6559.5 6559.5 0.500000 1.971422 92.9458 12.9436 1.979974
6559.6 6559.6 0.500000 1.972617 92.9523 12.929 1.977923
6559.7 6559.7 0.500000 1.973599 92.9476 12.9158 1.976642
6559.8 6559.8 0.500000 1.974726 92.9316 12.8991 1.975006
6559.9 6559.9 0.500000 1.975633 92.9187 12.8852 1.973357
6560 6560 0.500000 1.976282 92.9078 12.8757 1.972123
6560.1 6560.1 0.500000 1.976886 92.8963 12.8663 1.971297
6560.2 6560.2 0.500000 1.977476 92.8652 12.8541 1.970157
6560.3 6560.3 0.500000 1.977977 92.8417 12.8446 1.969095
6560.4 6560.4 0.500000 1.978201 92.7993 12.836 1.967520
6560.51 6560.5 0.500000 1.978352 92.7787 12.831 1.966533
6560.6 6560.6 0.500000 1.978632 92.7691 12.8262 1.966224
6560.7 6560.7 0.500000 1.978681 92.7404 12.8215 1.965569
6560.8 6560.8 0.500000 1.978763 92.7184 12.8175 1.964408
6560.9 6560.9 0.500000 1.978799 92.7016 12.8147 1.964134
6561 6561 0.500000 1.978846 92.72 12.8166 1.964532
6561.1 6561.1 0.500000 1.978779 92.7622 12.8233 1.964722
6561.2 6561.2 0.500000 1.978686 92.8033 12.8302 1.965362
6561.3 6561.3 0.500000 1.978699 92.841 12.8352 1.966102
6561.4 6561.4 0.500000 1.978466 92.8653 12.8416 1.966944
6561.5 6561.5 0.500000 1.978405 92.8825 12.8447 1.966890
6561.6 6561.6 0.500000 1.978264 92.9113 12.8505 1.967934
6561.7 6561.7 0.500000 1.978112 92.9209 12.8538 1.967299
6561.8 6561.8 0.500000 1.977976 92.9112 12.8541 1.966576
6561.9 6561.9 0.500000 1.977704 92.9116 12.8577 1.966867
6562 6562 0.500000 1.977511 92.9125 12.8603 1.967264
6562.1 6562.1 0.500000 1.977177 92.9065 12.8638 1.966452
6562.19 6562.2 0.500000 1.976862 92.929 12.8709 1.967780
6562.3 6562.3 0.500000 1.976512 92.9276 12.8752 1.967938
6562.4 6562.4 0.500000 1.975951 93.0474 12.8992 1.970823
6562.5 6562.5 0.500000 1.975475 93.0318 12.9032 1.971135
6562.6 6562.6 0.500000 1.974886 93.0343 12.9112 1.972111
6562.7 6562.7 0.500000 1.974187 93.0389 12.9206 1.972827
6562.8 6562.8 0.500000 1.973497 93.0353 12.9293 1.973227
6562.9 6562.9 0.500000 1.972783 93.0337 12.9383 1.973993
6563 6563 0.500000 1.971920 93.034 12.9494 1.975472
6563.1 6563.1 0.500000 1.971279 93.0346 12.9579 1.976225
6563.2 6563.2 0.500000 1.970422 93.0365 12.9694 1.977437
6563.3 6563.3 0.500000 1.969503 93.0499 12.9829 1.978833
6563.4 6563.4 0.500000 1.968707 93.0505 12.9934 1.980124
6563.5 6563.5 0.500000 1.967932 93.0367 13.0018 1.981001
6563.6 6563.6 0.500000 1.966850 93.026 13.014 1.982470
6563.7 6563.7 0.500000 1.966021 93.0383 13.0265 1.984397
6563.8 6563.8 0.500000 1.965091 93.0503 13.0405 1.985502
6563.9 6563.9 0.500000 1.964141 93.0379 13.0507 1.986828
6564 6564 0.500000 1.963157 93.0556 13.0665 1.989538
6564.09 6564.1 0.500000 1.962168 93.0678 13.0808 1.990397
6564.2 6564.2 0.500000 1.961038 93.065 13.0954 1.992842
6564.3 6564.3 0.500000 1.960021 93.1353 13.1185 1.996481
6564.4 6564.4 0.500000 1.958849 93.128 13.1335 1.998154
6564.49 6564.5 0.500000 1.957649 93.1303 13.1485 1.999997
6564.6 6564.6 0.500000 1.956470 93.1384 13.166 2.002615
6564.7 6564.7 0.500000 1.955207 93.1397 13.1823 2.004539
6564.8 6564.8 0.500000 1.953874 93.1264 13.1981 2.006796
6564.9 6564.9 0.500000 1.952463 93.1279 13.2174 2.009553
6565 6565 0.500000 1.951066 93.1179 13.2343 2.011944
6565.1 6565.1 0.500000 1.949720 93.1305 13.254 2.015344
6565.2 6565.2 0.500000 1.948296 93.1356 13.2741 2.017537
6565.3 6565.3 0.500000 1.946819 93.1266 13.2916 2.019973
6565.41 6565.4 0.500000 1.945369 93.1894 13.3209 2.025064
6565.5 6565.5 0.500000 1.943951 93.222 13.3443 2.028639
6565.6 6565.6 0.500000 1.942370 93.2224 13.3649 2.031633
6565.7 6565.7 0.500000 1.940982 93.232 13.3849 2.034443
6565.8 6565.8 0.500000 1.939611 93.2414 13.4046 2.037711
6565.9 6565.9 0.500000 1.938168 93.2264 13.4223 2.039826
6566 6566 0.500000 1.936685 93.2226 13.4411 2.043620
6566.1 6566.1 0.500000 1.935323 93.2172 13.4585 2.045736
6566.2 6566.2 0.500000 1.934095 93.2177 13.4752 2.048003
6566.3 6566.3 0.500000 1.932791 93.229 13.4946 2.051620
6566.4 6566.4 0.500000 1.931579 93.2167 13.5088 2.053434
6566.5 6566.5 0.500000 1.930346 93.2135 13.5251 2.055750
6566.6 6566.6 0.500000 1.929278 93.2025 13.5382 2.058147
6566.7 6566.7 0.500000 1.928183 93.2018 13.5529 2.060237
6566.8 6566.8 0.500000 1.927245 93.2051 13.5658 2.062419
6566.9 6566.9 0.500000 1.926217 93.2167 13.5812 2.065005
6567 6567 0.500000 1.925164 93.2029 13.5938 2.066909
6567.1 6567.1 0.500000 1.924321 93.1915 13.6034 2.068528
6567.2 6567.2 0.500000 1.923334 93.1841 13.6156 2.070495
6567.3 6567.3 0.500000 1.922461 93.1949 13.6294 2.072826
6567.4 6567.4 0.500000 1.921586 93.2097 13.6431 2.075129
6567.5 6567.5 0.500000 1.920806 93.2024 13.653 2.077127
6567.6 6567.6 0.500000 1.919853 93.195 13.6651 2.079239
6567.7 6567.7 0.500000 1.918971 93.1991 13.6777 2.081385
6567.8 6567.8 0.500000 1.918110 93.1827 13.6873 2.083058
6567.9 6567.9 0.500000 1.917156 93.186 13.7004 2.085303
6568 6568 0.500000 1.916296 93.1859 13.7124 2.087151
6568.1 6568.1 0.500000 1.915477 93.1973 13.7255 2.090169
6568.2 6568.2 0.500000 1.914628 93.1967 13.737 2.091422
6568.3 6568.3 0.500000 1.913655 93.1927 13.7496 2.093662
6568.4 6568.4 0.500000 1.912781 93.1845 13.7605 2.095833
6568.5 6568.5 0.500000 1.911810 93.1865 13.7743 2.098418
6568.6 6568.6 0.500000 1.910985 93.1967 13.7873 2.100221
6568.7 6568.7 0.500000 1.910054 93.1947 13.7997 2.102762
6568.8 6568.8 0.500000 1.909237 93.1843 13.8094 2.104899
6568.91 6568.9 0.500000 1.908295 94.8758 14.0749 2.145299
6569 6569 0.700000 1.907413 129.871 19.2806 2.938669
6570.09 6570.08 0.710000 1.897987 132.319 19.8305 3.027006
6571.21 6571.18 0.730000 1.890833 136.075 20.5409 3.138783
6572.28 6572.29 0.740000 1.886994 137.921 20.8984 3.194134
6573.43 6573.43 0.750000 1.885273 139.802 21.2202 3.241329
6574.59 6574.58 0.760000 1.884498 141.716 21.5274 3.282612
6575.77 6575.76 0.780000 1.884977 145.462 22.086 3.359537
6576.96 6576.95 0.790000 1.886490 147.335 22.3366 3.388417
6578.17 6578.16 0.800000 1.888619 149.207 22.5722 3.413329
6579.4 6579.39 0.810000 1.891196 151.093 22.7988 3.438492
6580.65 6580.64 0.830000 1.894505 154.84 23.2868 3.500967
6581.92 6581.91 0.840000 1.899158 156.74 23.4634 3.516477
6583.21 6583.2 0.850000 1.905073 158.594 23.6009 3.529725
6584.52 6584.51 0.860000 1.910436 160.451 23.7495 3.551811
6585.84 6585.83 0.880000 1.913157 164.231 24.2429 3.632641
6587.19 6587.18 0.890000 1.912947 165.851 24.4871 3.686001
6588.55 6588.54 0.900000 1.911726 167.982 24.8319 3.759268
6589.94 6589.93 0.910000 1.912074 169.854 25.0999 3.822786
6591.34 6591.33 0.930000 1.913588 173.645 25.6214 3.921843
6592.76 6592.75 0.940000 1.915327 175.577 25.8614 3.974736
6594.2 6594.19 0.950000 1.917940 177.438 26.0674 4.023690
6595.66 6595.65 0.960000 1.918261 179.327 26.3365 4.084248
6597.14 6597.13 0.980000 1.915190 183.097 26.9727 4.201437
6598.64 6598.63 0.990000 1.910720 185 27.3753 4.279906
6600.15 6600.14 1.000000 1.905160 186.897 27.81 4.356890
6601.69 6601.68 1.010000 1.899880 188.388 28.1804 4.419044
6603.24 6603.24 1.030000 1.896188 192.521 28.905 4.532138
6604.82 6604.81 1.040000 1.893609 194.455 29.2708 4.586399
6606.4 6606.4 1.050000 1.891592 196.339 29.6142 4.634483
6608.02 6608.01 1.060000 1.889672 198.294 29.9666 4.683147
6609.66 6609.65 1.080000 1.887540 202 30.5916 4.771958
6611.31 6611.3 1.090000 1.885432 203.878 30.9414 4.817543
6612.97 6612.97 1.100000 1.883162 205.823 31.3073 4.868054
6614.66 6614.65 1.110000 1.880223 207.684 31.6833 4.921411
6616.37 6616.36 1.130000 1.876976 211.474 32.3665 5.026421
6618.1 6618.09 1.140000 1.873391 213.338 32.7693 5.092061
6619.84 6619.83 1.150000 1.869454 215.182 33.1828 5.161251
6621.61 6621.6 1.160000 1.865378 217.149 33.6227 5.238020
6623.39 6623.38 1.180000 1.861737 220.869 34.3233 5.358613
6625.18 6625.18 1.190000 1.859149 223.05 34.7521 5.437730
6627.01 6627 1.200000 1.857656 224.973 35.1043 5.507550
6628.85 6628.84 1.210000 1.856780 226.621 35.3926 5.567619
6630.71 6630.7 1.230000 1.856228 230.635 36.0393 5.681822
6632.59 6632.58 1.240000 1.855254 232.507 36.3673 5.744072
6634.49 6634.48 1.250000 1.853356 234.361 36.7267 5.808520
6636.41 6636.4 1.260000 1.850887 236.27 37.1176 5.874668
6638.34 6638.33 1.280000 1.848607 240.007 37.7906 5.984556
6640.3 6640.29 1.290000 1.846996 241.912 38.1521 6.046387
6642.27 6642.26 1.300000 1.845695 244.179 38.56 6.118813
6644.27 6644.26 1.310000 1.844312 246.05 38.9092 6.188193
6646.28 6646.27 1.330000 1.842420 249.849 39.585 6.311723
6648.31 6648.3 1.340000 1.840257 251.8 39.9803 6.394890
6650.36 6650.35 1.350000 1.838194 253.618 40.3521 6.472857
6652.42 6652.42 1.360000 1.836697 255.579 40.725 6.550227
6654.52 6654.51 1.380000 1.835681 259.471 41.387 6.674354
6656.62 6656.61 1.390000 1.834559 261.58 41.7701 6.750889
6658.74 6658.74 1.400000 1.832860 263.446 42.1396 6.822200
6660.9 6660.89 1.410000 1.830674 265.41 42.547 6.896086
6663.06 6663.05 1.430000 1.828474 269.204 43.2499 7.014434
6665.24 6665.23 1.440000 1.826248 271.135 43.6571 7.082282
6667.45 6667.44 1.450000 1.823958 273.062 44.0684 7.149841
6669.67 6669.66 1.460000 1.821615 274.983 44.4828 7.216002
6671.9 6671.9 1.480000 1.819450 278.702 45.1819 7.331380
6674.17 6674.16 1.490000 1.817491 280.706 45.5962 7.400655
6676.45 6676.44 1.500000 1.815744 282.536 45.9736 7.466827
6678.74 6678.74 1.510000 1.813958 284.525 46.3798 7.540992
6681.05 6681.05 1.530000 1.811702 288.305 47.1024 7.669112
6683.4 6683.39 1.540000 1.808640 290.162 47.5514 7.755577
6685.74 6685.74 1.550000 1.804993 292.144 48.0506 7.853099
6688.12 6688.12 1.560000 1.801031 294.037 48.554 7.954361
6690.52 6690.51 1.580000 1.797051 297.84 49.3783 8.112492
6692.92 6692.92 1.590000 1.793290 299.719 49.8767 8.219531
6695.35 6695.35 1.600000 1.789713 301.7 50.3862 8.329524
6697.8 6697.8 1.610000 1.786270 303.654 50.8877 8.438956
6700.27 6700.27 1.630000 1.783131 307.351 51.6691 8.594277
6702.76 6702.76 1.640000 1.780591 309.278 52.1252 8.694976
6705.27 6705.27 1.650000 1.778718 311.225 52.5515 8.790522
6707.79 6707.79 1.660000 1.777123 313.1 52.9524 8.879731
6710.34 6710.34 1.680000 1.775496 316.937 53.6887 9.021099
6712.9 6712.9 1.690000 1.773188 318.824 54.1334 9.110689
6715.49 6715.49 1.700000 1.770333 320.777 54.6205 9.205444
6718.09 6718.09 1.710000 1.767392 322.662 55.103 9.299504
6720.71 6720.71 1.730000 1.764646 326.37 55.8899 9.446393
6723.35 6723.35 1.740000 1.762120 328.337 56.3686 9.538710
6726.01 6726.01 1.750000 1.759478 330.218 56.8416 9.629905
6728.7 6728.69 1.760000 1.756436 332.098 57.3396 9.727043
6731.38 6731.39 1.780000 1.753472 335.894 58.1665 9.878887
6734.1 6734.11 1.790000 1.750421 337.723 58.6619 9.976086
6736.85 6736.84 1.800000 1.747373 339.562 59.1618 10.077
6739.6 6739.6 1.810000 1.744336 341.457 59.6728 10.1807
6742.38 6742.37 1.830000 1.741397 345.116 60.4898 10.3413
6745.17 6745.17 1.840000 1.738776 346.971 60.9743 10.4467
6747.98 6747.98 1.850000 1.736412 348.842 61.4483 10.553
6750.81 6750.81 1.860000 1.734028 350.632 61.9112 10.6602
6753.66 6753.66 1.880000 1.731231 354.342 62.7412 10.8322
6756.53 6756.53 1.890000 1.728226 356.14 63.2492 10.9463
6759.42 6759.42 1.900000 1.725154 357.869 63.7517 11.061
6762.32 6762.32 1.910000 1.722411 359.707 64.2554 11.1754
6765.25 6765.25 1.930000 1.719791 363.286 65.065 11.3429
6768.19 6768.2 1.940000 1.717244 365.171 65.5693 11.4569
6771.17 6771.16 1.950000 1.714466 366.897 66.0626 11.5729
6774.13 6774.14 1.960000 1.711408 368.803 66.609 11.6964
6777.15 6777.15 1.980000 1.708091 372.628 67.5236 11.8877
6780.18 6780.17 1.990000 1.704710 374.468 68.0872 12.0183
6783.21 6783.21 2.000000 1.701084 376.339 68.6754 12.1552
6786.27 6786.27 2.010000 1.697209 377.996 69.2458 12.2885
6789.35 6789.35 2.030000 1.693396 381.786 70.2075 12.4874
6792.45 6792.45 2.040000 1.689388 380.727 70.2938 12.5322
6795.56 6795.56 2.050000 1.686346 384.345 71.1783 12.7187
6798.7 6798.7 2.060000 1.683192 387.407 71.9715 12.8869
6801.85 6801.85 2.080000 1.680260 391.208 72.8911 13.0766
6805.04 6805.03 2.090000 1.677213 393.102 73.4679 13.2035
6808.22 6808.22 2.100000 1.674182 395.142 74.0729 13.3353
6811.43 6811.43 2.110000 1.670578 372.181 70.0203 12.6272
6814.66 6814.66 2.130000 1.667980 398.838 75.2305 13.5898
6817.92 6817.92 2.140000 1.664691 401.878 76.0535 13.7648
6821.18 6821.18 2.150000 1.660397 390.463 74.2116 13.4561
6824.48 6824.47 2.160000 1.658347 402.916 76.7362 13.945
6827.78 6827.78 2.180000 1.655234 407.661 77.8809 14.184
6831.11 6831.11 2.190000 1.652162 409.679 78.5075 14.3325
6834.45 6834.45 2.200000 1.649323 411.425 79.0661 14.4687
6837.82 6837.82 2.210000 1.646279 412.53 79.5197 14.5901
6841.2 6841.2 2.230000 1.643772 407.409 78.7305 14.482
6844.6 6844.6 2.240000 1.640013 417.418 80.968 14.9325
6848.03 6848.03 2.250000 1.636627 419.357 81.62 15.0911
6851.47 6851.47 2.260000 1.633045 420.959 82.2258 15.2424
6854.93 6854.93 2.280000 1.629531 424.428 83.1954 15.4638
6858.41 6858.4 2.290000 1.625987 426.141 83.8279 15.6222
6861.9 6861.9 2.300000 1.622489 427.092 84.3093 15.7535
6865.43 6865.42 2.310000 1.618931 429.037 84.9948 15.9219
6868.97 6868.96 2.330000 1.615781 432.948 86.0405 16.1588
6872.52 6872.51 2.340000 1.612361 434.857 86.7156 16.3259
6876.1 6876.09 2.350000 1.609110 436.634 87.3534 16.4881
6879.69 6879.68 2.360000 1.605815 438.452 88.0068 16.6519
6883.3 6883.29 2.380000 1.602335 442.5 89.1291 16.9044
6886.92 6886.92 2.390000 1.598897 444.455 89.8307 17.0771
6890.57 6890.57 2.400000 1.595471 446.207 90.4946 17.244
6894.24 6894.24 2.410000 1.592064 447.871 91.1419 17.4069
6897.93 6897.93 2.430000 1.588516 451.602 92.2279 17.655
6901.64 6901.64 2.440000 1.584861 453.203 92.8938 17.8228
6905.36 6905.36 2.450000 1.581242 455.086 93.618 18.0029
6909.11 6909.11 2.460000 1.577630 456.433 94.2349 18.1613
6912.87 6912.87 2.480000 1.573886 459.846 95.2957 18.4094
6916.66 6916.66 2.490000 1.570255 461.348 95.9548 18.5809
6920.46 6920.46 2.500000 1.566671 462.903 96.6237 18.7561
6924.29 6924.28 2.510000 1.563102 464.56 97.3166 18.9366
6928.12 6928.12 2.530000 1.559488 468.123 98.4177 19.1982
6931.98 6931.98 2.540000 1.555878 469.693 99.105 19.3804
6935.86 6935.86 2.550000 1.552321 471.379 99.8154 19.569
6939.76 6939.76 2.560000 1.548698 472.868 100.494 19.7519
6943.68 6943.68 2.580000 1.544966 476.468 101.638 20.0239
6947.61 6947.61 2.590000 1.541441 478.145 102.356 20.2169
6951.57 6951.57 2.600000 1.537881 480.121 103.146 20.4275
6955.54 6955.54 2.610000 1.534268 481.526 103.822 20.6137
6959.55 6959.54 2.630000 1.530694 485.01 104.948 20.8917
6963.55 6963.55 2.640000 1.527137 487.236 105.805 21.1186
6967.58 6967.58 2.650000 1.523513 488.646 106.497 21.3146
6971.64 6971.63 2.660000 1.519839 490.328 107.257 21.5225
6975.7 6975.7 2.680000 1.516156 493.518 108.353 21.799
6979.79 6979.79 2.690000 1.512345 495.254 109.149 22.021
6983.91 6983.9 2.700000 1.508627 496.847 109.908 22.2295
6988.02 6988.02 2.710000 1.504870 498.894 110.775 22.462
6992.18 6992.17 2.730000 1.501119 502.248 111.94 22.7561
6996.33 6996.33 2.740000 1.497461 503.74 112.684 22.9666
7000.53 7000.52 2.750000 1.493786 505.327 113.455 23.1827
7004.72 7004.72 2.760000 1.490087 506.778 114.202 23.3915
7008.95 7008.94 2.780000 1.486446 510.14 115.379 23.6926
7013.19 7013.18 2.790000 1.482735 511.631 116.147 23.9072
7017.44 7017.44 2.800000 1.478978 512.987 116.893 24.1221
7021.73 7021.72 2.810000 1.475141 514.493 117.687 24.3491
7026.02 7026.02 2.830000 1.471286 517.695 118.876 24.6566
7030.35 7030.34 2.840000 1.467449 519.019 119.639 24.8793
7034.68 7034.67 2.850000 1.463695 520.471 120.425 25.1071
7039.04 7039.03 2.860000 1.459848 521.98 121.239 25.345
7043.4 7043.4 2.880000 1.456044 525.096 122.428 25.6598
7047.8 7047.8 2.890000 1.452239 526.498 123.222 25.8934
7052.21 7052.21 2.900000 1.448488 527.838 124 26.1256
7056.64 7056.64 2.910000 1.444691 529.244 124.804 26.3658
7061.09 7061.09 2.930000 1.440798 530.89 125.68 26.6186
7065.56 7065.56 2.940000 1.437241 534.178 126.909 26.9519
7070.06 7070.05 2.950000 1.433741 531.868 126.804 27.0023
7074.56 7074.56 2.960000 1.430092 532.403 127.395 27.2001
7079.09 7079.08 2.980000 1.426406 540.002 129.691 27.762
7083.64 7083.63 2.990000 1.422838 541.165 130.435 27.9971
7088.19 7088.19 3.000000 1.419440 543.016 131.326 28.2636
7092.78 7092.78 3.010000 1.416289 544.444 132.087 28.5032
7097.38 7097.38 3.030000 1.413433 547.56 133.222 28.8265
7102 7102 3.040000 1.411278 549.178 133.904 29.052
7106.64 7106.64 3.050000 1.410949 550.306 134.224 29.1978
7111.31 7111.3 3.060000 1.426947 550.924 132.241 28.8264
7115.99 7115.98 3.080000 1.446482 553.158 130.187 28.437
7120.69 7120.68 3.090000 1.808529 551.861 90.4271 19.7884
7125.4 7125.4 3.100000 2.279622 542.809 55.5442 12.1618
7130.13 7130.13 3.110000 2.067602 531.873 67.2748 14.7568
7134.89 7134.89 3.130000 2.146383 534.406 62.4764 13.745
7139.67 7139.66 3.140000 2.039806 540.317 70.2666 15.5013
7144.46 7144.46 3.150000 1.899137 543.592 81.3674 18.0019
7149.28 7149.27 3.160000 1.860990 546.803 85.0349 18.866
7154.11 7154.1 3.180000 1.887291 552.425 83.6767 18.6146
7158.95 7158.95 3.190000 1.964850 554.593 77.7452 17.3411
7163.82 7163.82 3.200000 1.995473 555.917 75.5766 16.9032
7168.71 7168.71 3.210000 2.029225 556.867 73.1921 16.4142
7173.62 7173.62 3.230000 2.023968 559.313 73.9005 16.6176
7178.55 7178.54 3.240000 1.988131 560.182 76.7165 17.2974
7183.49 7183.49 3.250000 1.978054 561.224 77.6372 17.5525
7188.45 7188.45 3.260000 1.973813 561.99 78.0736 17.7006
7193.44 7193.44 3.280000 1.953504 565.595 80.1849 18.2277
7198.44 7198.44 3.290000 1.926602 566.82 82.5504 18.8161
7203.47 7203.46 3.300000 1.921765 568.864 83.2508 19.0275
7208.51 7208.5 3.310000 1.921072 570.551 83.5558 19.1506
7213.56 7213.56 3.330000 1.915316 573.743 84.5079 19.42
7218.64 7218.64 3.340000 1.918968 574.83 84.3595 19.4406
7223.74 7223.74 3.350000 1.915935 575.454 84.7073 19.5758
7228.86 7228.86 3.360000 1.916346 577.605 84.9892 19.6951
7234 7233.99 3.380000 1.915747 580.252 85.43 19.8513
7239.15 7239.15 3.390000 1.913041 581.182 85.7987 19.9931
7244.32 7244.32 3.400000 1.910469 582.467 86.2099 20.1423
7249.52 7249.52 3.410000 1.911378 582.742 86.1724 20.1885
7254.73 7254.73 3.430000 1.911964 580.604 85.8057 20.1575
7259.96 7259.96 3.440000 1.901183 585.834 87.5171 20.6158
7265.21 7265.21 3.450000 1.884969 585.763 88.9375 21.009
7270.49 7270.48 3.460000 1.871519 591.03 90.9524 21.5437
7275.77 7275.77 3.480000 1.862746 594.504 92.2925 21.9185
7281.08 7281.08 3.490000 1.863230 584.796 90.7417 21.6111