File: xdidata/Mn/Mn-K-Manganite.xdi
# XDI/1.0 BlueSky/1.5.3
# Beamline.name: 6BM
# Beamline.xray_source: NSLS-II three-pole wiggler
# Beamline.collimation: paraboloid mirror, 5 nm Rh on 30 nm Pt
# Beamline.focusing: not in use
# Beamline.harmonic_rejection: flat mirror, Si stripe, pitch = 7.0 mrad relative to beam
# Detector.i0: 10 cm N2
# Detector.i1: 25 cm N2
# Detector.i2: 25 cm N2
# Element.symbol: Mn
# Element.edge: K
# Facility.name: NSLS-II
# Facility.energy: 3.0
# Facility.current: 400.2
# Facility.mode: top-off
# Facility.gup: 305081
# Facility.saf: 305123
# Mono.name: Si(111)
# Mono.d_spacing: 3.13532
# Mono.encoder_resolution: 0.0000050 deg/ct
# Mono.angle_offset: 16.0581 deg
# Mono.scan_mode: fixed exit
# Mono.scan_type: step
# Mono.direction: forward in energy
# Sample.name: MnO(OH)
# Sample.prep: Powder in polyethylene glycol pellet
# Sample.x_position: -120.140 mm
# Sample.y_position: 112.312 mm
# Scan.experimenters: Neil Hyatt, Martin Stennett, Lucy Mottram
# Scan.edge_energy: 6539.0
# Scan.start_time: 2019-11-11T16:55:52
# Scan.end_time: 2019-11-12T02:40:17
# Scan.transient_id: 17904
# Scan.uid: c2dde32e-a877-4e3c-8eec-01e8f3f7e6ed
# Scan.plot_hint: ln(I0/It)  --  ln($5/$6)
# Scan.sequence: merge of 3 scans
# Column.1: energy eV
# Column.2: requested_energy eV
# Column.3: measurement_time seconds
# Column.4: mutrans
# Column.5: i0
# Column.6: itrans
# Column.7: irefer
# /////
#  Ilfeld, Harz, Germany
# -----
# energy   requested_energy   measurement_time   mutrans   i0   itrans   irefer
6339 6339 0.500000 1.937481 89.6885 12.9212 2.961959
6349.02 6349 0.500000 1.925770 89.8547 13.0977 3.023713
6359.01 6359 0.500000 1.914026 90.0281 13.2779 3.086592
6369.02 6369 0.500000 1.902388 90.2943 13.473 3.153227
6379.02 6379 0.500000 1.890785 90.462 13.6556 3.218445
6389.01 6389 0.500000 1.879325 90.6242 13.8377 3.283629
6399.01 6399 0.500000 1.867809 90.7838 14.0226 3.350340
6409.01 6409 0.500000 1.856537 90.9267 14.2039 3.416654
6419.01 6419 0.500000 1.845167 91.0712 14.3892 3.483686
6429.01 6429 0.500000 1.833943 91.2089 14.5736 3.551863
6439.01 6439 0.500000 1.822863 91.3302 14.7555 3.620128
6449.01 6449 0.500000 1.811980 91.3049 14.9129 3.682154
6459.01 6459 0.500000 1.801024 91.2853 15.0739 3.746880
6469.01 6469 0.500000 1.790065 91.7075 15.3105 3.829314
6479.01 6479 0.500000 1.779468 91.8506 15.4978 3.900503
6489.01 6489 0.500000 1.768828 92.0099 15.6906 3.973520
6499 6499 0.500000 1.758576 92.1729 15.8804 4.046264
6509.56 6509 0.500000 1.748678 92.2849 16.0632 4.116193
6510.99 6511 0.500000 1.746848 92.3556 16.0995 4.128989
6512.99 6513 0.500000 1.745039 92.3642 16.1302 4.141950
6514.99 6515 0.500000 1.743249 92.3996 16.1653 4.154827
6516.98 6517 0.500000 1.741536 92.4208 16.1967 4.166759
6518.99 6519 0.500000 1.739817 92.4379 16.2276 4.178072
6521.04 6521 0.500000 1.738173 92.4987 16.2654 4.191321
6523.25 6523 0.500000 1.736612 92.5328 16.2983 4.203020
6524.98 6525 0.500000 1.735307 92.5458 16.3199 4.210195
6526.99 6527 0.500000 1.734069 92.5764 16.3456 4.217900
6528.98 6529 0.500000 1.733062 92.611 16.3682 4.222991
6529.09 6529.1 0.500000 1.733074 92.5963 16.3653 4.222549
6529.19 6529.2 0.500000 1.733054 92.6044 16.3672 4.223229
6529.29 6529.3 0.500000 1.732998 92.5797 16.3637 4.222140
6529.4 6529.4 0.500000 1.732987 92.6005 16.3676 4.222983
6529.5 6529.5 0.500000 1.732908 92.5836 16.3658 4.221370
6529.62 6529.6 0.500000 1.732912 92.5905 16.3671 4.222190
6529.68 6529.7 0.500000 1.732889 92.5892 16.3671 4.222195
6529.78 6529.8 0.500000 1.732796 92.604 16.3713 4.223085
6529.88 6529.9 0.500000 1.732712 92.6833 16.3865 4.227100
6529.98 6530 0.500000 1.732713 92.6757 16.3853 4.226371
6530.09 6530.1 0.500000 1.732655 92.664 16.3842 4.226535
6530.18 6530.2 0.500000 1.732688 92.6707 16.3847 4.226082
6530.29 6530.3 0.500000 1.732630 92.6904 16.3892 4.226757
6530.39 6530.4 0.500000 1.732536 92.6834 16.3895 4.226546
6530.49 6530.5 0.500000 1.732607 92.6805 16.3879 4.226010
6530.59 6530.6 0.500000 1.732530 92.6679 16.3869 4.225226
6530.69 6530.7 0.500000 1.732569 92.6784 16.3881 4.226198
6530.79 6530.8 0.500000 1.732555 92.6927 16.3909 4.226223
6530.91 6530.9 0.500000 1.732561 92.6962 16.3915 4.225906
6531 6531 0.500000 1.732506 92.6847 16.3902 4.225719
6531.1 6531.1 0.500000 1.732563 92.6769 16.388 4.224810
6531.19 6531.2 0.500000 1.732443 92.6859 16.3915 4.225420
6531.3 6531.3 0.500000 1.732512 92.6767 16.3888 4.224441
6531.4 6531.4 0.500000 1.732441 92.6648 16.3878 4.223932
6531.5 6531.5 0.500000 1.732459 92.6613 16.3869 4.223490
6531.6 6531.6 0.500000 1.732493 92.6694 16.3878 4.222297
6531.7 6531.7 0.500000 1.732446 92.6869 16.3916 4.223166
6531.8 6531.8 0.500000 1.732512 92.6695 16.3875 4.221987
6531.9 6531.9 0.500000 1.732381 92.6729 16.3903 4.222462
6532 6532 0.500000 1.732344 92.6702 16.3904 4.222321
6532.1 6532.1 0.500000 1.732357 92.6702 16.3901 4.221399
6532.21 6532.2 0.500000 1.732430 92.6839 16.3914 4.220774
6532.3 6532.3 0.500000 1.732379 92.6697 16.3897 4.219658
6532.4 6532.4 0.500000 1.732392 92.6644 16.3885 4.218928
6532.5 6532.5 0.500000 1.732431 92.6595 16.387 4.218609
6532.6 6532.6 0.500000 1.732499 92.6727 16.3883 4.217802
6532.7 6532.7 0.500000 1.732376 92.6805 16.3917 4.217853
6532.81 6532.8 0.500000 1.732330 92.6732 16.3911 4.217080
6532.9 6532.9 0.500000 1.732440 92.6679 16.3883 4.215995
6533 6533 0.500000 1.732497 92.668 16.3874 4.214884
6533.1 6533.1 0.500000 1.732531 92.6663 16.3866 4.214456
6533.2 6533.2 0.500000 1.732487 92.6564 16.3855 4.212708
6533.3 6533.3 0.500000 1.732539 92.6614 16.3856 4.211756
6533.4 6533.4 0.500000 1.732636 92.6665 16.3849 4.210586
6533.5 6533.5 0.500000 1.732636 92.6615 16.384 4.208933
6533.6 6533.6 0.500000 1.732660 92.6597 16.3833 4.208170
6533.7 6533.7 0.500000 1.732700 92.6652 16.3836 4.207084
6533.8 6533.8 0.500000 1.732818 92.6743 16.3833 4.206445
6533.89 6533.9 0.500000 1.732757 92.676 16.3846 4.205172
6534 6534 0.500000 1.732825 92.6737 16.3831 4.203464
6534.1 6534.1 0.500000 1.732867 92.6614 16.3802 4.201135
6534.2 6534.2 0.500000 1.732951 92.6496 16.3767 4.199010
6534.3 6534.3 0.500000 1.733049 92.6463 16.3746 4.197009
6534.4 6534.4 0.500000 1.733173 92.6571 16.3745 4.195610
6534.5 6534.5 0.500000 1.733175 92.6624 16.3753 4.193136
6534.6 6534.6 0.500000 1.733290 92.6552 16.3722 4.191022
6534.7 6534.7 0.500000 1.733406 92.6453 16.3686 4.188008
6534.8 6534.8 0.500000 1.733412 92.6333 16.3663 4.184536
6534.9 6534.9 0.500000 1.733579 92.6289 16.3629 4.181930
6535 6535 0.500000 1.733659 92.6279 16.3613 4.178943
6535.1 6535.1 0.500000 1.733829 92.6442 16.3615 4.176641
6535.2 6535.2 0.500000 1.733901 92.6371 16.359 4.172654
6535.3 6535.3 0.500000 1.734094 92.6339 16.3553 4.168742
6535.4 6535.4 0.500000 1.734237 92.6277 16.3519 4.164377
6535.5 6535.5 0.500000 1.734308 92.6479 16.3543 4.161224
6535.6 6535.6 0.500000 1.734517 92.6428 16.3499 4.155095
6535.7 6535.7 0.500000 1.734777 92.6235 16.3424 4.149306
6535.8 6535.8 0.500000 1.734970 92.6195 16.3385 4.143596
6535.9 6535.9 0.500000 1.735155 92.6281 16.3369 4.137200
6536 6536 0.500000 1.735314 92.6576 16.3395 4.131001
6536.1 6536.1 0.500000 1.735649 92.7305 16.347 4.126253
6536.2 6536.2 0.500000 1.735899 92.7232 16.3416 4.117020
6536.3 6536.3 0.500000 1.736234 92.7113 16.334 4.106030
6536.4 6536.4 0.500000 1.736515 92.7063 16.3285 4.094575
6536.5 6536.5 0.500000 1.736916 92.7076 16.3221 4.081556
6536.6 6536.6 0.500000 1.737396 92.7195 16.3165 4.067575
6536.7 6536.7 0.500000 1.737859 92.7064 16.3067 4.050391
6536.8 6536.8 0.500000 1.738343 92.6931 16.2966 4.030045
6536.9 6536.9 0.500000 1.738922 92.6972 16.2876 4.007314
6537 6537 0.500000 1.739592 92.6908 16.2759 3.981634
6537.1 6537.1 0.500000 1.740360 92.6829 16.2619 3.951562
6537.2 6537.2 0.500000 1.741267 92.6793 16.2461 3.917666
6537.3 6537.3 0.500000 1.742371 92.8423 16.2574 3.890391
6537.39 6537.4 0.500000 1.743479 92.8366 16.2387 3.852062
6537.5 6537.5 0.500000 1.744998 92.8352 16.2131 3.808523
6537.6 6537.6 0.500000 1.746725 92.8189 16.1825 3.765455
6537.69 6537.7 0.500000 1.748606 92.804 16.1497 3.722605
6537.8 6537.8 0.500000 1.750983 92.814 16.112 3.678246
6537.9 6537.9 0.500000 1.753565 92.8107 16.0704 3.636150
6538 6538 0.500000 1.756534 92.8004 16.0213 3.594282
6538.1 6538.1 0.500000 1.759633 92.8057 15.9725 3.554987
6538.2 6538.2 0.500000 1.763197 92.7883 15.9123 3.514545
6538.29 6538.3 0.500000 1.766630 92.7854 15.86 3.480657
6538.4 6538.4 0.500000 1.770208 92.7849 15.8004 3.444249
6538.5 6538.5 0.500000 1.773763 92.7844 15.7448 3.411716
6538.6 6538.6 0.500000 1.776736 92.7879 15.6991 3.383268
6538.7 6538.7 0.500000 1.779452 92.7845 15.6559 3.356800
6538.8 6538.8 0.500000 1.781707 92.7808 15.6199 3.333377
6538.9 6538.9 0.500000 1.783314 92.7715 15.5934 3.313309
6539 6539 0.500000 1.784340 92.763 15.5761 3.295586
6539.1 6539.1 0.500000 1.784718 92.7555 15.5686 3.279822
6539.2 6539.2 0.500000 1.784711 92.7637 15.57 3.268081
6539.3 6539.3 0.500000 1.784220 92.7594 15.5771 3.256831
6539.4 6539.4 0.500000 1.783543 92.7507 15.5862 3.246651
6539.5 6539.5 0.500000 1.782698 92.7453 15.5983 3.238396
6539.6 6539.6 0.500000 1.781795 92.748 15.6131 3.230930
6539.71 6539.7 0.500000 1.780903 92.7534 15.6279 3.222850
6539.81 6539.8 0.500000 1.780080 92.7409 15.6386 3.214533
6539.9 6539.9 0.500000 1.779531 92.735 15.6459 3.207021
6540 6540 0.500000 1.779178 92.7382 15.6522 3.198907
6540.1 6540.1 0.500000 1.778986 92.7348 15.6546 3.191121
6540.2 6540.2 0.500000 1.779013 92.7327 15.6538 3.182660
6540.3 6540.3 0.500000 1.779465 92.7309 15.6463 3.173193
6540.4 6540.4 0.500000 1.780179 92.7193 15.6332 3.162774
6540.5 6540.5 0.500000 1.781109 92.7086 15.617 3.152594
6540.6 6540.6 0.500000 1.782362 92.717 15.599 3.143714
6540.7 6540.7 0.500000 1.783824 92.7145 15.5755 3.133162
6540.79 6540.8 0.500000 1.785584 92.7173 15.5496 3.123269
6540.9 6540.9 0.500000 1.787440 92.713 15.519 3.113104
6541 6541 0.500000 1.789449 92.7054 15.4864 3.103834
6541.1 6541.1 0.500000 1.791255 92.7055 15.4587 3.096225
6541.2 6541.2 0.500000 1.793010 92.7025 15.4309 3.088840
6541.3 6541.3 0.500000 1.794554 92.6864 15.4046 3.082133
6541.4 6541.4 0.500000 1.795732 92.6946 15.3882 3.078817
6541.5 6541.5 0.500000 1.796915 92.6994 15.3705 3.074161
6541.6 6541.6 0.500000 1.797680 92.6893 15.357 3.070139
6541.7 6541.7 0.500000 1.798178 92.6932 15.3503 3.067583
6541.8 6541.8 0.500000 1.798727 92.6828 15.34 3.064391
6541.9 6541.9 0.500000 1.799107 92.6712 15.3322 3.061172
6542 6542 0.500000 1.799443 92.6873 15.3297 3.058594
6542.1 6542.1 0.500000 1.799774 92.6786 15.3232 3.054404
6542.2 6542.2 0.500000 1.800210 92.7088 15.3215 3.051087
6542.3 6542.3 0.500000 1.800474 92.7892 15.3308 3.048846
6542.4 6542.4 0.500000 1.800834 92.7938 15.3259 3.042993
6542.5 6542.5 0.500000 1.801296 92.8002 15.3199 3.036857
6542.6 6542.6 0.500000 1.801639 92.792 15.3133 3.030896
6542.7 6542.7 0.500000 1.802215 92.7937 15.3047 3.023156
6542.8 6542.8 0.500000 1.802782 92.7958 15.2964 3.015394
6542.9 6542.9 0.500000 1.803397 92.775 15.2836 3.006346
6543 6543 0.500000 1.804058 92.7778 15.2742 2.998748
6543.1 6543.1 0.500000 1.804884 92.7847 15.2623 2.989918
6543.2 6543.2 0.500000 1.805645 92.7881 15.2515 2.981175
6543.3 6543.3 0.500000 1.806604 92.785 15.2365 2.972701
6543.4 6543.4 0.500000 1.807554 92.78 15.2209 2.962678
6543.5 6543.5 0.500000 1.808640 92.7655 15.202 2.953073
6543.6 6543.6 0.500000 1.809800 92.7678 15.1848 2.944794
6543.7 6543.7 0.500000 1.811051 92.7798 15.1677 2.935756
6543.8 6543.8 0.500000 1.812359 92.7818 15.1482 2.926088
6543.9 6543.9 0.500000 1.813794 92.774 15.125 2.915316
6544 6544 0.500000 1.815315 92.7679 15.1012 2.904857
6544.1 6544.1 0.500000 1.816924 92.7686 15.0765 2.895109
6544.2 6544.2 0.500000 1.818590 92.7745 15.0529 2.884942
6544.3 6544.3 0.500000 1.820280 92.7717 15.0277 2.874244
6544.4 6544.4 0.500000 1.822177 92.7596 14.9959 2.862965
6544.5 6544.5 0.500000 1.824162 92.7669 14.9684 2.851469
6544.59 6544.6 0.500000 1.826288 92.7754 14.9382 2.839553
6544.7 6544.7 0.500000 1.828599 92.7663 14.9014 2.826481
6544.8 6544.8 0.500000 1.831025 92.7729 14.8662 2.813121
6544.9 6544.9 0.500000 1.833598 92.7659 14.8274 2.799653
6545 6545 0.500000 1.836368 92.7601 14.7852 2.785662
6545.1 6545.1 0.500000 1.839470 92.7603 14.7398 2.770140
6545.19 6545.2 0.500000 1.842771 92.7598 14.6926 2.754784
6545.3 6545.3 0.500000 1.846469 92.7595 14.6368 2.737866
6545.4 6545.4 0.500000 1.850448 92.7583 14.5781 2.719995
6545.5 6545.5 0.500000 1.854924 92.7621 14.5148 2.701078
6545.6 6545.6 0.500000 1.859624 92.7506 14.4441 2.680970
6545.7 6545.7 0.500000 1.864904 92.7501 14.3679 2.658689
6545.8 6545.8 0.500000 1.870865 92.7523 14.2841 2.636231
6545.9 6545.9 0.500000 1.877303 92.7524 14.1932 2.612149
6546 6546 0.500000 1.884592 92.751 14.0873 2.584986
6546.1 6546.1 0.500000 1.892362 92.7546 13.9803 2.557087
6546.2 6546.2 0.500000 1.900595 92.7401 13.8632 2.528470
6546.31 6546.3 0.500000 1.909961 92.7487 13.7325 2.496534
6546.4 6546.4 0.500000 1.920004 92.7586 13.6017 2.465337
6546.5 6546.5 0.500000 1.930881 92.7605 13.4526 2.430098
6546.6 6546.6 0.500000 1.942623 92.7564 13.2934 2.393630
6546.7 6546.7 0.500000 1.955286 92.7502 13.1247 2.355811
6546.8 6546.8 0.500000 1.967967 92.744 12.9623 2.319406
6546.9 6546.9 0.500000 1.981799 92.7446 12.7765 2.277959
6547 6547 0.500000 1.996870 92.7454 12.5898 2.237882
6547.1 6547.1 0.500000 2.011921 92.7459 12.4069 2.198745
6547.2 6547.2 0.500000 2.027948 92.7366 12.2039 2.155770
6547.3 6547.3 0.500000 2.045145 92.7293 11.9928 2.111053
6547.4 6547.4 0.500000 2.062675 92.7334 11.7876 2.068329
6547.5 6547.5 0.500000 2.080746 92.7311 11.5734 2.023207
6547.6 6547.6 0.500000 2.100273 92.7382 11.3474 1.976888
6547.7 6547.7 0.500000 2.119603 92.7362 11.1379 1.934397
6547.8 6547.8 0.500000 2.139375 92.7379 10.9171 1.888868
6547.9 6547.9 0.500000 2.160139 92.7322 10.6921 1.844107
6548 6548 0.500000 2.180045 92.7367 10.484 1.801581
6548.1 6548.1 0.500000 2.199421 92.7316 10.2796 1.760215
6548.2 6548.2 0.500000 2.219260 92.7313 10.0802 1.719740
6548.3 6548.3 0.500000 2.237488 92.726 9.899866 1.682662
6548.4 6548.4 0.500000 2.254953 92.7169 9.727417 1.647118
6548.5 6548.5 0.500000 2.271567 92.7123 9.564332 1.613859
6548.6 6548.6 0.500000 2.286357 92.7162 9.424232 1.584412
6548.7 6548.7 0.500000 2.299832 92.7194 9.297923 1.557736
6548.8 6548.8 0.500000 2.311853 92.712 9.186389 1.533272
6548.9 6548.9 0.500000 2.322885 92.7031 9.085644 1.511225
6549 6549 0.500000 2.332522 92.7095 8.997580 1.491708
6549.1 6549.1 0.500000 2.341339 92.7933 8.926614 1.474146
6549.2 6549.2 0.500000 2.349540 92.8206 8.856794 1.458120
6549.3 6549.3 0.500000 2.356840 92.8226 8.793184 1.442560
6549.4 6549.4 0.500000 2.363856 92.8077 8.729425 1.427347
6549.51 6549.5 0.500000 2.370440 92.8203 8.672937 1.412752
6549.6 6549.6 0.500000 2.376657 92.817 8.619442 1.400235
6549.7 6549.7 0.500000 2.382992 92.818 8.564717 1.386486
6549.81 6549.8 0.500000 2.389391 92.815 8.509455 1.372725
6549.9 6549.9 0.500000 2.395756 92.8037 8.455506 1.359863
6550 6550 0.500000 2.402265 92.8096 8.400463 1.346769
6550.1 6550.1 0.500000 2.409210 92.815 8.342222 1.333523
6550.2 6550.2 0.500000 2.416017 92.8026 8.285493 1.320306
6550.3 6550.3 0.500000 2.423405 92.9202 8.233765 1.307849
6550.4 6550.4 0.500000 2.430703 92.974 8.177821 1.294900
6550.5 6550.5 0.500000 2.438374 92.9636 8.116043 1.281630
6550.6 6550.6 0.500000 2.445892 92.9691 8.055727 1.268337
6550.7 6550.7 0.500000 2.453929 92.9654 7.989175 1.254697
6550.8 6550.8 0.500000 2.462150 92.952 7.924577 1.241106
6550.9 6550.9 0.500000 2.470025 92.9447 7.861583 1.227895
6551 6551 0.500000 2.478844 92.9574 7.793151 1.214022
6551.1 6551.1 0.500000 2.487739 92.9655 7.725501 1.200088
6551.2 6551.2 0.500000 2.496505 92.954 7.657366 1.186493
6551.3 6551.3 0.500000 2.505557 92.9538 7.588122 1.172425
6551.4 6551.4 0.500000 2.515093 92.959 7.515152 1.158275
6551.49 6551.5 0.500000 2.523867 92.947 7.449688 1.144852
6551.6 6551.6 0.500000 2.533128 92.9338 7.379960 1.131292
6551.7 6551.7 0.500000 2.542275 92.9323 7.311790 1.117692
6551.8 6551.8 0.500000 2.550937 92.9401 7.250398 1.105622
6551.9 6551.9 0.500000 2.558875 92.9307 7.191766 1.093366
6552 6552 0.500000 2.566968 92.9256 7.133074 1.082052
6552.1 6552.1 0.500000 2.573959 92.9296 7.085239 1.072353
6552.2 6552.2 0.500000 2.580755 92.9333 7.037629 1.062326
6552.3 6552.3 0.500000 2.587074 92.9255 6.991210 1.052645
6552.4 6552.4 0.500000 2.592855 92.9188 6.950707 1.043572
6552.5 6552.5 0.500000 2.598174 92.9118 6.913559 1.036371
6552.6 6552.6 0.500000 2.603214 92.9232 6.879755 1.028652
6552.7 6552.7 0.500000 2.607930 92.9198 6.847466 1.021381
6552.8 6552.8 0.500000 2.612473 92.9129 6.815694 1.014696
6552.9 6552.9 0.500000 2.617048 92.9086 6.783853 1.008046
6553 6553 0.500000 2.621600 92.917 6.754069 1.001667
6553.1 6553.1 0.500000 2.625774 92.907 6.725003 0.995665
6553.2 6553.2 0.500000 2.630290 92.8921 6.693210 0.989143
6553.3 6553.3 0.500000 2.634947 92.8958 6.662902 0.982964
6553.4 6553.4 0.500000 2.639540 92.9003 6.632783 0.976688
6553.5 6553.5 0.500000 2.644343 92.9051 6.601354 0.970638
6553.6 6553.6 0.500000 2.649438 92.903 6.566853 0.964057
6553.7 6553.7 0.500000 2.654718 92.8887 6.531850 0.957468
6553.8 6553.8 0.500000 2.660224 92.8869 6.495502 0.951222
6553.9 6553.9 0.500000 2.666101 92.8862 6.457365 0.944570
6554 6554 0.500000 2.671842 92.8897 6.420748 0.938388
6554.1 6554.1 0.500000 2.678271 92.8834 6.379583 0.931929
6554.2 6554.2 0.500000 2.684955 92.8918 6.337800 0.924801
6554.3 6554.3 0.500000 2.691795 92.8922 6.294344 0.917918
6554.4 6554.4 0.500000 2.698779 92.8891 6.250319 0.911262
6554.5 6554.5 0.500000 2.706391 92.8898 6.203306 0.903678
6554.6 6554.6 0.500000 2.714211 92.8857 6.154059 0.896418
6554.69 6554.7 0.500000 2.722047 92.8851 6.106637 0.889599
6554.8 6554.8 0.500000 2.730620 92.8929 6.054361 0.881944
6554.9 6554.9 0.500000 2.738847 92.8906 6.005278 0.874536
6554.99 6555 0.500000 2.747212 92.8919 5.955682 0.868469
6555.1 6555.1 0.500000 2.755976 92.8934 5.902808 0.860424
6555.2 6555.2 0.500000 2.764375 92.9335 5.856944 0.854622
6555.3 6555.3 0.500000 2.772771 93.0049 5.811919 0.848442
6555.4 6555.4 0.500000 2.780846 93.0054 5.765188 0.842138
6555.5 6555.5 0.500000 2.788404 93.0027 5.722154 0.836365
6555.6 6555.6 0.500000 2.795397 93.0086 5.681824 0.831339
6555.7 6555.7 0.500000 2.801974 93.0097 5.644789 0.826687
6555.8 6555.8 0.500000 2.808034 92.9947 5.609377 0.822871
6555.9 6555.9 0.500000 2.813348 92.9991 5.580401 0.819366
6556 6556 0.500000 2.818161 93.0032 5.553749 0.816271
6556.1 6556.1 0.500000 2.822549 93.0127 5.530455 0.814347
6556.2 6556.2 0.500000 2.826348 93.0045 5.508680 0.812016
6556.3 6556.3 0.500000 2.829633 92.9988 5.490138 0.810081
6556.41 6556.4 0.500000 2.832793 92.9938 5.472307 0.809157
6556.5 6556.5 0.500000 2.835581 92.9912 5.457152 0.807941
6556.6 6556.6 0.500000 2.837901 92.9891 5.444405 0.807135
6556.7 6556.7 0.500000 2.840195 92.9861 5.431711 0.807332
6556.8 6556.8 0.500000 2.842443 92.9953 5.420058 0.806300
6556.9 6556.9 0.500000 2.844657 92.9887 5.407763 0.806024
6557 6557 0.500000 2.846720 92.9802 5.396049 0.805666
6557.1 6557.1 0.500000 2.848881 92.9895 5.385017 0.805180
6557.2 6557.2 0.500000 2.850758 92.996 5.375280 0.804909
6557.3 6557.3 0.500000 2.853160 92.9913 5.361872 0.804623
6557.4 6557.4 0.500000 2.855429 92.978 5.348893 0.803583
6557.5 6557.5 0.500000 2.857655 92.9831 5.337508 0.802898
6557.6 6557.6 0.500000 2.860415 92.9744 5.322036 0.801723
6557.7 6557.7 0.500000 2.863027 92.9934 5.309423 0.801007
6557.8 6557.8 0.500000 2.865699 92.9842 5.294731 0.799823
6557.9 6557.9 0.500000 2.868601 92.9731 5.278568 0.798103
6558 6558 0.500000 2.871428 92.98 5.264338 0.797121
6558.1 6558.1 0.500000 2.874216 92.9735 5.249204 0.795549
6558.2 6558.2 0.500000 2.877211 92.9714 5.233443 0.794806
6558.3 6558.3 0.500000 2.880346 92.9645 5.216618 0.792557
6558.4 6558.4 0.500000 2.883250 92.9576 5.201169 0.791184
6558.5 6558.5 0.500000 2.886326 92.9626 5.185741 0.789562
6558.6 6558.6 0.500000 2.889109 92.9464 5.170208 0.788095
6558.7 6558.7 0.500000 2.891932 92.9523 5.156059 0.786319
6558.8 6558.8 0.500000 2.894227 92.962 5.144682 0.785444
6558.9 6558.9 0.500000 2.896404 92.9555 5.133359 0.784330
6559 6559 0.500000 2.898084 92.967 5.125385 0.783758
6559.09 6559.1 0.500000 2.899514 92.9615 5.117877 0.782884
6559.2 6559.2 0.500000 2.900410 92.9505 5.112373 0.782593
6559.3 6559.3 0.500000 2.900751 92.9526 5.110714 0.782909
6559.4 6559.4 0.500000 2.900572 92.9468 5.111303 0.782990
6559.5 6559.5 0.500000 2.899681 92.9434 5.115725 0.784488
6559.6 6559.6 0.500000 2.898289 92.9486 5.123086 0.785539
6559.7 6559.7 0.500000 2.896354 92.9538 5.132925 0.787491
6559.8 6559.8 0.500000 2.893953 92.9451 5.144828 0.789986
6559.9 6559.9 0.500000 2.890943 92.9278 5.159824 0.792370
6560 6560 0.500000 2.887532 92.91 5.176603 0.795110
6560.1 6560.1 0.500000 2.883565 92.8969 5.195650 0.798357
6560.2 6560.2 0.500000 2.879288 92.8745 5.217438 0.801785
6560.3 6560.3 0.500000 2.874629 92.8513 5.240247 0.805417
6560.4 6560.4 0.500000 2.869475 92.8109 5.265159 0.809236
6560.51 6560.5 0.500000 2.863808 92.7893 5.294740 0.814182
6560.6 6560.6 0.500000 2.858584 92.7813 5.321626 0.817876
6560.7 6560.7 0.500000 2.852560 92.7684 5.352817 0.822811
6560.8 6560.8 0.500000 2.846595 92.7485 5.382978 0.827176
6560.9 6560.9 0.500000 2.840483 92.7264 5.414969 0.832103
6561 6561 0.500000 2.834756 92.7294 5.446930 0.836907
6561.1 6561.1 0.500000 2.828273 92.781 5.484046 0.842748
6561.2 6561.2 0.500000 2.822377 92.8282 5.520175 0.848087
6561.3 6561.3 0.500000 2.816525 92.8735 5.554964 0.853216
6561.4 6561.4 0.500000 2.810599 92.9021 5.589996 0.858086
6561.5 6561.5 0.500000 2.805210 92.9363 5.622181 0.863015
6561.6 6561.6 0.500000 2.799783 92.9383 5.652229 0.867611
6561.7 6561.7 0.500000 2.794526 92.94 5.682312 0.872206
6561.8 6561.8 0.500000 2.789366 92.9566 5.712789 0.876513
6561.9 6561.9 0.500000 2.784205 92.9584 5.742398 0.880924
6562 6562 0.500000 2.779589 92.9658 5.769812 0.884377
6562.09 6562.1 0.500000 2.774676 92.9702 5.797087 0.888492
6562.2 6562.2 0.500000 2.770308 93.0672 5.829380 0.893388
6562.3 6562.3 0.500000 2.765934 93.0797 5.856053 0.896937
6562.4 6562.4 0.500000 2.761756 93.0722 5.880029 0.901122
6562.5 6562.5 0.500000 2.757935 93.0754 5.902761 0.904188
6562.6 6562.6 0.500000 2.754035 93.0832 5.926695 0.907586
6562.7 6562.7 0.500000 2.750405 93.0933 5.948258 0.910215
6562.8 6562.8 0.500000 2.747104 93.0883 5.968546 0.913710
6562.9 6562.9 0.500000 2.743913 93.0877 5.987081 0.915792
6563 6563 0.500000 2.740868 93.0828 6.005016 0.918189
6563.1 6563.1 0.500000 2.738208 93.1051 6.023122 0.920978
6563.2 6563.2 0.500000 2.735519 93.0967 6.038036 0.923232
6563.3 6563.3 0.500000 2.733163 93.1085 6.053255 0.924956
6563.4 6563.4 0.500000 2.731007 93.2437 6.075524 0.928336
6563.5 6563.5 0.500000 2.728864 93.24 6.087915 0.930023
6563.6 6563.6 0.500000 2.727051 93.2413 6.099235 0.931513
6563.7 6563.7 0.500000 2.725322 93.2446 6.109919 0.933004
6563.8 6563.8 0.500000 2.723589 93.2628 6.121775 0.934698
6563.9 6563.9 0.500000 2.722144 93.2584 6.130272 0.935731
6564 6564 0.500000 2.720829 93.2576 6.138056 0.936657
6564.1 6564.1 0.500000 2.719554 93.2542 6.145771 0.937775
6564.2 6564.2 0.500000 2.718220 93.254 6.153914 0.938897
6564.29 6564.3 0.500000 2.717159 93.2506 6.159878 0.939750
6564.4 6564.4 0.500000 2.716184 93.2418 6.165848 0.939961
6564.49 6564.5 0.500000 2.715093 93.2559 6.173125 0.941619
6564.6 6564.6 0.500000 2.714150 93.252 6.178878 0.942467
6564.7 6564.7 0.500000 2.713274 93.2661 6.185227 0.943220
6564.8 6564.8 0.500000 2.712465 93.2665 6.190287 0.943969
6564.9 6564.9 0.500000 2.711654 93.2565 6.194710 0.944472
6565 6565 0.500000 2.710903 93.255 6.199311 0.944726
6565.1 6565.1 0.500000 2.710118 93.2725 6.205215 0.945772
6565.2 6565.2 0.500000 2.709351 93.2628 6.209559 0.946573
6565.3 6565.3 0.500000 2.708357 93.2591 6.215320 0.947578
6565.4 6565.4 0.500000 2.707689 93.2647 6.219983 0.948017
6565.5 6565.5 0.500000 2.707020 93.2522 6.223462 0.948798
6565.6 6565.6 0.500000 2.706177 93.2602 6.229143 0.949105
6565.7 6565.7 0.500000 2.705293 93.2732 6.235617 0.950346
6565.8 6565.8 0.500000 2.704322 93.2773 6.241654 0.950952
6565.9 6565.9 0.500000 2.703485 93.2777 6.247052 0.951876
6566 6566 0.500000 2.702597 93.2691 6.252087 0.953198
6566.1 6566.1 0.500000 2.701628 93.2747 6.258554 0.953894
6566.2 6566.2 0.500000 2.700533 93.2677 6.264734 0.954504
6566.3 6566.3 0.500000 2.699588 93.2712 6.270941 0.955531
6566.4 6566.4 0.500000 2.698484 93.2674 6.277674 0.956319
6566.5 6566.5 0.500000 2.697566 93.2465 6.282004 0.957689
6566.6 6566.6 0.500000 2.696597 93.2596 6.288977 0.958949
6566.7 6566.7 0.500000 2.695524 93.2675 6.296063 0.959908
6566.79 6566.8 0.500000 2.694713 93.2796 6.301889 0.960669
6566.9 6566.9 0.500000 2.693594 93.271 6.308592 0.962118
6567 6567 0.500000 2.692579 93.2628 6.314365 0.962613
6567.1 6567.1 0.500000 2.691701 93.2662 6.320189 0.964238
6567.2 6567.2 0.500000 2.690813 93.2681 6.325878 0.964747
6567.3 6567.3 0.500000 2.689904 93.2707 6.331783 0.965843
6567.4 6567.4 0.500000 2.689167 93.2644 6.336011 0.966627
6567.5 6567.5 0.500000 2.688419 93.2431 6.339465 0.966890
6567.6 6567.6 0.500000 2.687784 93.2651 6.344930 0.967928
6567.7 6567.7 0.500000 2.687099 93.2747 6.349879 0.968920
6567.8 6567.8 0.500000 2.686488 93.2768 6.353986 0.969720
6567.9 6567.9 0.500000 2.685967 93.274 6.357082 0.970300
6568 6568 0.500000 2.685660 93.2708 6.358833 0.970364
6568.1 6568.1 0.500000 2.685231 93.2713 6.361567 0.970980
6568.2 6568.2 0.500000 2.685146 93.2749 6.362376 0.971279
6568.31 6568.3 0.500000 2.685123 93.3944 6.370641 0.972973
6568.4 6568.4 0.500000 2.685079 93.3953 6.370969 0.973015
6568.5 6568.5 0.500000 2.685128 93.384 6.369901 0.972971
6568.6 6568.6 0.500000 2.685271 93.3683 6.367894 0.972380
6568.7 6568.7 0.500000 2.685454 93.3902 6.368244 0.973110
6568.8 6568.8 0.500000 2.685808 93.3935 6.366184 0.972526
6568.9 6568.9 0.500000 2.686181 94.1512 6.415533 0.980265
6569 6569 0.700000 2.686612 130.137 8.863597 1.354991
6570.09 6570.08 0.710000 2.696794 132.612 8.940895 1.368591
6571.21 6571.18 0.730000 2.711492 136.386 9.059165 1.388340
6572.29 6572.29 0.740000 2.721339 138.208 9.092581 1.393200
6573.43 6573.43 0.750000 2.716619 140.105 9.260344 1.417716
6574.58 6574.58 0.760000 2.696466 141.991 9.574948 1.463747
6575.77 6575.76 0.780000 2.667889 145.741 10.1133 1.542953
6576.95 6576.95 0.790000 2.640269 147.617 10.5292 1.601998
6578.16 6578.16 0.800000 2.616599 149.507 10.9198 1.656281
6579.4 6579.39 0.810000 2.597876 151.423 11.2701 1.704007
6580.65 6580.64 0.830000 2.580451 155.158 11.751 1.771380
6581.91 6581.91 0.840000 2.560730 157.042 12.1306 1.823345
6583.21 6583.2 0.850000 2.540368 158.93 12.5289 1.878724
6584.52 6584.51 0.860000 2.521726 160.827 12.9172 1.937110
6585.84 6585.83 0.880000 2.506502 164.592 13.4227 2.017127
6587.19 6587.18 0.890000 2.496133 166.168 13.6925 2.066647
6588.55 6588.54 0.900000 2.490592 168.295 13.9447 2.116273
6589.94 6589.93 0.910000 2.488660 170.22 14.1317 2.157601
6591.33 6591.33 0.930000 2.490453 173.949 14.4156 2.211959
6592.76 6592.75 0.940000 2.495456 175.877 14.5027 2.234936
6594.19 6594.19 0.950000 2.503333 177.789 14.5456 2.250508
6595.66 6595.65 0.960000 2.516277 179.689 14.5116 2.256102
6597.14 6597.13 0.980000 2.534133 183.458 14.5538 2.272981
6598.64 6598.63 0.990000 2.549823 185.365 14.4759 2.268847
6600.14 6600.14 1.000000 2.564571 187.269 14.4112 2.263016
6601.69 6601.68 1.010000 2.578639 188.76 14.3224 2.251917
6603.24 6603.24 1.030000 2.588397 192.87 14.4927 2.277761
6604.82 6604.81 1.040000 2.592028 194.814 14.5853 2.291110
6606.4 6606.4 1.050000 2.591883 196.717 14.7298 2.310716
6608.02 6608.01 1.060000 2.591318 198.606 14.8796 2.331618
6609.66 6609.65 1.080000 2.590168 202.364 15.1787 2.373691
6611.31 6611.3 1.090000 2.587592 204.251 15.3597 2.397647
6612.98 6612.97 1.100000 2.583044 206.159 15.5739 2.428475
6614.66 6614.65 1.110000 2.577431 208.014 15.8026 2.460975
6616.37 6616.36 1.130000 2.572906 211.797 16.1628 2.516160
6618.1 6618.09 1.140000 2.570130 213.698 16.3532 2.547387
6619.84 6619.83 1.150000 2.567373 215.563 16.5413 2.579792
6621.61 6621.6 1.160000 2.563967 217.476 16.7451 2.616216
6623.39 6623.38 1.180000 2.561981 221.306 17.074 2.672196
6625.18 6625.18 1.190000 2.562065 223.382 17.2328 2.702786
6627.01 6627 1.200000 2.563736 225.279 17.3501 2.728990
6628.85 6628.84 1.210000 2.565577 226.949 17.4466 2.751678
6630.71 6630.7 1.230000 2.566622 230.932 17.7342 2.802791
6632.59 6632.58 1.240000 2.567642 232.806 17.8599 2.828538
6634.48 6634.48 1.250000 2.569135 234.701 17.9786 2.850699
6636.41 6636.4 1.260000 2.569974 236.892 18.1311 2.876462
6638.34 6638.33 1.280000 2.568051 240.639 18.4533 2.929630
6640.3 6640.29 1.290000 2.562202 242.488 18.7041 2.971659
6642.27 6642.26 1.300000 2.552733 244.426 19.0328 3.028180
6644.27 6644.26 1.310000 2.542089 246.333 19.3865 3.090859
6646.28 6646.27 1.330000 2.531983 250.112 19.8839 3.178290
6648.3 6648.3 1.340000 2.522459 252.072 20.2314 3.243387
6650.36 6650.35 1.350000 2.513456 253.96 20.5674 3.307970
6652.43 6652.42 1.360000 2.504534 255.861 20.9071 3.371972
6654.52 6654.51 1.380000 2.497289 259.681 21.3735 3.454823
6656.61 6656.61 1.390000 2.493877 261.549 21.6009 3.499560
6658.74 6658.74 1.400000 2.493356 263.444 21.7689 3.531700
6660.9 6660.89 1.410000 2.493836 265.392 21.9194 3.560988
6663.06 6663.05 1.430000 2.493323 269.229 22.2477 3.617159
6665.24 6665.23 1.440000 2.491268 271.127 22.4508 3.651258
6667.45 6667.44 1.450000 2.488614 273.025 22.668 3.686320
6669.67 6669.66 1.460000 2.486309 274.992 22.8841 3.721449
6671.9 6671.9 1.480000 2.483742 278.741 23.2555 3.781820
6674.17 6674.16 1.490000 2.479665 280.653 23.5111 3.824983
6676.44 6676.44 1.500000 2.475106 282.616 23.7833 3.872802
6678.74 6678.74 1.510000 2.471057 284.693 24.0552 3.920673
6681.06 6681.05 1.530000 2.467978 288.542 24.4558 3.991875
6683.39 6683.39 1.540000 2.465472 290.415 24.6761 4.034920
6685.74 6685.74 1.550000 2.463178 292.325 24.8955 4.078523
6688.12 6688.12 1.560000 2.461090 294.241 25.1111 4.124148
6690.51 6690.51 1.580000 2.458133 297.974 25.5048 4.200024
6692.92 6692.92 1.590000 2.453932 299.849 25.7734 4.257884
6695.35 6695.35 1.600000 2.449438 301.773 26.0557 4.317310
6697.8 6697.8 1.610000 2.446562 303.687 26.2964 4.371557
6700.27 6700.27 1.630000 2.446622 307.496 26.6246 4.438603
6702.76 6702.76 1.640000 2.448694 309.322 26.7272 4.469513
6705.27 6705.27 1.650000 2.450430 311.198 26.8428 4.500557
6707.8 6707.79 1.660000 2.450393 313.106 27.0084 4.539984
6710.33 6710.34 1.680000 2.448898 316.832 27.3705 4.608915
6712.9 6712.9 1.690000 2.446524 318.736 27.6006 4.656113
6715.49 6715.49 1.700000 2.443934 320.637 27.8372 4.702359
6718.09 6718.09 1.710000 2.441755 322.501 28.0601 4.746624
6720.7 6720.71 1.730000 2.439989 326.26 28.4372 4.817080
6723.35 6723.35 1.740000 2.438014 328.115 28.6556 4.860757
6726.01 6726.01 1.750000 2.435468 329.972 28.8912 4.906622
6728.69 6728.69 1.760000 2.432009 331.875 29.1584 4.957910
6731.39 6731.39 1.780000 2.426945 335.571 29.6328 5.044926
6734.11 6734.11 1.790000 2.420117 337.476 30.0056 5.116017
6736.84 6736.84 1.800000 2.412824 339.306 30.389 5.188686
6739.6 6739.6 1.810000 2.405851 341.144 30.767 5.262096
6742.37 6742.37 1.830000 2.399425 344.846 31.3015 5.363887
6745.17 6745.17 1.840000 2.394297 346.707 31.6323 5.433478
6747.98 6747.98 1.850000 2.389867 348.526 31.9395 5.498104
6750.81 6750.81 1.860000 2.385589 350.306 32.2402 5.564419
6753.66 6753.66 1.880000 2.381159 354.06 32.7303 5.663653
6756.53 6756.53 1.890000 2.376162 355.806 33.0564 5.733902
6759.42 6759.42 1.900000 2.370487 357.558 33.4083 5.809712
6762.32 6762.32 1.910000 2.364986 359.422 33.768 5.886375
6765.25 6765.25 1.930000 2.359663 363.331 34.3174 5.995619
6768.2 6768.2 1.940000 2.355089 365.158 34.648 6.068745
6771.16 6771.16 1.950000 2.352270 367.057 34.9264 6.131616
6774.14 6774.14 1.960000 2.350887 368.754 35.1365 6.184005
6777.15 6777.15 1.980000 2.349154 372.452 35.5504 6.272602
6780.17 6780.17 1.990000 2.346317 374.26 35.8246 6.337869
6783.21 6783.21 2.000000 2.342752 376.093 36.1285 6.408101
6786.27 6786.27 2.010000 2.338313 378.418 36.5138 6.492972
6789.35 6789.35 2.030000 2.333640 381.945 37.0266 6.600865
6792.45 6792.45 2.040000 2.328738 380.624 37.0796 6.626154
6795.56 6795.56 2.050000 2.324862 384.213 37.5751 6.729012
6798.7 6798.7 2.060000 2.320329 387.253 38.0439 6.826900
6801.85 6801.85 2.080000 2.315547 391.01 38.5973 6.939142
6805.03 6805.03 2.090000 2.311544 392.886 38.938 7.012626
6808.22 6808.22 2.100000 2.308537 394.951 39.2607 7.082790
6811.43 6811.43 2.110000 2.305585 371.751 37.0637 6.698975
6814.66 6814.66 2.130000 2.303956 398.288 39.7741 7.201343
6817.92 6817.92 2.140000 2.301777 401.241 40.1564 7.283317
6821.19 6821.18 2.150000 2.298410 389.853 39.1483 7.114676
6824.47 6824.47 2.160000 2.297211 402.263 40.4431 7.364309
6827.78 6827.78 2.180000 2.294603 407.016 41.0276 7.487812
6831.11 6831.11 2.190000 2.291295 409.005 41.3645 7.568190
6834.45 6834.45 2.200000 2.287233 410.668 41.7019 7.647500
6837.82 6837.82 2.210000 2.281995 412.175 42.0747 7.736396
6841.2 6841.2 2.230000 2.276941 407.322 41.7897 7.703942
6844.6 6844.6 2.240000 2.270208 417.258 43.0983 7.964918
6848.03 6848.03 2.250000 2.264639 419.326 43.5538 8.070110
6851.48 6851.47 2.260000 2.260156 420.927 43.917 8.157323
6854.94 6854.93 2.280000 2.256437 424.424 44.4467 8.278384
6858.41 6858.4 2.290000 2.252731 426.092 44.787 8.363236
6861.91 6861.9 2.300000 2.248738 427.047 45.0668 8.438330
6865.43 6865.42 2.310000 2.244724 428.988 45.4537 8.532573
6868.97 6868.96 2.330000 2.240557 433.064 46.0772 8.671667
6872.52 6872.51 2.340000 2.235742 434.827 46.4882 8.770297
6876.1 6876.09 2.350000 2.230676 436.771 46.933 8.876372
6879.68 6879.68 2.360000 2.225085 438.426 47.3747 8.981614
6883.3 6883.29 2.380000 2.219621 442.607 48.0888 9.140413
6886.92 6886.92 2.390000 2.214860 444.564 48.5319 9.245186
6890.57 6890.57 2.400000 2.210745 446.311 48.9235 9.341195
6894.24 6894.24 2.410000 2.207105 448.157 49.305 9.435404
6897.93 6897.93 2.430000 2.204028 451.683 49.846 9.561779
6901.64 6901.64 2.440000 2.200729 453.461 50.2077 9.652967
6905.36 6905.36 2.450000 2.196784 455.267 50.607 9.751103
6909.11 6909.11 2.460000 2.192704 456.698 50.9736 9.844860
6912.87 6912.87 2.480000 2.188226 460.071 51.5805 9.984855
6916.67 6916.66 2.490000 2.183468 461.621 52.0013 10.0901
6920.46 6920.46 2.500000 2.178499 463.293 52.4495 10.2008
6924.28 6924.28 2.510000 2.173187 464.723 52.8916 10.3129
6928.12 6928.12 2.530000 2.167847 468.405 53.5962 10.4758
6931.99 6931.98 2.540000 2.162993 470.079 54.0495 10.5912
6935.86 6935.86 2.550000 2.158899 472.218 54.5182 10.7097
6939.77 6939.76 2.560000 2.155042 473.836 54.9165 10.8147
6943.69 6943.68 2.580000 2.151305 477.302 55.5253 10.9623
6947.61 6947.61 2.590000 2.147323 478.945 55.9385 11.0714
6951.58 6951.57 2.600000 2.143122 480.505 56.3572 11.1826
6955.55 6955.54 2.610000 2.138998 482.365 56.8091 11.3013
6959.54 6959.54 2.630000 2.134988 486.19 57.4898 11.4679
6963.55 6963.55 2.640000 2.131201 487.804 57.8995 11.5798
6967.58 6967.58 2.650000 2.127138 489.328 58.3166 11.6944
6971.63 6971.63 2.660000 2.122792 490.918 58.7611 11.816
6975.71 6975.7 2.680000 2.118020 494.333 59.453 11.9849
6979.79 6979.79 2.690000 2.113389 495.898 59.9177 12.1119
6983.9 6983.9 2.700000 2.108769 497.454 60.3841 12.2371
6988.02 6988.02 2.710000 2.104491 498.977 60.8289 12.3595
6992.17 6992.17 2.730000 2.100499 502.267 61.4746 12.522
6996.34 6996.33 2.740000 2.096563 503.982 61.9279 12.6466
7000.52 7000.52 2.750000 2.092591 505.481 62.3593 12.7666
7004.73 7004.72 2.760000 2.088456 507.082 62.8161 12.8919
7008.94 7008.94 2.780000 2.083897 510.398 63.5157 13.0685
7013.19 7013.18 2.790000 2.078807 512.547 64.1085 13.2233
7017.45 7017.44 2.800000 2.073275 513.996 64.6467 13.3656
7021.73 7021.72 2.810000 2.067691 515.415 65.1878 13.5122
7026.02 7026.02 2.830000 2.062454 518.667 65.9436 13.7044
7030.35 7030.34 2.840000 2.057522 520.122 66.4556 13.8454
7034.68 7034.67 2.850000 2.052860 521.569 66.9518 13.9847
7039.03 7039.03 2.860000 2.048482 523.044 67.4356 14.1232
7043.4 7043.4 2.880000 2.044105 526.245 68.146 14.3096
7047.8 7047.8 2.890000 2.039735 527.628 68.6241 14.4471
7052.22 7052.21 2.900000 2.035379 529.124 69.1193 14.5912
7056.64 7056.64 2.910000 2.030956 530.474 69.6026 14.7302
7061.09 7061.09 2.930000 2.026311 532.095 70.1404 14.8836
7065.56 7065.56 2.940000 2.021537 535.438 70.9189 15.0886
7070.06 7070.05 2.950000 2.016805 533.009 70.9323 15.1322
7074.56 7074.56 2.960000 2.011964 533.692 71.3678 15.2644
7079.09 7079.08 2.980000 2.007374 541.166 72.7002 15.59
7083.63 7083.63 2.990000 2.002753 542.35 73.1966 15.74
7088.2 7088.19 3.000000 1.998018 544.155 73.789 15.9097
7092.78 7092.78 3.010000 1.993306 545.532 74.3247 16.0674
7097.38 7097.38 3.030000 1.988911 548.811 75.1004 16.2801
7102 7102 3.040000 1.984547 550.061 75.6007 16.4313
7106.64 7106.64 3.050000 1.980143 551.252 76.0991 16.5827
7111.31 7111.3 3.060000 1.975523 551.773 76.5238 16.7105
7115.99 7115.98 3.080000 1.970836 554.527 77.2674 16.9053
7120.68 7120.68 3.090000 1.966238 553.108 77.4247 16.9721
7125.4 7125.4 3.100000 1.961002 543.824 76.5245 16.7917
7130.13 7130.13 3.110000 1.956585 532.04 75.1978 16.5283
7134.89 7134.89 3.130000 1.951933 534.729 75.9299 16.7355
7139.66 7139.66 3.140000 1.947349 540.805 77.1457 17.0508
7144.46 7144.46 3.150000 1.942460 543.515 77.9124 17.267
7149.28 7149.27 3.160000 1.937563 546.736 78.7592 17.5043
7154.1 7154.1 3.180000 1.933074 552.308 79.9196 17.8096
7158.95 7158.95 3.190000 1.928613 554.502 80.5959 18.0095
7163.82 7163.82 3.200000 1.924103 555.375 81.0876 18.1682
7168.72 7168.71 3.210000 1.919428 555.979 81.556 18.3246
7173.62 7173.62 3.230000 1.914503 558.328 82.3049 18.5421
7178.54 7178.54 3.240000 1.909436 559.098 82.8372 18.7123
7183.49 7183.49 3.250000 1.904340 560.157 83.4184 18.8955
7188.46 7188.45 3.260000 1.899313 561.055 83.9732 19.07
7193.44 7193.44 3.280000 1.894388 564.979 84.9774 19.3509
7198.44 7198.44 3.290000 1.889516 566.452 85.6151 19.5495
7203.47 7203.46 3.300000 1.884894 568.487 86.3208 19.7647
7208.5 7208.5 3.310000 1.880334 570.162 86.9707 19.9668
7213.56 7213.56 3.330000 1.875655 573.156 87.8376 20.2223
7218.64 7218.64 3.340000 1.870860 574.482 88.4637 20.4222
7223.74 7223.74 3.350000 1.866062 574.913 88.9557 20.5922
7228.86 7228.86 3.360000 1.861343 577.023 89.7046 20.8256
7233.99 7233.99 3.380000 1.856525 579.761 90.5656 21.0808
7239.15 7239.15 3.390000 1.851622 580.764 91.1684 21.2816
7244.32 7244.32 3.400000 1.846712 581.997 91.8113 21.4878
7249.52 7249.52 3.410000 1.841770 582.358 92.3233 21.6679
7254.73 7254.73 3.430000 1.836445 580.254 92.481 21.7611
7259.96 7259.96 3.440000 1.831704 585.636 93.7824 22.1274
7265.21 7265.21 3.450000 1.826895 585.512 94.215 22.2911
7270.48 7270.48 3.460000 1.821802 590.798 95.5508 22.6675
7275.77 7275.77 3.480000 1.816858 594.256 96.5863 22.9762
7281.08 7281.08 3.490000 1.811945 584.642 95.4915 22.7781