File: xdidata/Mn/Mn-K-Purpurite.xdi
# XDI/1.0 BlueSky/1.5.3
# Beamline.name: 6BM
# Beamline.xray_source: NSLS-II three-pole wiggler
# Beamline.collimation: paraboloid mirror, 5 nm Rh on 30 nm Pt
# Beamline.focusing: not in use
# Beamline.harmonic_rejection: flat mirror, Si stripe, pitch = 7.0 mrad relative to beam
# Detector.i0: 10 cm N2
# Detector.i1: 25 cm N2
# Detector.i2: 25 cm N2
# Element.symbol: Mn
# Element.edge: K
# Facility.name: NSLS-II
# Facility.energy: 3.0
# Facility.current: 399.6
# Facility.mode: top-off
# Facility.gup: 305081
# Facility.saf: 305123
# Mono.name: Si(111)
# Mono.d_spacing: 3.13532
# Mono.encoder_resolution: 0.0000050 deg/ct
# Mono.angle_offset: 16.0581 deg
# Mono.scan_mode: fixed exit
# Mono.scan_type: step
# Mono.direction: forward in energy
# Sample.name: MnPO4
# Sample.prep: Powder in polyethylene glycol pellet
# Sample.x_position: -120.140 mm
# Sample.y_position: 112.312 mm
# Scan.experimenters: Neil Hyatt, Martin Stennett, Lucy Mottram
# Scan.edge_energy: 6539.0
# Scan.start_time: 2019-11-11T18:54:51
# Scan.end_time: 2019-11-12T06:32:02
# Scan.transient_id: 17910
# Scan.uid: e05afa74-0a7c-44d3-9357-1f8fce763fbe
# Scan.plot_hint: ln(I0/It)  --  ln($5/$6)
# Scan.sequence: merge of 3 scans
# Column.1: energy eV
# Column.2: requested_energy eV
# Column.3: measurement_time seconds
# Column.4: mutrans
# Column.5: i0
# Column.6: itrans
# Column.7: irefer
# /////
#  likely Heterosite, Roggebaai, South Africa
# -----
# energy   requested_energy   measurement_time   mutrans   i0   itrans   irefer
6339 6339 0.500000 2.200630 89.5785 9.919449 2.281077
6349.01 6349 0.500000 2.187304 89.742 10.071 2.331617
6359.01 6359 0.500000 2.174164 90.0028 10.2337 2.386203
6369.02 6369 0.500000 2.161352 90.1658 10.3844 2.437653
6379.02 6379 0.500000 2.148240 90.446 10.5542 2.495136
6389.02 6389 0.500000 2.135454 90.5989 10.708 2.547921
6399.01 6399 0.500000 2.122735 90.7558 10.8639 2.603017
6409.02 6409 0.500000 2.110119 90.8897 11.0181 2.657493
6419.02 6419 0.500000 2.097384 91.0228 11.1756 2.714001
6429.02 6429 0.500000 2.084965 91.1493 11.331 2.769578
6439.01 6439 0.500000 2.072549 91.2694 11.4877 2.826178
6449.01 6449 0.500000 2.060170 91.2448 11.6276 2.879420
6459.01 6459 0.500000 2.047987 91.2173 11.7665 2.932095
6469 6469 0.500000 2.035860 91.635 11.9646 3.000362
6479.01 6479 0.500000 2.023756 91.7517 12.1258 3.060180
6489 6489 0.500000 2.011771 91.9015 12.2919 3.122140
6499 6499 0.500000 1.999911 92.1756 12.4756 3.186862
6508.95 6509 0.500000 1.988079 92.336 12.6455 3.248475
6510.99 6511 0.500000 1.985925 92.363 12.6769 3.259984
6512.99 6513 0.500000 1.983593 92.3733 12.7079 3.271558
6515 6515 0.500000 1.981342 92.3913 12.7391 3.282581
6516.99 6517 0.500000 1.979154 92.4146 12.7702 3.293745
6518.99 6519 0.500000 1.976943 92.4608 12.8048 3.305918
6520.99 6521 0.500000 1.974624 92.4988 12.8399 3.317395
6523.02 6523 0.500000 1.972468 92.5127 12.8697 3.327243
6524.99 6525 0.500000 1.970299 92.5498 12.9027 3.337688
6526.98 6527 0.500000 1.968206 92.5807 12.9336 3.345763
6528.99 6529 0.500000 1.966293 92.6011 12.9616 3.353001
6529.09 6529.1 0.500000 1.966096 92.5897 12.9619 3.353368
6529.19 6529.2 0.500000 1.966149 92.5976 12.9634 3.353854
6529.31 6529.3 0.500000 1.966005 92.5665 12.9612 3.352847
6529.48 6529.4 0.500000 1.965784 92.5757 12.9643 3.353294
6529.48 6529.5 0.500000 1.965841 92.5742 12.9638 3.353033
6529.58 6529.6 0.500000 1.965746 92.5572 12.9627 3.352615
6529.68 6529.7 0.500000 1.965582 92.5525 12.9642 3.353132
6529.79 6529.8 0.500000 1.965509 92.5614 12.9663 3.353433
6529.89 6529.9 0.500000 1.965333 92.5557 12.9678 3.354063
6529.98 6530 0.500000 1.965277 92.5517 12.968 3.353649
6530.09 6530.1 0.500000 1.965242 92.5417 12.967 3.353365
6530.18 6530.2 0.500000 1.965153 92.5376 12.9676 3.353659
6530.28 6530.3 0.500000 1.965016 92.549 12.971 3.353625
6530.39 6530.4 0.500000 1.964928 92.5468 12.9718 3.354195
6530.49 6530.5 0.500000 1.964794 92.5567 12.975 3.354085
6530.59 6530.6 0.500000 1.964715 92.5435 12.9741 3.354338
6530.69 6530.7 0.500000 1.964653 92.548 12.9755 3.354510
6530.79 6530.8 0.500000 1.964556 92.5472 12.9767 3.354491
6530.89 6530.9 0.500000 1.964466 92.5514 12.9784 3.354605
6530.99 6531 0.500000 1.964358 92.5277 12.9766 3.353911
6531.1 6531.1 0.500000 1.964201 92.5331 12.9794 3.354082
6531.19 6531.2 0.500000 1.964155 92.5482 12.982 3.354802
6531.3 6531.3 0.500000 1.964131 92.5632 12.9845 3.355889
6531.4 6531.4 0.500000 1.963938 92.5514 12.9853 3.355299
6531.49 6531.5 0.500000 1.963878 92.5294 12.983 3.354128
6531.6 6531.6 0.500000 1.963767 92.5304 12.9846 3.354833
6531.7 6531.7 0.500000 1.963672 92.5403 12.9872 3.354513
6531.8 6531.8 0.500000 1.963619 92.5451 12.9886 3.354791
6531.92 6531.9 0.500000 1.963573 92.5437 12.989 3.354370
6532.01 6532 0.500000 1.963455 92.5267 12.9884 3.353714
6532.09 6532.1 0.500000 1.963308 92.5332 12.9907 3.353959
6532.19 6532.2 0.500000 1.963268 92.5489 12.9937 3.354897
6532.3 6532.3 0.500000 1.963167 92.5334 12.9927 3.353821
6532.41 6532.4 0.500000 1.963129 92.5135 12.9906 3.353435
6532.5 6532.5 0.500000 1.963002 92.5239 12.9937 3.353174
6532.6 6532.6 0.500000 1.962872 92.5294 12.9961 3.353751
6532.71 6532.7 0.500000 1.962778 92.5261 12.9969 3.352514
6532.8 6532.8 0.500000 1.962663 92.5191 12.9973 3.352580
6532.9 6532.9 0.500000 1.962641 92.5067 12.9959 3.351907
6533.01 6533 0.500000 1.962608 92.5123 12.9971 3.351101
6533.1 6533.1 0.500000 1.962457 92.5153 12.9995 3.351450
6533.2 6533.2 0.500000 1.962395 92.5232 13.0014 3.350950
6533.3 6533.3 0.500000 1.962452 92.5277 13.0013 3.350679
6533.4 6533.4 0.500000 1.962254 92.5243 13.0034 3.350283
6533.5 6533.5 0.500000 1.962265 92.5046 13.0005 3.348692
6533.6 6533.6 0.500000 1.962170 92.5055 13.0019 3.348575
6533.7 6533.7 0.500000 1.962014 92.524 13.0065 3.348484
6533.8 6533.8 0.500000 1.962019 92.5262 13.0067 3.347456
6533.9 6533.9 0.500000 1.961957 92.5194 13.0066 3.346600
6534 6534 0.500000 1.961825 92.5084 13.0068 3.345574
6534.1 6534.1 0.500000 1.961740 92.517 13.009 3.344716
6534.2 6534.2 0.500000 1.961683 92.5123 13.0092 3.343857
6534.3 6534.3 0.500000 1.961559 92.4981 13.0088 3.342263
6534.4 6534.4 0.500000 1.961551 92.5195 13.0119 3.341861
6534.5 6534.5 0.500000 1.961495 92.5157 13.0121 3.340555
6534.6 6534.6 0.500000 1.961385 92.5151 13.0134 3.339431
6534.69 6534.7 0.500000 1.961343 92.5062 13.0127 3.338083
6534.8 6534.8 0.500000 1.961293 92.5031 13.0129 3.335570
6534.9 6534.9 0.500000 1.961166 92.4882 13.0125 3.333676
6535 6535 0.500000 1.961123 92.4985 13.0145 3.332696
6535.1 6535.1 0.500000 1.961098 92.5089 13.0163 3.331100
6535.2 6535.2 0.500000 1.961066 92.5079 13.0166 3.328285
6535.3 6535.3 0.500000 1.961029 92.4982 13.0157 3.326022
6535.4 6535.4 0.500000 1.961006 92.4978 13.0159 3.323115
6535.51 6535.5 0.500000 1.960897 92.4863 13.0157 3.319498
6535.6 6535.6 0.500000 1.960848 92.4817 13.0156 3.315832
6535.7 6535.7 0.500000 1.960853 92.5051 13.0189 3.313377
6535.8 6535.8 0.500000 1.960777 92.5126 13.0209 3.309574
6535.9 6535.9 0.500000 1.960806 92.5124 13.0206 3.305296
6536 6536 0.500000 1.960661 92.4963 13.0202 3.299571
6536.11 6536.1 0.500000 1.960720 92.4667 13.0152 3.292666
6536.2 6536.2 0.500000 1.960704 92.4815 13.0175 3.287546
6536.3 6536.3 0.500000 1.960819 92.4846 13.0165 3.279938
6536.4 6536.4 0.500000 1.960646 92.4867 13.019 3.272360
6536.51 6536.5 0.500000 1.960732 92.4849 13.0176 3.262238
6536.6 6536.6 0.500000 1.960794 92.4774 13.0158 3.252009
6536.7 6536.7 0.500000 1.960878 92.4773 13.0147 3.239638
6536.8 6536.8 0.500000 1.960784 92.5773 13.0299 3.228990
6536.9 6536.9 0.500000 1.960918 92.6013 13.0316 3.213107
6537 6537 0.500000 1.961006 92.6679 13.0399 3.196732
6537.1 6537.1 0.500000 1.961081 92.6625 13.0382 3.174548
6537.2 6537.2 0.500000 1.961300 92.6665 13.0358 3.149475
6537.3 6537.3 0.500000 1.961419 92.6822 13.0366 3.124136
6537.4 6537.4 0.500000 1.961687 92.6685 13.0311 3.095493
6537.5 6537.5 0.500000 1.962028 92.6553 13.0249 3.065494
6537.6 6537.6 0.500000 1.962358 92.6524 13.0201 3.034528
6537.7 6537.7 0.500000 1.962801 92.6608 13.0155 3.004270
6537.8 6537.8 0.500000 1.963183 92.6701 13.0119 2.976470
6537.9 6537.9 0.500000 1.963746 92.663 13.0035 2.946459
6538 6538 0.500000 1.964248 92.6364 12.9933 2.919891
6538.1 6538.1 0.500000 1.964756 92.6563 12.9895 2.895077
6538.2 6538.2 0.500000 1.965215 92.6642 12.9847 2.873607
6538.3 6538.3 0.500000 1.965724 92.7696 12.9927 2.854445
6538.39 6538.4 0.500000 1.966225 92.7569 12.9845 2.836327
6538.5 6538.5 0.500000 1.966748 92.7616 12.9784 2.816964
6538.6 6538.6 0.500000 1.967156 92.7564 12.9722 2.800379
6538.7 6538.7 0.500000 1.967716 92.7653 12.9662 2.784824
6538.8 6538.8 0.500000 1.968106 92.7612 12.9607 2.770951
6538.9 6538.9 0.500000 1.968661 92.7615 12.9535 2.756790
6539 6539 0.500000 1.969187 92.758 12.9461 2.742796
6539.1 6539.1 0.500000 1.969690 92.7496 12.9385 2.730921
6539.2 6539.2 0.500000 1.970282 92.764 12.9327 2.718562
6539.3 6539.3 0.500000 1.970969 92.7756 12.9256 2.706643
6539.4 6539.4 0.500000 1.971379 92.7725 12.9199 2.696307
6539.5 6539.5 0.500000 1.971838 92.7468 12.9103 2.684981
6539.6 6539.6 0.500000 1.972098 92.7495 12.9074 2.675910
6539.7 6539.7 0.500000 1.972186 92.7489 12.9062 2.666764
6539.8 6539.8 0.500000 1.972261 92.7481 12.9051 2.657837
6539.9 6539.9 0.500000 1.972172 92.7417 12.9053 2.649927
6540 6540 0.500000 1.972049 92.7481 12.9078 2.642726
6540.1 6540.1 0.500000 1.971834 92.742 12.9097 2.636525
6540.2 6540.2 0.500000 1.971530 92.7454 12.9141 2.629965
6540.3 6540.3 0.500000 1.971200 92.7499 12.919 2.624602
6540.4 6540.4 0.500000 1.970932 92.7573 12.9235 2.619234
6540.5 6540.5 0.500000 1.970571 92.7494 12.9271 2.614221
6540.6 6540.6 0.500000 1.970338 92.7314 12.9275 2.609413
6540.7 6540.7 0.500000 1.969980 92.7269 12.9315 2.605798
6540.8 6540.8 0.500000 1.969884 92.7259 12.9327 2.601972
6540.9 6540.9 0.500000 1.969640 92.7394 12.9377 2.600431
6541 6541 0.500000 1.969478 92.746 12.9407 2.598492
6541.1 6541.1 0.500000 1.969331 92.7227 12.9394 2.596584
6541.2 6541.2 0.500000 1.969318 92.7414 12.9422 2.595397
6541.3 6541.3 0.500000 1.969115 92.7343 12.9438 2.594842
6541.4 6541.4 0.500000 1.969078 92.726 12.9432 2.593340
6541.49 6541.5 0.500000 1.968976 92.7308 12.9451 2.592792
6541.6 6541.6 0.500000 1.968935 92.7383 12.9467 2.592883
6541.7 6541.7 0.500000 1.968755 92.743 12.9497 2.592898
6541.8 6541.8 0.500000 1.968682 92.7244 12.948 2.591481
6541.9 6541.9 0.500000 1.968631 92.7134 12.9471 2.589240
6542 6542 0.500000 1.968574 92.7239 12.9493 2.587639
6542.1 6542.1 0.500000 1.968460 92.7215 12.9505 2.585420
6542.2 6542.2 0.500000 1.968454 92.7434 12.9536 2.583142
6542.3 6542.3 0.500000 1.968484 92.7361 12.9523 2.580046
6542.4 6542.4 0.500000 1.968334 92.7216 12.9521 2.576121
6542.5 6542.5 0.500000 1.968411 92.713 12.9499 2.571742
6542.6 6542.6 0.500000 1.968479 92.7035 12.9477 2.566687
6542.7 6542.7 0.500000 1.968488 92.7135 12.949 2.561314
6542.8 6542.8 0.500000 1.968583 92.7172 12.9483 2.556584
6542.9 6542.9 0.500000 1.968705 92.7284 12.9483 2.551692
6543 6543 0.500000 1.968898 92.7168 12.9441 2.544947
6543.1 6543.1 0.500000 1.969180 92.6992 12.9381 2.538764
6543.2 6543.2 0.500000 1.969362 92.7064 12.9367 2.533087
6543.3 6543.3 0.500000 1.969664 92.727 12.9356 2.527381
6543.4 6543.4 0.500000 1.969923 92.7198 12.9314 2.521683
6543.5 6543.5 0.500000 1.970283 92.717 12.9262 2.515169
6543.6 6543.6 0.500000 1.970596 92.7168 12.9221 2.509042
6543.7 6543.7 0.500000 1.971019 92.6987 12.9143 2.502763
6543.8 6543.8 0.500000 1.971451 92.7045 12.9096 2.497143
6543.9 6543.9 0.500000 1.971949 92.7081 12.9035 2.490762
6544 6544 0.500000 1.972454 92.7062 12.8967 2.484982
6544.1 6544.1 0.500000 1.973062 92.7042 12.8887 2.478722
6544.2 6544.2 0.500000 1.973648 92.6914 12.8791 2.471915
6544.3 6544.3 0.500000 1.974325 92.6955 12.8712 2.465089
6544.4 6544.4 0.500000 1.975114 92.6861 12.8597 2.458009
6544.5 6544.5 0.500000 1.975938 92.692 12.85 2.451262
6544.6 6544.6 0.500000 1.976896 92.6972 12.8381 2.443644
6544.69 6544.7 0.500000 1.978021 92.6856 12.8228 2.435953
6544.8 6544.8 0.500000 1.979221 92.7042 12.8094 2.427430
6544.9 6544.9 0.500000 1.980349 92.6991 12.794 2.418750
6545 6545 0.500000 1.981778 92.6845 12.7739 2.409688
6545.1 6545.1 0.500000 1.983303 92.6902 12.7552 2.400344
6545.2 6545.2 0.500000 1.984954 92.6775 12.732 2.390330
6545.29 6545.3 0.500000 1.986725 92.666 12.7093 2.380088
6545.4 6545.4 0.500000 1.988723 92.6638 12.6829 2.369506
6545.5 6545.5 0.500000 1.990994 92.6735 12.6543 2.357777
6545.6 6545.6 0.500000 1.993260 92.6694 12.6261 2.346304
6545.7 6545.7 0.500000 1.995727 92.6666 12.5951 2.333983
6545.8 6545.8 0.500000 1.998409 92.6383 12.5568 2.319938
6545.9 6545.9 0.500000 2.001059 92.642 12.5237 2.307478
6546 6546 0.500000 2.004159 92.6538 12.4874 2.293703
6546.1 6546.1 0.500000 2.007410 92.6714 12.448 2.279424
6546.2 6546.2 0.500000 2.010787 92.6607 12.4059 2.264734
6546.3 6546.3 0.500000 2.014343 92.6282 12.3574 2.248478
6546.4 6546.4 0.500000 2.018082 92.6223 12.3096 2.232692
6546.5 6546.5 0.500000 2.021847 92.6212 12.2641 2.217857
6546.6 6546.6 0.500000 2.026010 92.6162 12.212 2.200874
6546.7 6546.7 0.500000 2.030233 92.6066 12.1588 2.184280
6546.8 6546.8 0.500000 2.034507 92.6094 12.1084 2.168178
6546.9 6546.9 0.500000 2.038913 92.6088 12.0557 2.151298
6547 6547 0.500000 2.043455 92.5953 11.9995 2.134440
6547.1 6547.1 0.500000 2.048194 92.5992 11.9415 2.117175
6547.2 6547.2 0.500000 2.052793 92.5858 11.8864 2.100712
6547.3 6547.3 0.500000 2.057833 92.6027 11.8277 2.082482
6547.4 6547.4 0.500000 2.063117 92.5914 11.7626 2.064689
6547.5 6547.5 0.500000 2.068662 92.5956 11.7002 2.047117
6547.6 6547.6 0.500000 2.074463 92.5894 11.6318 2.027534
6547.7 6547.7 0.500000 2.080504 92.5726 11.5596 2.008836
6547.8 6547.8 0.500000 2.086596 92.5674 11.4895 1.989149
6547.9 6547.9 0.500000 2.093124 92.5572 11.4138 1.969289
6548 6548 0.500000 2.099671 92.5642 11.3357 1.948278
6548.1 6548.1 0.500000 2.106473 92.5678 11.2633 1.928623
6548.2 6548.2 0.500000 2.113132 92.5504 11.1854 1.908347
6548.3 6548.3 0.500000 2.119918 92.5361 11.1071 1.888037
6548.39 6548.4 0.500000 2.126295 92.5332 11.0378 1.870402
6548.5 6548.5 0.500000 2.132688 92.5644 10.9714 1.851483
6548.6 6548.6 0.500000 2.138687 92.5447 10.9015 1.833250
6548.7 6548.7 0.500000 2.144250 92.5402 10.8411 1.816649
6548.8 6548.8 0.500000 2.149482 92.5283 10.7839 1.800557
6548.9 6548.9 0.500000 2.154536 92.5404 10.7314 1.785999
6549 6549 0.500000 2.158883 92.5405 10.6847 1.771852
6549.1 6549.1 0.500000 2.163242 92.5332 10.6374 1.757887
6549.2 6549.2 0.500000 2.167111 92.5235 10.5939 1.745094
6549.3 6549.3 0.500000 2.170678 92.498 10.5537 1.732193
6549.4 6549.4 0.500000 2.174062 92.5156 10.5204 1.720551
6549.5 6549.5 0.500000 2.177553 92.5289 10.4848 1.709024
6549.6 6549.6 0.500000 2.180828 92.5742 10.4551 1.698385
6549.7 6549.7 0.500000 2.184000 92.6119 10.4277 1.688708
6549.81 6549.8 0.500000 2.187252 92.7317 10.4061 1.678824
6549.9 6549.9 0.500000 2.190444 92.7345 10.3738 1.668916
6550 6550 0.500000 2.193576 92.7224 10.3411 1.658063
6550.1 6550.1 0.500000 2.196749 92.7237 10.3073 1.647103
6550.2 6550.2 0.500000 2.199968 92.7495 10.277 1.637675
6550.3 6550.3 0.500000 2.203256 92.7232 10.2413 1.626792
6550.4 6550.4 0.500000 2.206521 92.7048 10.2053 1.616545
6550.5 6550.5 0.500000 2.209856 92.7144 10.1718 1.605730
6550.6 6550.6 0.500000 2.213224 92.7264 10.1396 1.597057
6550.7 6550.7 0.500000 2.216331 92.7095 10.1063 1.586786
6550.8 6550.8 0.500000 2.219777 92.704 10.0715 1.577021
6550.9 6550.9 0.500000 2.222998 92.7097 10.0387 1.567799
6551 6551 0.500000 2.226763 92.7179 10.0023 1.557660
6551.1 6551.1 0.500000 2.230310 92.7196 9.966489 1.547879
6551.2 6551.2 0.500000 2.234107 92.7119 9.929010 1.538299
6551.3 6551.3 0.500000 2.237901 92.8114 9.901735 1.529691
6551.4 6551.4 0.500000 2.241935 92.8069 9.860744 1.519488
6551.5 6551.5 0.500000 2.246004 92.8011 9.819962 1.509072
6551.59 6551.6 0.500000 2.250282 92.7897 9.778224 1.498792
6551.7 6551.7 0.500000 2.254522 92.8006 9.736024 1.487838
6551.8 6551.8 0.500000 2.258851 92.808 9.695011 1.477948
6551.9 6551.9 0.500000 2.263308 92.792 9.650840 1.467303
6552 6552 0.500000 2.267567 92.7877 9.609091 1.457338
6552.1 6552.1 0.500000 2.271815 92.78 9.567283 1.446869
6552.2 6552.2 0.500000 2.275850 92.7801 9.529180 1.438304
6552.3 6552.3 0.500000 2.280142 92.7933 9.489736 1.428594
6552.4 6552.4 0.500000 2.283986 92.7992 9.453064 1.419310
6552.5 6552.5 0.500000 2.287838 92.788 9.417274 1.411304
6552.6 6552.6 0.500000 2.291559 92.7669 9.379773 1.402161
6552.7 6552.7 0.500000 2.295039 92.7762 9.347545 1.394310
6552.8 6552.8 0.500000 2.298624 92.7802 9.314752 1.386522
6552.9 6552.9 0.500000 2.302094 92.7882 9.283707 1.379430
6553 6553 0.500000 2.305497 92.7772 9.250552 1.371445
6553.1 6553.1 0.500000 2.308693 92.7753 9.220740 1.364404
6553.2 6553.2 0.500000 2.311879 92.7731 9.191959 1.357691
6553.3 6553.3 0.500000 2.315006 92.7732 9.162800 1.351253
6553.4 6553.4 0.500000 2.317837 92.7632 9.135672 1.345133
6553.5 6553.5 0.500000 2.320663 92.7703 9.110900 1.338825
6553.6 6553.6 0.500000 2.323339 92.7719 9.086707 1.333518
6553.7 6553.7 0.500000 2.325727 92.7803 9.065400 1.328741
6553.8 6553.8 0.500000 2.328124 92.7766 9.044193 1.323893
6553.9 6553.9 0.500000 2.330145 92.7676 9.024966 1.320173
6554 6554 0.500000 2.332099 92.7786 9.008413 1.316270
6554.1 6554.1 0.500000 2.333724 92.7769 8.993680 1.312444
6554.2 6554.2 0.500000 2.335348 92.7479 8.975736 1.309217
6554.3 6554.3 0.500000 2.336714 92.7414 8.962652 1.306576
6554.4 6554.4 0.500000 2.337998 92.7553 8.952826 1.304870
6554.5 6554.5 0.500000 2.339005 92.7729 8.945450 1.303163
6554.6 6554.6 0.500000 2.339889 92.7809 8.938204 1.301557
6554.69 6554.7 0.500000 2.340744 92.772 8.929854 1.300138
6554.8 6554.8 0.500000 2.341446 92.7442 8.920827 1.298934
6554.9 6554.9 0.500000 2.342069 92.7304 8.913680 1.298104
6555 6555 0.500000 2.342749 92.7371 8.908521 1.298246
6555.1 6555.1 0.500000 2.343421 92.7577 8.904505 1.297954
6555.2 6555.2 0.500000 2.343948 92.7771 8.901618 1.297767
6555.29 6555.3 0.500000 2.344570 92.7663 8.895185 1.297285
6555.4 6555.4 0.500000 2.345076 92.7514 8.889102 1.297578
6555.5 6555.5 0.500000 2.345794 92.7407 8.881669 1.297491
6555.6 6555.6 0.500000 2.346244 92.7498 8.878658 1.298094
6555.69 6555.7 0.500000 2.346951 92.7621 8.873733 1.299114
6555.8 6555.8 0.500000 2.347722 92.7449 8.864903 1.299642
6555.9 6555.9 0.500000 2.348254 92.7465 8.860473 1.300438
6556 6556 0.500000 2.349122 92.7511 8.853378 1.300580
6556.1 6556.1 0.500000 2.349758 92.7621 8.848626 1.302011
6556.2 6556.2 0.500000 2.350424 92.7467 8.841289 1.302730
6556.3 6556.3 0.500000 2.351191 92.7275 8.832754 1.303493
6556.4 6556.4 0.500000 2.352061 92.7303 8.825361 1.303955
6556.5 6556.5 0.500000 2.352775 92.7309 8.818885 1.305737
6556.6 6556.6 0.500000 2.353571 92.744 8.813433 1.306520
6556.7 6556.7 0.500000 2.354326 92.7494 8.807167 1.307343
6556.8 6556.8 0.500000 2.355062 92.7424 8.799921 1.308870
6556.9 6556.9 0.500000 2.355814 92.7292 8.792311 1.309682
6557 6557 0.500000 2.356498 92.7174 8.785101 1.310476
6557.1 6557.1 0.500000 2.357121 92.7138 8.779186 1.311895
6557.2 6557.2 0.500000 2.357810 92.7399 8.775782 1.313500
6557.3 6557.3 0.500000 2.358350 92.7467 8.771566 1.315580
6557.4 6557.4 0.500000 2.358726 92.7314 8.766723 1.316526
6557.5 6557.5 0.500000 2.359050 92.7154 8.762439 1.317716
6557.6 6557.6 0.500000 2.359508 92.7243 8.759323 1.319325
6557.7 6557.7 0.500000 2.359686 92.7241 8.757647 1.321166
6557.8 6557.8 0.500000 2.359869 92.7366 8.757274 1.322459
6557.9 6557.9 0.500000 2.359954 92.7301 8.755884 1.323738
6558 6558 0.500000 2.360086 92.7145 8.753289 1.325270
6558.1 6558.1 0.500000 2.360005 92.7244 8.754917 1.327446
6558.2 6558.2 0.500000 2.359959 92.7277 8.755623 1.328341
6558.3 6558.3 0.500000 2.359910 92.7269 8.755976 1.330479
6558.4 6558.4 0.500000 2.359758 92.7198 8.756648 1.331517
6558.5 6558.5 0.500000 2.359659 92.7199 8.757513 1.333501
6558.6 6558.6 0.500000 2.359457 92.7196 8.759262 1.335109
6558.7 6558.7 0.500000 2.359333 92.7222 8.760601 1.336402
6558.8 6558.8 0.500000 2.359180 92.7318 8.762824 1.337717
6558.9 6558.9 0.500000 2.359158 92.7232 8.762229 1.339163
6559 6559 0.500000 2.359215 92.732 8.762588 1.339605
6559.1 6559.1 0.500000 2.359135 92.7187 8.761991 1.340349
6559.2 6559.2 0.500000 2.359113 92.7089 8.761238 1.341203
6559.3 6559.3 0.500000 2.359299 92.723 8.760958 1.342101
6559.4 6559.4 0.500000 2.359300 92.7136 8.760063 1.342273
6559.5 6559.5 0.500000 2.359343 92.7172 8.760044 1.343252
6559.6 6559.6 0.500000 2.359485 92.7028 8.757439 1.343329
6559.7 6559.7 0.500000 2.359611 92.711 8.757114 1.344065
6559.8 6559.8 0.500000 2.359725 92.7069 8.755748 1.344054
6559.9 6559.9 0.500000 2.359772 92.6934 8.754003 1.343889
6560 6560 0.500000 2.359953 92.66 8.749295 1.343275
6560.1 6560.1 0.500000 2.360047 92.6333 8.745985 1.343292
6560.2 6560.2 0.500000 2.360163 92.6249 8.744142 1.343568
6560.31 6560.3 0.500000 2.360084 92.5971 8.742188 1.343188
6560.4 6560.4 0.500000 2.360175 92.5884 8.740604 1.343495
6560.5 6560.5 0.500000 2.360112 92.569 8.739329 1.342414
6560.6 6560.6 0.500000 2.359978 92.5423 8.737969 1.342833
6560.7 6560.7 0.500000 2.359893 92.4977 8.734486 1.342129
6560.8 6560.8 0.500000 2.359592 92.4761 8.735050 1.342279
6560.9 6560.9 0.500000 2.359127 92.4635 8.737965 1.342831
6561 6561 0.500000 2.358730 92.4809 8.743054 1.343322
6561.1 6561.1 0.500000 2.358100 92.5073 8.751004 1.344579
6561.2 6561.2 0.500000 2.357520 92.5507 8.760185 1.345588
6561.3 6561.3 0.500000 2.356880 92.5928 8.769813 1.346837
6561.4 6561.4 0.500000 2.356122 92.6343 8.780445 1.348334
6561.5 6561.5 0.500000 2.355333 92.6381 8.787754 1.349216
6561.6 6561.6 0.500000 2.354546 92.6684 8.797446 1.350331
6561.7 6561.7 0.500000 2.353618 92.6859 8.807156 1.351756
6561.8 6561.8 0.500000 2.352712 92.6972 8.816731 1.352802
6561.9 6561.9 0.500000 2.351687 92.6795 8.823758 1.353433
6562 6562 0.500000 2.350764 92.6628 8.830220 1.354263
6562.1 6562.1 0.500000 2.349671 92.676 8.841403 1.355517
6562.19 6562.2 0.500000 2.348711 92.6734 8.849315 1.355742
6562.3 6562.3 0.500000 2.347493 92.6825 8.860870 1.357574
6562.4 6562.4 0.500000 2.346357 92.6729 8.870540 1.358989
6562.5 6562.5 0.500000 2.345145 92.6676 8.880601 1.360325
6562.6 6562.6 0.500000 2.344012 92.6665 8.890308 1.360810
6562.7 6562.7 0.500000 2.342684 92.7929 8.914742 1.364720
6562.8 6562.8 0.500000 2.341548 92.8825 8.933192 1.366874
6562.9 6562.9 0.500000 2.340398 92.8795 8.943585 1.368317
6563 6563 0.500000 2.339175 92.8706 8.953216 1.369119
6563.1 6563.1 0.500000 2.338155 92.8778 8.963187 1.370913
6563.2 6563.2 0.500000 2.336982 92.8745 8.973243 1.371541
6563.3 6563.3 0.500000 2.335883 92.8764 8.983481 1.373072
6563.4 6563.4 0.500000 2.334852 92.8848 8.993392 1.374233
6563.5 6563.5 0.500000 2.333853 92.887 9.002596 1.374912
6563.6 6563.6 0.500000 2.332906 92.8766 9.010068 1.375930
6563.7 6563.7 0.500000 2.332092 92.8683 9.016987 1.376887
6563.8 6563.8 0.500000 2.331189 92.8568 9.023718 1.377577
6563.9 6563.9 0.500000 2.330324 92.8639 9.032143 1.379060
6564 6564 0.500000 2.329535 92.8897 9.042051 1.379834
6564.1 6564.1 0.500000 2.328855 92.8901 9.048039 1.380567
6564.2 6564.2 0.500000 2.328096 92.9009 9.055884 1.381480
6564.3 6564.3 0.500000 2.327495 92.9771 9.068719 1.383267
6564.4 6564.4 0.500000 2.326816 92.9931 9.076383 1.384343
6564.5 6564.5 0.500000 2.326282 92.9956 9.081595 1.384556
6564.6 6564.6 0.500000 2.325688 92.9804 9.085457 1.384613
6564.7 6564.7 0.500000 2.325258 92.9627 9.087809 1.385618
6564.79 6564.8 0.500000 2.324763 92.9702 9.092800 1.385866
6564.9 6564.9 0.500000 2.324274 92.978 9.098240 1.386759
6565 6565 0.500000 2.323834 92.9714 9.101612 1.387244
6565.1 6565.1 0.500000 2.323449 92.9824 9.106083 1.387637
6565.2 6565.2 0.500000 2.322931 92.9694 9.109628 1.388311
6565.3 6565.3 0.500000 2.322581 92.9653 9.112445 1.388736
6565.4 6565.4 0.500000 2.322199 92.9694 9.116174 1.389885
6565.51 6565.5 0.500000 2.321885 92.9692 9.119226 1.389496
6565.6 6565.6 0.500000 2.321345 92.9719 9.124341 1.390285
6565.7 6565.7 0.500000 2.320926 92.9695 9.128043 1.391274
6565.8 6565.8 0.500000 2.320491 92.9739 9.132392 1.391694
6565.9 6565.9 0.500000 2.320015 92.9662 9.135835 1.392097
6566 6566 0.500000 2.319594 92.9564 9.138853 1.392148
6566.1 6566.1 0.500000 2.319082 92.958 9.143604 1.393448
6566.2 6566.2 0.500000 2.318590 92.975 9.149903 1.394564
6566.31 6566.3 0.500000 2.317888 92.9523 9.154212 1.395214
6566.4 6566.4 0.500000 2.317375 92.9507 9.158356 1.395858
6566.5 6566.5 0.500000 2.316746 92.9576 9.164899 1.396872
6566.6 6566.6 0.500000 2.316043 92.9632 9.171948 1.397796
6566.7 6566.7 0.500000 2.315237 92.9534 9.178206 1.398564
6566.8 6566.8 0.500000 2.314422 92.9729 9.187990 1.401041
6566.9 6566.9 0.500000 2.313553 92.9479 9.193187 1.400959
6566.99 6567 0.500000 2.312803 92.9421 9.199299 1.402602
6567.1 6567.1 0.500000 2.311997 92.9436 9.207206 1.403625
6567.2 6567.2 0.500000 2.311148 92.946 9.215104 1.405112
6567.3 6567.3 0.500000 2.310168 92.9562 9.225054 1.406589
6567.4 6567.4 0.500000 2.309265 92.9527 9.233202 1.408019
6567.49 6567.5 0.500000 2.308431 92.9419 9.239475 1.409284
6567.6 6567.6 0.500000 2.307380 92.9272 9.248052 1.410795
6567.7 6567.7 0.500000 2.306422 92.9244 9.256601 1.412293
6567.8 6567.8 0.500000 2.305466 92.9502 9.267880 1.413673
6567.9 6567.9 0.500000 2.304558 92.9636 9.277890 1.415539
6568 6568 0.500000 2.303642 92.9579 9.285676 1.416999
6568.1 6568.1 0.500000 2.302735 92.9292 9.291292 1.418321
6568.2 6568.2 0.500000 2.301987 92.9334 9.298874 1.419441
6568.3 6568.3 0.500000 2.301258 92.9417 9.306382 1.420979
6568.4 6568.4 0.500000 2.300475 92.937 9.313198 1.422549
6568.5 6568.5 0.500000 2.299664 92.9322 9.320523 1.423794
6568.6 6568.6 0.500000 2.298966 92.9334 9.326833 1.424493
6568.71 6568.7 0.500000 2.298421 92.9311 9.331926 1.425259
6568.8 6568.8 0.500000 2.297832 92.9371 9.337959 1.426938
6568.9 6568.9 0.500000 2.297261 93.655 9.415729 1.439022
6569 6569 0.700000 2.296620 130.125 13.0903 2.000458
6570.09 6570.08 0.710000 2.292073 131.989 13.338 2.040886
6571.19 6571.18 0.730000 2.288222 135.688 13.7648 2.108241
6572.29 6572.29 0.740000 2.284420 137.542 14.006 2.146226
6573.44 6573.43 0.750000 2.280019 139.43 14.2614 2.183574
6574.59 6574.58 0.760000 2.274054 141.316 14.5407 2.222203
6575.77 6575.76 0.780000 2.266696 145.048 15.0346 2.292792
6576.96 6576.95 0.790000 2.258928 146.925 15.3482 2.333844
6578.17 6578.16 0.800000 2.250157 148.775 15.6781 2.377771
6579.4 6579.39 0.810000 2.240253 150.686 16.0378 2.424481
6580.65 6580.64 0.830000 2.231025 154.4 16.5852 2.498533
6581.92 6581.91 0.840000 2.223532 156.294 16.9147 2.541191
6583.21 6583.2 0.850000 2.217134 158.166 17.2275 2.583624
6584.52 6584.51 0.860000 2.210907 160.039 17.5402 2.629585
6585.84 6585.83 0.880000 2.205471 163.796 18.05 2.711316
6587.19 6587.18 0.890000 2.201214 165.366 18.3006 2.761171
6588.55 6588.54 0.900000 2.198637 167.563 18.5917 2.822136
6589.94 6589.93 0.910000 2.197141 169.42 18.8257 2.873388
6591.34 6591.33 0.930000 2.196924 173.145 19.2438 2.952726
6592.76 6592.75 0.940000 2.198406 175.05 19.4267 2.993358
6594.2 6594.19 0.950000 2.201576 176.957 19.5764 3.028840
6595.66 6595.65 0.960000 2.205963 178.79 19.6924 3.060571
6597.14 6597.13 0.980000 2.209457 182.551 20.0365 3.129091
6598.64 6598.63 0.990000 2.210851 184.476 20.2196 3.168779
6600.15 6600.14 1.000000 2.211423 186.368 20.4154 3.206326
6601.69 6601.68 1.010000 2.211948 187.823 20.5639 3.232305
6603.25 6603.24 1.030000 2.212868 191.971 20.9988 3.299941
6604.82 6604.81 1.040000 2.214027 193.883 21.1833 3.327338
6606.41 6606.4 1.050000 2.215109 195.741 21.3632 3.350903
6608.02 6608.01 1.060000 2.215993 197.623 21.5495 3.375756
6609.66 6609.65 1.080000 2.216194 201.422 21.9594 3.433379
6611.31 6611.3 1.090000 2.215460 203.298 22.1803 3.462528
6612.98 6612.97 1.100000 2.213883 205.186 22.4215 3.495259
6614.66 6614.65 1.110000 2.211656 207.047 22.6753 3.530896
6616.37 6616.36 1.130000 2.208790 210.792 23.1517 3.603743
6618.1 6618.09 1.140000 2.206021 212.713 23.4275 3.648247
6619.84 6619.83 1.150000 2.204027 214.571 23.6793 3.691716
6621.61 6621.6 1.160000 2.202867 216.674 23.9392 3.738310
6623.39 6623.38 1.180000 2.201833 220.625 24.4009 3.818190
6625.19 6625.18 1.190000 2.200373 222.784 24.6759 3.870562
6627.01 6627 1.200000 2.198138 224.661 24.9396 3.922485
6628.85 6628.84 1.210000 2.195314 226.366 25.1996 3.973384
6630.71 6630.7 1.230000 2.191733 230.324 25.7323 4.066245
6632.59 6632.58 1.240000 2.188029 232.203 26.0386 4.122832
6634.49 6634.48 1.250000 2.184549 234.119 26.3449 4.176690
6636.41 6636.4 1.260000 2.181016 236.021 26.653 4.227896
6638.34 6638.33 1.280000 2.177800 239.742 27.1602 4.311400
6640.3 6640.29 1.290000 2.175226 241.589 27.4403 4.359163
6642.26 6642.26 1.300000 2.172794 243.49 27.7233 4.409768
6644.27 6644.26 1.310000 2.170557 245.42 28.0059 4.463695
6646.28 6646.27 1.330000 2.168382 249.43 28.5251 4.558610
6648.31 6648.3 1.340000 2.166103 251.429 28.8192 4.620300
6650.36 6650.35 1.350000 2.163539 253.309 29.1094 4.680149
6652.43 6652.42 1.360000 2.160439 255.209 29.4186 4.743074
6654.52 6654.51 1.380000 2.156854 259.048 29.9687 4.844162
6656.62 6656.61 1.390000 2.153141 260.898 30.295 4.906712
6658.75 6658.74 1.400000 2.149442 262.804 30.6292 4.969816
6660.9 6660.89 1.410000 2.145733 264.686 30.9633 5.029256
6663.06 6663.05 1.430000 2.141990 268.569 31.5352 5.126025
6665.24 6665.23 1.440000 2.138234 270.438 31.8744 5.182633
6667.45 6667.44 1.450000 2.134761 272.321 32.2077 5.236619
6669.67 6669.66 1.460000 2.131622 274.279 32.5413 5.290579
6671.91 6671.9 1.480000 2.128663 278.051 33.0868 5.380498
6674.16 6674.16 1.490000 2.125775 279.923 33.4058 5.433810
6676.45 6676.44 1.500000 2.122800 281.871 33.7386 5.491780
6678.74 6678.74 1.510000 2.119811 283.812 34.0725 5.552044
6681.05 6681.05 1.530000 2.116763 287.575 34.6296 5.650814
6683.39 6683.39 1.540000 2.113847 289.446 34.9568 5.713754
6685.75 6685.74 1.550000 2.111235 291.354 35.2794 5.777816
6688.13 6688.12 1.560000 2.108959 293.287 35.5944 5.844722
6690.51 6690.51 1.580000 2.106629 296.994 36.1282 5.947901
6692.92 6692.92 1.590000 2.104363 298.946 36.4482 6.019582
6695.35 6695.35 1.600000 2.102074 300.821 36.7607 6.090165
6697.8 6697.8 1.610000 2.099935 302.724 37.0726 6.161441
6700.26 6700.27 1.630000 2.098021 306.561 37.6143 6.270707
6702.76 6702.76 1.640000 2.096252 308.34 37.8997 6.335679
6705.27 6705.27 1.650000 2.094440 310.277 38.2069 6.404999
6707.79 6707.79 1.660000 2.092496 312.129 38.5098 6.471620
6710.34 6710.34 1.680000 2.090484 315.845 39.0467 6.574193
6712.9 6712.9 1.690000 2.088361 317.763 39.3673 6.639927
6715.49 6715.49 1.700000 2.086101 319.643 39.6898 6.703588
6718.09 6718.09 1.710000 2.083198 321.489 40.0353 6.770989
6720.7 6720.71 1.730000 2.079680 325.247 40.6457 6.883349
6723.35 6723.35 1.740000 2.075687 327.075 41.0381 6.959051
6726.01 6726.01 1.750000 2.071662 328.934 41.4371 7.035698
6728.69 6728.69 1.760000 2.067550 330.863 41.8522 7.114823
6731.39 6731.39 1.780000 2.063332 334.542 42.4966 7.233139
6734.11 6734.11 1.790000 2.059097 336.423 42.9171 7.314197
6736.85 6736.84 1.800000 2.054959 338.324 43.3386 7.397303
6739.6 6739.6 1.810000 2.050965 340.047 43.7335 7.477139
6742.37 6742.37 1.830000 2.047282 343.812 44.3807 7.602886
6745.17 6745.17 1.840000 2.043690 345.623 44.775 7.686793
6747.98 6747.98 1.850000 2.040219 347.49 45.1734 7.775140
6750.81 6750.81 1.860000 2.036741 349.328 45.5706 7.863147
6753.66 6753.66 1.880000 2.033490 352.963 46.1947 7.991979
6756.53 6756.53 1.890000 2.030279 354.786 46.5824 8.079091
6759.42 6759.42 1.900000 2.027033 356.614 46.9748 8.167053
6762.32 6762.32 1.910000 2.023824 358.393 47.361 8.254266
6765.24 6765.25 1.930000 2.020492 361.994 47.9962 8.383957
6768.2 6768.2 1.940000 2.017034 363.805 48.4038 8.474915
6771.16 6771.16 1.950000 2.013196 365.745 48.849 8.573933
6774.14 6774.14 1.960000 2.009361 367.909 49.3271 8.679144
6777.15 6777.15 1.980000 2.005488 372.117 50.0848 8.835246
6780.17 6780.17 1.990000 2.001651 373.77 50.5005 8.932417
6783.21 6783.21 2.000000 1.997756 375.733 50.9641 9.038725
6786.27 6786.27 2.010000 1.993899 377.54 51.4071 9.139505
6789.35 6789.35 2.030000 1.990147 381.078 52.0841 9.283208
6792.45 6792.45 2.040000 1.986259 379.696 52.097 9.307611
6795.56 6795.56 2.050000 1.982828 383.327 52.7762 9.448300
6798.7 6798.7 2.060000 1.979242 386.373 53.3867 9.578611
6801.85 6801.85 2.080000 1.975652 390.274 54.1193 9.728741
6805.03 6805.03 2.090000 1.972067 392.624 54.6405 9.838841
6808.23 6808.22 2.100000 1.968646 394.568 55.0992 9.940741
6811.43 6811.43 2.110000 1.965051 371.35 52.0437 9.403308
6814.66 6814.66 2.130000 1.961821 397.881 55.9424 10.1262
6817.92 6817.92 2.140000 1.958546 400.794 56.5368 10.2531
6821.18 6821.18 2.150000 1.955034 389.49 55.1352 10.0184
6824.47 6824.47 2.160000 1.952176 401.936 57.0602 10.3885
6827.78 6827.78 2.180000 1.948899 406.607 57.9127 10.567
6831.11 6831.11 2.190000 1.945525 408.693 58.4067 10.6826
6834.46 6834.45 2.200000 1.942040 410.188 58.825 10.7859
6837.82 6837.82 2.210000 1.938437 411.509 59.2275 10.8875
6841.2 6841.2 2.230000 1.934945 406.32 58.6851 10.8153
6844.6 6844.6 2.240000 1.930868 416.3 60.3721 11.1548
6848.03 6848.03 2.250000 1.926908 418.217 60.8906 11.2804
6851.47 6851.47 2.260000 1.922847 419.756 61.3632 11.3974
6854.94 6854.93 2.280000 1.918814 423.294 62.1305 11.5709
6858.4 6858.4 2.290000 1.914684 425.008 62.6403 11.6959
6861.9 6861.9 2.300000 1.910549 425.95 63.0393 11.8011
6865.42 6865.42 2.310000 1.906602 427.931 63.5829 11.9343
6868.96 6868.96 2.330000 1.902704 431.694 64.3923 12.1156
6872.52 6872.51 2.340000 1.898830 433.713 64.9448 12.2519
6876.1 6876.09 2.350000 1.894919 435.575 65.4791 12.3837
6879.68 6879.68 2.360000 1.891157 437.159 65.9649 12.505
6883.3 6883.29 2.380000 1.887062 441.407 66.8793 12.7094
6886.93 6886.92 2.390000 1.883034 443.344 67.4438 12.846
6890.57 6890.57 2.400000 1.878986 445.03 67.975 12.9773
6894.24 6894.24 2.410000 1.874917 446.956 68.5475 13.1176
6897.93 6897.93 2.430000 1.870751 450.437 69.37 13.3052
6901.64 6901.64 2.440000 1.866541 452.281 69.9475 13.4451
6905.36 6905.36 2.450000 1.862468 453.908 70.4858 13.5795
6909.11 6909.11 2.460000 1.858544 455.456 71.0041 13.7112
6912.87 6912.87 2.480000 1.854537 458.75 71.805 13.8982
6916.66 6916.66 2.490000 1.850661 460.371 72.3385 14.0334
6920.46 6920.46 2.500000 1.846549 461.934 72.8834 14.1739
6924.28 6924.28 2.510000 1.842558 463.489 73.4208 14.3111
6928.12 6928.12 2.530000 1.838478 467.139 74.3015 14.5206
6931.98 6931.98 2.540000 1.834384 468.678 74.8523 14.6664
6935.86 6935.86 2.550000 1.830334 470.365 75.4267 14.8152
6939.76 6939.76 2.560000 1.826346 472.188 76.0216 14.9684
6943.69 6943.68 2.580000 1.822299 476.458 77.0204 15.2024
6947.62 6947.61 2.590000 1.818220 478.065 77.5962 15.3557
6951.58 6951.57 2.600000 1.814143 479.672 78.1753 15.5093
6955.55 6955.54 2.610000 1.810074 481.288 78.7583 15.6658
6959.55 6959.54 2.630000 1.805981 484.742 79.649 15.8856
6963.56 6963.55 2.640000 1.801947 486.342 80.2347 16.0439
6967.59 6967.58 2.650000 1.797851 487.835 80.8114 16.2028
6971.63 6971.63 2.660000 1.793728 489.459 81.4152 16.3671
6975.71 6975.7 2.680000 1.789550 493.201 82.3811 16.6063
6979.79 6979.79 2.690000 1.785361 495.208 83.0631 16.7877
6983.91 6983.9 2.700000 1.781252 496.591 83.6384 16.9487
6988.03 6988.02 2.710000 1.777056 498.214 84.2647 17.1174
6992.17 6992.17 2.730000 1.772924 501.449 85.1625 17.3448
6996.34 6996.33 2.740000 1.768833 503.093 85.7921 17.5179
7000.52 7000.52 2.750000 1.764614 504.553 86.4048 17.6866
7004.73 7004.72 2.760000 1.760463 506.153 87.0394 17.8615
7008.94 7008.94 2.780000 1.756231 509.431 87.9748 18.098
7013.19 7013.18 2.790000 1.751998 510.866 88.5969 18.2717
7017.45 7017.44 2.800000 1.747730 512.462 89.2539 18.4531
7021.73 7021.72 2.810000 1.743485 513.731 89.8557 18.6237
7026.02 7026.02 2.830000 1.739202 516.994 90.8142 18.8688
7030.35 7030.34 2.840000 1.734871 518.473 91.4693 19.0563
7034.68 7034.67 2.850000 1.730518 519.844 92.1113 19.2404
7039.04 7039.03 2.860000 1.726196 521.276 92.7653 19.4293
7043.4 7043.4 2.880000 1.721702 524.486 93.7569 19.687
7047.8 7047.8 2.890000 1.717389 525.723 94.3839 19.8691
7052.21 7052.21 2.900000 1.713041 527.115 95.046 20.0621
7056.64 7056.64 2.910000 1.708743 528.604 95.7252 20.2584
7061.09 7061.09 2.930000 1.704547 530.134 96.4058 20.4561
7065.56 7065.56 2.940000 1.700319 533.273 97.3877 20.7187
7070.06 7070.05 2.950000 1.696175 531.14 97.401 20.7765
7074.57 7074.56 2.960000 1.691878 531.63 97.911 20.9411
7079.09 7079.08 2.980000 1.687736 539.177 99.7129 21.3852
7083.63 7083.63 2.990000 1.683725 540.315 100.325 21.5733
7088.19 7088.19 3.000000 1.679773 542.049 101.045 21.7847
7092.79 7092.78 3.010000 1.675922 543.492 101.705 21.9877
7097.38 7097.38 3.030000 1.672268 546.731 102.685 22.2579
7102.01 7102 3.040000 1.669075 547.944 103.243 22.4381
7106.65 7106.64 3.050000 1.666727 549.131 103.709 22.5996
7111.31 7111.3 3.060000 1.670832 549.627 103.378 22.5733
7115.98 7115.98 3.080000 1.676639 552.037 103.23 22.5874
7120.69 7120.68 3.090000 1.721491 551.22 98.538 21.6006
7125.4 7125.4 3.100000 2.131959 542.501 64.3518 14.1223
7130.13 7130.13 3.110000 2.542184 530.877 41.7795 9.181868
7134.89 7134.89 3.130000 2.553543 533.528 41.5113 9.148881
7139.67 7139.66 3.140000 2.461274 539.071 45.9994 10.1657
7144.46 7144.46 3.150000 2.343785 541.995 52.0098 11.527
7149.28 7149.27 3.160000 2.280488 545.246 55.7423 12.3892
7154.11 7154.1 3.180000 2.212617 551.325 60.3222 13.4428
7158.95 7158.95 3.190000 2.166821 553.254 63.3691 14.1608
7163.82 7163.82 3.200000 2.169033 554.267 63.3451 14.1959
7168.72 7168.71 3.210000 2.207546 554.939 61.0262 13.7125
7173.63 7173.62 3.230000 2.260122 557.268 58.1435 13.1
7178.55 7178.54 3.240000 2.291071 557.886 56.4336 12.7479
7183.49 7183.49 3.250000 2.286879 559.049 56.7892 12.8624
7188.45 7188.45 3.260000 2.273001 559.71 57.6504 13.0922
7193.44 7193.44 3.280000 2.258992 563.153 58.8228 13.395
7198.44 7198.44 3.290000 2.253765 564.474 59.2702 13.5337
7203.46 7203.46 3.300000 2.243414 566.367 60.0877 13.7587
7208.5 7208.5 3.310000 2.227724 568.009 61.2151 14.0544
7213.57 7213.56 3.330000 2.211706 571.208 62.5541 14.4027
7218.64 7218.64 3.340000 2.200491 572.264 63.3759 14.6311
7223.74 7223.74 3.350000 2.192971 572.885 63.9237 14.7993
7228.87 7228.86 3.360000 2.186103 575.143 64.6183 15.002
7233.99 7233.99 3.380000 2.177301 577.725 65.4822 15.2448
7239.15 7239.15 3.390000 2.169618 578.58 66.0848 15.4282
7244.32 7244.32 3.400000 2.167923 580.002 66.3595 15.5344
7249.52 7249.52 3.410000 2.170110 580.013 66.216 15.5404
7254.73 7254.73 3.430000 2.171792 578.287 65.908 15.5113
7259.96 7259.96 3.440000 2.170285 583.391 66.59 15.7155
7265.21 7265.21 3.450000 2.166314 583.383 66.8542 15.821
7270.48 7270.48 3.460000 2.160315 588.832 67.8842 16.1071
7275.77 7275.77 3.480000 2.156024 591.957 68.538 16.3069
7281.08 7281.08 3.490000 2.152277 582.511 67.6977 16.1506