File: xdidata/Mn/Mn-K-Macfallite.xdi
# XDI/1.0 BlueSky/1.5.3
# Beamline.name: 6BM
# Beamline.xray_source: NSLS-II three-pole wiggler
# Beamline.collimation: paraboloid mirror, 5 nm Rh on 30 nm Pt
# Beamline.focusing: not in use
# Beamline.harmonic_rejection: flat mirror, Si stripe, pitch = 7.0 mrad relative to beam
# Detector.i0: 10 cm N2
# Detector.i1: 25 cm N2
# Detector.i2: 25 cm N2
# Element.symbol: Mn
# Element.edge: K
# Facility.name: NSLS-II
# Facility.energy: 3.0
# Facility.current: 400.9
# Facility.mode: top-off
# Facility.gup: 305081
# Facility.saf: 305123
# Mono.name: Si(111)
# Mono.d_spacing: 3.13532
# Mono.encoder_resolution: 0.0000050 deg/ct
# Mono.angle_offset: 16.0581 deg
# Mono.scan_mode: fixed exit
# Mono.scan_type: step
# Mono.direction: forward in energy
# Sample.name: Ca2Mn3(SiO4)(Si2O7)(OH)3
# Sample.prep: Powder in polyethylene glycol pellet
# Sample.x_position: -120.140 mm
# Sample.y_position: 112.312 mm
# Scan.experimenters: Neil Hyatt, Martin Stennett, Lucy Mottram
# Scan.edge_energy: 6539.0
# Scan.start_time: 2019-11-11T14:40:07
# Scan.end_time: 2019-11-12T00:44:04
# Scan.transient_id: 17897
# Scan.uid: 3649bb4e-08b9-4658-bb13-b80cc3aa5441
# Scan.plot_hint: ln(I0/It)  --  ln($5/$6)
# Scan.sequence: merge of 5 scans
# Column.1: energy eV
# Column.2: requested_energy eV
# Column.3: measurement_time seconds
# Column.4: mutrans
# Column.5: i0
# Column.6: itrans
# Column.7: irefer
# /////
#  Mineral
# -----
# energy   requested_energy   measurement_time   mutrans   i0   itrans   irefer
6339.02 6339 0.500000 2.085022 89.9104 11.1766 2.552910
6349.01 6349 0.500000 2.073430 90.0675 11.3264 2.605964
6359.01 6359 0.500000 2.061893 90.2345 11.4791 2.659445
6369.03 6369 0.500000 2.050336 90.4119 11.6354 2.714438
6379.02 6379 0.500000 2.038701 90.5843 11.7939 2.770025
6389.02 6389 0.500000 2.027223 90.7501 11.952 2.826450
6399.01 6399 0.500000 2.015738 90.9154 12.1119 2.884099
6409.01 6409 0.500000 2.004328 91.0714 12.2719 2.941667
6419.01 6419 0.500000 1.992971 91.2341 12.4343 3.000674
6429.01 6429 0.500000 1.981753 91.3863 12.5956 3.059513
6439.01 6439 0.500000 1.970463 91.5152 12.7565 3.118903
6449.01 6449 0.500000 1.959591 91.5112 12.8954 3.174166
6459.01 6459 0.500000 1.948577 91.506 13.0375 3.229746
6469.01 6469 0.500000 1.937531 92.0004 13.2536 3.304069
6479 6479 0.500000 1.926642 92.1498 13.4203 3.366221
6489.01 6489 0.500000 1.915938 92.319 13.5898 3.430346
6499 6499 0.500000 1.905153 92.4827 13.7615 3.494524
6509.4 6509 0.500000 1.894677 92.6564 13.9357 3.559578
6510.99 6511 0.500000 1.892678 92.6738 13.9629 3.569783
6512.99 6513 0.500000 1.890653 92.68 13.9922 3.580287
6514.99 6515 0.500000 1.888596 92.7011 14.0228 3.592308
6516.98 6517 0.500000 1.886639 92.7372 14.0563 3.604193
6519.41 6519 0.500000 1.884641 92.7669 14.0941 3.617784
6521.11 6521 0.500000 1.882803 92.7961 14.1214 3.627013
6523.22 6523 0.500000 1.880831 92.829 14.1554 3.638199
6524.98 6525 0.500000 1.878970 92.859 14.1831 3.647199
6526.98 6527 0.500000 1.877231 92.9413 14.2212 3.657710
6528.98 6529 0.500000 1.875490 92.9693 14.2503 3.664558
6529.08 6529.1 0.500000 1.875378 92.9698 14.2519 3.664765
6529.18 6529.2 0.500000 1.875383 92.9674 14.2515 3.665067
6529.28 6529.3 0.500000 1.875268 92.9497 14.2506 3.664957
6529.38 6529.4 0.500000 1.875165 92.9467 14.2515 3.664943
6529.48 6529.5 0.500000 1.875117 92.9466 14.2522 3.665019
6529.58 6529.6 0.500000 1.874993 92.9367 14.2525 3.664806
6529.68 6529.7 0.500000 1.874929 92.9353 14.2531 3.664979
6529.78 6529.8 0.500000 1.874847 92.9366 14.2545 3.665065
6529.89 6529.9 0.500000 1.874785 92.9361 14.2553 3.665082
6529.98 6530 0.500000 1.874702 92.9309 14.2557 3.665207
6530.09 6530.1 0.500000 1.874581 92.9327 14.2577 3.665124
6530.19 6530.2 0.500000 1.874460 92.9322 14.2594 3.665615
6530.29 6530.3 0.500000 1.874366 92.9326 14.2608 3.665982
6530.39 6530.4 0.500000 1.874387 92.9322 14.2604 3.665548
6530.49 6530.5 0.500000 1.874233 92.9265 14.2617 3.665813
6530.59 6530.6 0.500000 1.874247 92.935 14.2628 3.666334
6530.69 6530.7 0.500000 1.874158 92.9314 14.2635 3.665992
6530.78 6530.8 0.500000 1.874047 92.9338 14.2654 3.666053
6530.89 6530.9 0.500000 1.873974 92.9223 14.2647 3.665449
6530.99 6531 0.500000 1.873914 92.9259 14.2662 3.665543
6531.09 6531.1 0.500000 1.873826 92.9183 14.2662 3.665890
6531.19 6531.2 0.500000 1.873715 92.9212 14.2682 3.666191
6531.29 6531.3 0.500000 1.873679 92.9196 14.2685 3.665955
6531.39 6531.4 0.500000 1.873607 92.9203 14.2696 3.665401
6531.49 6531.5 0.500000 1.873558 92.9168 14.2698 3.665290
6531.59 6531.6 0.500000 1.873419 92.9218 14.2726 3.665749
6531.69 6531.7 0.500000 1.873422 92.9213 14.2725 3.665701
6531.79 6531.8 0.500000 1.873379 92.9182 14.2726 3.664979
6531.9 6531.9 0.500000 1.873239 92.9215 14.2751 3.665270
6531.99 6532 0.500000 1.873168 92.917 14.2754 3.664673
6532.1 6532.1 0.500000 1.873116 92.9235 14.2772 3.664901
6532.2 6532.2 0.500000 1.872984 92.9257 14.2794 3.665004
6532.3 6532.3 0.500000 1.872922 92.9194 14.2793 3.664854
6532.4 6532.4 0.500000 1.872935 92.9167 14.2787 3.663348
6532.5 6532.5 0.500000 1.872849 92.9135 14.2794 3.663938
6532.6 6532.6 0.500000 1.872834 92.9144 14.2798 3.663646
6532.7 6532.7 0.500000 1.872649 92.9142 14.2824 3.663302
6532.8 6532.8 0.500000 1.872637 92.9088 14.2818 3.662798
6532.9 6532.9 0.500000 1.872578 92.9071 14.2823 3.661978
6533 6533 0.500000 1.872572 92.9062 14.2823 3.661019
6533.1 6533.1 0.500000 1.872567 92.8974 14.281 3.660414
6533.2 6533.2 0.500000 1.872449 92.8982 14.2828 3.660036
6533.3 6533.3 0.500000 1.872430 92.8933 14.2823 3.659064
6533.4 6533.4 0.500000 1.872347 92.9065 14.2855 3.659237
6533.5 6533.5 0.500000 1.872246 92.9052 14.2868 3.658540
6533.6 6533.6 0.500000 1.872215 92.9031 14.2869 3.657935
6533.7 6533.7 0.500000 1.872124 92.8937 14.2867 3.656908
6533.8 6533.8 0.500000 1.872102 92.9019 14.2884 3.656671
6533.89 6533.9 0.500000 1.872044 92.9549 14.2973 3.657627
6533.99 6534 0.500000 1.872031 92.9539 14.2973 3.656119
6534.1 6534.1 0.500000 1.871899 92.9612 14.3003 3.656000
6534.2 6534.2 0.500000 1.871816 92.9634 14.3018 3.654766
6534.3 6534.3 0.500000 1.871764 92.9647 14.3028 3.653496
6534.4 6534.4 0.500000 1.871756 92.9633 14.3027 3.651873
6534.5 6534.5 0.500000 1.871697 92.9607 14.3031 3.650683
6534.6 6534.6 0.500000 1.871690 92.9496 14.3016 3.648873
6534.7 6534.7 0.500000 1.871660 92.9538 14.3026 3.647123
6534.8 6534.8 0.500000 1.871671 92.9461 14.3013 3.645063
6534.9 6534.9 0.500000 1.871671 92.9411 14.3005 3.642401
6535 6535 0.500000 1.871634 92.9491 14.3023 3.640874
6535.1 6535.1 0.500000 1.871553 92.9521 14.3039 3.639168
6535.2 6535.2 0.500000 1.871520 92.9388 14.3023 3.636535
6535.3 6535.3 0.500000 1.871475 92.9389 14.3029 3.633785
6535.4 6535.4 0.500000 1.871430 92.9422 14.3041 3.630978
6535.5 6535.5 0.500000 1.871456 92.9473 14.3045 3.627045
6535.6 6535.6 0.500000 1.871430 92.9762 14.3093 3.625006
6535.7 6535.7 0.500000 1.871411 93.0097 14.3147 3.621714
6535.8 6535.8 0.500000 1.871399 93.0087 14.3147 3.617615
6535.9 6535.9 0.500000 1.871384 93.0078 14.3148 3.612997
6536 6536 0.500000 1.871402 93.0706 14.3242 3.608858
6536.1 6536.1 0.500000 1.871404 93.0779 14.3253 3.603923
6536.2 6536.2 0.500000 1.871421 93.0821 14.3257 3.597296
6536.3 6536.3 0.500000 1.871548 93.0775 14.3232 3.588716
6536.4 6536.4 0.500000 1.871488 93.0782 14.3241 3.580050
6536.5 6536.5 0.500000 1.871588 93.0714 14.3217 3.570047
6536.6 6536.6 0.500000 1.871709 93.0723 14.3201 3.557844
6536.7 6536.7 0.500000 1.871709 93.0738 14.3203 3.544050
6536.8 6536.8 0.500000 1.871861 93.0722 14.3179 3.528453
6536.9 6536.9 0.500000 1.872017 93.0631 14.3143 3.510109
6537 6537 0.500000 1.872082 93.0686 14.3141 3.488634
6537.1 6537.1 0.500000 1.872291 93.0687 14.3112 3.465719
6537.2 6537.2 0.500000 1.872528 93.0649 14.3072 3.438706
6537.3 6537.3 0.500000 1.872816 93.063 14.3028 3.409711
6537.4 6537.4 0.500000 1.873134 93.0652 14.2986 3.379125
6537.5 6537.5 0.500000 1.873511 93.073 14.2944 3.346573
6537.6 6537.6 0.500000 1.873957 93.0666 14.2869 3.311571
6537.7 6537.7 0.500000 1.874486 93.0663 14.2795 3.279337
6537.8 6537.8 0.500000 1.875107 93.0665 14.2705 3.246447
6537.9 6537.9 0.500000 1.875766 93.069 14.2615 3.214484
6537.99 6538 0.500000 1.876467 93.07 14.2519 3.185332
6538.1 6538.1 0.500000 1.877243 93.0716 14.2411 3.156877
6538.2 6538.2 0.500000 1.878200 93.0651 14.2263 3.129776
6538.3 6538.3 0.500000 1.878975 93.0683 14.2162 3.106728
6538.39 6538.4 0.500000 1.879784 93.0716 14.2055 3.085970
6538.5 6538.5 0.500000 1.880554 93.1333 14.203 3.065032
6538.6 6538.6 0.500000 1.881299 93.1377 14.1935 3.046342
6538.7 6538.7 0.500000 1.881986 93.1366 14.1836 3.028841
6538.8 6538.8 0.500000 1.882655 93.1374 14.1742 3.012049
6538.9 6538.9 0.500000 1.883246 93.1388 14.166 2.997116
6539 6539 0.500000 1.883712 93.1351 14.1589 2.982608
6539.1 6539.1 0.500000 1.884163 93.1371 14.1529 2.969580
6539.2 6539.2 0.500000 1.884428 93.1283 14.1476 2.956627
6539.3 6539.3 0.500000 1.884650 93.1364 14.1457 2.945238
6539.4 6539.4 0.500000 1.884660 93.1311 14.1448 2.934279
6539.5 6539.5 0.500000 1.884653 93.1351 14.1455 2.924018
6539.6 6539.6 0.500000 1.884576 93.1401 14.1473 2.914742
6539.7 6539.7 0.500000 1.884472 93.1347 14.148 2.905697
6539.81 6539.8 0.500000 1.884210 93.1312 14.1511 2.896546
6539.9 6539.9 0.500000 1.884180 93.1302 14.1515 2.888309
6540 6540 0.500000 1.884054 93.1341 14.1538 2.880273
6540.1 6540.1 0.500000 1.884074 93.1959 14.163 2.874659
6540.2 6540.2 0.500000 1.884133 93.1871 14.1608 2.866374
6540.3 6540.3 0.500000 1.884186 93.1908 14.1606 2.858889
6540.4 6540.4 0.500000 1.884474 93.1934 14.1568 2.851218
6540.5 6540.5 0.500000 1.884737 93.1921 14.153 2.844512
6540.6 6540.6 0.500000 1.885089 93.1907 14.1478 2.838073
6540.7 6540.7 0.500000 1.885453 93.1953 14.1433 2.832051
6540.8 6540.8 0.500000 1.885746 93.1957 14.1392 2.827223
6540.9 6540.9 0.500000 1.886075 93.1948 14.1345 2.823203
6541 6541 0.500000 1.886347 93.1973 14.1309 2.819594
6541.1 6541.1 0.500000 1.886664 93.1949 14.1261 2.816769
6541.2 6541.2 0.500000 1.886799 93.1933 14.1241 2.814596
6541.3 6541.3 0.500000 1.886953 93.1844 14.1205 2.812726
6541.4 6541.4 0.500000 1.887034 93.1892 14.1201 2.811625
6541.49 6541.5 0.500000 1.887065 93.1832 14.1187 2.810630
6541.6 6541.6 0.500000 1.887072 93.185 14.1189 2.809591
6541.7 6541.7 0.500000 1.887044 93.1836 14.1191 2.808809
6541.8 6541.8 0.500000 1.886940 93.1829 14.1204 2.807949
6541.9 6541.9 0.500000 1.886864 93.1795 14.121 2.806550
6542 6542 0.500000 1.886727 93.1737 14.1221 2.804423
6542.1 6542.1 0.500000 1.886610 93.1718 14.1234 2.802378
6542.2 6542.2 0.500000 1.886567 93.1743 14.1244 2.799866
6542.3 6542.3 0.500000 1.886492 93.1834 14.1269 2.796506
6542.4 6542.4 0.500000 1.886387 93.1847 14.1285 2.792765
6542.5 6542.5 0.500000 1.886406 93.1835 14.1281 2.788492
6542.6 6542.6 0.500000 1.886360 93.1758 14.1276 2.782925
6542.7 6542.7 0.500000 1.886399 93.174 14.1267 2.777580
6542.8 6542.8 0.500000 1.886469 93.171 14.1253 2.771826
6542.9 6542.9 0.500000 1.886569 93.1685 14.1235 2.765661
6543 6543 0.500000 1.886624 93.1677 14.1226 2.760059
6543.1 6543.1 0.500000 1.886752 93.1686 14.1209 2.753436
6543.2 6543.2 0.500000 1.886905 93.1701 14.119 2.747052
6543.3 6543.3 0.500000 1.887097 93.1643 14.1154 2.740832
6543.4 6543.4 0.500000 1.887330 93.163 14.112 2.734708
6543.5 6543.5 0.500000 1.887629 93.1638 14.1078 2.727810
6543.6 6543.6 0.500000 1.887926 93.158 14.1026 2.721239
6543.7 6543.7 0.500000 1.888358 93.1591 14.0968 2.715450
6543.8 6543.8 0.500000 1.888617 93.157 14.0929 2.709240
6543.9 6543.9 0.500000 1.889115 93.1557 14.0855 2.701538
6544 6544 0.500000 1.889632 93.1499 14.0776 2.695784
6544.1 6544.1 0.500000 1.890207 93.146 14.0687 2.688803
6544.2 6544.2 0.500000 1.890931 93.1495 14.0589 2.681198
6544.3 6544.3 0.500000 1.891596 93.144 14.0487 2.674105
6544.4 6544.4 0.500000 1.892412 93.1483 14.0384 2.666599
6544.5 6544.5 0.500000 1.893305 93.147 14.0255 2.658625
6544.59 6544.6 0.500000 1.894189 93.1427 14.0127 2.650889
6544.7 6544.7 0.500000 1.895180 93.1392 13.998 2.641888
6544.8 6544.8 0.500000 1.896335 93.1373 13.9816 2.632713
6544.9 6544.9 0.500000 1.897496 93.1357 13.965 2.623820
6545 6545 0.500000 1.898884 93.1354 13.9458 2.614550
6545.1 6545.1 0.500000 1.900312 93.1283 13.9252 2.604450
6545.2 6545.2 0.500000 1.901877 93.118 13.9015 2.593567
6545.3 6545.3 0.500000 1.903466 93.1231 13.8808 2.583422
6545.4 6545.4 0.500000 1.905323 93.1223 13.8547 2.571754
6545.5 6545.5 0.500000 1.907247 93.1182 13.8266 2.559684
6545.6 6545.6 0.500000 1.909313 93.1181 13.7987 2.547579
6545.7 6545.7 0.500000 1.911671 93.1135 13.7658 2.534448
6545.8 6545.8 0.500000 1.914197 93.111 13.7302 2.520678
6545.9 6545.9 0.500000 1.916735 93.107 13.6953 2.507188
6546 6546 0.500000 1.919615 93.1109 13.6565 2.492907
6546.1 6546.1 0.500000 1.922859 93.11 13.6116 2.476578
6546.2 6546.2 0.500000 1.926127 93.1106 13.5669 2.461018
6546.3 6546.3 0.500000 1.929789 93.1079 13.5178 2.444616
6546.4 6546.4 0.500000 1.933697 93.1033 13.4631 2.426707
6546.5 6546.5 0.500000 1.937869 93.0936 13.4062 2.408917
6546.6 6546.6 0.500000 1.942326 93.1 13.3481 2.390483
6546.7 6546.7 0.500000 1.946999 93.1025 13.2845 2.370977
6546.81 6546.8 0.500000 1.951786 93.0907 13.2189 2.351531
6546.9 6546.9 0.500000 1.956739 93.0829 13.1546 2.332610
6547 6547 0.500000 1.961700 93.1492 13.098 2.314654
6547.1 6547.1 0.500000 1.966875 93.1552 13.0297 2.294745
6547.2 6547.2 0.500000 1.972097 93.1561 12.9638 2.275820
6547.3 6547.3 0.500000 1.977361 93.1453 12.8947 2.256365
6547.4 6547.4 0.500000 1.982756 93.1356 12.8221 2.236023
6547.5 6547.5 0.500000 1.988006 93.1358 12.7569 2.217287
6547.6 6547.6 0.500000 1.993494 93.1415 12.6896 2.198212
6547.7 6547.7 0.500000 1.998842 93.1367 12.6183 2.177812
6547.8 6547.8 0.500000 2.004084 93.1382 12.5538 2.159038
6547.9 6547.9 0.500000 2.009423 93.1326 12.4857 2.139579
6548 6548 0.500000 2.014667 93.1334 12.4201 2.120383
6548.1 6548.1 0.500000 2.019487 93.127 12.3609 2.102899
6548.2 6548.2 0.500000 2.024574 93.1178 12.2971 2.084029
6548.3 6548.3 0.500000 2.029212 93.1163 12.2392 2.066479
6548.4 6548.4 0.500000 2.033674 93.1196 12.1855 2.049934
6548.5 6548.5 0.500000 2.038002 93.1152 12.1327 2.033723
6548.6 6548.6 0.500000 2.042184 93.1227 12.082 2.018076
6548.7 6548.7 0.500000 2.045990 93.1478 12.0397 2.004090
6548.8 6548.8 0.500000 2.049652 93.1815 12.0008 1.990558
6548.9 6548.9 0.500000 2.053166 93.1822 11.9584 1.976620
6549 6549 0.500000 2.056523 93.2298 11.9238 1.963775
6549.1 6549.1 0.500000 2.059891 93.2318 11.8851 1.950686
6549.2 6549.2 0.500000 2.063266 93.2484 11.8468 1.937684
6549.3 6549.3 0.500000 2.066717 93.251 11.8057 1.923917
6549.4 6549.4 0.500000 2.070221 93.2467 11.7643 1.910823
6549.5 6549.5 0.500000 2.073815 93.2381 11.721 1.897532
6549.6 6549.6 0.500000 2.077500 93.2304 11.6767 1.883758
6549.7 6549.7 0.500000 2.081296 93.2276 11.6316 1.870303
6549.8 6549.8 0.500000 2.085441 93.2329 11.5853 1.856769
6549.91 6549.9 0.500000 2.089700 93.2297 11.5335 1.842456
6550 6550 0.500000 2.094063 93.2182 11.4835 1.828866
6550.1 6550.1 0.500000 2.098594 93.2234 11.4328 1.815140
6550.2 6550.2 0.500000 2.103327 93.2236 11.3776 1.800287
6550.3 6550.3 0.500000 2.108066 93.2276 11.324 1.786748
6550.4 6550.4 0.500000 2.112940 93.2168 11.2687 1.772725
6550.5 6550.5 0.500000 2.117924 93.2147 11.2108 1.758057
6550.6 6550.6 0.500000 2.122971 93.2177 11.1554 1.744709
6550.7 6550.7 0.500000 2.127993 93.221 11.1005 1.730919
6550.8 6550.8 0.500000 2.133238 93.2161 11.042 1.717168
6550.9 6550.9 0.500000 2.138514 93.2086 10.981 1.702810
6551 6551 0.500000 2.143934 93.2117 10.9244 1.689800
6551.1 6551.1 0.500000 2.149615 93.2247 10.8634 1.675546
6551.2 6551.2 0.500000 2.155269 93.218 10.7995 1.661267
6551.3 6551.3 0.500000 2.161153 93.2171 10.7391 1.647275
6551.4 6551.4 0.500000 2.167244 93.2133 10.6719 1.632799
6551.5 6551.5 0.500000 2.173340 93.2282 10.6084 1.618354
6551.6 6551.6 0.500000 2.179385 93.2814 10.5514 1.605528
6551.7 6551.7 0.500000 2.185605 93.2834 10.4872 1.591496
6551.8 6551.8 0.500000 2.191742 93.2805 10.4199 1.576875
6551.9 6551.9 0.500000 2.197715 93.28 10.3579 1.563549
6552 6552 0.500000 2.203630 93.2775 10.2989 1.551425
6552.1 6552.1 0.500000 2.209270 93.2822 10.2412 1.538252
6552.2 6552.2 0.500000 2.214453 93.2745 10.1871 1.525899
6552.3 6552.3 0.500000 2.219488 93.27 10.1375 1.515204
6552.4 6552.4 0.500000 2.224252 93.2677 10.0875 1.504086
6552.5 6552.5 0.500000 2.228602 93.28 10.0443 1.494130
6552.6 6552.6 0.500000 2.232726 93.2784 10.0032 1.484984
6552.7 6552.7 0.500000 2.236681 93.2756 9.963232 1.475566
6552.8 6552.8 0.500000 2.240275 93.2703 9.926527 1.467078
6552.9 6552.9 0.500000 2.243787 93.2707 9.892552 1.458719
6553 6553 0.500000 2.247155 93.2687 9.859418 1.451430
6553.1 6553.1 0.500000 2.250372 93.3069 9.830698 1.444666
6553.2 6553.2 0.500000 2.253503 93.3348 9.803388 1.437911
6553.3 6553.3 0.500000 2.256648 93.3375 9.772969 1.430769
6553.41 6553.4 0.500000 2.259765 93.3287 9.740463 1.423406
6553.5 6553.5 0.500000 2.262896 93.3311 9.711117 1.417407
6553.6 6553.6 0.500000 2.266108 93.336 9.680471 1.410780
6553.7 6553.7 0.500000 2.269221 93.3325 9.649069 1.403767
6553.8 6553.8 0.500000 2.272305 93.3286 9.618718 1.397924
6553.9 6553.9 0.500000 2.275391 93.328 9.589718 1.392143
6554 6554 0.500000 2.278487 93.3285 9.560162 1.386847
6554.1 6554.1 0.500000 2.281380 93.3304 9.532896 1.381594
6554.2 6554.2 0.500000 2.284260 93.3422 9.506955 1.376884
6554.3 6554.3 0.500000 2.287004 93.3376 9.480427 1.372140
6554.4 6554.4 0.500000 2.289578 93.3329 9.455204 1.367541
6554.5 6554.5 0.500000 2.292027 93.3328 9.431900 1.364021
6554.6 6554.6 0.500000 2.294380 93.3285 9.409439 1.360293
6554.7 6554.7 0.500000 2.296633 93.331 9.388830 1.357121
6554.8 6554.8 0.500000 2.298788 93.3283 9.368430 1.354548
6554.9 6554.9 0.500000 2.300779 93.3299 9.350148 1.351328
6555 6555 0.500000 2.302769 93.3318 9.330978 1.349379
6555.1 6555.1 0.500000 2.304595 93.333 9.314878 1.347722
6555.2 6555.2 0.500000 2.306414 93.324 9.296687 1.345211
6555.3 6555.3 0.500000 2.308104 93.3272 9.281149 1.344393
6555.4 6555.4 0.500000 2.309778 93.323 9.265695 1.342741
6555.5 6555.5 0.500000 2.311577 93.32 9.248818 1.341649
6555.6 6555.6 0.500000 2.313216 93.3277 9.234261 1.340704
6555.7 6555.7 0.500000 2.314922 93.3255 9.218313 1.339782
6555.8 6555.8 0.500000 2.316620 93.3217 9.202661 1.338775
6555.9 6555.9 0.500000 2.318546 93.3192 9.184121 1.337970
6556 6556 0.500000 2.320350 93.3201 9.167894 1.337129
6556.1 6556.1 0.500000 2.322192 93.3227 9.151423 1.336418
6556.2 6556.2 0.500000 2.324260 93.31 9.130789 1.335533
6556.3 6556.3 0.500000 2.326266 93.3163 9.113088 1.334815
6556.4 6556.4 0.500000 2.328430 93.315 9.093572 1.333806
6556.5 6556.5 0.500000 2.330563 93.3077 9.073569 1.333065
6556.6 6556.6 0.500000 2.332757 93.3077 9.052782 1.332375
6556.7 6556.7 0.500000 2.334950 93.3041 9.033902 1.331577
6556.8 6556.8 0.500000 2.337148 93.3049 9.013201 1.330863
6556.9 6556.9 0.500000 2.339282 93.3034 8.993876 1.329982
6557 6557 0.500000 2.341419 93.3024 8.974768 1.329163
6557.1 6557.1 0.500000 2.343395 93.3049 8.957146 1.328939
6557.2 6557.2 0.500000 2.345259 93.3009 8.939912 1.328455
6557.3 6557.3 0.500000 2.346931 93.2948 8.924737 1.328298
6557.4 6557.4 0.500000 2.348554 93.2861 8.909477 1.328057
6557.5 6557.5 0.500000 2.349860 93.2844 8.897356 1.328307
6557.6 6557.6 0.500000 2.350794 93.2925 8.890115 1.328857
6557.7 6557.7 0.500000 2.351689 93.287 8.881686 1.330235
6557.8 6557.8 0.500000 2.352281 93.2796 8.875699 1.330880
6557.9 6557.9 0.500000 2.352653 93.2767 8.872173 1.332014
6558 6558 0.500000 2.352632 93.2849 8.873096 1.333649
6558.1 6558.1 0.500000 2.352461 93.2802 8.874193 1.335613
6558.2 6558.2 0.500000 2.352142 93.28 8.876964 1.337215
6558.3 6558.3 0.500000 2.351491 93.2753 8.882293 1.339629
6558.4 6558.4 0.500000 2.350621 93.2664 8.889099 1.342047
6558.5 6558.5 0.500000 2.349615 93.2657 8.898137 1.345037
6558.6 6558.6 0.500000 2.348330 93.2681 8.909390 1.347775
6558.7 6558.7 0.500000 2.346858 93.2635 8.922190 1.350941
6558.8 6558.8 0.500000 2.345237 93.2563 8.935981 1.354265
6558.9 6558.9 0.500000 2.343476 93.2584 8.952109 1.357903
6559 6559 0.500000 2.341548 93.2588 8.968940 1.361609
6559.1 6559.1 0.500000 2.339540 93.2526 8.987050 1.365228
6559.2 6559.2 0.500000 2.337441 93.2553 9.005896 1.368707
6559.3 6559.3 0.500000 2.335307 93.2587 9.025217 1.372381
6559.4 6559.4 0.500000 2.333047 93.253 9.046485 1.376593
6559.5 6559.5 0.500000 2.330773 93.2464 9.065717 1.380208
6559.6 6559.6 0.500000 2.328491 93.2407 9.085747 1.383647
6559.7 6559.7 0.500000 2.326200 93.2419 9.106882 1.387164
6559.8 6559.8 0.500000 2.323847 93.2298 9.126963 1.390906
6559.9 6559.9 0.500000 2.321580 93.2236 9.147074 1.394577
6560 6560 0.500000 2.319244 93.2722 9.173462 1.398965
6560.1 6560.1 0.500000 2.316883 93.2556 9.193659 1.402031
6560.2 6560.2 0.500000 2.314653 93.2281 9.211000 1.405007
6560.3 6560.3 0.500000 2.312455 93.1882 9.227445 1.407479
6560.4 6560.4 0.500000 2.310391 93.1726 9.245077 1.410300
6560.5 6560.5 0.500000 2.308415 93.1521 9.261125 1.412842
6560.6 6560.6 0.500000 2.306401 93.1265 9.277444 1.415332
6560.7 6560.7 0.500000 2.304699 93.1094 9.291622 1.417819
6560.8 6560.8 0.500000 2.303081 93.0837 9.303890 1.419863
6560.9 6560.9 0.500000 2.301688 93.0755 9.315918 1.420985
6561 6561 0.500000 2.300406 93.0914 9.329770 1.423173
6561.1 6561.1 0.500000 2.299344 93.1146 9.341696 1.424816
6561.2 6561.2 0.500000 2.298432 93.1655 9.355139 1.426844
6561.3 6561.3 0.500000 2.297675 93.2083 9.366856 1.428622
6561.4 6561.4 0.500000 2.297093 93.2379 9.375023 1.428908
6561.5 6561.5 0.500000 2.296536 93.2621 9.382703 1.430096
6561.6 6561.6 0.500000 2.296262 93.273 9.386449 1.430853
6561.7 6561.7 0.500000 2.295989 93.3169 9.393368 1.430984
6561.8 6561.8 0.500000 2.295946 93.3563 9.397795 1.431484
6561.9 6561.9 0.500000 2.296007 93.3594 9.397526 1.431263
6562 6562 0.500000 2.296036 93.403 9.401636 1.431245
6562.1 6562.1 0.500000 2.296224 93.416 9.401207 1.431215
6562.2 6562.2 0.500000 2.296322 93.4145 9.400096 1.430625
6562.3 6562.3 0.500000 2.296627 93.4159 9.397427 1.429851
6562.4 6562.4 0.500000 2.296826 93.4193 9.395868 1.428892
6562.5 6562.5 0.500000 2.297118 93.425 9.393639 1.427876
6562.6 6562.6 0.500000 2.297330 93.4241 9.391582 1.427695
6562.7 6562.7 0.500000 2.297438 93.4275 9.390916 1.426966
6562.8 6562.8 0.500000 2.297617 93.4221 9.388672 1.426182
6562.9 6562.9 0.500000 2.297785 93.4309 9.388018 1.426091
6563 6563 0.500000 2.297821 93.4296 9.387517 1.425500
6563.1 6563.1 0.500000 2.297862 93.4299 9.387179 1.424836
6563.2 6563.2 0.500000 2.297867 93.4269 9.386842 1.424028
6563.3 6563.3 0.500000 2.297752 93.4226 9.387527 1.423780
6563.4 6563.4 0.500000 2.297587 93.4229 9.389109 1.424193
6563.5 6563.5 0.500000 2.297419 93.4256 9.390964 1.424567
6563.6 6563.6 0.500000 2.297204 93.4194 9.392357 1.423998
6563.7 6563.7 0.500000 2.297007 93.4253 9.394746 1.423923
6563.8 6563.8 0.500000 2.296649 93.4235 9.397953 1.424490
6563.9 6563.9 0.500000 2.296320 93.4236 9.401015 1.424818
6564 6564 0.500000 2.295946 93.424 9.404601 1.424878
6564.1 6564.1 0.500000 2.295604 93.4243 9.407790 1.425169
6564.2 6564.2 0.500000 2.295222 93.4248 9.411410 1.425609
6564.3 6564.3 0.500000 2.294829 93.4237 9.414956 1.425790
6564.4 6564.4 0.500000 2.294455 93.4206 9.418286 1.426328
6564.49 6564.5 0.500000 2.294092 93.4238 9.421846 1.426787
6564.6 6564.6 0.500000 2.293603 93.4217 9.426339 1.426958
6564.69 6564.7 0.500000 2.293350 93.4862 9.435201 1.428393
6564.8 6564.8 0.500000 2.292963 93.4926 9.439627 1.428323
6564.9 6564.9 0.500000 2.292709 93.4871 9.441424 1.428748
6565 6565 0.500000 2.292379 93.4938 9.445121 1.429629
6565.1 6565.1 0.500000 2.292241 93.4912 9.446408 1.429657
6565.2 6565.2 0.500000 2.291952 93.4945 9.449294 1.429895
6565.3 6565.3 0.500000 2.291772 93.4837 9.449963 1.429700
6565.4 6565.4 0.500000 2.291628 93.4797 9.450945 1.429909
6565.5 6565.5 0.500000 2.291450 93.4811 9.452751 1.430233
6565.6 6565.6 0.500000 2.291374 93.4781 9.453186 1.430173
6565.7 6565.7 0.500000 2.291218 93.4821 9.455118 1.430296
6565.8 6565.8 0.500000 2.291095 93.4829 9.456343 1.430445
6565.9 6565.9 0.500000 2.290922 93.4817 9.457812 1.430845
6566 6566 0.500000 2.290924 93.4645 9.456089 1.430546
6566.1 6566.1 0.500000 2.290829 93.4779 9.458337 1.430808
6566.2 6566.2 0.500000 2.290729 93.5409 9.465654 1.431927
6566.3 6566.3 0.500000 2.290692 93.5468 9.466607 1.432098
6566.4 6566.4 0.500000 2.290712 93.5438 9.466147 1.432125
6566.5 6566.5 0.500000 2.290540 93.5519 9.468599 1.432761
6566.6 6566.6 0.500000 2.290387 93.5537 9.470184 1.433130
6566.7 6566.7 0.500000 2.290199 93.5445 9.471093 1.433044
6566.8 6566.8 0.500000 2.290096 93.5436 9.471933 1.433342
6566.9 6566.9 0.500000 2.289924 93.5365 9.472800 1.433840
6567 6567 0.500000 2.289721 93.5388 9.474963 1.434062
6567.1 6567.1 0.500000 2.289506 93.5449 9.477603 1.434423
6567.2 6567.2 0.500000 2.289225 93.5362 9.479419 1.434841
6567.3 6567.3 0.500000 2.288913 93.5444 9.483161 1.436023
6567.4 6567.4 0.500000 2.288570 93.5411 9.486021 1.436556
6567.5 6567.5 0.500000 2.288131 93.5386 9.490075 1.436850
6567.6 6567.6 0.500000 2.287749 93.5355 9.493248 1.438136
6567.7 6567.7 0.500000 2.287251 93.5318 9.497680 1.438818
6567.8 6567.8 0.500000 2.286794 93.5358 9.502498 1.439536
6567.9 6567.9 0.500000 2.286222 93.5311 9.507335 1.440401
6568 6568 0.500000 2.285703 93.5361 9.512772 1.441368
6568.1 6568.1 0.500000 2.285072 93.5348 9.518545 1.442575
6568.2 6568.2 0.500000 2.284459 93.5285 9.523660 1.443462
6568.3 6568.3 0.500000 2.283760 93.5325 9.531123 1.445081
6568.4 6568.4 0.500000 2.283103 93.5268 9.536690 1.445620
6568.5 6568.5 0.500000 2.282487 93.5267 9.542622 1.446810
6568.6 6568.6 0.500000 2.281799 93.5261 9.549211 1.448290
6568.7 6568.7 0.500000 2.281094 93.5279 9.556018 1.449567
6568.8 6568.8 0.500000 2.280404 93.5288 9.562641 1.450358
6568.9 6568.9 0.500000 2.279753 94.5853 9.677140 1.468124
6569 6569 0.700000 2.279104 130.942 13.4056 2.034487
6570.09 6570.08 0.710000 2.271962 132.832 13.6962 2.080804
6571.18 6571.18 0.730000 2.265901 136.528 14.1619 2.153915
6572.29 6572.29 0.740000 2.259831 138.452 14.4502 2.198191
6573.44 6573.43 0.750000 2.252391 140.352 14.7578 2.244156
6574.6 6574.58 0.760000 2.243345 142.254 15.0941 2.291293
6575.77 6575.76 0.780000 2.233351 145.988 15.645 2.368793
6576.96 6576.95 0.790000 2.223913 147.89 15.9997 2.415775
6578.17 6578.16 0.800000 2.213866 149.772 16.3665 2.464337
6579.4 6579.39 0.810000 2.203298 151.661 16.7491 2.514581
6580.65 6580.64 0.830000 2.193477 155.424 17.3338 2.594125
6581.92 6581.91 0.840000 2.184292 157.309 17.7058 2.642299
6583.21 6583.2 0.850000 2.176047 159.205 18.0683 2.690721
6584.52 6584.51 0.860000 2.169030 161.092 18.4109 2.740774
6585.84 6585.83 0.880000 2.163561 164.856 18.9444 2.826007
6587.19 6587.18 0.890000 2.159867 166.426 19.1956 2.876773
6588.54 6588.54 0.900000 2.158170 168.575 19.4764 2.935148
6589.94 6589.93 0.910000 2.158309 170.487 19.6947 2.985882
6591.34 6591.33 0.930000 2.160035 174.248 20.0946 3.061676
6592.76 6592.75 0.940000 2.163636 176.17 20.2429 3.098021
6594.2 6594.19 0.950000 2.168681 178.076 20.3592 3.128121
6595.66 6595.65 0.960000 2.174779 179.958 20.4494 3.156847
6597.13 6597.13 0.980000 2.180935 183.72 20.7489 3.217842
6598.64 6598.63 0.990000 2.183809 185.659 20.9074 3.253132
6600.15 6600.14 1.000000 2.185042 187.54 21.0933 3.289177
6601.69 6601.68 1.010000 2.185822 189.131 21.2556 3.317845
6603.25 6603.24 1.030000 2.186374 193.252 21.7068 3.388145
6604.82 6604.81 1.040000 2.186695 195.176 21.9157 3.418334
6606.4 6606.4 1.050000 2.186854 197.076 22.1256 3.446600
6608.02 6608.01 1.060000 2.186867 198.971 22.3381 3.474611
6609.66 6609.65 1.080000 2.186578 202.738 22.7675 3.535183
6611.31 6611.3 1.090000 2.185640 204.642 23.0031 3.565419
6612.98 6612.97 1.100000 2.184304 206.532 23.2464 3.597821
6614.66 6614.65 1.110000 2.182995 208.415 23.4891 3.631900
6616.36 6616.36 1.130000 2.182018 212.178 23.9364 3.700690
6618.1 6618.09 1.140000 2.181194 214.248 24.19 3.740676
6619.84 6619.83 1.150000 2.180224 216.122 24.4252 3.782070
6621.61 6621.6 1.160000 2.178924 218.196 24.6916 3.829480
6623.39 6623.38 1.180000 2.177696 221.951 25.1475 3.907876
6625.19 6625.18 1.190000 2.176909 223.864 25.3842 3.954257
6627.01 6627 1.200000 2.175984 225.778 25.6249 4.001200
6628.84 6628.84 1.210000 2.174187 227.471 25.8634 4.050044
6630.71 6630.7 1.230000 2.171254 231.42 26.3898 4.141978
6632.59 6632.58 1.240000 2.167633 233.316 26.7025 4.198167
6634.49 6634.48 1.250000 2.163913 235.212 27.0198 4.253536
6636.41 6636.4 1.260000 2.160648 237.099 27.3257 4.305487
6638.34 6638.33 1.280000 2.157852 240.829 27.8331 4.387531
6640.3 6640.29 1.290000 2.154947 242.72 28.1334 4.438436
6642.27 6642.26 1.300000 2.151554 244.597 28.4473 4.494317
6644.26 6644.26 1.310000 2.147759 246.504 28.7779 4.555903
6646.28 6646.27 1.330000 2.143800 250.294 29.3365 4.656711
6648.3 6648.3 1.340000 2.139730 252.197 29.6799 4.725484
6650.36 6650.35 1.350000 2.135671 254.188 30.0362 4.796110
6652.43 6652.42 1.360000 2.131735 256.184 30.3914 4.866801
6654.51 6654.51 1.380000 2.128131 259.985 30.9536 4.969125
6656.62 6656.61 1.390000 2.125344 261.856 31.2634 5.030206
6658.74 6658.74 1.400000 2.123391 263.785 31.5551 5.085259
6660.9 6660.89 1.410000 2.121810 265.735 31.8389 5.137371
6663.06 6663.05 1.430000 2.120084 269.547 32.3515 5.223613
6665.23 6665.23 1.440000 2.118098 271.461 32.6457 5.271817
6667.45 6667.44 1.450000 2.115965 273.555 32.968 5.323987
6669.66 6669.66 1.460000 2.113812 275.445 33.2673 5.371846
6671.9 6671.9 1.480000 2.111423 279.228 33.8049 5.460935
6674.17 6674.16 1.490000 2.108660 281.177 34.1351 5.514599
6676.45 6676.44 1.500000 2.105581 283.087 34.473 5.572802
6678.75 6678.74 1.510000 2.102075 284.996 34.8274 5.636389
6681.06 6681.05 1.530000 2.098745 288.797 35.4095 5.738915
6683.4 6683.39 1.540000 2.095837 290.692 35.7458 5.804014
6685.75 6685.74 1.550000 2.093300 292.572 36.0682 5.867626
6688.13 6688.12 1.560000 2.091220 294.458 36.3762 5.932339
6690.52 6690.51 1.580000 2.089400 298.278 36.9154 6.037209
6692.93 6692.92 1.590000 2.087656 300.148 37.2116 6.103955
6695.36 6695.35 1.600000 2.085990 302.04 37.5086 6.172786
6697.81 6697.8 1.610000 2.084506 303.965 37.8038 6.240445
6700.28 6700.27 1.630000 2.083622 307.736 38.3065 6.342938
6702.77 6702.76 1.640000 2.083167 309.598 38.5559 6.403479
6705.28 6705.27 1.650000 2.082468 311.459 38.8149 6.463505
6707.8 6707.79 1.660000 2.080763 313.359 39.1186 6.529512
6710.35 6710.34 1.680000 2.078424 317.124 39.6812 6.636866
6712.9 6712.9 1.690000 2.075406 318.991 40.0351 6.707101
6715.5 6715.49 1.700000 2.071933 320.906 40.416 6.780165
6718.09 6718.09 1.710000 2.068539 322.768 40.7885 6.851942
6720.72 6720.71 1.730000 2.065263 326.527 41.3992 6.964461
6723.35 6723.35 1.740000 2.062212 328.377 41.7604 7.033962
6726.02 6726.01 1.750000 2.059391 330.28 42.1213 7.103533
6728.69 6728.69 1.760000 2.056531 332.189 42.486 7.174141
6731.39 6731.39 1.780000 2.053522 335.904 43.0908 7.284541
6734.11 6734.11 1.790000 2.050102 337.746 43.4753 7.360489
6736.84 6736.84 1.800000 2.046145 339.617 43.8894 7.440692
6739.6 6739.6 1.810000 2.042049 341.48 44.3113 7.525666
6742.37 6742.37 1.830000 2.038067 345.156 44.9672 7.652844
6745.17 6745.17 1.840000 2.034250 347.031 45.3841 7.739835
6747.97 6747.98 1.850000 2.030598 349.191 45.8332 7.835964
6750.81 6750.81 1.860000 2.027345 351.004 46.2215 7.922387
6753.66 6753.66 1.880000 2.024327 354.727 46.8531 8.052036
6756.53 6756.53 1.890000 2.021578 356.532 47.2211 8.135870
6759.42 6759.42 1.900000 2.019008 358.298 47.5773 8.217886
6762.31 6762.32 1.910000 2.016417 360.348 47.9733 8.304267
6765.24 6765.25 1.930000 2.013665 364.056 48.6005 8.432938
6768.2 6768.2 1.940000 2.010719 365.871 48.9871 8.520439
6771.16 6771.16 1.950000 2.007376 367.784 49.4078 8.614244
6774.14 6774.14 1.960000 2.003767 369.824 49.8618 8.715800
6777.14 6777.15 1.980000 1.999785 373.501 50.558 8.859266
6780.17 6780.17 1.990000 1.995849 375.302 51.0028 8.960751
6783.2 6783.21 2.000000 1.992266 377.117 51.4328 9.061087
6786.27 6786.27 2.010000 1.989005 378.908 51.8464 9.157361
6789.34 6789.35 2.030000 1.986081 382.551 52.4979 9.295636
6792.45 6792.45 2.040000 1.982671 381.305 52.5057 9.317781
6795.55 6795.56 2.050000 1.980076 384.849 53.1313 9.449275
6798.7 6798.7 2.060000 1.976699 387.885 53.7318 9.576876
6801.85 6801.85 2.080000 1.973298 391.723 54.4481 9.722676
6805.03 6805.03 2.090000 1.969935 393.658 54.9015 9.821438
6808.22 6808.22 2.100000 1.966762 395.892 55.3886 9.926249
6811.43 6811.43 2.110000 1.962851 372.922 52.3793 9.402946
6814.66 6814.66 2.130000 1.960883 399.282 56.1924 10.1034
6817.91 6817.92 2.140000 1.957962 402.238 56.7738 10.228
6821.18 6821.18 2.150000 1.953703 391.323 55.4692 10.0126
6824.47 6824.47 2.160000 1.952458 403.583 57.2782 10.3603
6827.79 6827.78 2.180000 1.949723 408.494 58.1342 10.5376
6831.11 6831.11 2.190000 1.947012 410.46 58.5724 10.6432
6834.45 6834.45 2.200000 1.944273 412.138 58.9728 10.7426
6837.82 6837.82 2.210000 1.941058 413.431 59.3485 10.8375
6841.2 6841.2 2.230000 1.938940 407.639 58.6412 10.7367
6844.6 6844.6 2.240000 1.934096 418.341 60.4726 11.1002
6848.03 6848.03 2.250000 1.930426 420.29 60.9781 11.2222
6851.47 6851.47 2.260000 1.926782 421.89 61.4336 11.3352
6854.94 6854.93 2.280000 1.923115 425.409 62.1738 11.5024
6858.4 6858.4 2.290000 1.919529 427.208 62.6609 11.623
6861.9 6861.9 2.300000 1.916152 428.056 62.9975 11.7164
6865.43 6865.42 2.310000 1.912171 430.214 63.5678 11.8531
6868.96 6868.96 2.330000 1.908485 434.127 64.3827 12.0361
6872.52 6872.51 2.340000 1.905095 436.019 64.883 12.1594
6876.09 6876.09 2.350000 1.901064 437.924 65.4297 12.2926
6879.68 6879.68 2.360000 1.897596 439.663 65.9177 12.4142
6883.29 6883.29 2.380000 1.893507 443.897 66.8252 12.6155
6886.92 6886.92 2.390000 1.889841 445.766 67.353 12.7445
6890.57 6890.57 2.400000 1.886198 447.602 67.8774 12.8739
6894.24 6894.24 2.410000 1.882836 449.383 68.3768 12.999
6897.93 6897.93 2.430000 1.879493 453.005 69.1588 13.1774
6901.64 6901.64 2.440000 1.875696 454.668 69.6771 13.3062
6905.36 6905.36 2.450000 1.871907 456.462 70.2171 13.4402
6909.11 6909.11 2.460000 1.867996 458.072 70.7412 13.5719
6912.87 6912.87 2.480000 1.864269 461.473 71.5325 13.7552
6916.66 6916.66 2.490000 1.860759 463.277 72.0645 13.8892
6920.46 6920.46 2.500000 1.857129 464.767 72.5593 14.0205
6924.28 6924.28 2.510000 1.853368 466.705 73.1361 14.1648
6928.12 6928.12 2.530000 1.849661 470.357 73.9823 14.3654
6931.99 6931.98 2.540000 1.845835 472.285 74.5705 14.5159
6935.86 6935.86 2.550000 1.842144 473.952 75.1102 14.6584
6939.76 6939.76 2.560000 1.838618 475.584 75.6351 14.7973
6943.69 6943.68 2.580000 1.835277 479.048 76.441 14.9925
6947.61 6947.61 2.590000 1.831776 480.657 76.9667 15.1341
6951.58 6951.57 2.600000 1.828057 482.225 77.5058 15.28
6955.54 6955.54 2.610000 1.824315 483.834 78.0557 15.4285
6959.54 6959.54 2.630000 1.820672 487.321 78.905 15.6376
6963.56 6963.55 2.640000 1.817100 488.873 79.4399 15.7864
6967.58 6967.58 2.650000 1.813491 490.29 79.9578 15.9311
6971.63 6971.63 2.660000 1.809803 491.917 80.5196 16.0858
6975.7 6975.7 2.680000 1.805982 495.261 81.3775 16.3007
6979.79 6979.79 2.690000 1.802105 497.331 82.0352 16.476
6983.9 6983.9 2.700000 1.798398 498.888 82.5975 16.6315
6988.02 6988.02 2.710000 1.794655 500.413 83.1607 16.7883
6992.17 6992.17 2.730000 1.791045 504.005 84.0605 17.0132
6996.33 6996.33 2.740000 1.787459 505.664 84.6404 17.1741
7000.52 7000.52 2.750000 1.783584 507.277 85.2399 17.341
7004.72 7004.72 2.760000 1.779692 508.796 85.8285 17.5036
7008.94 7008.94 2.780000 1.775657 512.098 86.7344 17.7319
7013.18 7013.18 2.790000 1.771653 513.57 87.3333 17.8972
7017.44 7017.44 2.800000 1.767595 515.035 87.9382 18.0671
7021.72 7021.72 2.810000 1.763583 516.569 88.5547 18.2409
7026.02 7026.02 2.830000 1.759498 519.755 89.4661 18.4761
7030.35 7030.34 2.840000 1.755584 521.159 90.0595 18.6459
7034.67 7034.67 2.850000 1.751402 522.665 90.698 18.828
7039.03 7039.03 2.860000 1.747570 524.096 91.2955 19.0029
7043.4 7043.4 2.880000 1.743667 527.324 92.2171 19.2437
7047.8 7047.8 2.890000 1.739857 528.707 92.8118 19.4207
7052.21 7052.21 2.900000 1.735847 530.192 93.4467 19.6034
7056.64 7056.64 2.910000 1.731740 531.596 94.0798 19.7887
7061.09 7061.09 2.930000 1.727306 533.445 94.8264 19.9972
7065.56 7065.56 2.940000 1.723611 536.658 95.7505 20.2459
7070.05 7070.05 2.950000 1.719826 534.247 95.6819 20.2874
7074.56 7074.56 2.960000 1.715755 534.991 96.2063 20.4516
7079.08 7079.08 2.980000 1.711468 542.608 97.9948 20.889
7083.63 7083.63 2.990000 1.707427 543.94 98.6335 21.0808
7088.19 7088.19 3.000000 1.703325 546.348 99.4775 21.3183
7092.78 7092.78 3.010000 1.699300 548.088 100.197 21.5309
7097.38 7097.38 3.030000 1.695248 551.359 101.204 21.8047
7102 7102 3.040000 1.691153 553.093 101.939 22.0211
7106.64 7106.64 3.050000 1.686908 554.4 102.615 22.2263
7111.31 7111.3 3.060000 1.682644 555.04 103.172 22.3929
7115.98 7115.98 3.080000 1.678423 557.417 104.052 22.6314
7120.68 7120.68 3.090000 1.674204 556.09 104.243 22.7141
7125.41 7125.4 3.100000 1.669445 546.859 103.002 22.4673
7130.14 7130.13 3.110000 1.665803 535.125 101.16 22.1025
7134.89 7134.89 3.130000 1.661664 538.008 102.127 22.3788
7139.66 7139.66 3.140000 1.657636 543.926 103.666 22.7781
7144.46 7144.46 3.150000 1.653033 546.612 104.659 23.0597
7149.27 7149.27 3.160000 1.648754 549.907 105.742 23.3634
7154.1 7154.1 3.180000 1.645080 555.794 107.267 23.7662
7158.95 7158.95 3.190000 1.641106 558.339 108.188 24.0349
7163.82 7163.82 3.200000 1.636931 559.437 108.854 24.2499
7168.71 7168.71 3.210000 1.632649 560.044 109.44 24.4454
7173.62 7173.62 3.230000 1.628441 562.836 110.449 24.7371
7178.54 7178.54 3.240000 1.624225 563.832 111.112 24.9529
7183.49 7183.49 3.250000 1.619982 564.98 111.812 25.1793
7188.45 7188.45 3.260000 1.615737 565.77 112.444 25.3894
7193.44 7193.44 3.280000 1.611482 569.207 113.61 25.7237
7198.44 7198.44 3.290000 1.607158 570.602 114.381 25.9682
7203.46 7203.46 3.300000 1.602829 572.616 115.284 26.2457
7208.5 7208.5 3.310000 1.598541 574.275 116.114 26.508
7213.56 7213.56 3.330000 1.594221 577.609 117.294 26.85
7218.64 7218.64 3.340000 1.589938 578.737 118.028 27.0924
7223.74 7223.74 3.350000 1.585578 579.239 118.646 27.3119
7228.86 7228.86 3.360000 1.581265 581.568 119.638 27.6178
7233.99 7233.99 3.380000 1.576849 584.199 120.711 27.9426
7239.15 7239.15 3.390000 1.572465 585.125 121.434 28.1888
7244.33 7244.32 3.400000 1.568114 586.427 122.235 28.4531
7249.53 7249.52 3.410000 1.563650 586.696 122.838 28.6722
7254.73 7254.73 3.430000 1.558768 584.862 123.053 28.8002
7259.96 7259.96 3.440000 1.554784 590.307 124.695 29.2621
7265.21 7265.21 3.450000 1.550752 590.255 125.187 29.4611
7270.48 7270.48 3.460000 1.546009 596.076 127.023 29.9739
7275.78 7275.77 3.480000 1.541681 599.474 128.302 30.3591
7281.08 7281.08 3.490000 1.537365 589.776 126.772 30.0796