File: xdidata/Mn/Mn-K-Petedunnite.xdi
# XDI/1.0 BlueSky/1.10.0 BMM/2023-1.0-py310-tiled
# Beamline.name: BMM (06BM) -- Beamline for Materials Measurement (NIST)
# Beamline.xray_source: NSLS-II three-pole wiggler
# Beamline.collimation: paraboloid mirror, 5 nm Rh on 30 nm Pt
# Beamline.focusing: not in use
# Beamline.harmonic_rejection: flat mirror, Si stripe, pitch = 7.0 mrad relative to beam
# Beamline.software: Bluesky 1.10.0, Ophyd 1.7.0, DataBroker 2.0.0b13, Python 3.10.8, 2023-1.0-py310-tiled
# Detector.I0: 10 cm N2
# Detector.I1: 25 cm N2
# Detector.I2: 25 cm N2
# Detector.fluorescence: SII Vortex ME4 (4-element silicon drift)
# Detector.deadtime_correction: Xspress3
# Element.symbol: Mn
# Element.edge: K
# Element.reference: Mn
# Element.reference_material: Mn metal powder
# Facility.name: NSLS-II
# Facility.energy: 3.0
# Facility.current: 398.9
# Facility.mode: top-off
# Facility.GUP: 301027
# Facility.SAF: 310583
# Facility.cycle: 2023-2
# Mono.name: Si(111)
# Mono.d_spacing: 3.13519
# Mono.encoder_resolution: 0.0000050 deg/ct
# Mono.angle_offset: 16.0754 deg
# Mono.scan_mode: pseudo channel cut
# Mono.scan_type: step
# Mono.direction: forward in energy
# Sample.name: Ca(Zn,Mn,Fe,Mg)Si2O6
# Sample.prep: powder on tape
# Sample.x: 119.711 mm
# Sample.y: 114.376 mm
# Sample.SDD_position: 25.000 mm
# Scan.experimenters: Bruce Ravel
# Scan.edge_energy: 6539.0
# Scan.start_time: 2023-06-27T11:13:01
# Scan.end_time: 2023-06-27T11:29:25
# Scan.transient_id: 85125
# Scan.uid: 5b04dda5-23be-4ab9-b0a8-2d0e256397f4
# Scan.plot_hint: (Mn1+Mn2+Mn3+Mn4)/I0  --  ($8+$9+$10+$11)/$5
# Column.1: energy eV
# Column.2: requested_energy eV
# Column.3: measurement_time seconds
# Column.4: xmu
# Column.5: I0 nA
# Column.6: It nA
# Column.7: Ir nA
# Column.8: Mn1
# Column.9: Mn2
# Column.10: Mn3
# Column.11: Mn4
# ///////////
# sample courtesy Martin Stennett, University of Sheffield
# -----------
# energy  requested_energy  measurement_time  xmu  I0  It  Ir  Mn1  Mn2  Mn3  Mn4
  6339.003  6339.000  2.000  6.793716  585.743  136.944  6.576862  1237.2  1001.06  774.048  967.064
  6349.037  6349.000  2.000  6.854109  587.013  138.574  6.745008  1304.28  1029.06  748.047  942.063
  6359.021  6359.000  2.000  6.803612  588.49  140.37  6.925652  1230.68  986.06  822.052  965.064
  6369.016  6369.000  2.000  6.617927  589.997  142.121  7.107512  1177.39  976.06  793.05  958.064
  6379.010  6379.000  2.000  6.705983  591.326  143.844  7.286903  1247.24  958.059  838.054  922.063
  6389.012  6389.000  2.000  6.540696  592.539  145.578  7.473291  1246.44  950.06  780.051  899.062
  6399.007  6399.000  2.000  6.633627  594.221  147.469  7.671026  1187.65  1008.06  775.051  971.069
  6409.009  6409.000  2.000  6.781581  596.689  149.46  7.877112  1211.3  1049.07  808.054  978.071
  6419.005  6419.000  2.000  6.669667  597.939  151.195  8.071952  1248.87  1003.07  774.052  962.069
  6429.002  6429.000  2.000  6.613460  598.697  152.872  8.266347  1207.27  1025.07  786.053  941.069
  6439.005  6439.000  2.000  6.751690  599.42  154.516  8.460100  1198.9  1012.07  831.057  1005.07
  6448.998  6449.000  2.000  6.549271  590.91  153.789  8.525460  1184.85  965.064  756.052  964.071
  6459.001  6459.000  2.000  6.600328  593.403  155.863  8.744752  1151.46  1002.07  805.056  958.072
  6469.001  6469.000  2.000  6.940474  601.681  159.531  9.055017  1228.73  1107.08  805.058  1035.08
  6478.974  6479.000  2.000  6.635115  597.813  159.952  9.178876  1188.35  999.071  772.056  1007.08
  6488.985  6489.000  2.000  6.664474  598.405  161.536  9.364194  1186.85  1044.07  840.061  917.073
  6498.984  6499.000  2.000  6.739759  599.025  163.217  9.542531  1191.07  1005.07  840.061  1001.08
  6508.988  6509.000  2.000  6.821014  599.736  164.892  9.695770  1174.58  1067.08  871.065  978.079
  6510.991  6511.000  2.000  6.837402  599.574  165.134  9.714822  1233.31  991.072  884.066  991.08
  6512.990  6513.000  2.000  6.852088  599.592  165.5  9.737994  1217.24  1051.08  864.065  976.079
  6514.998  6515.000  2.000  6.913484  599.437  165.769  9.751866  1259.98  1108.08  857.065  919.075
  6516.997  6517.000  2.000  7.107304  599.434  166.02  9.759230  1249.13  1094.08  901.068  1016.08
  6518.997  6519.000  2.000  6.975886  599.45  166.304  9.763584  1246.47  1015.08  910.069  1010.08
  6520.997  6521.000  2.000  6.963981  599.445  166.639  9.763197  1284.3  998.074  893.068  999.083
  6523.001  6523.000  2.000  6.968678  599.472  166.933  9.747980  1284.3  998.074  869.067  1026.09
  6525.000  6525.000  2.000  6.949505  599.453  167.248  9.720482  1203.67  1051.08  873.067  1038.09
  6526.998  6527.000  2.000  7.248959  599.449  167.527  9.668272  1323.15  1135.09  961.074  926.077
  6529.002  6529.000  2.000  7.074159  599.449  167.867  9.586689  1172.36  1085.08  911.068  1072.09
  6529.292  6529.300  2.000  6.962081  599.332  167.905  9.570482  1172.36  1078.08  911.068  1011.08
  6529.592  6529.600  2.000  7.117365  599.161  167.88  9.547961  1254.21  1062.08  912.069  1036.09
  6529.893  6529.900  2.000  7.354728  599.086  167.837  9.524047  1343.88  1101.08  925.07  1036.09
  6530.192  6530.200  2.000  6.995799  599.045  167.937  9.506030  1254.57  1100.08  900.069  936.079
  6530.497  6530.500  2.000  7.137019  599.001  167.939  9.481341  1262.84  1022.08  943.072  1047.09
  6530.795  6530.800  2.000  7.255500  599.006  168.012  9.460117  1262.84  1096.08  952.074  1035.09
  6531.100  6531.100  2.000  7.297549  599.042  167.994  9.429218  1296.29  1100.08  930.072  1045.09
  6531.402  6531.400  2.000  7.406509  598.985  168.039  9.401040  1279.14  1073.08  997.077  1087.09
  6531.701  6531.700  2.000  7.336283  598.899  168.067  9.368498  1342.45  1126.09  879.068  1046.09
  6532.001  6532.000  2.000  7.406931  598.83  168.113  9.334320  1288.25  1122.08  983.075  1042.09
  6532.304  6532.300  2.000  7.178298  598.936  168.154  9.295629  1259.1  1072.08  918.07  1050.09
  6532.599  6532.600  2.000  7.304635  598.933  168.212  9.256959  1266.75  1108.08  942.071  1058.09
  6532.898  6532.900  2.000  7.413690  598.892  168.256  9.212508  1266.75  1119.09  947.073  1107.09
  6533.196  6533.200  2.000  7.326102  598.968  168.306  9.160863  1297.86  1102.08  937.072  1051.09
  6533.498  6533.500  2.000  7.268847  598.899  168.398  9.107715  1340.07  1073.08  932.071  1008.08
  6533.798  6533.800  2.000  7.431603  598.87  168.354  9.040713  1303.32  1129.08  981.075  1037.09
  6534.102  6534.100  2.000  7.563765  598.909  168.41  8.974789  1309.76  1148.09  997.077  1075.09
  6534.400  6534.400  2.000  7.563702  598.914  168.54  8.903475  1309.76  1139.08  997.077  1084.09
  6534.705  6534.700  2.000  7.547972  598.821  168.545  8.813288  1308.63  1139.08  988.076  1084.09
  6535.007  6535.000  2.000  7.400264  598.847  168.539  8.708202  1288.37  1114.09  975.076  1054.09
  6535.307  6535.300  2.000  7.567793  598.813  168.57  8.587200  1291.44  1165.09  965.074  1110.09
  6535.607  6535.600  2.000  7.343750  598.771  168.648  8.454173  1307.98  1094.08  957.074  1038.09
  6535.907  6535.900  2.000  7.702946  598.787  168.659  8.294005  1348.16  1151.09  1013.08  1100.09
  6536.203  6536.200  2.000  7.478501  598.788  168.765  8.104824  1287.79  1168.09  960.073  1062.09
  6536.500  6536.500  2.000  7.659793  598.867  168.81  7.867140  1341.94  1120.09  974.075  1151.1
  6536.800  6536.800  2.000  7.654591  598.778  168.841  7.561084  1366.15  1179.09  938.072  1100.09
  6537.102  6537.100  2.000  7.773312  598.793  168.876  7.162119  1363.34  1175.09  1035.08  1081.09
  6537.399  6537.400  2.000  7.779430  598.719  168.915  6.642183  1369.43  1157.09  996.077  1135.1
  6537.701  6537.700  2.000  7.956401  598.744  168.933  5.949711  1383.58  1177.09  1049.08  1154.1
  6538.001  6538.000  2.000  7.964021  598.955  169.065  5.074609  1410.82  1203.09  1018.08  1138.1
  6538.305  6538.300  2.000  8.051828  598.827  168.99  4.037443  1395.38  1163.09  1098.09  1165.1
  6538.604  6538.600  2.000  8.196183  598.849  169.093  3.063341  1439  1215.09  1023.08  1231.1
  6538.902  6538.900  2.000  8.554913  598.829  169.109  2.303269  1471.64  1307.1  1140.09  1204.1
  6539.204  6539.200  2.000  8.947814  598.8  169.195  1.822328  1562.65  1386.1  1094.08  1315.11
  6539.512  6539.500  2.000  9.116451  598.805  169.246  1.517639  1533.66  1433.11  1210.09  1282.11
  6539.803  6539.800  2.000  9.323859  598.801  169.26  1.315825  1613.81  1387.11  1254.1  1328.11
  6540.104  6540.100  2.000  9.733517  598.714  169.295  1.162757  1706.26  1491.12  1254.1  1376.12
  6540.401  6540.400  2.000  9.743844  598.786  169.38  1.043504  1711.15  1454.11  1268.1  1401.12
  6540.703  6540.700  2.000  9.563163  598.831  169.429  0.942313  1639.39  1408.11  1284.1  1395.12
  6541.002  6541.000  2.000  9.540639  598.803  169.502  0.862535  1634.63  1421.11  1328.1  1329.11
  6541.306  6541.300  2.000  9.365565  598.882  169.526  0.800728  1597.55  1421.11  1205.1  1385.12
  6541.601  6541.600  2.000  9.290189  598.808  169.59  0.757865  1626.73  1419.11  1176.09  1341.11
  6541.904  6541.900  2.000  9.735319  598.707  169.567  0.732675  1708.27  1452.11  1314.1  1354.12
  6542.203  6542.200  2.000  9.573544  598.719  169.615  0.724000  1610.53  1512.12  1243.1  1366.12
  6542.503  6542.500  2.000  9.769259  598.726  169.689  0.721988  1656.77  1464.11  1373.11  1355.12
  6542.802  6542.800  2.000  10.2247  598.741  169.811  0.717987  1710.57  1505.12  1427.11  1479.13
  6543.105  6543.100  2.000  10.5684  598.736  169.768  0.702997  1778.28  1547.12  1469.12  1533.13
  6543.402  6543.400  2.000  10.7839  598.79  169.805  0.677594  1856.93  1635.13  1426.11  1539.13
  6543.699  6543.700  2.000  11.4296  598.836  169.855  0.644287  1852.03  1724.13  1617.13  1651.14
  6543.998  6544.000  2.000  12.4651  600.732  170.506  0.610924  2041.72  1869.15  1846.15  1731.15
  6544.298  6544.300  2.000  14.1682  600.636  170.52  0.577383  2388.44  2135.17  1951.16  2035.18
  6544.600  6544.600  2.000  15.372  600.617  170.492  0.548952  2595.11  2291.18  2152.18  2194.2
  6544.903  6544.900  2.000  17.3747  600.663  170.626  0.527835  2809.7  2714.22  2468.21  2444.22
  6545.204  6545.200  2.000  19.6931  600.632  170.635  0.510644  3222.57  3018.25  2740.23  2847.26
  6545.505  6545.500  2.000  21.9819  600.716  170.628  0.495856  3693.06  3018.25  3229.28  3264.3
  6545.804  6545.800  2.000  25.1741  600.627  170.604  0.481064  4050.25  3797.33  3636.32  3636.34
  6546.105  6546.100  2.000  28.589  600.657  170.702  0.464130  4666.02  4341.38  4228.38  3936.37
  6546.403  6546.400  2.000  31.7312  600.603  170.7  0.444033  5124.54  4779.43  4689.43  4464.44
  6546.702  6546.700  2.000  35.4138  600.685  170.634  0.421407  5685.09  5434.5  5236.5  4916.49
  6547.000  6547.000  2.000  38.4614  600.508  170.634  0.396571  6057.72  5863.55  5763.55  5411.55
  6547.299  6547.300  2.000  41.9465  600.544  170.703  0.370951  6534.89  6447.61  6202.61  6005.62
  6547.602  6547.600  2.000  42.577  600.577  170.82  0.345026  6534.89  6827.66  6202.61  6005.62
  6547.903  6547.900  2.000  46.5543  600.533  170.86  0.319120  7180.29  7226.71  6915.7  6634.7
  6548.205  6548.200  2.000  49.2579  600.501  170.776  0.295188  7827.18  7484.75  7293.74  6973.75
  6548.509  6548.500  2.000  51.5787  600.434  170.764  0.272562  8259.24  7843.79  7693.79  7172.77
  6548.804  6548.800  2.000  53.9074  600.483  170.837  0.251797  8605.99  8253.84  8060.85  7449.81
  6549.107  6549.100  2.000  56.4067  600.437  170.874  0.232472  8946.99  8685.9  8498.91  7736.86
  6549.405  6549.400  2.000  59.6011  600.348  170.882  0.213930  9403.53  9110.96  8946.97  8319.94
  6549.704  6549.700  2.000  63.4997  600.397  170.902  0.196944  10028.9  9764.06  9376.05  8956.04
  6550.000  6550.000  2.000  67.5586  600.335  170.919  0.181540  10737.5  10323.1  9975.13  9522.11
  6550.300  6550.300  2.000  72.3931  600.483  171.014  0.167520  11570.2  11043.2  10798.3  10059.2
  6550.596  6550.600  2.000  76.0776  600.493  170.951  0.154775  12106.2  11773.4  11211.3  10593.3
  6550.903  6550.900  2.000  80.4521  600.406  171.005  0.143369  12807.7  12285.4  11944.5  11266.4
  6551.201  6551.200  2.000  83.3729  600.446  170.97  0.132971  13111.4  12971.5  12325.5  11652.5
  6551.506  6551.500  2.000  86.5724  600.371  171.033  0.123391  13624.8  13220.6  12891.6  12238.6
  6551.808  6551.800  2.000  88.3496  600.334  171.053  0.115026  13971.4  13632.6  13083.6  12351.6
  6552.104  6552.100  2.000  88.9764  600.336  171.051  0.107449  14063.8  13725.7  13354.7  12271.6
  6552.404  6552.400  2.000  87.8821  600.373  171.126  0.100514  13702.1  13448.6  13290.7  12320.6
  6552.707  6552.700  2.000  86.3796  600.339  171.201  0.094254  13505.3  13314.6  12914.6  12122.6
  6553.002  6553.000  2.000  83.3148  600.314  171.209  0.088045  13289.6  12836.5  12324.5  11564.4
  6553.300  6553.300  2.000  80.002  600.274  171.236  0.082409  12774.9  12184.4  12129.5  10934.4
  6553.600  6553.600  2.000  79.47  600.436  171.349  0.077602  12697.4  12078.4  11748.4  11192.4
  6553.898  6553.900  2.000  78.3747  600.418  171.433  0.073365  12697.4  11778.4  11616.4  10965.3
  6554.202  6554.200  2.000  77.1296  600.547  171.512  0.069374  12151.9  11778.4  11555.4  10834.3
  6554.505  6554.500  2.000  75.8707  600.59  171.547  0.066593  12114.2  11589.3  11285.3  10578.3
  6554.802  6554.800  2.000  75.9259  600.703  171.662  0.064091  11958.9  11788.4  11323.3  10538.3
  6555.106  6555.100  2.000  74.0166  600.695  171.71  0.062217  11866.6  11315.3  10907.3  10372.3
  6555.404  6555.400  2.000  73.2921  600.827  171.817  0.061279  11480  11164.3  10992.3  10399.3
  6555.706  6555.700  2.000  73.5166  600.921  171.877  0.060151  11627.9  11250.3  10996.3  10303.2
  6556.003  6556.000  2.000  71.396  601.057  171.998  0.060097  11282.4  10841.2  10726.3  10063.2
  6556.305  6556.300  2.000  69.5967  601.205  172.07  0.060377  11026.3  10762.2  10316.2  9737.15
  6556.599  6556.600  2.000  67.5914  601.34  172.17  0.061416  10761.1  10247.1  10226.1  9411.09
  6556.905  6556.900  2.000  64.7419  601.335  172.3  0.062436  10377.4  9830.08  9592.09  9132.07
  6557.200  6557.200  2.000  63.273  601.432  172.374  0.064225  10377.4  9830.08  9161.01  8686
  6557.504  6557.500  2.000  59.1197  601.576  172.431  0.066259  9527.12  8976.95  8859.97  8200.94
  6557.804  6557.800  2.000  56.5358  601.6  172.504  0.068875  9034.28  8720.9  8386.89  7869.87
  6558.105  6558.100  2.000  54.6618  601.668  172.63  0.071492  8618.69  8403.88  8168.88  7696.86
  6558.402  6558.400  2.000  53.6747  601.806  172.741  0.073828  8526.27  8154.83  8056.85  7563.83
  6558.704  6558.700  2.000  52.0931  601.801  172.773  0.076544  8260.23  7996.81  7672.8  7419.81
  6559.003  6559.000  2.000  51.6725  601.807  172.806  0.078826  8243.46  7854.8  7723.81  7274.8
  6559.301  6559.300  2.000  51.1439  601.916  172.81  0.081031  8176.92  7780.79  7701.8  7124.78
  6559.597  6559.600  2.000  50.8707  601.944  172.91  0.083011  8176.92  7642.78  7635.8  7165.78
  6559.904  6559.900  2.000  50.7045  602.025  173.004  0.084572  8111.07  7842.79  7497.78  7073.77
  6560.201  6560.200  2.000  50.3639  602.045  173.041  0.085945  8196.03  7642.78  7452.78  7029.76
  6560.506  6560.500  2.000  50.2606  602.067  173.09  0.087362  8104.95  7602.77  7466.78  7085.77
  6560.803  6560.800  2.000  49.8582  602.073  173.136  0.088245  8060.97  7563.76  7444.77  6948.75
  6561.109  6561.100  2.000  50.0154  602.101  173.199  0.088523  8060.97  7563.76  7532.79  6956.76
  6561.406  6561.400  2.000  49.7453  602.058  173.195  0.088411  7941.27  7535.76  7387.77  7084.77
  6561.708  6561.700  2.000  49.1285  601.814  173.214  0.088571  7817.96  7562.77  7350.76  6834.74
  6562.004  6562.000  2.000  49.0699  601.317  173.083  0.088161  7780.26  7536.76  7377.77  6811.74
  6562.303  6562.300  2.000  48.367  600.91  173.034  0.087693  7736.95  7398.74  7139.74  6788.73
  6562.600  6562.600  2.000  47.8556  600.597  172.972  0.086971  7574.72  7295.73  7144.74  6726.73
  6562.903  6562.900  2.000  47.4113  601.31  173.284  0.086566  7574.72  7288.73  7075.72  6569.7
  6563.202  6563.200  2.000  47.919  601.808  173.443  0.086193  7692.84  7298.73  7150.74  6695.72
  6563.501  6563.500  2.000  47.9043  601.975  173.531  0.085570  7548.97  7372.75  7120.74  6794.74
  6563.804  6563.800  2.000  47.3685  601.981  173.56  0.085038  7548.77  7319.73  7067.72  6578.7
  6564.000  6564.000  2.000  47.8795  601.884  173.566  0.084917  7582.69  7446.75  7100.74  6687.73
  6565.004  6564.990  2.000  49.5447  602.076  173.783  0.083101  8004.39  7665.79  7225.76  6933.76
  6566.009  6565.990  2.000  49.7956  602.108  173.937  0.082174  7965.01  7545.77  7366.77  7104.78
  6567.011  6567.010  2.000  49.6714  602.113  174.089  0.081480  7845.45  7641.78  7472.78  6947.76
  6568.069  6568.060  2.000  49.6182  602.091  174.239  0.081315  7875.36  7594.77  7475.78  6928.76
  6569.132  6569.120  2.000  48.4283  602.083  174.412  0.081329  7728.63  7446.75  7258.75  6723.73
  6570.214  6570.200  2.000  47.0686  603.379  175.033  0.081934  7583.05  7191.73  6907.71  6717.73
  6571.315  6571.300  2.000  45.5144  604.324  175.456  0.082461  7238.33  7060.71  6830.71  6375.69
  6572.428  6572.420  2.000  44.8023  604.307  175.62  0.082440  7165.25  6842.69  6707.69  6358.69
  6573.572  6573.560  2.000  44.5372  604.353  175.754  0.082722  7101.16  6723.67  6782.69  6308.68
  6574.718  6574.710  2.000  43.2471  604.433  175.922  0.082351  6983.98  6612.66  6402.66  6140.66
  6575.893  6575.890  2.000  44.0236  604.539  176.192  0.081092  6983.98  6797.68  6494.66  6337.68
  6577.088  6577.080  2.000  44.3324  604.591  176.396  0.079717  7181.91  6761.67  6517.67  6341.68
  6578.304  6578.300  2.000  44.92  604.548  176.561  0.078217  7203.24  6827.69  6697.69  6427.7
  6579.541  6579.530  2.000  45.6483  604.598  176.741  0.076572  7334.73  7009.72  6749.71  6504.72
  6580.792  6580.780  2.000  47.7994  604.631  176.94  0.074679  7746.79  7334.75  7102.74  6716.74
  6582.061  6582.050  2.000  48.2053  604.686  177.144  0.072575  7746.79  7334.75  7272.77  6794.76
  6583.348  6583.340  2.000  50.9417  604.737  177.316  0.070244  8154.87  7914.83  7663.82  7072.79
  6584.657  6584.650  2.000  52.2137  604.752  177.563  0.069001  8343.87  8041.84  7708.83  7481.84
  6585.997  6585.980  2.000  52.611  604.254  177.656  0.068380  8343.87  8041.84  7922.85  7481.84
  6587.341  6587.330  2.000  54.2376  604.567  177.909  0.069684  8531.62  8445.9  8123.88  7688.88
  6588.712  6588.700  2.000  54.343  604.812  178.185  0.072229  8798.66  8463.91  8145.9  7458.86
  6590.090  6590.080  2.000  55.1327  604.782  178.377  0.075472  8850.57  8526.91  8229.9  7735.89
  6591.500  6591.490  2.000  55.4386  604.682  178.588  0.078723  8890.95  8549.93  8344.93  7736.91
  6592.918  6592.910  2.000  55.535  605.175  178.938  0.081519  8902.58  8569.93  8398.93  7736.91
  6594.362  6594.350  2.000  56.3898  604.979  179.15  0.083989  9134.83  8654.94  8482.95  7841.92
  6595.822  6595.810  2.000  56.1936  604.819  179.268  0.087189  9040.18  8634.93  8352.93  7958.92
  6597.306  6597.290  2.000  55.0309  604.802  179.454  0.091116  8809.12  8435.9  8419.93  7617.88
  6598.803  6598.790  2.000  54.5427  604.87  179.726  0.094425  8751.58  8478.91  8040.89  7719.9
  6600.318  6600.310  2.000  52.8972  604.893  180.031  0.097039  8476.57  8151.87  8033.88  7334.85
  6601.859  6601.850  2.000  52.3911  605.119  180.338  0.098065  8347.3  8062.86  7879.86  7412.85
  6603.418  6603.410  2.000  52.5028  604.118  180.307  0.097520  8342.28  8169.87  7806.86  7398.85
  6604.988  6604.980  2.000  52.2667  604.964  180.787  0.096469  8385.92  8091.86  7797.85  7343.84
  6606.589  6606.580  2.000  52.6181  605.153  181.135  0.094695  8419.44  8123.87  8025.88  7272.84
  6608.196  6608.190  2.000  53.2782  605.212  181.312  0.092894  8628  8194.88  7918.87  7502.87
  6609.838  6609.830  2.000  52.7815  605.323  181.592  0.090548  8431.21  8118.87  7860.87  7538.88
  6611.485  6611.480  2.000  52.7685  605.346  181.834  0.088031  8436.57  8118.87  7900.88  7486.88
  6613.159  6613.150  2.000  52.1305  605.424  182.143  0.085819  8295.48  7976.86  7833.86  7454.86
  6614.843  6614.840  2.000  52.0308  605.507  182.425  0.084241  8295.48  8112.86  7760.85  7335.85
  6616.559  6616.550  2.000  51.6137  605.552  182.679  0.083204  8356.23  8034.87  7693.85  7169.83
  6618.286  6618.280  2.000  51.6413  605.611  182.961  0.082562  8284.97  7946.85  7794.86  7247.84
  6620.039  6620.030  2.000  50.7782  605.584  183.232  0.082899  8215  7784.82  7611.82  7138.82
  6621.795  6621.790  2.000  50.8434  605.653  183.552  0.083747  8174.98  7794.84  7633.84  7189.83
  6623.587  6623.580  2.000  51.2964  605.782  183.88  0.085061  8180.91  7858.84  7692.84  7341.84
  6625.389  6625.380  2.000  50.6806  605.905  184.154  0.086744  8177.1  7768.84  7412.81  7348.86
  6627.214  6627.210  2.000  51.0739  605.941  184.439  0.088368  8274.29  7905.85  7639.84  7127.83
  6629.061  6629.050  2.000  51.1816  605.345  184.577  0.090665  8231.97  7925.87  7684.86  7139.84
  6630.917  6630.910  2.000  51.4475  606.055  185.155  0.092343  8261.47  7877.85  7710.86  7329.85
  6632.797  6632.790  2.000  50.9238  606.141  185.495  0.093640  8213.45  7845.85  7529.84  7277.85
  6634.699  6634.690  2.000  51.2458  606.206  185.767  0.093835  8227.96  7900.86  7661.85  7274.85
  6636.616  6636.610  2.000  51.0474  606.24  186.07  0.092928  8203.4  7929.87  7704.86  7108.84
  6638.557  6638.550  2.000  51.0968  606.169  186.343  0.091240  8143.71  7852.86  7671.86  7304.87
  6640.513  6640.510  2.000  51.589  606.378  186.712  0.090395  8287.84  8045.88  7625.85  7322.87
  6642.485  6642.480  2.000  51.7458  606.279  186.992  0.089956  8296.75  8089.9  7707.87  7277.87
  6644.488  6644.480  2.000  51.8989  606.218  187.254  0.090614  8369.44  8022.88  7740.87  7328.86
  6646.501  6646.490  2.000  51.701  606.43  187.681  0.092131  8147.39  8051.9  7793.88  7359.88
  6648.527  6648.520  2.000  52.3607  606.638  188.074  0.094785  8356.29  8110.9  7777.88  7518.9
  6650.591  6650.580  2.000  52.6174  606.663  188.325  0.097226  8430.34  8122.9  7927.9  7439.89
  6652.659  6652.650  2.000  53.1725  606.843  188.699  0.099782  8464.64  8263.93  7868.9  7669.93
  6654.746  6654.740  2.000  53.1207  606.853  189.07  0.102140  8477.74  8023.9  8054.93  7679.93
  6656.860  6656.850  2.000  52.5025  606.823  189.366  0.104451  8325.99  8179.92  7885.9  7467.9
  6658.991  6658.980  2.000  53.006  606.894  189.702  0.106210  8460.31  8285.93  7846.9  7575.92
  6661.126  6661.120  2.000  52.8359  606.952  190.064  0.107418  8470.15  8219.93  7980.92  7397.9
  6663.290  6663.290  2.000  53.1278  606.998  190.452  0.107945  8541.75  8155.92  8075.92  7474.91
  6665.484  6665.480  2.000  53.3555  607.123  190.865  0.107658  8572.54  8377.95  7996.92  7445.9
  6667.685  6667.680  2.000  53.3835  607.178  191.203  0.106741  8652.52  8194.92  7896.91  7668.94
  6669.905  6669.900  2.000  53.4426  607.123  191.565  0.105049  8587.4  8263.96  7906.93  7687.96
  6672.158  6672.150  2.000  53.5134  607.175  191.922  0.103716  8656.18  8305.95  7974.93  7554.93
  6674.416  6674.410  2.000  53.6239  607.35  192.327  0.102074  8574.63  8333.95  8016.93  7642.94
  6676.694  6676.690  2.000  53.4709  607.393  192.721  0.101137  8537.08  8274.94  8215.95  7449.91
  6678.995  6678.990  2.000  52.6409  607.406  193.12  0.100916  8437.58  8231.95  7799.91  7504.93
  6681.313  6681.310  2.000  52.546  607.423  193.482  0.100852  8465.84  8095.93  7872.92  7482.93
  6683.659  6683.650  2.000  53.1693  607.651  193.889  0.101208  8554.55  8143.94  7997.94  7611.95
  6686.006  6686.000  2.000  52.0397  607.599  194.243  0.101628  8359.5  8170.94  7848.91  7239.89
  6688.383  6688.380  2.000  52.2501  607.666  194.689  0.102602  8319.81  7969.92  8013.95  7446.93
  6690.780  6690.770  2.000  52.1232  607.81  195.084  0.104160  8417.25  8070.94  7909.93  7282.9
  6693.195  6693.190  2.000  51.9924  607.816  195.49  0.106410  8455.11  7876.9  7896.92  7372.91
  6695.623  6695.620  2.000  52.4158  607.961  195.921  0.108661  8412.96  7956.93  8053.95  7442.94
  6698.072  6698.070  2.000  52.4218  607.893  196.311  0.110978  8374.04  8163.95  7800.91  7527.94
  6700.560  6700.550  2.000  52.5106  609.868  197.379  0.114059  8442.66  8207.96  7901.94  7471.95
  6703.047  6703.040  2.000  51.9577  609.961  197.728  0.116429  8357.39  7968.92  7847.92  7517.94
  6705.555  6705.550  2.000  52.8791  609.962  198.099  0.119246  8501.37  8237.96  8052.96  7461.95
  6708.063  6708.070  2.000  52.934  609.943  198.473  0.121467  8479.82  8185.97  7997.96  7622.97
  6710.628  6710.620  2.000  52.2136  610.034  198.916  0.122752  8353.22  8069.95  7873.94  7554.95
  6713.189  6713.190  2.000  52.7257  610.017  199.385  0.123348  8413.68  8217.97  8024.96  7506.95
  6715.775  6715.770  2.000  52.7569  610.027  199.738  0.123485  8485.22  8237.97  7929.95  7529.96
  6718.376  6718.380  2.000  52.4011  610.053  200.166  0.123784  8369.53  8237.97  7936.96  7422.96
  6721.005  6721.000  2.000  52.9047  610.018  200.586  0.124235  8497.92  8132.96  8199.99  7441.95
  6723.652  6723.650  2.000  53.1024  610.188  201.063  0.124536  8580.53  8211.98  8044.98  7564.97
  6726.316  6726.310  2.000  53.3592  610.439  201.529  0.124800  8580.53  8211.98  8044.98  7735.02
  6728.996  6728.990  2.000  52.9598  610.437  202  0.125584  8390.59  8227  7975.99  7735.02
  6731.683  6731.690  2.000  52.6219  610.417  202.506  0.124976  8572.37  8194  7814.96  7539.99
  6734.420  6734.410  2.000  52.8332  610.437  202.913  0.125658  8572.37  8324.01  7814.96  7539.99
  6737.154  6737.150  2.000  53.1163  610.436  203.327  0.125512  8509.07  8265.01  7928.98  7721.01
  6739.897  6739.900  2.000  53.5296  610.462  203.737  0.126014  8571.76  8306.01  8167.01  7632.99
  6742.685  6742.680  2.000  53.2099  610.517  204.183  0.126886  8519.58  8206.99  8124.99  7634
  6745.470  6745.470  2.000  52.8483  610.629  204.724  0.128361  8510.73  8403.03  7976.99  7379.97
  6748.291  6748.290  2.000  53.6744  610.699  205.313  0.130198  8566.87  8339.03  8162.02  7711.03
  6751.127  6751.120  2.000  52.9548  610.644  205.655  0.132137  8564.51  8240.01  8040.01  7492
  6753.975  6753.970  2.000  53.3392  610.669  206.131  0.134463  8466.55  8407.04  8191.02  7507.99
  6756.852  6756.850  2.000  53.2406  610.791  206.607  0.135864  8460.85  8348.03  8136.02  7574.01
  6759.747  6759.740  2.000  52.834  610.779  207.094  0.136989  8460.85  8195.02  8111.02  7503
  6762.657  6762.650  2.000  53.3143  610.899  207.581  0.137787  8586.6  8289.04  7948  7746.04
  6765.576  6765.570  2.000  53.1186  610.946  208.129  0.137765  8613.53  8156.03  8101.04  7582.03
  6768.524  6768.520  2.000  53.3291  610.916  208.528  0.138788  8486.49  8255.04  8241.05  7597.03
  6771.492  6771.490  2.000  53.264  611.034  209.046  0.139960  8638.04  8298.04  8012.01  7598.03
  6774.470  6774.470  2.000  52.9395  611.002  209.526  0.141556  8436.05  8211.04  8106.04  7593.04
  6777.482  6777.480  2.000  53.3236  611.078  210.046  0.143895  8465.73  8279.05  8189.04  7651.04
  6780.506  6780.500  2.000  53.504  611.175  210.556  0.146800  8586.15  8368.05  8130.03  7616.03
  6783.555  6783.550  2.000  53.5132  611.144  211.11  0.149910  8586.15  8368.05  8213.05  7537.02
  6786.616  6786.610  2.000  52.8376  611.199  211.546  0.152504  8510.15  8250.05  8008.03  7526.04
  6789.696  6789.690  2.000  53.0938  611.175  212.09  0.155106  8501.5  8347.06  7964.02  7637.05
  6792.796  6792.790  2.000  52.9636  610.717  212.46  0.156972  8567.66  8174.04  8089.04  7515.03
  6795.913  6795.910  2.000  52.973  589.027  205.319  0.153321  8252.61  7884.97  7758.96  7305.97
  6799.052  6799.050  2.000  53.0432  610.131  213.254  0.160525  8513.17  8355.07  8013.03  7482.03
  6802.200  6802.200  2.000  52.8197  610.777  213.968  0.161928  8535.94  8168.04  8129.05  7428.03
  6805.382  6805.380  2.000  53.472  610.996  214.547  0.162742  8535.94  8176.05  8155.06  7804.09
  6808.572  6808.570  2.000  52.7977  611.229  215.208  0.163222  8533.33  8176.05  8046.04  7516.05
  6811.790  6811.790  2.000  53.2279  567.582  200.297  0.151886  7975.45  7721.93  7444.91  7068.92
  6815.023  6815.020  2.000  52.9173  608.661  215.318  0.163370  8357.54  8220.06  8177.07  7454.04
  6818.273  6818.270  2.000  53.2674  609.853  216.241  0.164096  8628.11  8333.08  7970.04  7554.05
  6821.552  6821.550  2.000  53.398  610.133  216.879  0.164480  8650.63  8226.09  8063.07  7640.09
  6824.840  6824.840  2.000  53.3287  598.178  213.146  0.162334  8318.93  8194.06  8024.04  7363.02
  6828.155  6828.150  2.000  53.5079  608.108  217.304  0.166838  8632.33  8311.1  8100.08  7495.07
  6831.474  6831.470  2.000  53.4182  608.655  218.012  0.168346  8473.98  8280.09  8082.06  7677.09
  6834.825  6834.820  2.000  53.1674  608.768  218.565  0.170324  8507.35  8228.09  8094.08  7537.08
  6838.192  6838.190  2.000  53.2268  607.995  218.797  0.172018  8511.4  8179.08  8164.08  7507.07
  6841.570  6841.570  2.000  52.9145  579.155  208.936  0.165558  8023.73  7844  7562.96  7214.99
  6844.981  6844.980  2.000  53.768  607.391  219.724  0.175637  8593.97  8361.11  8051.07  7652.1
  6848.404  6848.400  2.000  53.4129  607.936  220.514  0.177548  8520.29  8253.1  8147.1  7551.09
  6851.854  6851.850  2.000  53.8325  607.926  221.127  0.179747  8675.91  8426.13  8029.08  7595.1
  6855.311  6855.310  2.000  53.6356  607.959  221.615  0.182158  8675.91  8267.11  8029.08  7636.11
  6858.791  6858.790  2.000  53.7788  607.973  222.184  0.184692  8680.74  8333.12  8168.11  7514.09
  6862.293  6862.290  2.000  53.5789  606.591  222.24  0.186597  8542.16  8285.11  8074.09  7599.11
  6865.812  6865.810  2.000  53.2614  608.055  223.362  0.189493  8446.52  8285.11  8125.1  7529.1
  6869.350  6869.350  2.000  53.2402  608.11  223.949  0.191825  8446.52  8244.13  8049.1  7636.13
  6872.902  6872.900  2.000  52.9404  608.169  224.53  0.194317  8556.42  8181.11  8018.09  7441.09
  6876.482  6876.480  2.000  53.6443  608.235  225.197  0.197228  8505.92  8447.16  8131.12  7544.12
  6880.082  6880.080  2.000  53.132  608.172  225.775  0.199280  8683.02  8131.12  7973.1  7526.12
  6883.692  6883.690  2.000  53.3541  608.092  226.304  0.201220  8608.86  8200.12  8004.1  7631.14
  6887.323  6887.320  2.000  53.8251  608.026  226.864  0.203267  8562.68  8377.15  8122.12  7665.14
  6890.983  6890.980  2.000  53.4988  607.909  227.431  0.205307  8531.94  8227.14  8135.13  7628.14
  6894.653  6894.650  2.000  53.7564  607.845  228.018  0.206889  8539.09  8412.17  8039.12  7685.15
  6898.343  6898.340  2.000  53.7953  607.824  228.624  0.209096  8526.58  8271.17  8258.17  7642.17
  6902.048  6902.050  2.000  53.1897  607.643  229.162  0.210914  8348.9  8344.16  8162.13  7465.12
  6905.782  6905.780  2.000  53.5498  607.493  229.716  0.212851  8666.72  8205.15  7995.12  7664.17
  6909.517  6909.520  2.000  53.6978  607.251  230.219  0.214077  8617.57  8304.18  8093.15  7593.16
  6913.287  6913.290  2.000  53.5694  606.84  230.703  0.215867  8500.6  8306.17  8034.13  7667.17
  6917.078  6917.080  2.000  53.7631  606.447  231.167  0.217551  8504.97  8338.18  8082.14  7679.18
  6920.885  6920.880  2.000  53.4668  605.913  231.549  0.219408  8487.77  8253.17  8099.14  7556.16
  6924.716  6924.710  2.000  53.5084  605.727  232.136  0.222178  8536.96  8148.16  8129.16  7597.18
  6928.554  6928.550  2.000  53.7471  605.577  232.694  0.224307  8562.47  8409.2  8012.15  7564.17
  6932.414  6932.410  2.000  54.0493  606.662  233.765  0.226792  8567.11  8466.22  8122.16  7634.19
  6936.291  6936.290  2.000  53.6905  607.255  234.631  0.229445  8568.27  8356.22  8114.18  7565.19
  6940.195  6940.190  2.000  53.7811  607.007  235.204  0.231365  8705.97  8268.2  8048.16  7623.2
  6944.107  6944.110  2.000  54.1586  606.794  235.841  0.233263  8700.51  8385.23  8124.18  7653.21
  6948.051  6948.050  2.000  53.6974  606.615  236.335  0.235417  8575.04  8314.22  8128.19  7556.2
  6952.012  6952.010  2.000  53.4148  606.411  236.949  0.238004  8476.69  8277.22  8007.17  7630.22
  6955.983  6955.980  2.000  54.2152  606.219  237.473  0.240534  8514.59  8495.26  8154.19  7702.23
  6959.984  6959.980  2.000  54.9946  605.891  238.049  0.243729  8822.04  8445.24  8428.24  7625.22
  6963.990  6963.990  2.000  54.8082  605.824  238.674  0.246811  8557.39  8639.28  8215.2  7792.25
  6968.033  6968.030  2.000  53.984  605.727  239.344  0.249701  8406.8  8395.25  8216.22  7681.25
  6972.082  6972.080  2.000  54.2887  605.578  239.91  0.253146  8575.36  8332.24  8216.22  7752.25
  6976.151  6976.150  2.000  54.4646  605.229  240.448  0.255816  8644.87  8474.27  8141.2  7703.25
  6980.243  6980.240  2.000  54.7323  604.861  240.953  0.259038  8710.69  8386.26  8277.23  7731.26
  6984.359  6984.350  2.000  55.1754  604.89  241.615  0.262253  8834.2  8470.28  8359.26  7711.27
  6988.485  6988.480  2.000  54.0924  604.609  242.192  0.265300  8524.05  8379.25  8197.22  7604.24
  6992.635  6992.630  2.000  54.8596  604.405  242.854  0.267590  8740.62  8420.29  8187.25  7809.3
  6996.794  6996.790  2.000  54.1432  604.073  243.399  0.270366  8536.72  8425.27  8205.22  7539.23
  7000.985  7000.980  2.000  54.0419  603.899  244.02  0.273099  8576.09  8290.28  8205.22  7564.26
  7005.188  7005.180  2.000  54.0519  603.623  244.602  0.275390  8552.2  8101.25  8251.26  7722.29
  7009.408  7009.410  2.000  53.8503  603.412  245.263  0.278011  8552.2  8101.25  8316.26  7524.25
  7013.647  7013.650  2.000  55.2258  603.105  245.789  0.280502  8696.03  8567.33  8291.28  7752.3
  7017.909  7017.910  2.000  55.1031  602.882  246.397  0.283016  8652.83  8441.3  8305.27  7821.31
  7022.191  7022.190  2.000  54.9838  602.773  247.068  0.286161  8652.83  8444.32  8255.28  7790.32
  7026.496  7026.490  2.000  54.4399  602.506  247.633  0.289118  8625.52  8356.29  8076.24  7742.31
  7030.812  7030.810  2.000  54.7425  602.255  248.252  0.292154  8765.14  8456.31  8076.24  7671.29
  7035.153  7035.150  2.000  54.9245  601.918  248.904  0.295043  8765.14  8561.35  8091.25  7642.3
  7039.516  7039.510  2.000  55.0476  601.647  249.477  0.298851  8513.28  8381.31  8349.29  7875.34
  7043.897  7043.890  2.000  54.823  601.449  250.056  0.301769  8546.27  8429.34  8219.28  7778.34
  7048.282  7048.280  2.000  55.1517  601.145  250.698  0.304928  8682.2  8414.33  8302.3  7755.34
  7052.705  7052.700  2.000  54.5654  600.833  251.278  0.308148  8584.74  8297.31  8282.3  7620.31
  7057.133  7057.130  2.000  55.5161  600.631  252.04  0.311152  8790.68  8444.35  8309.31  7800.36
  7061.581  7061.580  2.000  55.1657  600.318  252.559  0.314463  8606.95  8436.35  8367.33  7706.34
  7066.051  7066.050  2.000  55.1128  600.046  253.231  0.317916  8569.2  8421.35  8202.29  7877.38
  7070.541  7070.540  2.000  54.8589  594.44  251.558  0.318668  8664.37  8311.33  8101.28  7533.32
  7075.051  7075.050  2.000  55.1673  599.023  254.25  0.324533  8578.46  8490.38  8138.3  7839.38
  7079.583  7079.580  2.000  55.3836  598.858  254.915  0.328420  8845.85  8398.37  8164.31  7758.37
  7084.134  7084.130  2.000  55.3621  595.975  254.472  0.330765  8569.31  8397.36  8200.32  7827.39
  7088.703  7088.700  2.000  55.9672  598.34  256.23  0.336290  8766.28  8545.41  8369.35  7806.39
  7093.285  7093.280  2.000  55.4383  597.931  256.832  0.339646  8772.17  8311.37  8289.35  7775.4
  7097.888  7097.890  2.000  55.7552  597.687  257.451  0.343300  8749.98  8523.41  8343.36  7707.39
  7102.514  7102.510  2.000  56.0783  597.385  258.142  0.347256  8693.14  8611.42  8376.37  7819.4
  7107.156  7107.160  2.000  55.6219  596.982  258.669  0.350649  8693.14  8397.38  8489.38  7625.37
  7111.820  7111.820  2.000  55.9076  596.196  259.006  0.353750  8637.63  8500.42  8378.39  7815.43
  7116.507  7116.500  2.000  55.927  595.382  259.361  0.355182  8562.57  8519.47  8470.44  7745.45
  7121.206  7121.200  2.000  56.3405  594.494  259.53  0.357471  8681.59  8522.5  8409.47  7880.51
  7125.924  7125.920  2.000  56.059  593.428  259.456  0.359264  8619.31  8636.61  8287.53  7723.56
  7130.662  7130.660  2.000  55.8439  592.03  259.368  0.360838  8513.39  8479.65  8335.62  7732.63
  7135.413  7135.410  2.000  56.591  591.352  259.889  0.364561  8813.35  8581.64  8271.58  7798.63
  7140.190  7140.190  2.000  56.4641  591.098  260.642  0.368459  8596.96  8581.64  8271.58  7925.64
  7144.991  7144.990  2.000  56.7237  590.89  261.349  0.372763  8832.57  8599.65  8312.59  7772.62
  7149.801  7149.800  2.000  56.4366  590.74  262.059  0.376202  8832.57  8506.62  8270.57  7729.6
  7154.635  7154.630  2.000  56.2807  590.489  262.763  0.380548  8562.34  8632.65  8306.58  7731.6
  7159.497  7159.490  2.000  56.6239  590.218  263.503  0.384932  8669.62  8543.64  8412.6  7794.63
  7164.365  7164.360  2.000  56.6336  589.473  263.912  0.389029  8682.07  8511.65  8252.59  7937.68
  7169.256  7169.250  2.000  56.4897  588.844  264.445  0.393240  8564.78  8637.67  8280.58  7780.63
  7174.159  7174.160  2.000  56.4489  588.296  264.96  0.397372  8564.78  8434.63  8307.6  7901.66
  7179.093  7179.090  2.000  56.7939  587.719  265.555  0.401669  8633.86  8581.68  8368.63  7794.66