File: xdidata/Mn/Mn-K-ManganeseMetal.xdi
# XDI/1.0 BlueSky/1.10.0 BMM/2023-1.0-py310-tiled
# Beamline.name: BMM (06BM) -- Beamline for Materials Measurement (NIST)
# Beamline.xray_source: NSLS-II three-pole wiggler
# Beamline.collimation: paraboloid mirror, 5 nm Rh on 30 nm Pt
# Beamline.focusing: not in use
# Beamline.harmonic_rejection: flat mirror, Si stripe, pitch = 7.0 mrad relative to beam
# Beamline.software: Bluesky 1.10.0, Ophyd 1.7.0, DataBroker 2.0.0b13, Python 3.10.8, 2023-1.0-py310-tiled
# Detector.I0: 10 cm N2
# Detector.I1: 25 cm N2
# Detector.I2: 25 cm N2
# Element.symbol: Mn
# Element.edge: K
# Element.reference: Mn
# Element.reference_material: Mn metal powder
# Facility.name: NSLS-II
# Facility.energy: 3.0
# Facility.current: 400.0
# Facility.mode: top-off
# Facility.GUP: 301027
# Facility.SAF: 310583
# Facility.cycle: 2023-2
# Mono.name: Si(111)
# Mono.d_spacing: 3.13519
# Mono.encoder_resolution: 0.0000050 deg/ct
# Mono.angle_offset: 16.0754 deg
# Mono.scan_mode: pseudo channel cut
# Mono.scan_type: step
# Mono.direction: forward in energy
# Sample.name: Mn metal powder
# Sample.prep: reference
# Sample.x: 109.138 mm
# Sample.y: 153.150 mm
# Sample.SDD_position: 205.000 mm
# Scan.experimenters: Bruce Ravel
# Scan.edge_energy: 6539.0
# Scan.start_time: 2023-05-28T12:25:43
# Scan.end_time: 2023-05-28T12:33:53
# Scan.transient_id: 78679
# Scan.uid: fa86093f-2d6d-47ba-b93d-a09b620c6404
# Scan.plot_hint: ln(It/Ir)  --  ln($6/$7)
# Column.1: energy eV
# Column.2: requested_energy eV
# Column.3: measurement_time seconds
# Column.4: xmu
# Column.5: I0 nA
# Column.6: It nA
# Column.7: Ir nA
# ///////////
# standard reference
# -----------
# energy  requested_energy  measurement_time  xmu  I0  It  Ir
  6339.005  6339.000  0.500  3.394678  153.702  113.96  3.823518
  6349.010  6349.000  0.500  3.379327  153.945  114.623  3.905254
  6359.024  6359.000  0.500  3.364345  154.218  115.352  3.989410
  6369.002  6369.000  0.500  3.349364  154.489  116.112  4.076288
  6379.007  6379.000  0.500  3.334723  154.727  116.778  4.160146
  6389.015  6389.000  0.500  3.319652  154.929  117.461  4.248028
  6399.021  6399.000  0.500  3.304933  155.09  118.11  4.334819
  6409.006  6409.000  0.500  3.290642  155.248  118.796  4.422763
  6419.008  6419.000  0.500  3.276115  155.461  119.499  4.514053
  6429.012  6429.000  0.500  3.261895  155.577  120.097  4.601602
  6439.005  6439.000  0.500  3.247920  155.675  120.716  4.690406
  6449.007  6449.000  0.500  3.234092  153.132  119.258  4.698275
  6459.010  6459.000  0.500  3.220559  154.802  121.078  4.834967
  6469.007  6469.000  0.500  3.207577  155.991  122.521  4.956541
  6480.381  6479.000  0.500  3.193365  155.619  122.822  5.039808
  6488.981  6489.000  0.500  3.182479  155.572  123.198  5.110565
  6498.979  6499.000  0.500  3.172310  155.728  123.862  5.190622
  6508.987  6509.000  0.500  3.165265  155.794  124.434  5.251481
  6510.986  6511.000  0.500  3.164348  155.863  124.588  5.262802
  6512.985  6513.000  0.500  3.163906  155.885  124.662  5.268248
  6514.992  6515.000  0.500  3.163867  155.875  124.797  5.274182
  6516.990  6517.000  0.500  3.164243  155.943  124.957  5.278966
  6518.988  6519.000  0.500  3.165240  155.969  125.078  5.278794
  6520.994  6521.000  0.500  3.167228  156.009  125.175  5.272389
  6522.990  6523.000  0.500  3.170048  156.017  125.297  5.262671
  6524.997  6525.000  0.500  3.174659  156.029  125.415  5.243414
  6526.998  6527.000  0.500  3.181590  156.052  125.562  5.213300
  6528.996  6529.000  0.500  3.192079  156.084  125.741  5.166224
  6529.285  6529.300  0.500  3.193894  156.064  125.712  5.155670
  6529.584  6529.600  0.500  3.196342  156.071  125.702  5.142686
  6529.886  6529.900  0.500  3.198638  156.086  125.697  5.130659
  6530.183  6530.200  0.500  3.201097  156.078  125.725  5.119225
  6530.483  6530.500  0.500  3.203637  156.071  125.691  5.104857
  6530.784  6530.800  0.500  3.206427  156.09  125.706  5.091227
  6531.089  6531.100  0.500  3.209500  156.093  125.777  5.078457
  6531.385  6531.400  0.500  3.212919  156.074  125.793  5.061804
  6531.683  6531.700  0.500  3.216633  156.098  125.843  5.045006
  6531.985  6532.000  0.500  3.220790  156.073  125.877  5.025441
  6532.285  6532.300  0.500  3.224951  156.09  125.867  5.004177
  6532.588  6532.600  0.500  3.229741  156.118  125.934  4.982906
  6532.888  6532.900  0.500  3.235275  156.093  125.888  4.953627
  6533.188  6533.200  0.500  3.241425  156.277  126.054  4.929751
  6533.491  6533.500  0.500  3.247860  156.599  126.332  4.908929
  6533.793  6533.800  0.500  3.255185  156.616  126.365  4.874379
  6534.094  6534.100  0.500  3.263297  156.622  126.394  4.836084
  6534.396  6534.400  0.500  3.272510  156.621  126.402  4.792057
  6534.696  6534.700  0.500  3.283086  156.6  126.393  4.741289
  6534.994  6535.000  0.500  3.295705  156.607  126.458  4.684237
  6535.292  6535.300  0.500  3.310723  156.62  126.446  4.614002
  6535.592  6535.600  0.500  3.327928  156.594  126.44  4.535065
  6535.889  6535.900  0.500  3.348994  156.609  126.481  4.441983
  6536.189  6536.200  0.500  3.374901  156.594  126.47  4.327984
  6536.491  6536.500  0.500  3.409009  156.62  126.511  4.184211
  6536.793  6536.800  0.500  3.454207  156.597  126.528  3.999865
  6537.095  6537.100  0.500  3.518031  156.624  126.533  3.752676
  6537.397  6537.400  0.500  3.608825  156.64  126.578  3.428191
  6537.699  6537.700  0.500  3.739457  156.627  126.618  3.009322
  6537.996  6538.000  0.500  3.927015  156.63  126.573  2.493796
  6538.298  6538.300  0.500  4.177689  156.628  126.614  1.941491
  6538.593  6538.600  0.500  4.459716  156.637  126.604  1.464254
  6538.897  6538.900  0.500  4.728332  156.621  126.606  1.119354
  6539.195  6539.200  0.500  4.940218  156.634  126.698  0.906278
  6539.496  6539.500  0.500  5.102419  156.619  126.679  0.770463
  6539.796  6539.800  0.500  5.235377  156.596  126.706  0.674688
  6540.097  6540.100  0.500  5.350973  156.606  126.715  0.601079
  6540.397  6540.400  0.500  5.456175  156.585  126.693  0.540963
  6540.698  6540.700  0.500  5.552813  156.609  126.74  0.491314
  6540.997  6541.000  0.500  5.636462  156.588  126.756  0.451945
  6541.299  6541.300  0.500  5.702318  156.604  126.778  0.423211
  6541.596  6541.600  0.500  5.747095  156.615  126.802  0.404757
  6541.898  6541.900  0.500  5.769257  156.575  126.779  0.395812
  6542.194  6542.200  0.500  5.775779  156.585  126.805  0.393322
  6542.498  6542.500  0.500  5.778703  156.606  126.81  0.392189
  6542.795  6542.800  0.500  5.790347  156.613  126.786  0.387574
  6543.100  6543.100  0.500  5.819950  156.604  126.802  0.376318
  6543.399  6543.400  0.500  5.864163  156.621  126.804  0.360046
  6543.699  6543.700  0.500  5.918377  156.602  126.858  0.341193
  6543.998  6544.000  0.500  5.974977  156.58  126.857  0.322415
  6544.299  6544.300  0.500  6.030112  156.6  126.907  0.305239
  6544.602  6544.600  0.500  6.076042  156.607  126.953  0.291643
  6544.898  6544.900  0.500  6.111616  156.601  126.975  0.281500
  6545.195  6545.200  0.500  6.142056  156.595  126.99  0.273092
  6545.496  6545.500  0.500  6.170001  156.621  127.01  0.265608
  6545.795  6545.800  0.500  6.202252  156.575  126.991  0.257139
  6546.100  6546.100  0.500  6.243143  156.579  127.001  0.246856
  6546.401  6546.400  0.500  6.290966  156.574  127.022  0.235369
  6546.700  6546.700  0.500  6.347535  156.627  127.048  0.222468
  6547.001  6547.000  0.500  6.411098  156.592  127.035  0.208747
  6547.303  6547.300  0.500  6.481451  156.587  127.069  0.194617
  6547.598  6547.600  0.500  6.555417  156.598  127.058  0.180726
  6547.898  6547.900  0.500  6.632615  156.599  127.103  0.167359
  6548.196  6548.200  0.500  6.711104  156.59  127.084  0.154702
  6548.499  6548.500  0.500  6.789758  156.593  127.068  0.142983
  6548.798  6548.800  0.500  6.870224  156.598  127.092  0.131953
  6549.101  6549.100  0.500  6.950578  156.562  127.076  0.121749
  6549.401  6549.400  0.500  7.033476  156.556  127.123  0.112105
  6549.704  6549.700  0.500  7.118710  156.581  127.164  0.102979
  6550.006  6550.000  0.500  7.200085  156.568  127.132  0.094907
  6550.303  6550.300  0.500  7.279352  156.559  127.148  0.087685
  6550.600  6550.600  0.500  7.356833  156.569  127.17  0.081162
  6550.897  6550.900  0.500  7.430647  156.566  127.169  0.075387
  6551.197  6551.200  0.500  7.504184  156.558  127.168  0.070041
  6551.495  6551.500  0.500  7.578589  156.517  127.181  0.065026
  6551.799  6551.800  0.500  7.647922  156.535  127.207  0.060682
  6552.100  6552.100  0.500  7.715856  156.55  127.261  0.056721
  6552.402  6552.400  0.500  7.781635  156.533  127.27  0.053113
  6552.704  6552.700  0.500  7.846647  156.539  127.287  0.049777
  6553.004  6553.000  0.500  7.913982  156.527  127.307  0.046543
  6553.303  6553.300  0.500  7.978934  156.52  127.313  0.043618
  6553.596  6553.600  0.500  8.040507  156.52  127.339  0.041022
  6553.896  6553.900  0.500  8.091353  156.537  127.37  0.038998
  6554.196  6554.200  0.500  8.141457  156.523  127.381  0.037095
  6554.498  6554.500  0.500  8.182692  156.528  127.407  0.035604
  6554.800  6554.800  0.500  8.220590  156.529  127.408  0.034280
  6555.102  6555.100  0.500  8.240824  156.531  127.441  0.033602
  6555.406  6555.400  0.500  8.257838  156.51  127.44  0.033035
  6555.702  6555.700  0.500  8.265423  156.536  127.489  0.032798
  6556.001  6556.000  0.500  8.267801  156.533  127.476  0.032717
  6556.301  6556.300  0.500  8.259772  156.53  127.45  0.032974
  6556.598  6556.600  0.500  8.240029  156.531  127.457  0.033633
  6556.902  6556.900  0.500  8.218781  156.519  127.492  0.034365
  6557.198  6557.200  0.500  8.188106  156.534  127.528  0.035445
  6557.500  6557.500  0.500  8.159934  156.518  127.497  0.036449
  6557.803  6557.800  0.500  8.120382  156.504  127.473  0.037912
  6558.107  6558.100  0.500  8.085805  156.518  127.528  0.039263
  6558.400  6558.400  0.500  8.047139  156.524  127.565  0.040823
  6558.708  6558.700  0.500  8.015158  156.501  127.535  0.042139
  6559.001  6559.000  0.500  7.988191  156.505  127.531  0.043290
  6559.296  6559.300  0.500  7.963281  156.52  127.584  0.044401
  6559.593  6559.600  0.500  7.941333  156.492  127.57  0.045381
  6559.899  6559.900  0.500  7.922417  156.522  127.603  0.046259
  6560.200  6560.200  0.500  7.907960  156.531  127.615  0.046937
  6560.502  6560.500  0.500  7.894940  156.525  127.634  0.047559
  6560.803  6560.800  0.500  7.888561  156.515  127.639  0.047866
  6561.103  6561.100  0.500  7.886659  156.476  127.607  0.047945
  6561.402  6561.400  0.500  7.889278  156.456  127.605  0.047819
  6561.703  6561.700  0.500  7.889998  156.372  127.59  0.047779
  6562.002  6562.000  0.500  7.893523  156.284  127.545  0.047594
  6562.301  6562.300  0.500  7.898537  156.178  127.461  0.047325
  6562.602  6562.600  0.500  7.905418  156.185  127.469  0.047003
  6562.899  6562.900  0.500  7.912898  156.391  127.674  0.046728
  6563.198  6563.200  0.500  7.920241  156.465  127.759  0.046417
  6563.505  6563.500  0.500  7.925350  156.495  127.819  0.046202
  6563.802  6563.800  0.500  7.930799  156.503  127.821  0.045952
  6564.005  6564.000  0.500  7.933941  156.505  127.801  0.045800
  6565.002  6564.990  0.500  7.955658  156.523  127.892  0.044848
  6565.998  6565.990  0.500  7.969588  156.514  127.956  0.044250
  6567.026  6567.010  0.500  7.976775  156.51  128.015  0.043953
  6568.075  6568.060  0.500  7.978626  156.511  128.1  0.043901
  6569.143  6569.120  0.500  7.974210  156.544  128.183  0.044124
  6570.200  6570.200  0.500  7.972115  156.554  128.182  0.044216
  6571.294  6571.300  0.500  7.971182  156.544  128.208  0.044266
  6572.419  6572.420  0.500  7.967312  156.575  128.31  0.044473
  6573.563  6573.560  0.500  7.968809  156.563  128.348  0.044420
  6574.711  6574.710  0.500  7.980915  156.582  128.42  0.043910
  6575.892  6575.890  0.500  7.992236  156.612  128.505  0.043445
  6577.084  6577.080  0.500  8.016077  156.593  128.543  0.042434
  6578.302  6578.300  0.500  8.033647  156.629  128.669  0.041736
  6579.532  6579.530  0.500  8.052290  156.617  128.734  0.040985
  6580.784  6580.780  0.500  8.081372  156.613  128.8  0.039831
  6582.048  6582.050  0.500  8.109918  156.642  128.89  0.038737
  6583.345  6583.340  0.500  8.139879  156.625  128.927  0.037604
  6584.653  6584.650  0.500  8.163911  156.656  129.016  0.036737
  6585.990  6585.980  0.500  8.165681  156.471  128.96  0.036656
  6587.332  6587.330  0.500  8.150716  156.618  129.142  0.037261
  6588.704  6588.700  0.500  8.110710  156.626  129.217  0.038805
  6590.088  6590.080  0.500  8.065138  156.642  129.289  0.040636
  6591.494  6591.490  0.500  8.026033  156.644  129.368  0.042283
  6592.916  6592.910  0.500  7.994596  156.696  129.478  0.043670
  6594.349  6594.350  0.500  7.964901  156.667  129.541  0.045008
  6595.820  6595.810  0.500  7.928750  156.691  129.658  0.046708
  6597.295  6597.290  0.500  7.885353  156.687  129.721  0.048803
  6598.798  6598.790  0.500  7.852251  156.702  129.765  0.050462
  6600.311  6600.310  0.500  7.829630  156.714  129.85  0.051651
  6601.858  6601.850  0.500  7.821931  156.711  129.936  0.052085
  6603.422  6603.410  0.500  7.828026  156.44  129.743  0.051691
  6604.986  6604.980  0.500  7.844822  156.682  130.045  0.050948
  6606.587  6606.580  0.500  7.860930  156.713  130.185  0.050188
  6608.197  6608.190  0.500  7.880641  156.718  130.286  0.049247
  6609.842  6609.830  0.500  7.910347  156.749  130.432  0.047859
  6611.483  6611.480  0.500  7.939212  156.742  130.521  0.046529
  6613.157  6613.150  0.500  7.963151  156.758  130.591  0.045453
  6614.841  6614.840  0.500  7.983102  156.724  130.626  0.044567
  6616.563  6616.550  0.500  7.998559  156.771  130.739  0.043921
  6618.287  6618.280  0.500  8.008097  156.728  130.836  0.043537
  6620.039  6620.030  0.500  7.999656  156.736  130.93  0.043937
  6621.800  6621.790  0.500  7.993114  156.738  130.982  0.044243
  6623.588  6623.580  0.500  7.976704  156.758  131.107  0.045018
  6625.396  6625.380  0.500  7.958583  156.721  131.168  0.045863
  6627.220  6627.210  0.500  7.938367  156.768  131.256  0.046831
  6629.056  6629.050  0.500  7.916245  156.712  131.279  0.047887
  6630.924  6630.910  0.500  7.897438  156.779  131.465  0.048865
  6632.795  6632.790  0.500  7.889278  156.78  131.541  0.049294
  6634.699  6634.690  0.500  7.890785  156.783  131.619  0.049248
  6636.619  6636.610  0.500  7.903389  156.806  131.748  0.048679
  6638.553  6638.550  0.500  7.921022  156.808  131.867  0.047872
  6640.520  6640.510  0.500  7.931273  156.792  131.924  0.047404
  6642.485  6642.480  0.500  7.935336  156.812  132.066  0.047263
  6644.493  6644.480  0.500  7.930914  157.228  132.503  0.047629
  6646.492  6646.490  0.500  7.914088  157.254  132.644  0.048489
  6648.525  6648.520  0.500  7.892538  157.295  132.781  0.049596
  6650.586  6650.580  0.500  7.864108  157.319  132.919  0.051080
  6652.657  6652.650  0.500  7.841552  157.319  133.031  0.052289
  6654.752  6654.740  0.500  7.817073  157.333  133.148  0.053632
  6656.854  6656.850  0.500  7.800397  157.348  133.262  0.054580
  6658.982  6658.980  0.500  7.784068  157.343  133.368  0.055523
  6661.128  6661.120  0.500  7.777714  157.333  133.477  0.055923
  6663.300  6663.290  0.500  7.771196  157.331  133.593  0.056337
  6665.482  6665.480  0.500  7.778320  157.324  133.715  0.055988
  6667.685  6667.680  0.500  7.790402  157.309  133.828  0.055363
  6669.914  6669.900  0.500  7.806098  157.326  133.978  0.054562
  6672.158  6672.150  0.500  7.824425  157.327  134.1  0.053620
  6674.421  6674.410  0.500  7.836694  157.311  134.2  0.053006
  6676.700  6676.690  0.500  7.845937  157.282  134.269  0.052545
  6679.003  6678.990  0.500  7.853393  157.3  134.352  0.052186
  6681.315  6681.310  0.500  7.853435  157.317  134.485  0.052236
  6683.659  6683.650  0.500  7.853191  157.312  134.609  0.052297
  6686.006  6686.000  0.500  7.849082  157.334  134.738  0.052563
  6688.387  6688.380  0.500  7.841404  157.307  134.874  0.053021
  6690.780  6690.770  0.500  7.828606  157.306  134.971  0.053743
  6693.204  6693.190  0.500  7.810368  157.3  135.029  0.054755
  6695.634  6695.620  0.500  7.789723  157.319  135.189  0.055964
  6698.083  6698.070  0.500  7.771313  157.303  135.322  0.057060
  6700.559  6700.550  0.500  7.751867  157.297  135.435  0.058229
  6703.049  6703.040  0.500  7.729244  157.266  135.538  0.059607
  6705.563  6705.550  0.500  7.709772  157.242  135.641  0.060825
  6708.082  6708.070  0.500  7.691910  157.269  135.793  0.061990
  6710.630  6710.620  0.500  7.682357  157.256  135.924  0.062646
  6713.206  6713.190  0.500  7.678911  157.254  136.052  0.062921
  6715.783  6715.770  0.500  7.682087  157.252  136.15  0.062767
  6718.392  6718.380  0.500  7.683363  157.215  136.249  0.062732
  6721.009  6721.000  0.500  7.679066  157.208  136.374  0.063060
  6723.662  6723.650  0.500  7.679107  157.231  136.558  0.063143
  6726.327  6726.310  0.500  7.678038  157.212  136.622  0.063240
  6729.004  6728.990  0.500  7.677283  157.197  136.747  0.063346
  6731.698  6731.690  0.500  7.678676  157.158  136.855  0.063308
  6734.422  6734.410  0.500  7.679336  157.174  137.014  0.063339
  6737.173  6737.150  0.500  7.679680  157.135  137.116  0.063364
  6739.914  6739.900  0.500  7.677281  157.112  137.249  0.063578
  6742.695  6742.680  0.500  7.672970  157.102  137.38  0.063914
  6745.491  6745.470  0.500  7.665394  157.075  137.515  0.064463
  6748.305  6748.290  0.500  7.652142  157.048  137.621  0.065374
  6751.129  6751.120  0.500  7.638921  156.994  137.698  0.066281
  6753.984  6753.970  0.500  7.622389  156.988  137.83  0.067450
  6756.865  6756.850  0.500  7.611141  157.004  137.993  0.068294
  6759.755  6759.740  0.500  7.608573  156.97  138.098  0.068521
  6762.664  6762.650  0.500  7.608780  156.953  138.233  0.068574
  6765.584  6765.570  0.500  7.606687  156.939  138.349  0.068776
  6768.532  6768.520  0.500  7.602515  156.894  138.438  0.069108
  6771.501  6771.490  0.500  7.595264  156.884  138.55  0.069666
  6774.485  6774.470  0.500  7.585166  156.853  138.649  0.070424
  6777.495  6777.480  0.500  7.569976  156.835  138.821  0.071590
  6780.529  6780.500  0.500  7.556252  156.837  138.992  0.072670
  6783.576  6783.550  0.500  7.535526  156.808  139.135  0.074268
  6786.637  6786.610  0.500  7.518816  156.753  139.188  0.075548
  6789.715  6789.690  0.500  7.505023  156.735  139.344  0.076683
  6792.806  6792.790  0.500  7.494895  156.572  139.373  0.077479
  6795.928  6795.910  0.500  7.484441  153.053  136.393  0.076620
  6799.044  6799.050  0.500  7.478907  156.464  139.591  0.078851
  6802.218  6802.200  0.500  7.471941  156.575  139.849  0.079550
  6805.394  6805.380  0.500  7.468965  156.613  140.053  0.079903
  6808.584  6808.570  0.500  7.468777  156.63  140.206  0.080005
  6811.804  6811.790  0.500  7.468845  144.612  129.572  0.073932
  6815.037  6815.020  0.500  7.466928  155.887  139.847  0.079948
  6818.285  6818.270  0.500  7.465467  156.194  140.306  0.080328
  6821.568  6821.550  0.500  7.465220  156.217  140.463  0.080437
  6824.856  6824.840  0.500  7.460749  153.671  138.298  0.079553
  6828.163  6828.150  0.500  7.453051  155.64  140.235  0.081290
  6831.485  6831.470  0.500  7.446048  155.733  140.488  0.082009
  6834.839  6834.820  0.500  7.437973  155.701  140.653  0.082771
  6838.203  6838.190  0.500  7.427559  155.365  140.494  0.083543
  6841.587  6841.570  0.500  7.420482  151.791  137.438  0.082306
  6844.995  6844.980  0.500  7.411322  155.256  140.72  0.085047
  6848.413  6848.400  0.500  7.404557  155.29  140.913  0.085742
  6851.867  6851.850  0.500  7.394640  155.217  141.017  0.086660
  6855.323  6855.310  0.500  7.383260  155.203  141.155  0.087738
  6858.800  6858.790  0.500  7.370027  155.155  141.275  0.088982
  6862.283  6862.290  0.500  7.361220  154.805  141.082  0.089647
  6865.824  6865.810  0.500  7.349559  155.072  141.537  0.090991
  6869.364  6869.350  0.500  7.338019  155.089  141.711  0.092160
  6872.918  6872.900  0.500  7.327588  155.073  141.843  0.093213
  6876.494  6876.480  0.500  7.316635  155.06  141.988  0.094336
  6880.096  6880.080  0.500  7.308700  155.026  142.142  0.095190
  6883.704  6883.690  0.500  7.299815  154.985  142.283  0.096135
  6887.341  6887.320  0.500  7.293020  154.918  142.414  0.096880
  6890.973  6890.980  0.500  7.285277  154.888  142.532  0.097714
  6894.639  6894.650  0.500  7.276878  154.874  142.704  0.098657
  6898.347  6898.340  0.500  7.270135  154.771  142.778  0.099376
  6902.068  6902.050  0.500  7.262767  154.719  142.88  0.100183
  6905.766  6905.780  0.500  7.258422  154.649  143.003  0.100706
  6909.505  6909.520  0.500  7.253831  154.574  143.117  0.101250
  6913.272  6913.290  0.500  7.247702  154.4  143.145  0.101892
  6917.107  6917.080  0.500  7.238249  154.321  143.256  0.102939
  6920.893  6920.880  0.500  7.231672  154.159  143.267  0.103626
  6924.716  6924.710  0.500  7.223276  154.089  143.395  0.104594
  6928.560  6928.550  0.500  7.215842  154.008  143.497  0.105449
  6932.418  6932.410  0.500  7.207491  153.919  143.603  0.106412
  6936.303  6936.290  0.500  7.200602  153.836  143.708  0.107226
  6940.205  6940.190  0.500  7.194226  153.754  143.796  0.107978
  6944.126  6944.110  0.500  7.187800  153.675  143.943  0.108785
  6948.037  6948.050  0.500  7.180575  153.571  144.019  0.109632
  6952.024  6952.010  0.500  7.171985  153.493  144.144  0.110673
  6956.006  6955.980  0.500  7.163566  153.409  144.24  0.111683
  6959.978  6959.980  0.500  7.151328  153.337  144.288  0.113096
  6963.978  6963.990  0.500  7.142709  153.258  144.386  0.114152
  6968.052  6968.030  0.500  7.131425  153.174  144.552  0.115581
  6972.065  6972.080  0.500  7.122922  153.097  144.666  0.116660
  6976.172  6976.150  0.500  7.110366  152.995  144.745  0.118198
  6980.224  6980.240  0.500  7.100900  152.92  144.871  0.119427
  6984.335  6984.350  0.500  7.090242  152.803  144.944  0.120767
  6988.467  6988.480  0.500  7.083417  152.716  145.036  0.121671
  6992.650  6992.630  0.500  7.073552  152.61  145.07  0.122906
  6996.763  6996.790  0.500  7.067847  152.5  145.199  0.123719
  7000.985  7000.980  0.500  7.058977  152.375  145.289  0.124898
  7005.155  7005.180  0.500  7.053424  152.284  145.384  0.125677
  7009.394  7009.410  0.500  7.046957  152.176  145.494  0.126588
  7013.628  7013.650  0.500  7.039185  152.073  145.54  0.127615
  7017.894  7017.910  0.500  7.031469  151.969  145.634  0.128687
  7022.177  7022.190  0.500  7.023614  151.859  145.718  0.129776
  7026.475  7026.490  0.500  7.016048  151.748  145.8  0.130835
  7030.791  7030.810  0.500  7.006589  151.638  145.921  0.132189
  7035.134  7035.150  0.500  6.997177  151.489  145.966  0.133480
  7039.487  7039.510  0.500  6.988404  151.371  146.054  0.134737
  7043.870  7043.890  0.500  6.980609  151.269  146.13  0.135863
  7048.253  7048.280  0.500  6.972069  151.128  146.197  0.137091
  7052.677  7052.700  0.500  6.963496  151.03  146.292  0.138361
  7057.120  7057.130  0.500  6.954851  150.939  146.371  0.139637
  7061.560  7061.580  0.500  6.946473  150.793  146.447  0.140885
  7066.034  7066.050  0.500  6.938234  150.65  146.464  0.142067
  7070.519  7070.540  0.500  6.929351  149.233  145.275  0.142171
  7075.032  7075.050  0.500  6.921070  149.996  146.251  0.144317
  7079.562  7079.580  0.500  6.910426  150.15  146.625  0.146234
  7084.106  7084.130  0.500  6.901774  149.816  146.422  0.147300
  7088.697  7088.700  0.500  6.892157  149.848  146.64  0.148946
  7093.272  7093.280  0.500  6.883531  149.716  146.764  0.150362
  7097.869  7097.890  0.500  6.875008  149.582  146.835  0.151723
  7102.487  7102.510  0.500  6.866896  149.465  146.893  0.153020
  7107.141  7107.160  0.500  6.856398  149.315  147.035  0.154784
  7111.803  7111.820  0.500  6.850603  149.031  146.909  0.155550
  7116.483  7116.500  0.500  6.845901  148.725  146.809  0.156176
  7121.195  7121.200  0.500  6.839420  148.435  146.697  0.157072
  7125.903  7125.920  0.500  6.834117  148.13  146.639  0.157845
  7130.640  7130.660  0.500  6.829263  147.699  146.436  0.158393
  7135.381  7135.410  0.500  6.818743  147.438  146.342  0.159966
  7140.160  7140.190  0.500  6.811197  147.286  146.354  0.161190
  7144.974  7144.990  0.500  6.801485  147.216  146.453  0.162873
  7149.792  7149.800  0.500  6.795635  147.084  146.554  0.163943
  7154.615  7154.630  0.500  6.785717  146.921  146.59  0.165617
  7159.471  7159.490  0.500  6.776971  146.79  146.678  0.167173
  7164.332  7164.360  0.500  6.766704  146.56  146.67  0.168888
  7169.226  7169.250  0.500  6.757730  146.291  146.575  0.170300
  7174.146  7174.160  0.500  6.748490  146.096  146.566  0.171871
  7179.073  7179.090  0.500  6.739791  145.85  146.537  0.173338
  7184.010  7184.030  0.500  6.729658  146.17  147.03  0.175692
  7188.976  7189.000  0.500  6.721025  145.941  147.01  0.177191
  7193.964  7193.990  0.500  6.711042  145.629  146.935  0.178878
  7198.972  7198.990  0.500  6.703354  145.509  147.025  0.180369
  7203.995  7204.020  0.500  6.693933  145.244  146.951  0.181985
  7209.035  7209.060  0.500  6.683576  144.968  146.908  0.183825
  7214.099  7214.120  0.500  6.673601  144.733  146.864  0.185612
  7219.179  7219.200  0.500  6.667212  144.473  146.828  0.186756
  7224.277  7224.300  0.500  6.657273  144.213  146.751  0.188522
  7229.401  7229.420  0.500  6.647549  144.094  146.824  0.190459
  7234.536  7234.560  0.500  6.637203  143.894  146.828  0.192446
  7239.697  7239.720  0.500  6.628023  143.65  146.782  0.194159
  7244.870  7244.900  0.500  6.618919  141.693  144.985  0.193537
  7250.067  7250.090  0.500  6.611370  143.088  146.574  0.197141
  7255.293  7255.310  0.500  6.602252  141.606  145.246  0.197144
  7260.517  7260.540  0.500  6.593959  142.517  146.399  0.200363
  7265.768  7265.790  0.500  6.585124  136.535  140.438  0.193911
  7271.029  7271.060  0.500  6.576768  142.743  147.055  0.204751
  7276.328  7276.350  0.500  6.567620  142.587  147.107  0.206706
  7281.641  7281.660  0.500  6.558202  142.358  147.056  0.208590
  7286.967  7286.990  0.500  6.549718  141.82  146.727  0.209896
  7292.312  7292.340  0.500  6.540960  141.769  146.894  0.211983
  7297.693  7297.710  0.500  6.530452  141.526  146.864  0.214179
  7303.071  7303.090  0.500  6.521555  141.559  147.086  0.216420
  7308.481  7308.500  0.500  6.512347  141.247  146.963  0.218239
  7313.896  7313.920  0.500  6.502965  140.979  146.95  0.220276
  7319.346  7319.370  0.500  6.494626  140.73  146.866  0.221994
  7324.604  7324.830  0.500  6.489787  140.636  146.862  0.223064
  7330.295  7330.310  0.500  6.475951  140.266  146.77  0.226030
  7335.821  7335.810  0.500  6.466480  140.036  146.788  0.228209
  7341.364  7341.330  0.500  6.456688  139.782  146.726  0.230358
  7346.860  7346.870  0.500  6.447644  139.594  146.719  0.232439
  7352.441  7352.420  0.500  6.438388  139.344  146.641  0.234477
  7358.016  7358.000  0.500  6.430156  139.165  146.674  0.236467
  7363.622  7363.600  0.500  6.420790  138.916  146.641  0.238640
  7369.238  7369.210  0.500  6.411399  138.676  146.608  0.240837
  7374.871  7374.850  0.500  6.401587  138.409  146.491  0.243017
  7380.472  7380.500  0.500  6.393132  138.208  146.502  0.245098
  7386.174  7386.170  0.500  6.383166  137.967  146.429  0.247431
  7391.879  7391.860  0.500  6.373819  137.744  146.394  0.249695