File: xdidata/Mn/Mn-K-Marokite.xdi
# XDI/1.0 BlueSky/1.5.3
# Beamline.name: 6BM
# Beamline.xray_source: NSLS-II three-pole wiggler
# Beamline.collimation: paraboloid mirror, 5 nm Rh on 30 nm Pt
# Beamline.focusing: not in use
# Beamline.harmonic_rejection: flat mirror, Si stripe, pitch = 7.0 mrad relative to beam
# Detector.i0: 10 cm N2
# Detector.i1: 25 cm N2
# Detector.i2: 25 cm N2
# Element.symbol: Mn
# Element.edge: K
# Facility.name: NSLS-II
# Facility.energy: 3.0
# Facility.current: 400.2
# Facility.mode: top-off
# Facility.gup: 305081
# Facility.saf: 305123
# Mono.name: Si(111)
# Mono.d_spacing: 3.13532
# Mono.encoder_resolution: 0.0000050 deg/ct
# Mono.angle_offset: 16.0581 deg
# Mono.scan_mode: fixed exit
# Mono.scan_type: step
# Mono.direction: forward in energy
# Sample.name: CaMn2O4
# Sample.prep: Powder in polyethylene glycol pellet
# Sample.x_position: -120.140 mm
# Sample.y_position: 112.312 mm
# Scan.experimenters: Neil Hyatt, Martin Stennett, Lucy Mottram
# Scan.edge_energy: 6539.0
# Scan.start_time: 2019-11-11T18:34:38
# Scan.end_time: 2019-11-12T05:53:09
# Scan.transient_id: 17909
# Scan.uid: 981eabd5-0629-4f51-b013-e7402f0ca6d9
# Scan.plot_hint: ln(I0/It)  --  ln($5/$6)
# Scan.sequence: merge of 3 scans
# Column.1: energy eV
# Column.2: requested_energy eV
# Column.3: measurement_time seconds
# Column.4: mutrans
# Column.5: i0
# Column.6: itrans
# Column.7: irefer
# /////
#  Tachgagalt nr. Ourzazate, Morocco
# -----
# energy   requested_energy   measurement_time   mutrans   i0   itrans   irefer
6339 6339 0.500000 2.442026 89.6198 7.795606 1.791999
6349.01 6349 0.500000 2.428484 89.7823 7.916327 1.832405
6359.01 6359 0.500000 2.414974 90.0394 8.046867 1.875675
6369.02 6369 0.500000 2.401803 90.1985 8.168006 1.917024
6379.02 6379 0.500000 2.388560 90.3808 8.293560 1.959802
6389.01 6389 0.500000 2.375350 90.6593 8.429733 2.005494
6399.01 6399 0.500000 2.362494 90.8088 8.552886 2.049286
6409.01 6409 0.500000 2.349608 90.9357 8.675953 2.092086
6419.01 6419 0.500000 2.336793 91.092 8.802903 2.137332
6429.01 6429 0.500000 2.323834 91.2249 8.930759 2.182254
6439.01 6439 0.500000 2.310926 91.3152 9.055711 2.227734
6449.01 6449 0.500000 2.298453 91.2879 9.166641 2.269280
6459.01 6459 0.500000 2.286046 91.2838 9.280673 2.312361
6469 6469 0.500000 2.273652 91.7026 9.439413 2.367282
6479.01 6479 0.500000 2.261331 91.8296 9.569752 2.414905
6489 6489 0.500000 2.249039 91.9797 9.703892 2.463492
6499 6499 0.500000 2.237282 92.1401 9.835775 2.511653
6509.86 6509 0.500000 2.225582 92.3131 9.976250 2.563384
6510.99 6511 0.500000 2.223537 92.3256 9.991869 2.568981
6512.99 6513 0.500000 2.221206 92.3271 10.0154 2.577526
6514.99 6515 0.500000 2.219158 92.3527 10.0387 2.586296
6516.99 6517 0.500000 2.216935 92.3998 10.0662 2.595452
6518.99 6519 0.500000 2.214803 92.4191 10.0897 2.604638
6521.39 6521 0.500000 2.212686 92.4645 10.1186 2.614105
6523.03 6523 0.500000 2.210852 92.5028 10.1392 2.620868
6524.98 6525 0.500000 2.208772 92.5254 10.1616 2.627589
6526.98 6527 0.500000 2.207168 92.5414 10.1799 2.633531
6528.99 6529 0.500000 2.205662 92.5789 10.2001 2.638627
6529.09 6529.1 0.500000 2.205595 92.5741 10.2003 2.637906
6529.19 6529.2 0.500000 2.205536 92.5811 10.2016 2.638271
6529.3 6529.3 0.500000 2.205511 92.5576 10.1994 2.638052
6529.45 6529.4 0.500000 2.205415 92.5366 10.198 2.637168
6529.49 6529.5 0.500000 2.205406 92.5243 10.1967 2.637041
6529.58 6529.6 0.500000 2.205292 92.5312 10.1986 2.637084
6529.68 6529.7 0.500000 2.205192 92.5207 10.1985 2.637249
6529.79 6529.8 0.500000 2.205114 92.5353 10.2009 2.637577
6529.88 6529.9 0.500000 2.205044 92.5343 10.2015 2.637852
6529.98 6530 0.500000 2.204963 92.5204 10.2008 2.637526
6530.09 6530.1 0.500000 2.204959 92.5143 10.2002 2.636369
6530.18 6530.2 0.500000 2.204864 92.5238 10.2022 2.637797
6530.29 6530.3 0.500000 2.204811 92.6191 10.2131 2.639931
6530.39 6530.4 0.500000 2.204793 92.6346 10.2151 2.640768
6530.49 6530.5 0.500000 2.204778 92.6302 10.2147 2.640811
6530.59 6530.6 0.500000 2.204697 92.613 10.2136 2.639919
6530.69 6530.7 0.500000 2.204619 92.6073 10.2138 2.639932
6530.78 6530.8 0.500000 2.204473 92.6217 10.2168 2.640241
6530.89 6530.9 0.500000 2.204481 92.6248 10.2172 2.640340
6530.99 6531 0.500000 2.204416 92.6243 10.2178 2.640496
6531.09 6531.1 0.500000 2.204370 92.6149 10.2172 2.640523
6531.19 6531.2 0.500000 2.204271 92.6065 10.2172 2.640092
6531.3 6531.3 0.500000 2.204277 92.6116 10.2177 2.639758
6531.4 6531.4 0.500000 2.204303 92.6124 10.2176 2.639370
6531.5 6531.5 0.500000 2.204164 92.6253 10.2204 2.639649
6531.6 6531.6 0.500000 2.204119 92.6375 10.2223 2.640523
6531.71 6531.7 0.500000 2.204026 92.6225 10.2216 2.639441
6531.8 6531.8 0.500000 2.204077 92.6089 10.2195 2.639227
6531.89 6531.9 0.500000 2.203944 92.6045 10.2203 2.638776
6532 6532 0.500000 2.203903 92.6103 10.2214 2.638829
6532.1 6532.1 0.500000 2.203841 92.6082 10.2218 2.638654
6532.2 6532.2 0.500000 2.203880 92.6014 10.2207 2.639009
6532.31 6532.3 0.500000 2.203752 92.6049 10.2223 2.638556
6532.41 6532.4 0.500000 2.203793 92.5913 10.2205 2.637443
6532.5 6532.5 0.500000 2.203727 92.6095 10.2231 2.637816
6532.61 6532.6 0.500000 2.203682 92.6143 10.2241 2.637389
6532.7 6532.7 0.500000 2.203600 92.5959 10.223 2.636756
6532.8 6532.8 0.500000 2.203586 92.5893 10.2224 2.636525
6532.91 6532.9 0.500000 2.203587 92.5845 10.2218 2.635954
6533.01 6533 0.500000 2.203631 92.5875 10.2217 2.635481
6533.11 6533.1 0.500000 2.203624 92.6063 10.2238 2.635564
6533.2 6533.2 0.500000 2.203553 92.6038 10.2243 2.635391
6533.3 6533.3 0.500000 2.203510 92.5775 10.2218 2.633810
6533.4 6533.4 0.500000 2.203524 92.5771 10.2216 2.633205
6533.5 6533.5 0.500000 2.203485 92.5886 10.2233 2.632748
6533.6 6533.6 0.500000 2.203353 92.5922 10.2251 2.632856
6533.7 6533.7 0.500000 2.203296 92.5975 10.2262 2.632442
6533.8 6533.8 0.500000 2.203415 92.5992 10.2252 2.630964
6533.9 6533.9 0.500000 2.203446 92.5759 10.2223 2.629924
6534 6534 0.500000 2.203535 92.5789 10.2217 2.628813
6534.1 6534.1 0.500000 2.203356 92.589 10.2246 2.628586
6534.2 6534.2 0.500000 2.203402 92.5923 10.2246 2.626779
6534.3 6534.3 0.500000 2.203436 92.5846 10.2234 2.626656
6534.4 6534.4 0.500000 2.203375 92.58 10.2235 2.625421
6534.5 6534.5 0.500000 2.203298 92.5835 10.2247 2.625003
6534.6 6534.6 0.500000 2.203340 92.571 10.2228 2.622789
6534.7 6534.7 0.500000 2.203444 92.5671 10.2214 2.621426
6534.8 6534.8 0.500000 2.203489 92.5836 10.2227 2.619972
6534.9 6534.9 0.500000 2.203445 92.6002 10.225 2.619416
6535 6535 0.500000 2.203488 92.5839 10.2228 2.617097
6535.1 6535.1 0.500000 2.203583 92.5653 10.2197 2.614813
6535.2 6535.2 0.500000 2.203568 92.5764 10.2211 2.613398
6535.3 6535.3 0.500000 2.203536 92.575 10.2213 2.611273
6535.4 6535.4 0.500000 2.203725 92.583 10.2203 2.609053
6535.5 6535.5 0.500000 2.203807 92.5767 10.2187 2.605525
6535.6 6535.6 0.500000 2.203886 92.5605 10.2161 2.602990
6535.7 6535.7 0.500000 2.203878 92.5445 10.2144 2.599577
6535.8 6535.8 0.500000 2.203888 92.5403 10.2137 2.595995
6535.9 6535.9 0.500000 2.203951 92.5548 10.2148 2.592462
6536 6536 0.500000 2.204094 92.5773 10.2158 2.588701
6536.1 6536.1 0.500000 2.204233 92.6623 10.2238 2.587095
6536.2 6536.2 0.500000 2.204317 92.6567 10.2224 2.581351
6536.3 6536.3 0.500000 2.204512 92.6553 10.2203 2.575159
6536.4 6536.4 0.500000 2.204539 92.6525 10.2196 2.568954
6536.51 6536.5 0.500000 2.204779 92.6645 10.2185 2.560929
6536.6 6536.6 0.500000 2.204927 92.6676 10.2173 2.553076
6536.7 6536.7 0.500000 2.205196 92.6611 10.2138 2.541794
6536.8 6536.8 0.500000 2.205457 92.6565 10.2107 2.530155
6536.9 6536.9 0.500000 2.205552 92.6508 10.209 2.516953
6537 6537 0.500000 2.205937 92.6728 10.2076 2.501444
6537.1 6537.1 0.500000 2.206293 92.6659 10.2032 2.484121
6537.2 6537.2 0.500000 2.206649 92.6321 10.1959 2.464526
6537.3 6537.3 0.500000 2.207029 92.638 10.1925 2.443237
6537.4 6537.4 0.500000 2.207583 92.6545 10.1888 2.422085
6537.49 6537.5 0.500000 2.208168 92.6635 10.1839 2.398162
6537.6 6537.6 0.500000 2.208823 92.7647 10.1882 2.375796
6537.7 6537.7 0.500000 2.209695 92.7578 10.1786 2.350519
6537.8 6537.8 0.500000 2.210568 92.7636 10.1704 2.327235
6537.9 6537.9 0.500000 2.211844 92.7676 10.1579 2.302490
6538 6538 0.500000 2.213013 92.7596 10.1452 2.280777
6538.09 6538.1 0.500000 2.214575 92.7626 10.1299 2.258739
6538.2 6538.2 0.500000 2.216260 92.7614 10.1125 2.237909
6538.3 6538.3 0.500000 2.218035 92.7594 10.0942 2.218912
6538.39 6538.4 0.500000 2.220093 92.7554 10.0739 2.200865
6538.5 6538.5 0.500000 2.222367 92.7612 10.0511 2.182662
6538.6 6538.6 0.500000 2.224711 92.7533 10.0265 2.165069
6538.7 6538.7 0.500000 2.226966 92.7508 10.0035 2.149489
6538.8 6538.8 0.500000 2.229100 92.7553 9.982659 2.134303
6538.9 6538.9 0.500000 2.231100 92.7614 9.963408 2.120563
6539 6539 0.500000 2.232768 92.7524 9.945731 2.107731
6539.1 6539.1 0.500000 2.234036 92.7593 9.934311 2.097110
6539.2 6539.2 0.500000 2.234840 92.7663 9.926785 2.086928
6539.3 6539.3 0.500000 2.235232 92.7509 9.921333 2.078010
6539.4 6539.4 0.500000 2.235121 92.7465 9.921898 2.070662
6539.5 6539.5 0.500000 2.234715 92.7528 9.926694 2.064192
6539.6 6539.6 0.500000 2.234029 92.7695 9.935201 2.059566
6539.7 6539.7 0.500000 2.232976 92.7736 9.946147 2.054962
6539.81 6539.8 0.500000 2.231886 92.7546 9.955025 2.050099
6539.9 6539.9 0.500000 2.230843 92.7556 9.965508 2.046332
6540 6540 0.500000 2.229876 92.7638 9.975926 2.042434
6540.1 6540.1 0.500000 2.229260 92.7754 9.983304 2.038587
6540.2 6540.2 0.500000 2.228665 92.7712 9.988879 2.034370
6540.3 6540.3 0.500000 2.228430 92.7584 9.989813 2.029612
6540.4 6540.4 0.500000 2.228469 92.7348 9.986847 2.023473
6540.5 6540.5 0.500000 2.228868 92.7375 9.982928 2.018196
6540.6 6540.6 0.500000 2.229836 92.7363 9.973141 2.013432
6540.7 6540.7 0.500000 2.230952 92.7441 9.962942 2.007640
6540.8 6540.8 0.500000 2.232328 92.7416 9.948930 2.002087
6540.9 6540.9 0.500000 2.233966 92.7454 9.933492 1.996174
6541 6541 0.500000 2.235711 92.7376 9.915588 1.990953
6541.1 6541.1 0.500000 2.237714 92.7486 9.896392 1.985639
6541.2 6541.2 0.500000 2.239516 92.7577 9.879504 1.981543
6541.3 6541.3 0.500000 2.241281 92.7624 9.862871 1.977058
6541.4 6541.4 0.500000 2.243002 92.7536 9.844695 1.972066
6541.5 6541.5 0.500000 2.244587 92.7348 9.827308 1.968395
6541.6 6541.6 0.500000 2.246017 92.7451 9.814261 1.965460
6541.7 6541.7 0.500000 2.247298 92.7482 9.801852 1.962065
6541.8 6541.8 0.500000 2.248617 92.7424 9.788352 1.959064
6541.9 6541.9 0.500000 2.249766 92.7393 9.777118 1.955561
6542 6542 0.500000 2.250830 92.7355 9.765931 1.951100
6542.1 6542.1 0.500000 2.251959 92.7245 9.754039 1.947687
6542.2 6542.2 0.500000 2.253104 92.7281 9.743165 1.943166
6542.3 6542.3 0.500000 2.254127 92.735 9.733841 1.938904
6542.4 6542.4 0.500000 2.255238 92.7363 9.723344 1.933871
6542.5 6542.5 0.500000 2.256379 92.7285 9.711581 1.928704
6542.6 6542.6 0.500000 2.257370 92.7336 9.702064 1.923017
6542.7 6542.7 0.500000 2.258425 92.7306 9.691631 1.917798
6542.8 6542.8 0.500000 2.259242 92.7377 9.684315 1.912048
6542.9 6542.9 0.500000 2.260202 92.7312 9.674422 1.906035
6543.01 6543 0.500000 2.261074 92.8393 9.677218 1.902562
6543.1 6543.1 0.500000 2.261923 92.8401 9.669147 1.897313
6543.2 6543.2 0.500000 2.262766 92.8326 9.660356 1.891311
6543.3 6543.3 0.500000 2.263519 92.8315 9.652907 1.886059
6543.4 6543.4 0.500000 2.264410 92.8474 9.645801 1.880761
6543.5 6543.5 0.500000 2.265435 92.8279 9.633880 1.875169
6543.6 6543.6 0.500000 2.266571 92.8103 9.621140 1.868444
6543.7 6543.7 0.500000 2.267775 92.8184 9.610603 1.862802
6543.8 6543.8 0.500000 2.269402 92.8379 9.597136 1.856790
6543.9 6543.9 0.500000 2.271205 92.8354 9.579381 1.849913
6544 6544 0.500000 2.273253 92.8273 9.559073 1.842475
6544.1 6544.1 0.500000 2.275638 92.8155 9.535012 1.834157
6544.2 6544.2 0.500000 2.278431 92.811 9.507317 1.825101
6544.3 6544.3 0.500000 2.281538 92.8068 9.477945 1.815689
6544.4 6544.4 0.500000 2.285121 92.8144 9.445079 1.805906
6544.5 6544.5 0.500000 2.289248 92.805 9.405252 1.794077
6544.6 6544.6 0.500000 2.293634 92.7892 9.362231 1.782542
6544.69 6544.7 0.500000 2.298535 92.8062 9.319380 1.770586
6544.8 6544.8 0.500000 2.303934 92.8023 9.267582 1.756663
6544.9 6544.9 0.500000 2.309866 92.8129 9.214584 1.742567
6545 6545 0.500000 2.316252 92.8036 9.154665 1.727294
6545.1 6545.1 0.500000 2.323217 92.7865 9.088586 1.711105
6545.2 6545.2 0.500000 2.330894 92.804 9.020996 1.694332
6545.29 6545.3 0.500000 2.338933 92.8069 8.950546 1.676594
6545.4 6545.4 0.500000 2.347985 92.8087 8.869897 1.657508
6545.5 6545.5 0.500000 2.357536 92.7786 8.780486 1.636739
6545.6 6545.6 0.500000 2.367702 92.78 8.694190 1.616418
6545.7 6545.7 0.500000 2.378654 92.7842 8.599945 1.593830
6545.8 6545.8 0.500000 2.390323 92.7932 8.500428 1.571157
6545.9 6545.9 0.500000 2.402419 92.7884 8.397819 1.547785
6546 6546 0.500000 2.415311 92.7847 8.290332 1.523166
6546.1 6546.1 0.500000 2.428953 92.7888 8.175075 1.497419
6546.2 6546.2 0.500000 2.442656 92.7925 8.064823 1.472925
6546.3 6546.3 0.500000 2.456415 92.7818 7.954828 1.448547
6546.4 6546.4 0.500000 2.470271 92.7855 7.846030 1.423774
6546.5 6546.5 0.500000 2.484125 92.7755 7.735638 1.399812
6546.6 6546.6 0.500000 2.497029 92.7617 7.638209 1.377268
6546.7 6546.7 0.500000 2.509977 92.7856 7.540924 1.355238
6546.8 6546.8 0.500000 2.521062 92.7814 7.457692 1.335703
6546.9 6546.9 0.500000 2.530698 92.7557 7.384530 1.318582
6547 6547 0.500000 2.539137 92.7584 7.322642 1.303133
6547.1 6547.1 0.500000 2.545866 92.7687 7.272542 1.289379
6547.2 6547.2 0.500000 2.551105 92.7676 7.235886 1.279266
6547.3 6547.3 0.500000 2.554967 92.7478 7.205658 1.269229
6547.4 6547.4 0.500000 2.557814 92.7489 7.185667 1.261325
6547.5 6547.5 0.500000 2.559683 92.7604 7.172954 1.254960
6547.6 6547.6 0.500000 2.560936 92.7516 7.163399 1.248580
6547.7 6547.7 0.500000 2.561772 92.755 7.157539 1.243463
6547.8 6547.8 0.500000 2.562609 92.746 7.151045 1.238255
6547.9 6547.9 0.500000 2.563521 92.7551 7.145202 1.232203
6548 6548 0.500000 2.564654 92.7603 7.137397 1.226412
6548.1 6548.1 0.500000 2.565893 92.7361 7.126568 1.220115
6548.2 6548.2 0.500000 2.567795 92.7288 7.112601 1.214361
6548.3 6548.3 0.500000 2.570041 92.7145 7.095186 1.206453
6548.39 6548.4 0.500000 2.572805 92.7411 7.078605 1.199489
6548.5 6548.5 0.500000 2.576092 92.7573 7.055785 1.190608
6548.6 6548.6 0.500000 2.579671 92.7318 7.028061 1.182015
6548.7 6548.7 0.500000 2.583654 92.7281 7.000471 1.172872
6548.8 6548.8 0.500000 2.587830 92.7154 6.970323 1.164012
6548.9 6548.9 0.500000 2.592395 92.7249 6.938841 1.154814
6549 6549 0.500000 2.597194 92.7291 6.906573 1.145389
6549.1 6549.1 0.500000 2.602417 92.7806 6.875174 1.136126
6549.21 6549.2 0.500000 2.607861 92.8085 6.837872 1.125875
6549.3 6549.3 0.500000 2.613572 92.8074 6.800428 1.116222
6549.4 6549.4 0.500000 2.619640 92.8357 6.760962 1.105898
6549.5 6549.5 0.500000 2.626049 92.8423 6.717947 1.095359
6549.6 6549.6 0.500000 2.632470 92.832 6.674645 1.084598
6549.7 6549.7 0.500000 2.638949 92.8244 6.631858 1.074012
6549.8 6549.8 0.500000 2.645832 92.8117 6.584161 1.062842
6549.9 6549.9 0.500000 2.652574 92.8117 6.540803 1.052589
6550 6550 0.500000 2.658812 92.8062 6.499302 1.042225
6550.1 6550.1 0.500000 2.665410 92.8097 6.456810 1.032763
6550.2 6550.2 0.500000 2.671516 92.808 6.417391 1.022243
6550.3 6550.3 0.500000 2.677410 92.8377 6.382228 1.014121
6550.4 6550.4 0.500000 2.682659 92.8388 6.348710 1.005727
6550.5 6550.5 0.500000 2.687481 92.8026 6.315175 0.997383
6550.6 6550.6 0.500000 2.691996 92.8334 6.289063 0.990419
6550.7 6550.7 0.500000 2.695689 92.9386 6.273273 0.985176
6550.8 6550.8 0.500000 2.699183 92.9483 6.251628 0.978913
6550.9 6550.9 0.500000 2.701841 92.9328 6.234516 0.973865
6551 6551 0.500000 2.704195 92.9194 6.218601 0.968744
6551.1 6551.1 0.500000 2.706238 92.9126 6.205297 0.964124
6551.2 6551.2 0.500000 2.707928 92.9339 6.196491 0.960138
6551.3 6551.3 0.500000 2.709130 92.9273 6.188529 0.956557
6551.4 6551.4 0.500000 2.710282 92.9137 6.180415 0.952206
6551.5 6551.5 0.500000 2.711381 92.9234 6.174374 0.948787
6551.6 6551.6 0.500000 2.712442 92.9223 6.167720 0.945213
6551.7 6551.7 0.500000 2.713575 92.9102 6.159737 0.941756
6551.8 6551.8 0.500000 2.714829 92.9104 6.152251 0.938057
6551.9 6551.9 0.500000 2.716519 92.9152 6.142248 0.933763
6552 6552 0.500000 2.718290 92.908 6.130898 0.929955
6552.1 6552.1 0.500000 2.720519 92.9095 6.116849 0.925453
6552.19 6552.2 0.500000 2.722931 92.9209 6.103583 0.920918
6552.3 6552.3 0.500000 2.725938 92.9221 6.084642 0.916099
6552.4 6552.4 0.500000 2.729310 92.8912 6.062743 0.910345
6552.5 6552.5 0.500000 2.732957 92.8824 6.039988 0.905316
6552.6 6552.6 0.500000 2.736932 92.9023 6.017244 0.899859
6552.7 6552.7 0.500000 2.741415 92.9137 5.990653 0.893904
6552.8 6552.8 0.500000 2.745958 92.8758 5.961553 0.887622
6552.9 6552.9 0.500000 2.751117 92.9049 5.933280 0.881461
6553.01 6553 0.500000 2.756649 92.8945 5.898673 0.875067
6553.1 6553.1 0.500000 2.761994 92.8904 5.867984 0.868628
6553.2 6553.2 0.500000 2.767739 92.8899 5.834736 0.862288
6553.31 6553.3 0.500000 2.773875 92.8877 5.797423 0.854804
6553.4 6553.4 0.500000 2.779906 92.8835 5.762651 0.848346
6553.5 6553.5 0.500000 2.786180 92.8905 5.727511 0.842298
6553.6 6553.6 0.500000 2.792657 92.9058 5.690640 0.835638
6553.7 6553.7 0.500000 2.799038 92.9052 5.654546 0.829186
6553.8 6553.8 0.500000 2.805170 92.8843 5.619639 0.822684
6553.9 6553.9 0.500000 2.811498 92.8817 5.583681 0.816957
6554 6554 0.500000 2.817445 92.8736 5.549498 0.811013
6554.1 6554.1 0.500000 2.823375 92.8879 5.518464 0.805549
6554.2 6554.2 0.500000 2.829447 92.8914 5.484625 0.799750
6554.3 6554.3 0.500000 2.835093 92.8802 5.453274 0.795399
6554.4 6554.4 0.500000 2.840654 92.8711 5.422115 0.790067
6554.5 6554.5 0.500000 2.845810 92.8835 5.395334 0.786008
6554.6 6554.6 0.500000 2.851049 92.9081 5.367731 0.781543
6554.69 6554.7 0.500000 2.856045 92.9045 5.341973 0.778071
6554.8 6554.8 0.500000 2.861008 92.8813 5.313829 0.773729
6554.9 6554.9 0.500000 2.865861 92.8887 5.288187 0.770484
6555 6555 0.500000 2.870673 92.8907 5.263597 0.766707
6555.1 6555.1 0.500000 2.875055 92.8864 5.239993 0.763901
6555.2 6555.2 0.500000 2.879448 92.8798 5.216519 0.760621
6555.29 6555.3 0.500000 2.883496 92.8647 5.195687 0.757891
6555.4 6555.4 0.500000 2.887741 92.8866 5.174034 0.754861
6555.5 6555.5 0.500000 2.891895 92.8928 5.152014 0.752930
6555.6 6555.6 0.500000 2.895840 92.8845 5.131848 0.750546
6555.7 6555.7 0.500000 2.899654 92.8704 5.111921 0.748275
6555.8 6555.8 0.500000 2.903414 92.8763 5.092441 0.746094
6555.9 6555.9 0.500000 2.907077 92.8746 5.074404 0.744669
6556 6556 0.500000 2.910493 92.8654 5.056399 0.742756
6556.1 6556.1 0.500000 2.914136 92.9948 5.044768 0.742380
6556.2 6556.2 0.500000 2.917388 92.9894 5.028371 0.741388
6556.3 6556.3 0.500000 2.920543 92.9822 5.012291 0.739505
6556.4 6556.4 0.500000 2.923928 92.9944 4.995766 0.738341
6556.5 6556.5 0.500000 2.926977 92.9803 4.979960 0.737559
6556.6 6556.6 0.500000 2.929932 92.976 4.965069 0.736000
6556.7 6556.7 0.500000 2.932638 92.9627 4.950527 0.735118
6556.8 6556.8 0.500000 2.935328 92.9729 4.938215 0.734783
6556.9 6556.9 0.500000 2.937860 92.9737 4.925761 0.733518
6557 6557 0.500000 2.939921 92.9766 4.915607 0.733920
6557.11 6557.1 0.500000 2.941971 92.9675 4.904848 0.733085
6557.2 6557.2 0.500000 2.943489 92.9663 4.897759 0.733593
6557.3 6557.3 0.500000 2.944939 92.9712 4.890677 0.733576
6557.4 6557.4 0.500000 2.946134 92.9628 4.884404 0.733407
6557.5 6557.5 0.500000 2.947096 92.9605 4.879549 0.734129
6557.6 6557.6 0.500000 2.947702 92.9528 4.876321 0.734200
6557.7 6557.7 0.500000 2.948106 92.9436 4.873770 0.735385
6557.8 6557.8 0.500000 2.948275 92.962 4.873977 0.736225
6557.9 6557.9 0.500000 2.948511 92.9601 4.872697 0.736923
6558 6558 0.500000 2.948484 92.9467 4.872151 0.737755
6558.1 6558.1 0.500000 2.948365 92.9546 4.873124 0.738780
6558.2 6558.2 0.500000 2.948133 92.9494 4.873971 0.739801
6558.3 6558.3 0.500000 2.947489 92.9437 4.876916 0.740953
6558.4 6558.4 0.500000 2.946807 92.9532 4.880593 0.742547
6558.5 6558.5 0.500000 2.946192 92.9501 4.883459 0.743513
6558.6 6558.6 0.500000 2.945255 92.9442 4.887813 0.744902
6558.7 6558.7 0.500000 2.944302 92.9402 4.892204 0.746714
6558.8 6558.8 0.500000 2.943103 92.9437 4.898236 0.747820
6558.9 6558.9 0.500000 2.941808 92.9441 4.904677 0.749310
6559 6559 0.500000 2.940293 92.9544 4.912653 0.751139
6559.1 6559.1 0.500000 2.938721 92.9469 4.919671 0.752911
6559.2 6559.2 0.500000 2.936909 92.9333 4.927981 0.754608
6559.3 6559.3 0.500000 2.935000 92.9245 4.937140 0.756104
6559.4 6559.4 0.500000 2.933142 92.9197 4.946003 0.758114
6559.5 6559.5 0.500000 2.931064 92.918 4.956092 0.759798
6559.6 6559.6 0.500000 2.929057 92.943 4.967728 0.761649
6559.7 6559.7 0.500000 2.926823 92.9449 4.978786 0.763901
6559.8 6559.8 0.500000 2.924488 92.9222 4.988961 0.765682
6559.9 6559.9 0.500000 2.921835 92.8962 5.001061 0.767831
6560 6560 0.500000 2.919253 92.8826 5.013053 0.769903
6560.1 6560.1 0.500000 2.916508 92.8734 5.026102 0.771683
6560.2 6560.2 0.500000 2.913340 92.8682 5.042089 0.774546
6560.3 6560.3 0.500000 2.910207 92.8363 5.055995 0.776976
6560.4 6560.4 0.500000 2.906898 92.7943 5.070396 0.779181
6560.51 6560.5 0.500000 2.903507 92.7582 5.086444 0.782121
6560.6 6560.6 0.500000 2.899586 92.7264 5.104160 0.784619
6560.7 6560.7 0.500000 2.895880 92.7336 5.123698 0.787463
6560.8 6560.8 0.500000 2.891893 92.7279 5.143126 0.790776
6560.9 6560.9 0.500000 2.887715 92.7037 5.163704 0.793220
6561 6561 0.500000 2.883686 92.7006 5.183940 0.796356
6561.1 6561.1 0.500000 2.879291 92.7222 5.208858 0.800300
6561.2 6561.2 0.500000 2.874899 92.7808 5.234579 0.804512
6561.3 6561.3 0.500000 2.870569 92.8386 5.260935 0.807755
6561.4 6561.4 0.500000 2.866276 92.8719 5.285463 0.811674
6561.5 6561.5 0.500000 2.862065 92.8707 5.307750 0.814584
6561.6 6561.6 0.500000 2.857932 92.8657 5.328938 0.817506
6561.7 6561.7 0.500000 2.853934 92.8942 5.352065 0.821336
6561.8 6561.8 0.500000 2.849933 92.9162 5.375268 0.824653
6561.9 6561.9 0.500000 2.845911 92.9212 5.397050 0.827909
6562 6562 0.500000 2.842054 92.9062 5.417051 0.830815
6562.1 6562.1 0.500000 2.838138 92.8906 5.437622 0.833922
6562.19 6562.2 0.500000 2.834600 93.0044 5.462224 0.837383
6562.3 6562.3 0.500000 2.831283 93.0216 5.482531 0.839928
6562.4 6562.4 0.500000 2.827827 93.0051 5.500402 0.842506
6562.5 6562.5 0.500000 2.824671 92.9969 5.517514 0.845021
6562.6 6562.6 0.500000 2.821814 93.0142 5.534018 0.847483
6562.7 6562.7 0.500000 2.819154 93.0216 5.549584 0.849559
6562.8 6562.8 0.500000 2.816573 93.0076 5.562461 0.850833
6562.9 6562.9 0.500000 2.814316 93.0199 5.576056 0.853124
6563 6563 0.500000 2.812160 93.0237 5.588381 0.854893
6563.1 6563.1 0.500000 2.810229 93.02 5.598851 0.856155
6563.2 6563.2 0.500000 2.808655 93.0069 5.607145 0.857398
6563.3 6563.3 0.500000 2.806976 93.002 5.616145 0.858601
6563.4 6563.4 0.500000 2.805870 93.016 5.623361 0.859107
6563.5 6563.5 0.500000 2.804638 93.0285 5.630767 0.859882
6563.6 6563.6 0.500000 2.803741 93.0215 5.635564 0.860844
6563.7 6563.7 0.500000 2.802983 93.1201 5.645793 0.861937
6563.8 6563.8 0.500000 2.802203 93.1208 5.650186 0.862247
6563.9 6563.9 0.500000 2.801788 93.1136 5.652078 0.862567
6564 6564 0.500000 2.801385 93.1145 5.654441 0.862811
6564.1 6564.1 0.500000 2.801166 93.1328 5.656803 0.863308
6564.2 6564.2 0.500000 2.801078 93.12 5.656500 0.863197
6564.3 6564.3 0.500000 2.801029 93.1071 5.656012 0.862892
6564.4 6564.4 0.500000 2.801198 93.0956 5.654422 0.862289
6564.5 6564.5 0.500000 2.801381 93.1148 5.654500 0.862208
6564.6 6564.6 0.500000 2.801867 93.1449 5.653679 0.862223
6564.7 6564.7 0.500000 2.802372 93.136 5.650228 0.861548
6564.8 6564.8 0.500000 2.802766 93.1269 5.647439 0.861221
6564.9 6564.9 0.500000 2.803408 93.1149 5.643045 0.860439
6565 6565 0.500000 2.804024 93.1016 5.638755 0.859528
6565.1 6565.1 0.500000 2.804762 93.1124 5.635064 0.858760
6565.2 6565.2 0.500000 2.805530 93.1248 5.631608 0.858100
6565.3 6565.3 0.500000 2.806587 93.1189 5.625385 0.857053
6565.4 6565.4 0.500000 2.807351 93.1097 5.620627 0.856700
6565.5 6565.5 0.500000 2.808140 93.1125 5.616098 0.855895
6565.6 6565.6 0.500000 2.809239 93.1299 5.611032 0.854785
6565.7 6565.7 0.500000 2.810392 93.1225 5.604183 0.854265
6565.8 6565.8 0.500000 2.811423 93.0951 5.596784 0.852960
6565.9 6565.9 0.500000 2.812503 93.0743 5.589520 0.851541
6566.01 6566 0.500000 2.813735 93.1053 5.584266 0.851181
6566.1 6566.1 0.500000 2.814702 93.111 5.579207 0.850705
6566.2 6566.2 0.500000 2.815944 93.1155 5.572798 0.849150
6566.3 6566.3 0.500000 2.817043 93.1 5.565655 0.847533
6566.4 6566.4 0.500000 2.818294 93.0929 5.558405 0.846951
6566.5 6566.5 0.500000 2.819361 93.1004 5.552923 0.846934
6566.6 6566.6 0.500000 2.820596 93.0996 5.545915 0.845171
6566.7 6566.7 0.500000 2.821669 93.081 5.538796 0.844232
6566.8 6566.8 0.500000 2.822784 93.0921 5.533289 0.843336
6566.9 6566.9 0.500000 2.823921 93.0932 5.527393 0.842756
6567 6567 0.500000 2.824905 93.1049 5.522421 0.842145
6567.1 6567.1 0.500000 2.825995 93.1106 5.516697 0.841212
6567.2 6567.2 0.500000 2.827040 93.1029 5.510647 0.840313
6567.3 6567.3 0.500000 2.828045 93.0922 5.504497 0.839626
6567.4 6567.4 0.500000 2.829106 93.0934 5.498768 0.838726
6567.5 6567.5 0.500000 2.830003 93.0968 5.494053 0.837830
6567.6 6567.6 0.500000 2.831108 93.0948 5.487629 0.837578
6567.7 6567.7 0.500000 2.832064 93.1037 5.483003 0.836786
6567.8 6567.8 0.500000 2.832974 93.1043 5.478085 0.835969
6567.9 6567.9 0.500000 2.834156 93.0966 5.471011 0.834926
6568 6568 0.500000 2.835264 93.0919 5.464851 0.833831
6568.1 6568.1 0.500000 2.836340 93.0897 5.458724 0.833096
6568.2 6568.2 0.500000 2.837513 93.1002 5.452824 0.832042
6568.3 6568.3 0.500000 2.838599 93.0938 5.446551 0.831103
6568.4 6568.4 0.500000 2.839853 93.0876 5.439461 0.830682
6568.5 6568.5 0.500000 2.840924 93.0863 5.433528 0.830082
6568.6 6568.6 0.500000 2.841993 93.0902 5.427988 0.829425
6568.7 6568.7 0.500000 2.843270 93.0932 5.421117 0.828350
6568.8 6568.8 0.500000 2.844604 93.1035 5.414760 0.827246
6568.9 6568.9 0.500000 2.845547 93.0751 5.408010 0.826685
6569 6569 0.700000 2.846654 130.305 7.562611 1.155727
6570.09 6570.08 0.710000 2.856880 132.302 7.600715 1.163396
6571.2 6571.18 0.730000 2.857378 136.121 7.815863 1.197621
6572.29 6572.29 0.740000 2.849769 137.954 7.981615 1.223709
6573.43 6573.43 0.750000 2.837824 139.842 8.187816 1.254062
6574.58 6574.58 0.760000 2.822865 141.749 8.423946 1.287940
6575.76 6575.76 0.780000 2.807707 145.423 8.773890 1.337833
6576.95 6576.95 0.790000 2.793152 147.31 9.018865 1.371617
6578.16 6578.16 0.800000 2.777790 149.231 9.277809 1.406779
6579.39 6579.39 0.810000 2.760872 151.133 9.556529 1.445066
6580.65 6580.64 0.830000 2.742621 154.856 9.972304 1.503056
6581.91 6581.91 0.840000 2.725557 156.699 10.2648 1.542061
6583.21 6583.2 0.850000 2.712562 158.614 10.5266 1.578486
6584.51 6584.51 0.860000 2.703805 160.522 10.7466 1.610703
6585.84 6585.83 0.880000 2.698677 164.237 11.052 1.660750
6587.19 6587.18 0.890000 2.696341 165.755 11.1804 1.686741
6588.54 6588.54 0.900000 2.695901 167.967 11.3346 1.720085
6589.94 6589.93 0.910000 2.696615 169.902 11.457 1.749571
6591.33 6591.33 0.930000 2.699143 173.66 11.6809 1.792652
6592.76 6592.75 0.940000 2.705378 175.528 11.7332 1.808342
6594.2 6594.19 0.950000 2.713604 177.457 11.7648 1.820456
6595.66 6595.65 0.960000 2.723656 179.332 11.7703 1.829701
6597.13 6597.13 0.980000 2.733736 183.071 11.8954 1.857571
6598.64 6598.63 0.990000 2.738222 185.007 11.9671 1.875530
6600.15 6600.14 1.000000 2.737799 186.901 12.0948 1.899595
6601.69 6601.68 1.010000 2.734144 188.381 12.2352 1.922778
6603.25 6603.24 1.030000 2.729221 192.512 12.5651 1.974760
6604.82 6604.81 1.040000 2.724574 194.434 12.7496 2.002701
6606.41 6606.4 1.050000 2.721428 196.304 12.9128 2.025127
6608.02 6608.01 1.060000 2.720385 198.209 13.0518 2.044469
6609.65 6609.65 1.080000 2.720569 202.034 13.3013 2.079572
6611.31 6611.3 1.090000 2.720680 203.912 13.4234 2.095667
6612.98 6612.97 1.100000 2.720116 205.784 13.5543 2.112731
6614.66 6614.65 1.110000 2.718205 207.678 13.7053 2.134353
6616.37 6616.36 1.130000 2.715587 211.452 13.9909 2.178387
6618.1 6618.09 1.140000 2.714117 213.302 14.1339 2.201310
6619.84 6619.83 1.150000 2.714545 215.206 14.2541 2.222395
6621.61 6621.6 1.160000 2.716613 217.318 14.3642 2.242839
6623.38 6623.38 1.180000 2.719712 221.099 14.5692 2.279093
6625.18 6625.18 1.190000 2.723223 223.044 14.6458 2.296898
6627.01 6627 1.200000 2.726291 224.89 14.7217 2.315053
6628.84 6628.84 1.210000 2.728831 226.612 14.7968 2.333544
6630.71 6630.7 1.230000 2.729737 230.581 15.0423 2.377835
6632.59 6632.58 1.240000 2.729046 232.475 15.1762 2.403248
6634.49 6634.48 1.250000 2.726983 234.358 15.3308 2.430395
6636.41 6636.4 1.260000 2.723956 236.265 15.5025 2.459197
6638.33 6638.33 1.280000 2.719981 240.262 15.8274 2.512084
6640.29 6640.29 1.290000 2.714486 242.082 16.0352 2.547616
6642.26 6642.26 1.300000 2.707748 244.067 16.2758 2.588945
6644.27 6644.26 1.310000 2.700054 245.975 16.5299 2.635277
6646.28 6646.27 1.330000 2.692028 249.684 16.9143 2.703378
6648.31 6648.3 1.340000 2.684168 251.658 17.1826 2.754827
6650.36 6650.35 1.350000 2.676661 253.552 17.4425 2.804547
6652.42 6652.42 1.360000 2.669873 255.475 17.6943 2.852496
6654.52 6654.51 1.380000 2.664211 259.233 18.0566 2.918292
6656.61 6656.61 1.390000 2.659479 261.192 18.2794 2.960639
6658.75 6658.74 1.400000 2.655004 263.03 18.4905 3.000239
6660.9 6660.89 1.410000 2.650732 264.972 18.7069 3.039406
6663.06 6663.05 1.430000 2.646805 268.811 19.0527 3.097154
6665.24 6665.23 1.440000 2.642876 270.665 19.2596 3.130976
6667.45 6667.44 1.450000 2.639073 272.626 19.473 3.166326
6669.67 6669.66 1.460000 2.635764 274.552 19.6756 3.199836
6671.91 6671.9 1.480000 2.633482 278.277 19.9881 3.250605
6674.16 6674.16 1.490000 2.632289 280.228 20.1523 3.278249
6676.44 6676.44 1.500000 2.632237 282.189 20.2944 3.303132
6678.75 6678.74 1.510000 2.632545 284.373 20.445 3.331135
6681.05 6681.05 1.530000 2.632651 288.206 20.7183 3.380586
6683.38 6683.39 1.540000 2.632030 290.064 20.8648 3.411176
6685.74 6685.74 1.550000 2.630497 291.971 21.0343 3.445211
6688.12 6688.12 1.560000 2.628123 293.862 21.2207 3.484197
6690.51 6690.51 1.580000 2.625688 297.67 21.5481 3.547906
6692.92 6692.92 1.590000 2.623196 299.552 21.7386 3.591000
6695.36 6695.35 1.600000 2.620222 301.485 21.9441 3.635430
6697.8 6697.8 1.610000 2.616724 303.384 22.1596 3.683273
6700.27 6700.27 1.630000 2.613394 307.074 22.5038 3.751410
6702.77 6702.76 1.640000 2.610521 308.996 22.71 3.797294
6705.27 6705.27 1.650000 2.607565 310.869 22.9152 3.841511
6707.79 6707.79 1.660000 2.605069 312.782 23.1138 3.884414
6710.34 6710.34 1.680000 2.603536 316.516 23.4256 3.945827
6712.9 6712.9 1.690000 2.603090 318.446 23.579 3.978000
6715.49 6715.49 1.700000 2.602572 320.344 23.7319 4.008261
6718.08 6718.09 1.710000 2.600859 322.198 23.91 4.043468
6720.71 6720.71 1.730000 2.597790 325.925 24.2611 4.109059
6723.35 6723.35 1.740000 2.594163 327.848 24.4929 4.154249
6726.01 6726.01 1.750000 2.590097 329.611 24.725 4.199068
6728.69 6728.69 1.760000 2.585657 331.556 24.9816 4.246551
6731.38 6731.39 1.780000 2.580811 335.191 25.3778 4.319343
6734.1 6734.11 1.790000 2.575762 337.167 25.6567 4.373095
6736.84 6736.84 1.800000 2.570497 338.922 25.9264 4.425926
6739.6 6739.6 1.810000 2.565354 340.861 26.2093 4.482162
6742.37 6742.37 1.830000 2.560389 344.393 26.6126 4.559684
6745.17 6745.17 1.840000 2.556564 346.406 26.8709 4.613848
6747.98 6747.98 1.850000 2.553257 348.129 27.0939 4.662850
6750.81 6750.81 1.860000 2.549965 349.996 27.329 4.715394
6753.66 6753.66 1.880000 2.545863 353.615 27.7252 4.796118
6756.54 6756.53 1.890000 2.540845 355.26 27.9944 4.855244
6759.43 6759.42 1.900000 2.535331 357.166 28.3003 4.920410
6762.32 6762.32 1.910000 2.530079 358.904 28.5873 4.983239
6765.24 6765.25 1.930000 2.525428 362.539 29.0114 5.067867
6768.19 6768.2 1.940000 2.521031 364.263 29.2778 5.125876
6771.16 6771.16 1.950000 2.516706 366.113 29.5542 5.187585
6774.14 6774.14 1.960000 2.512811 368.022 29.8241 5.248842
6777.15 6777.15 1.980000 2.509460 371.678 30.2218 5.331198
6780.17 6780.17 1.990000 2.506833 373.532 30.4524 5.386385
6783.21 6783.21 2.000000 2.504520 375.232 30.6617 5.437725
6786.27 6786.27 2.010000 2.502234 377.041 30.8801 5.491965
6789.34 6789.35 2.030000 2.499476 380.696 31.2655 5.572460
6792.45 6792.45 2.040000 2.495589 379.435 31.2834 5.588938
6795.56 6795.56 2.050000 2.491940 383.383 31.7247 5.680203
6798.7 6798.7 2.060000 2.487867 386.354 32.1008 5.759352
6801.85 6801.85 2.080000 2.483903 390.125 32.5429 5.850874
6805.04 6805.03 2.090000 2.480080 392.133 32.8358 5.912795
6808.22 6808.22 2.100000 2.476686 393.982 33.1025 5.971303
6811.43 6811.43 2.110000 2.472860 370.857 31.279 5.652094
6814.66 6814.66 2.130000 2.470432 397.334 33.5937 6.080474
6817.92 6817.92 2.140000 2.467460 400.247 33.9407 6.155836
6821.18 6821.18 2.150000 2.463150 389.061 33.1345 6.019903
6824.47 6824.47 2.160000 2.461150 401.345 34.2492 6.236247
6827.78 6827.78 2.180000 2.457564 406.086 34.7781 6.345762
6831.11 6831.11 2.190000 2.453519 408.113 35.0934 6.418706
6834.46 6834.45 2.200000 2.449169 410.288 35.4341 6.497019
6837.83 6837.82 2.210000 2.444634 411.481 35.6986 6.562283
6841.2 6841.2 2.230000 2.440784 406.428 35.3964 6.523545
6844.6 6844.6 2.240000 2.435746 416.492 36.4558 6.734926
6848.03 6848.03 2.250000 2.431573 418.348 36.7714 6.811705
6851.47 6851.47 2.260000 2.427657 419.968 37.0585 6.883092
6854.94 6854.93 2.280000 2.423867 423.342 37.4982 6.982955
6858.4 6858.4 2.290000 2.420157 425.217 37.8043 7.059638
6861.9 6861.9 2.300000 2.416282 426.081 38.0282 7.118614
6865.43 6865.42 2.310000 2.412237 428.098 38.3629 7.199912
6868.96 6868.96 2.330000 2.407927 431.987 38.8785 7.316313
6872.52 6872.51 2.340000 2.403380 433.82 39.2217 7.399305
6876.1 6876.09 2.350000 2.399233 435.677 39.5532 7.479398
6879.68 6879.68 2.360000 2.394791 437.349 39.8816 7.560419
6883.3 6883.29 2.380000 2.390418 441.543 40.4406 7.684033
6886.93 6886.92 2.390000 2.385961 443.406 40.7925 7.769520
6890.57 6890.57 2.400000 2.381425 445.195 41.1434 7.854459
6894.24 6894.24 2.410000 2.376959 446.962 41.4915 7.938820
6897.93 6897.93 2.430000 2.372228 450.608 42.0285 8.059774
6901.64 6901.64 2.440000 2.367568 452.278 42.3812 8.146283
6905.36 6905.36 2.450000 2.363177 454.004 42.7302 8.232395
6909.11 6909.11 2.460000 2.358592 455.42 43.0604 8.314121
6912.87 6912.87 2.480000 2.354002 458.744 43.5743 8.433189
6916.66 6916.66 2.490000 2.349547 460.253 43.9128 8.518338
6920.46 6920.46 2.500000 2.345086 461.888 44.2659 8.608212
6924.28 6924.28 2.510000 2.340875 463.41 44.5991 8.693169
6928.12 6928.12 2.530000 2.336839 467.012 45.1274 8.820177
6931.98 6931.98 2.540000 2.332907 468.761 45.4749 8.908220
6935.86 6935.86 2.550000 2.329156 470.108 45.7771 8.990121
6939.76 6939.76 2.560000 2.325319 471.902 46.1285 9.082158
6943.69 6943.68 2.580000 2.321461 475.355 46.6457 9.206042
6947.62 6947.61 2.590000 2.317490 477.594 47.052 9.310540
6951.58 6951.57 2.600000 2.313688 479.21 47.3911 9.403490
6955.55 6955.54 2.610000 2.309735 480.759 47.7326 9.494717
6959.54 6959.54 2.630000 2.305656 484.349 48.2857 9.628808
6963.55 6963.55 2.640000 2.301651 485.923 48.6369 9.725227
6967.58 6967.58 2.650000 2.297381 487.768 49.0305 9.829314
6971.63 6971.63 2.660000 2.292811 489.589 49.4391 9.938619
6975.71 6975.7 2.680000 2.288022 492.72 49.9943 10.0752
6979.79 6979.79 2.690000 2.283405 494.589 50.416 10.1881
6983.9 6983.9 2.700000 2.278793 495.854 50.7786 10.2882
6988.03 6988.02 2.710000 2.274362 497.577 51.1816 10.396
6992.18 6992.17 2.730000 2.269802 500.842 51.7526 10.5391
6996.34 6996.33 2.740000 2.265326 502.493 52.1563 10.6492
7000.52 7000.52 2.750000 2.260873 503.974 52.5434 10.7544
7004.73 7004.72 2.760000 2.256293 505.583 52.9532 10.8639
7008.94 7008.94 2.780000 2.251563 509.572 53.6236 11.03
7013.19 7013.18 2.790000 2.246958 510.836 54.0046 11.1347
7017.45 7017.44 2.800000 2.242307 512.596 54.4436 11.2539
7021.73 7021.72 2.810000 2.237590 513.943 54.8447 11.3659
7026.02 7026.02 2.830000 2.232876 517.046 55.4365 11.5175
7030.35 7030.34 2.840000 2.228513 518.601 55.8462 11.633
7034.68 7034.67 2.850000 2.224021 519.88 56.2359 11.7438
7039.03 7039.03 2.860000 2.219621 521.384 56.6472 11.8613
7043.4 7043.4 2.880000 2.215444 524.587 57.2337 12.0149
7047.8 7047.8 2.890000 2.211137 525.856 57.6198 12.1276
7052.21 7052.21 2.900000 2.206679 527.297 58.0358 12.2474
7056.65 7056.64 2.910000 2.202009 528.659 58.4582 12.3687
7061.1 7061.09 2.930000 2.197235 530.236 58.9132 12.4973
7065.57 7065.56 2.940000 2.192860 533.569 59.5435 12.6657
7070.06 7070.05 2.950000 2.188403 531.218 59.5459 12.6992
7074.57 7074.56 2.960000 2.183605 531.805 59.8984 12.808
7079.09 7079.08 2.980000 2.178731 539.458 61.0572 13.0913
7083.64 7083.63 2.990000 2.174109 540.355 61.4422 13.2088
7088.19 7088.19 3.000000 2.169361 542.509 61.9803 13.3611
7092.78 7092.78 3.010000 2.164670 543.763 62.4156 13.4893
7097.38 7097.38 3.030000 2.160078 546.788 63.0516 13.6629
7102.01 7102 3.040000 2.155539 548.331 63.5173 13.8011
7106.64 7106.64 3.050000 2.150821 549.505 63.9542 13.9337
7111.31 7111.3 3.060000 2.146011 549.804 64.2976 14.0358
7115.99 7115.98 3.080000 2.141438 552.236 64.8781 14.1913
7120.69 7120.68 3.090000 2.136856 550.763 65.0022 14.2442
7125.4 7125.4 3.100000 2.131950 541.973 64.2794 14.0995
7130.13 7130.13 3.110000 2.127801 530.644 63.1973 13.8855
7134.89 7134.89 3.130000 2.123325 532.859 63.7455 14.0474
7139.67 7139.66 3.140000 2.118798 538.986 64.7716 14.313
7144.47 7144.46 3.150000 2.114146 541.839 65.418 14.4946
7149.28 7149.27 3.160000 2.109597 545.295 66.1358 14.6952
7154.11 7154.1 3.180000 2.104722 550.839 67.1347 14.9581
7158.95 7158.95 3.190000 2.099853 552.893 67.7135 15.1269
7163.82 7163.82 3.200000 2.095202 553.98 68.1623 15.2692
7168.72 7168.71 3.210000 2.090445 554.312 68.5289 15.3923
7173.63 7173.62 3.230000 2.085674 556.832 69.17 15.5778
7178.55 7178.54 3.240000 2.080832 557.497 69.5886 15.7139
7183.49 7183.49 3.250000 2.076008 558.504 70.0513 15.8609
7188.45 7188.45 3.260000 2.071083 559.838 70.5649 16.0199
7193.44 7193.44 3.280000 2.066119 563.327 71.3572 16.2428
7198.44 7198.44 3.290000 2.061330 564.757 71.8819 16.4077
7203.46 7203.46 3.300000 2.056505 566.753 72.4852 16.5916
7208.5 7208.5 3.310000 2.051515 568.12 73.0236 16.7599
7213.57 7213.56 3.330000 2.046627 571.564 73.8265 16.9909
7218.64 7218.64 3.340000 2.041664 572.445 74.3077 17.1487
7223.74 7223.74 3.350000 2.036797 573.077 74.7526 17.2983
7228.86 7228.86 3.360000 2.031914 575.5 75.4365 17.5064
7233.99 7233.99 3.380000 2.027036 577.786 76.1065 17.7099
7239.15 7239.15 3.390000 2.022072 579.005 76.6466 17.887
7244.32 7244.32 3.400000 2.017088 580.184 77.1862 18.0598
7249.52 7249.52 3.410000 2.012085 580.325 77.592 18.2044
7254.73 7254.73 3.430000 2.006931 578.513 77.7496 18.2898
7259.96 7259.96 3.440000 2.002496 583.779 78.8064 18.5881
7265.22 7265.21 3.450000 1.997853 583.536 79.1402 18.7199
7270.49 7270.48 3.460000 1.992859 588.932 80.2716 19.0376
7275.77 7275.77 3.480000 1.988018 592.414 81.1378 19.2961
7281.08 7281.08 3.490000 1.983291 582.713 80.1874 19.1225