File: xdidata/Mn/Mn-K-Pumpellyite.xdi
# XDI/1.0 BlueSky/1.5.3
# Beamline.name: 6BM
# Beamline.xray_source: NSLS-II three-pole wiggler
# Beamline.collimation: paraboloid mirror, 5 nm Rh on 30 nm Pt
# Beamline.focusing: not in use
# Beamline.harmonic_rejection: flat mirror, Si stripe, pitch = 7.0 mrad relative to beam
# Detector.i0: 10 cm N2
# Detector.i1: 25 cm N2
# Detector.i2: 25 cm N2
# Element.symbol: Mn
# Element.edge: K
# Facility.name: NSLS-II
# Facility.energy: 3.0
# Facility.current: 400.5
# Facility.mode: top-off
# Facility.gup: 305081
# Facility.saf: 305123
# Mono.name: Si(111)
# Mono.d_spacing: 3.13532
# Mono.encoder_resolution: 0.0000050 deg/ct
# Mono.angle_offset: 16.0581 deg
# Mono.scan_mode: fixed exit
# Mono.scan_type: step
# Mono.direction: forward in energy
# Sample.name: Ca2(Mn2+,Mg)(Al,Mn3+,Fe)2(SiO4)(Si2O7)(OH)2.H2O]
# Sample.prep: Powder in polyethylene glycol pellet
# Sample.x_position: -120.140 mm
# Sample.y_position: 112.312 mm
# Scan.experimenters: Neil Hyatt, Martin Stennett, Lucy Mottram
# Scan.edge_energy: 6539.0
# Scan.start_time: 2019-11-11T15:38:23
# Scan.end_time: 2019-11-12T01:22:51
# Scan.transient_id: 17900
# Scan.uid: c5bfe02d-1571-4879-817d-13eefa1d3ad7
# Scan.plot_hint: ln(I0/It)  --  ln($5/$6)
# Scan.sequence: merge of 5 scans
# Column.1: energy eV
# Column.2: requested_energy eV
# Column.3: measurement_time seconds
# Column.4: mutrans
# Column.5: i0
# Column.6: itrans
# Column.7: irefer
# /////
#  Mineral
# -----
# energy   requested_energy   measurement_time   mutrans   i0   itrans   irefer
6339 6339 0.500000 2.566321 89.8325 6.900765 1.579230
6349.01 6349 0.500000 2.552373 89.9959 7.010365 1.616060
6359.01 6359 0.500000 2.538461 90.1565 7.121277 1.653097
6369.01 6369 0.500000 2.524560 90.3255 7.234446 1.690788
6379.02 6379 0.500000 2.510833 90.5054 7.349101 1.729494
6389.01 6389 0.500000 2.497135 90.6782 7.464614 1.768749
6399.01 6399 0.500000 2.483548 90.8402 7.580278 1.807940
6409.01 6409 0.500000 2.469939 90.9862 7.696504 1.848144
6419.01 6419 0.500000 2.456440 91.1403 7.814276 1.888572
6429.01 6429 0.500000 2.443135 91.2895 7.931902 1.930453
6439.01 6439 0.500000 2.429719 91.4238 8.050846 1.972342
6449.01 6449 0.500000 2.416623 91.4105 8.155840 2.010649
6459.01 6459 0.500000 2.403608 91.3933 8.261083 2.050039
6469.01 6469 0.500000 2.390564 91.8223 8.408856 2.099940
6479.01 6479 0.500000 2.377615 92.0457 8.539162 2.145657
6489.01 6489 0.500000 2.364720 92.2238 8.666715 2.191335
6499 6499 0.500000 2.352000 92.3778 8.792329 2.236443
6509.47 6509 0.500000 2.339516 92.5689 8.924775 2.283709
6510.99 6511 0.500000 2.337132 92.5824 8.943777 2.290263
6513 6513 0.500000 2.334696 92.596 8.966949 2.298609
6514.98 6515 0.500000 2.332257 92.6905 8.997974 2.309127
6517.39 6517 0.500000 2.329815 92.7234 9.025238 2.318829
6519.47 6519 0.500000 2.327444 92.7605 9.052257 2.327177
6521.39 6521 0.500000 2.325183 92.7885 9.074628 2.334754
6522.98 6523 0.500000 2.322985 92.8233 9.094803 2.341450
6524.98 6525 0.500000 2.320664 92.8599 9.118858 2.348603
6526.98 6527 0.500000 2.318429 92.8858 9.142512 2.355439
6528.98 6529 0.500000 2.316334 92.9124 9.164314 2.360795
6529.09 6529.1 0.500000 2.316318 92.9164 9.164810 2.361254
6529.19 6529.2 0.500000 2.316183 92.9229 9.166773 2.360934
6529.28 6529.3 0.500000 2.316129 92.9183 9.166503 2.361213
6529.38 6529.4 0.500000 2.315947 92.9211 9.168748 2.361824
6529.49 6529.5 0.500000 2.315869 92.9224 9.169586 2.362039
6529.59 6529.6 0.500000 2.315808 92.9413 9.172049 2.362513
6529.69 6529.7 0.500000 2.315642 92.9235 9.171788 2.362188
6529.79 6529.8 0.500000 2.315581 92.9353 9.173494 2.362830
6529.89 6529.9 0.500000 2.315420 92.935 9.174961 2.362505
6529.98 6530 0.500000 2.315348 92.9271 9.174832 2.362370
6530.09 6530.1 0.500000 2.315242 92.9352 9.176582 2.363048
6530.19 6530.2 0.500000 2.315203 92.9328 9.176714 2.363280
6530.29 6530.3 0.500000 2.315116 92.9304 9.177268 2.363344
6530.39 6530.4 0.500000 2.315016 92.9347 9.178599 2.363641
6530.49 6530.5 0.500000 2.314840 92.9413 9.180907 2.363928
6530.59 6530.6 0.500000 2.314712 92.9344 9.181367 2.363731
6530.69 6530.7 0.500000 2.314709 92.9283 9.180797 2.363550
6530.78 6530.8 0.500000 2.314588 92.9295 9.182000 2.363884
6530.89 6530.9 0.500000 2.314489 92.9311 9.183106 2.363605
6530.99 6531 0.500000 2.314421 92.939 9.184492 2.364239
6531.09 6531.1 0.500000 2.314355 92.9356 9.184711 2.363469
6531.19 6531.2 0.500000 2.314280 92.934 9.185337 2.363680
6531.29 6531.3 0.500000 2.314053 92.9348 9.187376 2.364158
6531.39 6531.4 0.500000 2.313956 92.9463 9.189472 2.364457
6531.5 6531.5 0.500000 2.313885 93.0052 9.195958 2.366232
6531.59 6531.6 0.500000 2.313791 93.0082 9.197047 2.366068
6531.69 6531.7 0.500000 2.313721 93.0107 9.197981 2.366033
6531.8 6531.8 0.500000 2.313657 93.005 9.198072 2.365806
6531.89 6531.9 0.500000 2.313489 93.0367 9.202630 2.366792
6531.99 6532 0.500000 2.313464 93.0649 9.205682 2.367175
6532.1 6532.1 0.500000 2.313319 93.0703 9.207562 2.367419
6532.2 6532.2 0.500000 2.313280 93.0746 9.208356 2.367573
6532.29 6532.3 0.500000 2.313120 93.0725 9.209511 2.366716
6532.4 6532.4 0.500000 2.312992 93.0804 9.211545 2.367208
6532.5 6532.5 0.500000 2.312956 93.0772 9.211596 2.367166
6532.6 6532.6 0.500000 2.312820 93.0783 9.212945 2.367230
6532.7 6532.7 0.500000 2.312773 93.0738 9.212915 2.366300
6532.8 6532.8 0.500000 2.312726 93.0695 9.213004 2.366788
6532.9 6532.9 0.500000 2.312671 93.07 9.213543 2.366231
6533 6533 0.500000 2.312647 93.074 9.214125 2.366208
6533.1 6533.1 0.500000 2.312643 93.1083 9.217527 2.366261
6533.19 6533.2 0.500000 2.312437 93.1416 9.222670 2.367100
6533.3 6533.3 0.500000 2.312360 93.1335 9.222641 2.366767
6533.4 6533.4 0.500000 2.312245 93.1272 9.223065 2.366119
6533.5 6533.5 0.500000 2.312166 93.1272 9.223803 2.365541
6533.6 6533.6 0.500000 2.312052 93.1393 9.226049 2.365978
6533.69 6533.7 0.500000 2.312005 93.1368 9.226228 2.365349
6533.8 6533.8 0.500000 2.311940 93.1416 9.227315 2.364917
6533.89 6533.9 0.500000 2.311887 93.1369 9.227293 2.364547
6534 6534 0.500000 2.311862 93.1424 9.228128 2.363693
6534.09 6534.1 0.500000 2.311746 93.1373 9.228657 2.362886
6534.19 6534.2 0.500000 2.311686 93.1373 9.229222 2.362620
6534.3 6534.3 0.500000 2.311588 93.1317 9.229561 2.361381
6534.39 6534.4 0.500000 2.311506 93.1363 9.230730 2.361222
6534.5 6534.5 0.500000 2.311512 93.1458 9.231690 2.360564
6534.6 6534.6 0.500000 2.311412 93.1383 9.231858 2.359540
6534.7 6534.7 0.500000 2.311388 93.1416 9.232405 2.358059
6534.8 6534.8 0.500000 2.311376 93.1276 9.231117 2.356747
6534.9 6534.9 0.500000 2.311278 93.1188 9.231146 2.355087
6535 6535 0.500000 2.311249 93.1282 9.232340 2.354338
6535.1 6535.1 0.500000 2.311173 93.1332 9.233513 2.353280
6535.2 6535.2 0.500000 2.311107 93.1269 9.233541 2.351199
6535.3 6535.3 0.500000 2.311143 93.1262 9.233141 2.349675
6535.4 6535.4 0.500000 2.311102 93.1256 9.233440 2.347454
6535.5 6535.5 0.500000 2.311087 93.1259 9.233616 2.345073
6535.6 6535.6 0.500000 2.311049 93.1187 9.233262 2.342750
6535.7 6535.7 0.500000 2.311018 93.1184 9.233510 2.340577
6535.8 6535.8 0.500000 2.311012 93.1187 9.233604 2.337542
6535.9 6535.9 0.500000 2.310961 93.1111 9.233308 2.334185
6536 6536 0.500000 2.310998 93.1119 9.233062 2.330630
6536.1 6536.1 0.500000 2.311043 93.1021 9.231694 2.326127
6536.2 6536.2 0.500000 2.310966 93.1086 9.233020 2.322025
6536.3 6536.3 0.500000 2.311021 93.1108 9.232739 2.316616
6536.4 6536.4 0.500000 2.311105 93.099 9.230810 2.310651
6536.5 6536.5 0.500000 2.311125 93.0934 9.230023 2.304144
6536.6 6536.6 0.500000 2.311189 93.096 9.229709 2.297197
6536.7 6536.7 0.500000 2.311246 93.0911 9.228707 2.288200
6536.8 6536.8 0.500000 2.311320 93.0912 9.227993 2.277677
6536.9 6536.9 0.500000 2.311579 93.0897 9.225542 2.266314
6537 6537 0.500000 2.311687 93.0908 9.224635 2.252770
6537.1 6537.1 0.500000 2.311868 93.0824 9.222076 2.236685
6537.2 6537.2 0.500000 2.312160 93.0843 9.219598 2.219791
6537.3 6537.3 0.500000 2.312474 93.0836 9.216699 2.200972
6537.4 6537.4 0.500000 2.312837 93.0926 9.214081 2.180706
6537.5 6537.5 0.500000 2.313324 93.0921 9.209667 2.159622
6537.59 6537.6 0.500000 2.313877 93.0893 9.204554 2.138946
6537.7 6537.7 0.500000 2.314545 93.0854 9.197711 2.115540
6537.8 6537.8 0.500000 2.315368 93.0766 9.189285 2.093770
6537.9 6537.9 0.500000 2.316235 93.0823 9.181939 2.073947
6538 6538 0.500000 2.317008 93.0797 9.174493 2.053734
6538.1 6538.1 0.500000 2.318077 93.0803 9.164472 2.034968
6538.19 6538.2 0.500000 2.319106 93.0771 9.155429 2.019013
6538.3 6538.3 0.500000 2.319919 93.0759 9.147539 2.002764
6538.4 6538.4 0.500000 2.320772 93.0945 9.141464 1.988700
6538.5 6538.5 0.500000 2.321607 93.0962 9.134139 1.975674
6538.6 6538.6 0.500000 2.322214 93.0885 9.127845 1.963316
6538.7 6538.7 0.500000 2.322693 93.1187 9.126333 1.952831
6538.8 6538.8 0.500000 2.322992 93.1264 9.124456 1.943451
6538.9 6538.9 0.500000 2.323150 93.1263 9.122980 1.934237
6539 6539 0.500000 2.323258 93.1233 9.121685 1.925451
6539.1 6539.1 0.500000 2.323237 93.1169 9.121277 1.917689
6539.2 6539.2 0.500000 2.322971 93.122 9.124138 1.911366
6539.3 6539.3 0.500000 2.322643 93.1925 9.134161 1.905716
6539.4 6539.4 0.500000 2.322353 93.1936 9.136909 1.899723
6539.5 6539.5 0.500000 2.321721 93.1891 9.142147 1.893899
6539.6 6539.6 0.500000 2.321295 93.1825 9.145507 1.888196
6539.7 6539.7 0.500000 2.320862 93.1888 9.150147 1.883210
6539.8 6539.8 0.500000 2.320443 93.1919 9.154115 1.878787
6539.9 6539.9 0.500000 2.319987 93.1881 9.157930 1.873673
6540 6540 0.500000 2.319596 93.1893 9.161703 1.868731
6540.1 6540.1 0.500000 2.319422 93.1885 9.163194 1.864072
6540.2 6540.2 0.500000 2.319267 93.1915 9.164914 1.859100
6540.3 6540.3 0.500000 2.319216 93.1882 9.165076 1.854207
6540.4 6540.4 0.500000 2.319158 93.1909 9.165863 1.850579
6540.5 6540.5 0.500000 2.319048 93.1941 9.167183 1.846232
6540.6 6540.6 0.500000 2.319049 93.1859 9.166358 1.843094
6540.7 6540.7 0.500000 2.319063 93.1827 9.165943 1.840331
6540.8 6540.8 0.500000 2.319021 93.1859 9.166606 1.837471
6540.9 6540.9 0.500000 2.319003 93.1864 9.166874 1.835393
6541 6541 0.500000 2.318906 93.1943 9.168511 1.834181
6541.1 6541.1 0.500000 2.318843 93.2002 9.169665 1.832859
6541.2 6541.2 0.500000 2.318678 93.1993 9.171144 1.831791
6541.3 6541.3 0.500000 2.318496 93.1974 9.172535 1.831467
6541.4 6541.4 0.500000 2.318334 93.2004 9.174329 1.831268
6541.5 6541.5 0.500000 2.318164 93.2006 9.175970 1.830966
6541.6 6541.6 0.500000 2.318013 93.2051 9.177771 1.830726
6541.7 6541.7 0.500000 2.317796 93.2021 9.179448 1.830898
6541.8 6541.8 0.500000 2.317667 93.1992 9.180385 1.830192
6541.9 6541.9 0.500000 2.317525 93.1981 9.181570 1.829271
6542 6542 0.500000 2.317466 93.1974 9.182038 1.828185
6542.1 6542.1 0.500000 2.317448 93.2051 9.182932 1.826653
6542.2 6542.2 0.500000 2.317498 93.1982 9.181829 1.824075
6542.3 6542.3 0.500000 2.317569 93.1967 9.181039 1.822152
6542.4 6542.4 0.500000 2.317696 93.1972 9.179866 1.819088
6542.5 6542.5 0.500000 2.317877 93.1977 9.178329 1.815806
6542.6 6542.6 0.500000 2.318087 93.2027 9.176949 1.812020
6542.7 6542.7 0.500000 2.318387 93.1982 9.173644 1.808098
6542.8 6542.8 0.500000 2.318713 93.1912 9.169943 1.803846
6542.9 6542.9 0.500000 2.319013 93.1954 9.167695 1.799439
6543 6543 0.500000 2.319418 93.1973 9.164153 1.795393
6543.1 6543.1 0.500000 2.319837 93.1976 9.160252 1.790579
6543.2 6543.2 0.500000 2.320281 93.1881 9.155376 1.785917
6543.3 6543.3 0.500000 2.320806 93.1912 9.150923 1.781691
6543.4 6543.4 0.500000 2.321282 93.1967 9.147054 1.776926
6543.5 6543.5 0.500000 2.321862 93.1991 9.141872 1.772231
6543.6 6543.6 0.500000 2.322414 93.1978 9.136904 1.767823
6543.7 6543.7 0.500000 2.323047 93.1942 9.130560 1.763297
6543.8 6543.8 0.500000 2.323791 93.1944 9.123881 1.758317
6543.9 6543.9 0.500000 2.324556 93.1898 9.116620 1.753631
6544 6544 0.500000 2.325438 93.1889 9.108002 1.748480
6544.1 6544.1 0.500000 2.326384 93.1859 9.099556 1.743017
6544.2 6544.2 0.500000 2.327382 93.1852 9.090534 1.738665
6544.3 6544.3 0.500000 2.328522 93.1772 9.079224 1.732378
6544.4 6544.4 0.500000 2.329790 93.1756 9.067469 1.727053
6544.49 6544.5 0.500000 2.331124 93.2462 9.062573 1.722614
6544.6 6544.6 0.500000 2.332668 93.2443 9.047854 1.716221
6544.7 6544.7 0.500000 2.334252 93.2437 9.033364 1.709886
6544.8 6544.8 0.500000 2.336173 93.2417 9.016509 1.702497
6544.9 6544.9 0.500000 2.337995 93.2354 8.999025 1.695634
6545 6545 0.500000 2.340095 93.3018 8.986038 1.688870
6545.09 6545.1 0.500000 2.342375 93.3107 8.967962 1.681744
6545.2 6545.2 0.500000 2.344764 93.3054 8.945878 1.673405
6545.3 6545.3 0.500000 2.347371 93.3024 8.921218 1.664233
6545.4 6545.4 0.500000 2.350230 93.3041 8.896223 1.655748
6545.5 6545.5 0.500000 2.353170 93.3019 8.870212 1.646354
6545.6 6545.6 0.500000 2.356346 93.2954 8.840684 1.636692
6545.7 6545.7 0.500000 2.359716 93.2922 8.811584 1.627129
6545.8 6545.8 0.500000 2.363422 93.29 8.778964 1.616052
6545.9 6545.9 0.500000 2.367222 93.2858 8.744197 1.605162
6546 6546 0.500000 2.371367 93.2967 8.708797 1.593709
6546.1 6546.1 0.500000 2.375789 93.3629 8.677461 1.583410
6546.2 6546.2 0.500000 2.380404 93.3583 8.636359 1.570705
6546.3 6546.3 0.500000 2.385490 93.356 8.593364 1.558288
6546.4 6546.4 0.500000 2.390768 93.3529 8.548227 1.545488
6546.5 6546.5 0.500000 2.396339 93.3487 8.499277 1.531522
6546.6 6546.6 0.500000 2.402277 93.3451 8.448008 1.517237
6546.7 6546.7 0.500000 2.408494 93.3534 8.397009 1.503166
6546.8 6546.8 0.500000 2.414778 93.3499 8.344832 1.488901
6546.9 6546.9 0.500000 2.421273 93.3452 8.288448 1.473971
6547 6547 0.500000 2.427950 93.3395 8.233534 1.459384
6547.1 6547.1 0.500000 2.434694 93.3391 8.179273 1.445435
6547.2 6547.2 0.500000 2.441591 93.3391 8.121917 1.430270
6547.3 6547.3 0.500000 2.448671 93.3344 8.064559 1.415351
6547.4 6547.4 0.500000 2.455591 93.3324 8.008561 1.400863
6547.5 6547.5 0.500000 2.462661 93.3264 7.950749 1.386127
6547.6 6547.6 0.500000 2.469732 93.3206 7.894873 1.371464
6547.7 6547.7 0.500000 2.476763 93.3166 7.840679 1.357655
6547.8 6547.8 0.500000 2.483801 93.3191 7.785129 1.343336
6547.9 6547.9 0.500000 2.490825 93.3119 7.729404 1.329028
6548 6548 0.500000 2.497691 93.3108 7.678010 1.315545
6548.1 6548.1 0.500000 2.504200 93.3113 7.627290 1.302172
6548.2 6548.2 0.500000 2.510854 93.3121 7.576778 1.288806
6548.3 6548.3 0.500000 2.517230 93.3069 7.530086 1.276029
6548.4 6548.4 0.500000 2.523308 93.3038 7.481906 1.263351
6548.5 6548.5 0.500000 2.529245 93.3016 7.437061 1.250423
6548.6 6548.6 0.500000 2.534800 93.2956 7.396829 1.239882
6548.7 6548.7 0.500000 2.540093 93.2924 7.357525 1.228959
6548.8 6548.8 0.500000 2.544990 93.2834 7.319702 1.217964
6548.9 6548.9 0.500000 2.549670 93.2856 7.287392 1.208628
6549 6549 0.500000 2.554241 93.2836 7.253249 1.198631
6549.1 6549.1 0.500000 2.558503 93.2848 7.221347 1.189129
6549.2 6549.2 0.500000 2.562905 93.2767 7.190136 1.180172
6549.3 6549.3 0.500000 2.567123 93.2745 7.159508 1.170918
6549.4 6549.4 0.500000 2.571546 93.2778 7.128231 1.162061
6549.5 6549.5 0.500000 2.575919 93.2798 7.097225 1.152850
6549.6 6549.6 0.500000 2.580523 93.2722 7.064623 1.143833
6549.7 6549.7 0.500000 2.585319 93.2687 7.029374 1.134233
6549.8 6549.8 0.500000 2.590411 93.2708 6.994944 1.125242
6549.9 6549.9 0.500000 2.595493 93.2688 6.959152 1.115903
6550.01 6550 0.500000 2.600902 93.2706 6.920258 1.105980
6550.1 6550.1 0.500000 2.606492 93.268 6.882472 1.096290
6550.2 6550.2 0.500000 2.612379 93.2613 6.841756 1.086815
6550.31 6550.3 0.500000 2.618168 93.2562 6.800226 1.076749
6550.4 6550.4 0.500000 2.624044 93.2602 6.761522 1.067475
6550.5 6550.5 0.500000 2.630024 93.252 6.721431 1.058019
6550.6 6550.6 0.500000 2.636044 93.2594 6.680908 1.048769
6550.7 6550.7 0.500000 2.642050 93.2511 6.639497 1.039304
6550.8 6550.8 0.500000 2.648412 93.2498 6.599523 1.030058
6550.9 6550.9 0.500000 2.654412 93.2498 6.559015 1.020902
6551 6551 0.500000 2.660795 93.2453 6.516969 1.011701
6551.1 6551.1 0.500000 2.667283 93.2322 6.473972 1.001982
6551.2 6551.2 0.500000 2.673989 93.2376 6.431184 0.993154
6551.3 6551.3 0.500000 2.680946 93.235 6.385338 0.983356
6551.4 6551.4 0.500000 2.688031 93.2354 6.341461 0.973697
6551.5 6551.5 0.500000 2.695318 93.2356 6.296064 0.964393
6551.6 6551.6 0.500000 2.702797 93.2785 6.250382 0.954935
6551.7 6551.7 0.500000 2.710461 93.2799 6.203516 0.944950
6551.8 6551.8 0.500000 2.718003 93.2763 6.157042 0.935600
6551.9 6551.9 0.500000 2.725570 93.2658 6.108348 0.925790
6551.99 6552 0.500000 2.733409 93.2724 6.063781 0.916823
6552.1 6552.1 0.500000 2.741117 93.2672 6.017517 0.907614
6552.2 6552.2 0.500000 2.748546 93.2638 5.970585 0.898327
6552.3 6552.3 0.500000 2.755748 93.3272 5.931826 0.890104
6552.4 6552.4 0.500000 2.762569 93.3284 5.892276 0.882256
6552.5 6552.5 0.500000 2.769161 93.3271 5.852292 0.874250
6552.6 6552.6 0.500000 2.775462 93.3177 5.815453 0.867095
6552.7 6552.7 0.500000 2.781622 93.3092 5.780356 0.859958
6552.8 6552.8 0.500000 2.787411 93.3083 5.746548 0.853296
6552.9 6552.9 0.500000 2.792826 93.3066 5.714472 0.846447
6553 6553 0.500000 2.798069 93.3056 5.685465 0.840521
6553.1 6553.1 0.500000 2.802869 93.2974 5.657549 0.834979
6553.21 6553.2 0.500000 2.807628 93.3002 5.629512 0.829050
6553.3 6553.3 0.500000 2.812136 93.3008 5.605650 0.823944
6553.4 6553.4 0.500000 2.816466 93.2891 5.580715 0.819098
6553.5 6553.5 0.500000 2.820570 93.2945 5.557449 0.814364
6553.6 6553.6 0.500000 2.824567 93.2925 5.535198 0.810226
6553.7 6553.7 0.500000 2.828498 93.2994 5.513838 0.805606
6553.8 6553.8 0.500000 2.832374 93.2926 5.492572 0.801846
6553.9 6553.9 0.500000 2.836045 93.2892 5.472382 0.797937
6554 6554 0.500000 2.839542 93.283 5.453046 0.794420
6554.1 6554.1 0.500000 2.843012 93.2823 5.433419 0.790746
6554.2 6554.2 0.500000 2.846337 93.2888 5.415940 0.787451
6554.3 6554.3 0.500000 2.849596 93.2842 5.398203 0.784883
6554.4 6554.4 0.500000 2.852492 93.2823 5.382264 0.781889
6554.5 6554.5 0.500000 2.855374 93.288 5.367078 0.779756
6554.59 6554.6 0.500000 2.858127 93.2762 5.352430 0.777157
6554.69 6554.7 0.500000 2.860836 93.2737 5.337484 0.774847
6554.8 6554.8 0.500000 2.863476 93.2749 5.322823 0.773182
6554.9 6554.9 0.500000 2.866066 93.2837 5.310010 0.771235
6555 6555 0.500000 2.868570 93.2761 5.296172 0.769425
6555.1 6555.1 0.500000 2.871167 93.2744 5.282364 0.767751
6555.19 6555.2 0.500000 2.873623 93.2729 5.270033 0.766118
6555.3 6555.3 0.500000 2.876137 93.271 5.256078 0.764597
6555.4 6555.4 0.500000 2.878827 93.2762 5.241865 0.762922
6555.5 6555.5 0.500000 2.881303 93.2725 5.229163 0.761748
6555.6 6555.6 0.500000 2.883983 93.2664 5.214936 0.760540
6555.7 6555.7 0.500000 2.886800 93.267 5.199836 0.758872
6555.8 6555.8 0.500000 2.889504 93.2675 5.186145 0.757834
6555.9 6555.9 0.500000 2.892253 93.2653 5.171804 0.756893
6556 6556 0.500000 2.895222 93.2642 5.156185 0.755359
6556.1 6556.1 0.500000 2.897986 93.2655 5.142343 0.754631
6556.2 6556.2 0.500000 2.900876 93.2604 5.127421 0.753464
6556.3 6556.3 0.500000 2.903780 93.2562 5.111767 0.752091
6556.4 6556.4 0.500000 2.906653 93.2608 5.097439 0.751284
6556.5 6556.5 0.500000 2.909585 93.2504 5.082347 0.749907
6556.6 6556.6 0.500000 2.912374 93.247 5.067701 0.749238
6556.7 6556.7 0.500000 2.915187 93.2496 5.053276 0.748008
6556.8 6556.8 0.500000 2.917855 93.2465 5.040196 0.747507
6556.9 6556.9 0.500000 2.920456 93.247 5.027153 0.746629
6557.01 6557 0.500000 2.922824 93.253 5.015016 0.746465
6557.1 6557.1 0.500000 2.924916 93.2443 5.004370 0.746020
6557.2 6557.2 0.500000 2.926739 93.2335 4.994579 0.745554
6557.3 6557.3 0.500000 2.928401 93.2385 4.986535 0.745421
6557.4 6557.4 0.500000 2.929660 93.252 4.981204 0.745736
6557.5 6557.5 0.500000 2.930702 93.2453 4.975622 0.745911
6557.6 6557.6 0.500000 2.931216 93.3063 4.976262 0.747245
6557.7 6557.7 0.500000 2.931366 93.3062 4.975506 0.748162
6557.8 6557.8 0.500000 2.931240 93.3087 4.976327 0.749334
6557.9 6557.9 0.500000 2.930593 93.305 4.979353 0.750577
6558 6558 0.500000 2.929572 93.3022 4.984260 0.752432
6558.1 6558.1 0.500000 2.928281 93.316 4.991276 0.754380
6558.2 6558.2 0.500000 2.926546 93.3104 4.999743 0.756468
6558.3 6558.3 0.500000 2.924286 93.3153 5.011441 0.759336
6558.4 6558.4 0.500000 2.921724 93.346 5.025317 0.761914
6558.5 6558.5 0.500000 2.919017 93.3443 5.039558 0.764893
6558.6 6558.6 0.500000 2.915577 93.3379 5.056095 0.768256
6558.7 6558.7 0.500000 2.912053 93.3395 5.074123 0.771774
6558.8 6558.8 0.500000 2.908052 93.3385 5.093913 0.775439
6558.9 6558.9 0.500000 2.903810 93.3469 5.116776 0.779493
6559 6559 0.500000 2.899443 93.3888 5.140285 0.783654
6559.1 6559.1 0.500000 2.894679 93.4038 5.166331 0.788053
6559.2 6559.2 0.500000 2.889806 93.3973 5.192093 0.792553
6559.3 6559.3 0.500000 2.884802 93.4035 5.218184 0.796775
6559.4 6559.4 0.500000 2.879734 93.4037 5.244815 0.801608
6559.5 6559.5 0.500000 2.874642 93.4017 5.271967 0.806121
6559.6 6559.6 0.500000 2.869534 93.3983 5.297784 0.810335
6559.7 6559.7 0.500000 2.864400 93.3854 5.324011 0.814443
6559.81 6559.8 0.500000 2.859446 93.3829 5.351758 0.818885
6559.9 6559.9 0.500000 2.854553 93.3659 5.376574 0.822895
6560 6560 0.500000 2.849640 93.3586 5.402211 0.826974
6560.1 6560.1 0.500000 2.844893 93.3327 5.427256 0.831082
6560.2 6560.2 0.500000 2.840556 93.3113 5.449198 0.834935
6560.3 6560.3 0.500000 2.836194 93.2811 5.470826 0.837877
6560.41 6560.4 0.500000 2.832209 93.2541 5.492121 0.841204
6560.5 6560.5 0.500000 2.828440 93.2307 5.511088 0.844005
6560.6 6560.6 0.500000 2.825038 93.213 5.528351 0.847130
6560.7 6560.7 0.500000 2.821912 93.1938 5.544335 0.849277
6560.8 6560.8 0.500000 2.819267 93.1666 5.557829 0.851380
6560.9 6560.9 0.500000 2.816750 93.1608 5.570817 0.853418
6561 6561 0.500000 2.815013 93.1719 5.581514 0.854723
6561.1 6561.1 0.500000 2.813206 93.2068 5.593649 0.856440
6561.2 6561.2 0.500000 2.811864 93.2564 5.604077 0.858338
6561.3 6561.3 0.500000 2.810941 93.2984 5.611671 0.859131
6561.4 6561.4 0.500000 2.810175 93.3278 5.617817 0.859783
6561.49 6561.5 0.500000 2.809898 93.3445 5.620332 0.860343
6561.6 6561.6 0.500000 2.809723 93.3621 5.622416 0.860422
6561.7 6561.7 0.500000 2.809672 93.3748 5.623466 0.860364
6561.8 6561.8 0.500000 2.809836 93.3704 5.622326 0.859760
6561.9 6561.9 0.500000 2.810207 93.3651 5.619980 0.859072
6562 6562 0.500000 2.810799 93.3597 5.616259 0.858248
6562.1 6562.1 0.500000 2.811180 93.3698 5.614789 0.857925
6562.2 6562.2 0.500000 2.811695 93.376 5.612295 0.857617
6562.3 6562.3 0.500000 2.812457 93.3739 5.607802 0.856407
6562.4 6562.4 0.500000 2.812952 93.3744 5.605066 0.855522
6562.5 6562.5 0.500000 2.813603 93.3653 5.600979 0.854963
6562.6 6562.6 0.500000 2.814185 93.3745 5.598157 0.854206
6562.7 6562.7 0.500000 2.814645 93.378 5.595796 0.853851
6562.8 6562.8 0.500000 2.815074 93.3718 5.593070 0.853175
6562.9 6562.9 0.500000 2.815565 93.3689 5.590013 0.852766
6563 6563 0.500000 2.815805 93.3635 5.588399 0.852153
6563.1 6563.1 0.500000 2.816088 93.3689 5.587164 0.851875
6563.2 6563.2 0.500000 2.816343 93.358 5.585084 0.850999
6563.3 6563.3 0.500000 2.816366 93.3639 5.585322 0.851074
6563.4 6563.4 0.500000 2.816370 93.3687 5.585582 0.850530
6563.5 6563.5 0.500000 2.816299 93.372 5.586177 0.850508
6563.6 6563.6 0.500000 2.816209 93.369 5.586482 0.850634
6563.7 6563.7 0.500000 2.816085 93.3698 5.587239 0.850254
6563.8 6563.8 0.500000 2.815958 93.3707 5.588022 0.850265
6563.9 6563.9 0.500000 2.815651 93.3564 5.588877 0.850467
6564 6564 0.500000 2.815372 93.3657 5.590942 0.850631
6564.1 6564.1 0.500000 2.815104 93.3551 5.591849 0.850683
6564.2 6564.2 0.500000 2.814810 93.3585 5.593673 0.850548
6564.3 6564.3 0.500000 2.814518 93.359 5.595319 0.850809
6564.4 6564.4 0.500000 2.814116 93.3591 5.597563 0.851255
6564.49 6564.5 0.500000 2.813955 93.3626 5.598655 0.851300
6564.6 6564.6 0.500000 2.813636 93.3873 5.601966 0.851823
6564.7 6564.7 0.500000 2.813335 93.4382 5.606699 0.852393
6564.8 6564.8 0.500000 2.813099 93.4272 5.607403 0.851913
6564.89 6564.9 0.500000 2.812913 93.4334 5.608765 0.852001
6565 6565 0.500000 2.812614 93.4323 5.610400 0.852425
6565.1 6565.1 0.500000 2.812428 93.4341 5.611579 0.852540
6565.2 6565.2 0.500000 2.812207 93.4289 5.612501 0.852408
6565.3 6565.3 0.500000 2.812138 93.5006 5.617242 0.853292
6565.4 6565.4 0.500000 2.811967 93.4936 5.617760 0.853371
6565.5 6565.5 0.500000 2.811790 93.4938 5.618771 0.853744
6565.6 6565.6 0.500000 2.811811 93.4953 5.618768 0.853448
6565.7 6565.7 0.500000 2.811725 93.4913 5.619007 0.853438
6565.8 6565.8 0.500000 2.811603 93.4939 5.619854 0.853856
6565.9 6565.9 0.500000 2.811463 93.4846 5.620084 0.853534
6566 6566 0.500000 2.811411 93.4917 5.620793 0.853765
6566.1 6566.1 0.500000 2.811434 93.4956 5.620914 0.853913
6566.2 6566.2 0.500000 2.811290 93.4905 5.621410 0.853636
6566.3 6566.3 0.500000 2.811255 93.4922 5.621711 0.853959
6566.4 6566.4 0.500000 2.811112 93.4901 5.622376 0.854074
6566.5 6566.5 0.500000 2.811154 93.4899 5.622144 0.854140
6566.6 6566.6 0.500000 2.811032 93.4922 5.622953 0.854324
6566.7 6566.7 0.500000 2.810875 93.4876 5.623552 0.854732
6566.8 6566.8 0.500000 2.810856 93.4858 5.623593 0.854701
6566.9 6566.9 0.500000 2.810632 93.4819 5.624496 0.854759
6567 6567 0.500000 2.810486 93.4825 5.625431 0.855009
6567.1 6567.1 0.500000 2.810356 93.4869 5.626429 0.855117
6567.2 6567.2 0.500000 2.810157 93.4796 5.627074 0.855293
6567.3 6567.3 0.500000 2.809874 93.4749 5.628394 0.855739
6567.4 6567.4 0.500000 2.809654 93.4788 5.629836 0.855869
6567.5 6567.5 0.500000 2.809310 93.4757 5.631578 0.856357
6567.6 6567.6 0.500000 2.808996 93.4795 5.633645 0.856615
6567.7 6567.7 0.500000 2.808501 93.4799 5.636416 0.856910
6567.8 6567.8 0.500000 2.808203 93.4772 5.637975 0.857397
6567.9 6567.9 0.500000 2.807667 93.4749 5.640862 0.858150
6568 6568 0.500000 2.807200 93.458 5.642354 0.858144
6568.1 6568.1 0.500000 2.806771 93.4596 5.645066 0.858883
6568.2 6568.2 0.500000 2.806098 93.4683 5.649317 0.859629
6568.3 6568.3 0.500000 2.805480 93.4736 5.653118 0.860304
6568.4 6568.4 0.500000 2.804983 93.4654 5.655572 0.860715
6568.5 6568.5 0.500000 2.804362 93.471 5.659310 0.861528
6568.6 6568.6 0.500000 2.803654 93.4716 5.663400 0.862463
6568.7 6568.7 0.500000 2.803052 93.4651 5.666419 0.863135
6568.8 6568.8 0.500000 2.802411 93.4631 5.669867 0.863434
6568.9 6568.9 0.500000 2.801828 94.0657 5.709788 0.869991
6569.01 6569 0.700000 2.801161 130.859 7.948647 1.210930
6570.09 6570.08 0.710000 2.793583 132.737 8.123820 1.239288
6571.21 6571.18 0.730000 2.785491 136.483 8.421461 1.286155
6572.28 6572.29 0.740000 2.774913 138.318 8.624635 1.317413
6573.43 6573.43 0.750000 2.759815 140.2 8.874090 1.354736
6574.59 6574.58 0.760000 2.741856 142.102 9.158688 1.395932
6575.77 6575.76 0.780000 2.723073 145.842 9.577626 1.455899
6576.96 6576.95 0.790000 2.706375 147.737 9.865273 1.495404
6578.17 6578.16 0.800000 2.691982 149.74 10.1446 1.533067
6579.4 6579.39 0.810000 2.679794 151.603 10.3961 1.566657
6580.65 6580.64 0.830000 2.669969 155.414 10.7633 1.616844
6581.92 6581.91 0.840000 2.662406 157.373 10.9814 1.644701
6583.22 6583.2 0.850000 2.656909 159.26 11.1746 1.670333
6584.52 6584.51 0.860000 2.652557 161.128 11.3549 1.696981
6585.84 6585.83 0.880000 2.648894 164.9 11.6633 1.747054
6587.19 6587.18 0.890000 2.646462 166.465 11.8027 1.775309
6588.55 6588.54 0.900000 2.645870 168.626 11.963 1.810093
6589.94 6589.93 0.910000 2.647188 170.593 12.0865 1.839536
6591.34 6591.33 0.930000 2.649799 174.415 12.3251 1.885960
6592.76 6592.75 0.940000 2.654444 176.334 12.4029 1.905465
6594.2 6594.19 0.950000 2.661658 178.226 12.4462 1.919906
6595.66 6595.65 0.960000 2.670621 180.141 12.4672 1.931772
6597.13 6597.13 0.980000 2.680096 183.881 12.6065 1.962663
6598.64 6598.63 0.990000 2.684285 185.794 12.6842 1.981398
6600.15 6600.14 1.000000 2.685588 187.666 12.7953 2.002449
6601.69 6601.68 1.010000 2.685843 189.197 12.8964 2.020588
6603.25 6603.24 1.030000 2.685409 193.329 13.1837 2.065438
6604.82 6604.81 1.040000 2.684941 195.26 13.3217 2.085478
6606.41 6606.4 1.050000 2.684661 197.134 13.4533 2.103694
6608.02 6608.01 1.060000 2.684523 199.066 13.587 2.121426
6609.66 6609.65 1.080000 2.683933 202.811 13.8508 2.158539
6611.31 6611.3 1.090000 2.682303 204.713 14.0035 2.179116
6612.97 6612.97 1.100000 2.679807 206.593 14.1674 2.201205
6614.66 6614.65 1.110000 2.676927 208.478 14.3379 2.225150
6616.37 6616.36 1.130000 2.674182 212.254 14.6378 2.271317
6618.1 6618.09 1.140000 2.671776 214.143 14.8036 2.298042
6619.84 6619.83 1.150000 2.670006 216.01 14.9591 2.325340
6621.61 6621.6 1.160000 2.669194 217.926 15.1041 2.350734
6623.39 6623.38 1.180000 2.669147 221.709 15.367 2.396933
6625.19 6625.18 1.190000 2.669377 223.593 15.494 2.422577
6627.01 6627 1.200000 2.669246 225.494 15.6278 2.450077
6628.85 6628.84 1.210000 2.667638 227.199 15.7713 2.478810
6630.71 6630.7 1.230000 2.664243 231.147 16.0999 2.536230
6632.58 6632.58 1.240000 2.659746 233.033 16.3042 2.573594
6634.48 6634.48 1.250000 2.654650 234.927 16.5208 2.611073
6636.4 6636.4 1.260000 2.649324 236.839 16.7441 2.648101
6638.33 6638.33 1.280000 2.644023 240.559 17.0975 2.705358
6640.3 6640.29 1.290000 2.638746 242.442 17.3226 2.743353
6642.27 6642.26 1.300000 2.633519 244.35 17.5503 2.783559
6644.27 6644.26 1.310000 2.628181 246.266 17.7828 2.826155
6646.28 6646.27 1.330000 2.622976 250.056 18.1507 2.891910
6648.3 6648.3 1.340000 2.618076 251.959 18.3785 2.936821
6650.36 6650.35 1.350000 2.613696 254.011 18.6098 2.983320
6652.43 6652.42 1.360000 2.609807 255.99 18.8279 3.025680
6654.52 6654.51 1.380000 2.606349 259.777 19.1725 3.089411
6656.62 6656.61 1.390000 2.602877 261.872 19.3945 3.131449
6658.75 6658.74 1.400000 2.599507 263.759 19.6001 3.170291
6660.9 6660.89 1.410000 2.596568 265.688 19.8016 3.206830
6663.06 6663.05 1.430000 2.594117 269.531 20.1375 3.263344
6665.23 6665.23 1.440000 2.592107 271.391 20.3171 3.292662
6667.45 6667.44 1.450000 2.590257 273.347 20.5016 3.323135
6669.67 6669.66 1.460000 2.588741 275.225 20.6737 3.350600
6671.91 6671.9 1.480000 2.587160 279.001 20.9904 3.402315
6674.17 6674.16 1.490000 2.585674 280.955 21.169 3.432689
6676.45 6676.44 1.500000 2.583866 282.833 21.349 3.464978
6678.74 6678.74 1.510000 2.581575 284.728 21.5412 3.498920
6681.06 6681.05 1.530000 2.578671 288.501 21.8902 3.561550
6683.39 6683.39 1.540000 2.575283 290.415 22.1102 3.602934
6685.74 6685.74 1.550000 2.571528 292.284 22.3363 3.646846
6688.12 6688.12 1.560000 2.567523 294.156 22.5695 3.693483
6690.52 6690.51 1.580000 2.563540 297.942 22.9513 3.766915
6692.92 6692.92 1.590000 2.559872 299.754 23.1756 3.815764
6695.34 6695.35 1.600000 2.556496 301.644 23.4004 3.864841
6697.8 6697.8 1.610000 2.553407 303.51 23.6182 3.913316
6700.27 6700.27 1.630000 2.550636 307.263 23.9766 3.984056
6702.76 6702.76 1.640000 2.548293 309.132 24.1789 4.029679
6705.27 6705.27 1.650000 2.546313 310.973 24.3711 4.072377
6707.79 6707.79 1.660000 2.544545 312.83 24.5601 4.114444
6710.34 6710.34 1.680000 2.542678 316.529 24.8968 4.179084
6712.89 6712.9 1.690000 2.540421 318.552 25.1124 4.221461
6715.49 6715.49 1.700000 2.537665 320.537 25.3388 4.266399
6718.09 6718.09 1.710000 2.534410 322.439 25.5723 4.311413
6720.71 6720.71 1.730000 2.530777 326.306 25.9729 4.384885
6723.35 6723.35 1.740000 2.526859 328.214 26.2273 4.434259
6726.01 6726.01 1.750000 2.522794 330.14 26.4887 4.483943
6728.69 6728.69 1.760000 2.518630 331.966 26.7464 4.532818
6731.39 6731.39 1.780000 2.514387 335.734 27.1651 4.609271
6734.11 6734.11 1.790000 2.510138 337.561 27.4291 4.659927
6736.84 6736.84 1.800000 2.505827 339.69 27.7211 4.716942
6739.6 6739.6 1.810000 2.501351 341.513 27.9949 4.771646
6742.38 6742.37 1.830000 2.496822 345.218 28.4274 4.855404
6745.17 6745.17 1.840000 2.492218 347.056 28.7104 4.914568
6747.98 6747.98 1.850000 2.487510 348.877 28.9972 4.975374
6750.8 6750.81 1.860000 2.482854 350.676 29.2824 5.037262
6753.65 6753.66 1.880000 2.478235 354.398 29.7305 5.127217
6756.53 6756.53 1.890000 2.473904 356.186 30.0103 5.189284
6759.42 6759.42 1.900000 2.469853 357.952 30.2816 5.248730
6762.32 6762.32 1.910000 2.465961 359.75 30.5522 5.307783
6765.25 6765.25 1.930000 2.462164 363.459 30.9849 5.395231
6768.2 6768.2 1.940000 2.458510 365.234 31.25 5.455189
6771.16 6771.16 1.950000 2.454806 367.051 31.5218 5.515461
6774.14 6774.14 1.960000 2.451093 368.876 31.7966 5.577513
6777.15 6777.15 1.980000 2.447250 372.577 32.2391 5.670306
6780.18 6780.17 1.990000 2.443412 374.403 32.522 5.735078
6783.21 6783.21 2.000000 2.439465 376.182 32.8055 5.800492
6786.27 6786.27 2.010000 2.435513 378.006 33.0953 5.866529
6789.34 6789.35 2.030000 2.431563 381.631 33.5447 5.960831
6792.45 6792.45 2.040000 2.427205 380.421 33.5845 5.981225
6795.56 6795.56 2.050000 2.423646 383.929 34.0149 6.071064
6798.7 6798.7 2.060000 2.419696 386.923 34.4159 6.156229
6801.86 6801.85 2.080000 2.415825 390.763 34.8925 6.252958
6805.03 6805.03 2.090000 2.411967 392.678 35.1988 6.318982
6808.22 6808.22 2.100000 2.408019 395.081 35.5545 6.393904
6811.43 6811.43 2.110000 2.403345 372.381 33.6684 6.065292
6814.66 6814.66 2.130000 2.399860 398.65 36.1697 6.526854
6817.92 6817.92 2.140000 2.395725 401.594 36.5878 6.614970
6821.18 6821.18 2.150000 2.390580 390.58 35.7677 6.479028
6824.47 6824.47 2.160000 2.387764 402.654 36.9775 6.711706
6827.78 6827.78 2.180000 2.383995 407.674 37.5798 6.836352
6831.11 6831.11 2.190000 2.380269 409.542 37.8928 6.910424
6834.45 6834.45 2.200000 2.376531 411.275 38.1956 6.981430
6837.82 6837.82 2.210000 2.372641 412.534 38.4619 7.048747
6841.2 6841.2 2.230000 2.369458 406.801 38.0485 6.991066
6844.6 6844.6 2.240000 2.364585 417.443 39.2343 7.227457
6848.03 6848.03 2.250000 2.360391 419.431 39.5871 7.311472
6851.47 6851.47 2.260000 2.356052 421.015 39.9092 7.390052
6854.93 6854.93 2.280000 2.351732 424.52 40.4157 7.504137
6858.4 6858.4 2.290000 2.347354 426.309 40.7641 7.588158
6861.9 6861.9 2.300000 2.343283 427.189 41.0149 7.654954
6865.43 6865.42 2.310000 2.338355 429.304 41.4216 7.751112
6868.97 6868.96 2.330000 2.333757 433.244 41.9945 7.878711
6872.5 6872.51 2.340000 2.329129 435.478 42.4061 7.975887
6876.09 6876.09 2.350000 2.324469 437.316 42.7844 8.065950
6879.68 6879.68 2.360000 2.319687 439.124 43.1672 8.159330
6883.29 6883.29 2.380000 2.314885 443.381 43.7954 8.296791
6886.92 6886.92 2.390000 2.310077 445.471 44.214 8.396599
6890.57 6890.57 2.400000 2.305352 447.314 44.6071 8.491181
6894.24 6894.24 2.410000 2.300683 449.1 44.9948 8.584303
6897.93 6897.93 2.430000 2.295902 452.729 45.5758 8.714580
6901.64 6901.64 2.440000 2.291371 454.569 45.969 8.810873
6905.37 6905.36 2.450000 2.286897 456.637 46.3851 8.910469
6909.11 6909.11 2.460000 2.282472 458.181 46.7484 9.000973
6912.87 6912.87 2.480000 2.278061 461.585 47.3039 9.127944
6916.66 6916.66 2.490000 2.273767 463.107 47.6639 9.220540
6920.46 6920.46 2.500000 2.269459 464.677 48.0321 9.313016
6924.28 6924.28 2.510000 2.265079 466.391 48.4208 9.412060
6928.12 6928.12 2.530000 2.260737 469.916 48.9992 9.548073
6931.98 6931.98 2.540000 2.256283 471.539 49.3878 9.648784
6935.86 6935.86 2.550000 2.251730 473.212 49.7893 9.751491
6939.77 6939.76 2.560000 2.247184 474.849 50.1892 9.854275
6943.69 6943.68 2.580000 2.242785 478.29 50.7758 9.994325
6947.62 6947.61 2.590000 2.238236 479.895 51.1783 10.0986
6951.57 6951.57 2.600000 2.233638 481.473 51.5833 10.2044
6955.54 6955.54 2.610000 2.229164 483.123 51.9921 10.313
6959.54 6959.54 2.630000 2.224509 486.599 52.6105 10.4634
6963.55 6963.55 2.640000 2.219810 488.185 53.0306 10.5745
6967.58 6967.58 2.650000 2.215214 489.734 53.4441 10.6849
6971.63 6971.63 2.660000 2.210548 491.296 53.865 10.7974
6975.7 6975.7 2.680000 2.205857 495.029 54.5297 10.9603
6979.79 6979.79 2.690000 2.201135 496.87 54.9917 11.0825
6983.9 6983.9 2.700000 2.196405 498.582 55.4428 11.203
6988.02 6988.02 2.710000 2.191746 500.22 55.8848 11.3203
6992.17 6992.17 2.730000 2.187041 503.619 56.5298 11.4808
6996.33 6996.33 2.740000 2.182397 505.241 56.9758 11.6006
7000.52 7000.52 2.750000 2.177729 506.844 57.4238 11.721
7004.73 7004.72 2.760000 2.172965 508.432 57.8791 11.8445
7008.94 7008.94 2.780000 2.168133 511.774 58.5417 12.0099
7013.18 7013.18 2.790000 2.163365 513.251 58.9911 12.1309
7017.44 7017.44 2.800000 2.158395 514.813 59.4657 12.2597
7021.72 7021.72 2.810000 2.153607 516.285 59.9219 12.3862
7026.02 7026.02 2.830000 2.148704 519.578 60.6006 12.5571
7030.35 7030.34 2.840000 2.143806 520.94 61.058 12.6845
7034.68 7034.67 2.850000 2.138800 522.469 61.5446 12.8199
7039.03 7039.03 2.860000 2.133888 523.953 62.023 12.9533
7043.4 7043.4 2.880000 2.128888 527.171 62.7166 13.1317
7047.8 7047.8 2.890000 2.123956 528.891 63.2323 13.2757
7052.21 7052.21 2.900000 2.118859 530.422 63.7393 13.417
7056.64 7056.64 2.910000 2.113876 531.897 64.2357 13.5573
7061.09 7061.09 2.930000 2.108769 533.857 64.8024 13.7125
7065.56 7065.56 2.940000 2.103993 537.247 65.5262 13.902
7070.05 7070.05 2.950000 2.099225 535.042 65.5693 13.9492
7074.56 7074.56 2.960000 2.094354 535.708 65.9714 14.0714
7079.08 7079.08 2.980000 2.089254 543.526 67.2765 14.3886
7083.64 7083.63 2.990000 2.084399 545.032 67.7913 14.5375
7088.2 7088.19 3.000000 2.079553 546.953 68.3608 14.6993
7092.78 7092.78 3.010000 2.074676 548.462 68.8844 14.8515
7097.38 7097.38 3.030000 2.069735 551.822 69.6491 15.057
7102 7102 3.040000 2.064806 553.274 70.1776 15.212
7106.64 7106.64 3.050000 2.059912 554.588 70.6893 15.3628
7111.3 7111.3 3.060000 2.055224 555.083 71.0846 15.4809
7115.99 7115.98 3.080000 2.050753 557.513 71.7163 15.6516
7120.68 7120.68 3.090000 2.049148 556.13 71.6531 15.6654
7125.4 7125.4 3.100000 2.066881 546.881 69.2221 15.1502
7130.13 7130.13 3.110000 2.096613 535.202 65.7614 14.4159
7134.89 7134.89 3.130000 2.085977 537.858 66.7929 14.6851
7139.66 7139.66 3.140000 2.076597 543.788 68.1653 15.0283
7144.46 7144.46 3.150000 2.064085 546.471 69.3643 15.3344
7149.27 7149.27 3.160000 2.055240 550.101 70.4461 15.6169
7154.1 7154.1 3.180000 2.045018 556.02 71.9357 15.9905
7158.95 7158.95 3.190000 2.037157 558.246 72.7937 16.2256
7163.83 7163.82 3.200000 2.032739 559.596 73.2929 16.383
7168.71 7168.71 3.210000 2.030837 560.101 73.4987 16.4732
7173.62 7173.62 3.230000 2.029778 562.671 73.9142 16.6107
7178.54 7178.54 3.240000 2.026708 563.447 74.2438 16.7292
7183.49 7183.49 3.250000 2.022299 564.536 74.7158 16.8806
7188.45 7188.45 3.260000 2.017059 565.281 75.2074 17.0379
7193.44 7193.44 3.280000 2.011801 568.724 76.0646 17.2794
7198.44 7198.44 3.290000 2.006317 570.19 76.6797 17.4664
7203.46 7203.46 3.300000 2.000227 572.103 77.4071 17.6811
7208.5 7208.5 3.310000 1.993631 573.829 78.1544 17.9002
7213.56 7213.56 3.330000 1.987310 577.006 79.0855 18.1632
7218.64 7218.64 3.340000 1.981478 578.145 79.7051 18.3553
7223.74 7223.74 3.350000 1.976101 579.067 80.2625 18.5359
7228.86 7228.86 3.360000 1.970986 581.418 81.0016 18.76
7233.99 7233.99 3.380000 1.965847 584.045 81.7869 18.9941
7239.15 7239.15 3.390000 1.960711 585.031 82.3469 19.1774
7244.33 7244.32 3.400000 1.955645 586.681 82.9988 19.3822
7249.52 7249.52 3.410000 1.950811 586.962 83.4405 19.5382
7254.73 7254.73 3.430000 1.945735 585.153 83.6066 19.6305
7259.96 7259.96 3.440000 1.941062 590.263 84.7317 19.9478
7265.21 7265.21 3.450000 1.936218 590.598 85.1917 20.1118
7270.48 7270.48 3.460000 1.930922 596.081 86.4393 20.463
7275.77 7275.77 3.480000 1.925670 599.374 87.3747 20.7401
7281.08 7281.08 3.490000 1.920449 589.632 86.4041 20.5661