File: xdidata/Mn/Mn-K-Tephroite.xdi
# XDI/1.0 BlueSky/1.5.3
# Beamline.name: 6BM
# Beamline.xray_source: NSLS-II three-pole wiggler
# Beamline.collimation: paraboloid mirror, 5 nm Rh on 30 nm Pt
# Beamline.focusing: not in use
# Beamline.harmonic_rejection: flat mirror, Si stripe, pitch = 7.0 mrad relative to beam
# Detector.i0: 10 cm N2
# Detector.i1: 25 cm N2
# Detector.i2: 25 cm N2
# Element.symbol: Mn
# Element.edge: K
# Facility.name: NSLS-II
# Facility.energy: 3.0
# Facility.current: 400.7
# Facility.mode: top-off
# Facility.gup: 305081
# Facility.saf: 305123
# Mono.name: Si(111)
# Mono.d_spacing: 3.13532
# Mono.encoder_resolution: 0.0000050 deg/ct
# Mono.angle_offset: 16.0581 deg
# Mono.scan_mode: fixed exit
# Mono.scan_type: step
# Mono.direction: forward in energy
# Sample.name: Mn2SiO4
# Sample.prep: Powder in polyethylene glycol pellet
# Sample.x_position: -120.140 mm
# Sample.y_position: 112.312 mm
# Scan.experimenters: Neil Hyatt, Martin Stennett, Lucy Mottram
# Scan.edge_energy: 6539.0
# Scan.start_time: 2019-11-11T17:55:26
# Scan.end_time: 2019-11-12T04:35:59
# Scan.transient_id: 17907
# Scan.uid: f9fee9a5-b81b-4432-9f03-38e695c9cebd
# Scan.plot_hint: ln(I0/It)  --  ln($5/$6)
# Scan.sequence: merge of 3 scans
# Column.1: energy eV
# Column.2: requested_energy eV
# Column.3: measurement_time seconds
# Column.4: mutrans
# Column.5: i0
# Column.6: itrans
# Column.7: irefer
# /////
#  Franklin, Sussex Co., NJ
# -----
# energy   requested_energy   measurement_time   mutrans   i0   itrans   irefer
6339 6339 0.500000 1.997742 89.6172 12.1559 2.789926
6349.02 6349 0.500000 1.985524 89.7647 12.3256 2.848614
6359.01 6359 0.500000 1.973440 90.0526 12.5154 2.912686
6369.02 6369 0.500000 1.961492 90.2977 12.7004 2.975949
6379.02 6379 0.500000 1.949588 90.481 12.8785 3.038669
6389.02 6389 0.500000 1.937625 90.6302 13.0549 3.101184
6399.02 6399 0.500000 1.925860 90.7773 13.2309 3.164505
6409.02 6409 0.500000 1.914053 90.9455 13.4129 3.229231
6419.02 6419 0.500000 1.902494 91.0734 13.5879 3.293497
6429.01 6429 0.500000 1.890929 91.1925 13.7638 3.358809
6439.01 6439 0.500000 1.879461 91.3178 13.9417 3.424120
6449.01 6449 0.500000 1.868048 91.2953 14.0983 3.484898
6459.01 6459 0.500000 1.856901 91.2577 14.2504 3.545314
6469 6469 0.500000 1.845585 91.6575 14.4757 3.624131
6479.01 6479 0.500000 1.834495 91.813 14.662 3.694779
6489 6489 0.500000 1.823319 91.9805 14.8537 3.765695
6499 6499 0.500000 1.812517 92.134 15.0401 3.836892
6508.93 6509 0.500000 1.801849 92.2257 15.216 3.902235
6510.99 6511 0.500000 1.800041 92.2972 15.2559 3.916667
6512.99 6513 0.500000 1.798111 92.3198 15.2891 3.929474
6514.99 6515 0.500000 1.795938 92.3426 15.3262 3.942505
6516.99 6517 0.500000 1.794099 92.3855 15.3616 3.955963
6519.5 6519 0.500000 1.791949 92.4286 15.4065 3.971689
6520.98 6521 0.500000 1.790191 92.4563 15.4334 3.980814
6523.2 6523 0.500000 1.788374 92.4908 15.4681 3.992989
6524.98 6525 0.500000 1.786575 92.471 15.4906 4.000169
6526.98 6527 0.500000 1.785016 92.5294 15.5257 4.010372
6528.98 6529 0.500000 1.783562 92.5412 15.5504 4.016440
6529.09 6529.1 0.500000 1.783570 92.5365 15.5492 4.015865
6529.19 6529.2 0.500000 1.783428 92.5425 15.5516 4.016986
6529.3 6529.3 0.500000 1.783365 92.533 15.5522 4.016368
6529.41 6529.4 0.500000 1.783249 92.5326 15.554 4.016147
6529.56 6529.5 0.500000 1.783211 92.5287 15.5546 4.016695
6529.58 6529.6 0.500000 1.783181 92.5266 15.5539 4.016550
6529.68 6529.7 0.500000 1.783092 92.5282 15.5555 4.017349
6529.78 6529.8 0.500000 1.783005 92.5115 15.5541 4.016526
6529.88 6529.9 0.500000 1.782954 92.5088 15.5544 4.015814
6529.98 6530 0.500000 1.782872 92.5106 15.556 4.016665
6530.09 6530.1 0.500000 1.782857 92.5105 15.5562 4.016904
6530.19 6530.2 0.500000 1.782958 92.5087 15.5544 4.016512
6530.28 6530.3 0.500000 1.782773 92.5198 15.5591 4.016841
6530.39 6530.4 0.500000 1.782654 92.5068 15.5587 4.016902
6530.49 6530.5 0.500000 1.782668 92.4968 15.5568 4.015838
6530.59 6530.6 0.500000 1.782553 92.493 15.558 4.015686
6530.69 6530.7 0.500000 1.782514 92.5061 15.5608 4.016233
6530.79 6530.8 0.500000 1.782438 92.5156 15.5636 4.016221
6530.89 6530.9 0.500000 1.782469 92.5095 15.5621 4.016774
6530.99 6531 0.500000 1.782387 92.5016 15.5621 4.016281
6531.09 6531.1 0.500000 1.782273 92.5052 15.5644 4.015962
6531.19 6531.2 0.500000 1.782329 92.487 15.5605 4.014887
6531.3 6531.3 0.500000 1.782215 92.4872 15.5623 4.015342
6531.4 6531.4 0.500000 1.782163 92.5089 15.5668 4.016026
6531.5 6531.5 0.500000 1.782068 92.5067 15.5679 4.015489
6531.6 6531.6 0.500000 1.782099 92.4914 15.5648 4.014211
6531.7 6531.7 0.500000 1.782098 92.4697 15.5612 4.013153
6531.8 6531.8 0.500000 1.781968 92.4738 15.5639 4.013538
6531.9 6531.9 0.500000 1.781995 92.4778 15.5642 4.012834
6532 6532 0.500000 1.781918 92.4945 15.5681 4.013621
6532.1 6532.1 0.500000 1.781927 92.4917 15.5676 4.013172
6532.2 6532.2 0.500000 1.781812 92.4903 15.5691 4.013308
6532.31 6532.3 0.500000 1.781746 92.4826 15.5688 4.012023
6532.4 6532.4 0.500000 1.781696 92.4828 15.5696 4.010955
6532.5 6532.5 0.500000 1.781718 92.4758 15.5681 4.011039
6532.61 6532.6 0.500000 1.781659 92.4694 15.568 4.010480
6532.7 6532.7 0.500000 1.781627 92.4789 15.57 4.010170
6532.81 6532.8 0.500000 1.781634 92.4849 15.5711 4.009859
6532.91 6532.9 0.500000 1.781503 92.4776 15.5717 4.009709
6533 6533 0.500000 1.781526 92.4688 15.5699 4.008201
6533.1 6533.1 0.500000 1.781527 92.4587 15.5682 4.006601
6533.2 6533.2 0.500000 1.781433 92.4506 15.5683 4.006283
6533.3 6533.3 0.500000 1.781444 92.4697 15.5714 4.005712
6533.4 6533.4 0.500000 1.781417 92.4754 15.5727 4.006003
6533.5 6533.5 0.500000 1.781400 92.485 15.5746 4.004926
6533.6 6533.6 0.500000 1.781421 92.4804 15.5735 4.003828
6533.7 6533.7 0.500000 1.781359 92.4996 15.5777 4.003942
6533.8 6533.8 0.500000 1.781295 92.5679 15.59 4.005463
6533.9 6533.9 0.500000 1.781255 92.5783 15.5924 4.004818
6534 6534 0.500000 1.781279 92.5831 15.5929 4.003992
6534.1 6534.1 0.500000 1.781293 92.5823 15.5926 4.003009
6534.2 6534.2 0.500000 1.781340 92.5812 15.5916 4.001199
6534.3 6534.3 0.500000 1.781405 92.5867 15.5915 3.999881
6534.4 6534.4 0.500000 1.781236 92.5769 15.5924 3.997490
6534.5 6534.5 0.500000 1.781293 92.5657 15.5897 3.995379
6534.6 6534.6 0.500000 1.781315 92.5749 15.5909 3.994182
6534.7 6534.7 0.500000 1.781362 92.5616 15.588 3.991510
6534.8 6534.8 0.500000 1.781451 92.5439 15.5836 3.988020
6534.9 6534.9 0.500000 1.781395 92.5685 15.5886 3.986470
6535 6535 0.500000 1.781432 92.5529 15.5854 3.984404
6535.1 6535.1 0.500000 1.781412 92.5458 15.5845 3.981367
6535.2 6535.2 0.500000 1.781456 92.5442 15.5836 3.978935
6535.3 6535.3 0.500000 1.781535 92.5635 15.5856 3.976165
6535.4 6535.4 0.500000 1.781565 92.6429 15.5985 3.975505
6535.5 6535.5 0.500000 1.781653 92.6451 15.5975 3.972114
6535.6 6535.6 0.500000 1.781698 92.6385 15.5957 3.966870
6535.7 6535.7 0.500000 1.781689 92.6586 15.5992 3.962765
6535.8 6535.8 0.500000 1.781751 92.6589 15.5984 3.959137
6535.9 6535.9 0.500000 1.781736 92.6563 15.5981 3.953286
6536.01 6536 0.500000 1.781798 92.6606 15.5979 3.946787
6536.1 6536.1 0.500000 1.781884 92.6667 15.5976 3.940418
6536.2 6536.2 0.500000 1.782058 92.64 15.5904 3.930736
6536.3 6536.3 0.500000 1.782086 92.645 15.5907 3.922025
6536.4 6536.4 0.500000 1.782207 92.6654 15.5923 3.912418
6536.5 6536.5 0.500000 1.782342 92.6551 15.5885 3.901884
6536.6 6536.6 0.500000 1.782464 92.6404 15.5841 3.887249
6536.7 6536.7 0.500000 1.782647 92.6184 15.5776 3.870378
6536.8 6536.8 0.500000 1.782787 92.6391 15.5789 3.855125
6536.9 6536.9 0.500000 1.783003 92.6473 15.5768 3.834112
6537 6537 0.500000 1.783279 92.6407 15.5715 3.810031
6537.1 6537.1 0.500000 1.783477 92.6409 15.5684 3.783781
6537.2 6537.2 0.500000 1.783763 92.6363 15.5632 3.755141
6537.3 6537.3 0.500000 1.784136 92.6506 15.5596 3.722438
6537.4 6537.4 0.500000 1.784545 92.7353 15.5677 3.692250
6537.5 6537.5 0.500000 1.784979 92.743 15.5621 3.656265
6537.6 6537.6 0.500000 1.785611 92.7367 15.5511 3.618122
6537.69 6537.7 0.500000 1.786311 92.728 15.5392 3.582036
6537.8 6537.8 0.500000 1.787066 92.7348 15.5282 3.544995
6537.9 6537.9 0.500000 1.787958 92.742 15.5155 3.509156
6538 6538 0.500000 1.789026 92.715 15.4948 3.475977
6538.1 6538.1 0.500000 1.790066 92.7018 15.4765 3.444047
6538.2 6538.2 0.500000 1.791376 92.7269 15.4599 3.414195
6538.3 6538.3 0.500000 1.792683 92.7339 15.4418 3.387624
6538.39 6538.4 0.500000 1.794093 92.7273 15.419 3.360977
6538.5 6538.5 0.500000 1.795381 92.6981 15.3933 3.334375
6538.6 6538.6 0.500000 1.796722 92.7009 15.374 3.312904
6538.7 6538.7 0.500000 1.798067 92.7197 15.3561 3.291644
6538.8 6538.8 0.500000 1.799135 92.7379 15.3424 3.272636
6538.9 6538.9 0.500000 1.800030 92.7157 15.3252 3.254397
6539 6539 0.500000 1.800760 92.7004 15.3119 3.238687
6539.1 6539.1 0.500000 1.801295 92.6896 15.3014 3.222330
6539.2 6539.2 0.500000 1.801731 92.7023 15.297 3.209540
6539.3 6539.3 0.500000 1.801802 92.7312 15.3007 3.198773
6539.4 6539.4 0.500000 1.801666 92.7242 15.3017 3.186767
6539.5 6539.5 0.500000 1.801296 92.7129 15.3054 3.176001
6539.6 6539.6 0.500000 1.800837 92.6973 15.3096 3.166499
6539.7 6539.7 0.500000 1.800234 92.6958 15.3188 3.158379
6539.81 6539.8 0.500000 1.799367 92.7115 15.3349 3.151097
6539.9 6539.9 0.500000 1.798477 92.7293 15.3512 3.145849
6540 6540 0.500000 1.797622 92.732 15.3648 3.139155
6540.1 6540.1 0.500000 1.796730 92.7154 15.3762 3.132875
6540.2 6540.2 0.500000 1.795917 92.7044 15.3864 3.126515
6540.3 6540.3 0.500000 1.795123 92.6968 15.3974 3.120590
6540.4 6540.4 0.500000 1.794590 92.7001 15.4063 3.115068
6540.5 6540.5 0.500000 1.794153 92.7177 15.416 3.110077
6540.6 6540.6 0.500000 1.793882 92.7108 15.4189 3.105525
6540.7 6540.7 0.500000 1.793764 92.7057 15.4199 3.100201
6540.8 6540.8 0.500000 1.793723 92.6972 15.4191 3.095621
6540.9 6540.9 0.500000 1.793828 92.6982 15.4176 3.091800
6541 6541 0.500000 1.794170 92.7074 15.4139 3.087519
6541.1 6541.1 0.500000 1.794553 92.6979 15.4065 3.084278
6541.2 6541.2 0.500000 1.794998 92.6861 15.3977 3.080847
6541.3 6541.3 0.500000 1.795437 92.691 15.3916 3.078352
6541.4 6541.4 0.500000 1.796148 92.6988 15.3823 3.074907
6541.5 6541.5 0.500000 1.796944 92.6845 15.3676 3.071773
6541.6 6541.6 0.500000 1.797778 92.6911 15.3553 3.068391
6541.7 6541.7 0.500000 1.798821 92.6708 15.3363 3.063892
6541.8 6541.8 0.500000 1.799865 92.683 15.3222 3.059369
6541.9 6541.9 0.500000 1.801083 92.6978 15.3059 3.054001
6542 6542 0.500000 1.802499 92.7047 15.2858 3.047845
6542.1 6542.1 0.500000 1.803900 92.6805 15.2606 3.039612
6542.2 6542.2 0.500000 1.805694 92.6733 15.2313 3.031081
6542.3 6542.3 0.500000 1.807644 92.6857 15.2038 3.021905
6542.4 6542.4 0.500000 1.809817 92.7028 15.1741 3.011702
6542.5 6542.5 0.500000 1.812085 92.6916 15.137 2.998856
6542.6 6542.6 0.500000 1.814893 92.6742 15.0924 2.985099
6542.7 6542.7 0.500000 1.817868 92.6645 15.0467 2.970485
6542.8 6542.8 0.500000 1.821122 92.6707 14.9984 2.954729
6542.9 6542.9 0.500000 1.824764 92.6899 14.9461 2.938055
6543 6543 0.500000 1.828763 92.6935 14.8872 2.920747
6543.1 6543.1 0.500000 1.833067 92.6555 14.8171 2.900370
6543.2 6543.2 0.500000 1.837818 92.652 14.7458 2.880813
6543.3 6543.3 0.500000 1.843025 92.6775 14.675 2.861379
6543.4 6543.4 0.500000 1.848532 92.6925 14.5943 2.839278
6543.5 6543.5 0.500000 1.854437 92.683 14.5061 2.816332
6543.6 6543.6 0.500000 1.860900 92.673 14.4129 2.793338
6543.7 6543.7 0.500000 1.867575 92.6811 14.3225 2.769848
6543.8 6543.8 0.500000 1.874720 92.6725 14.2134 2.743560
6543.9 6543.9 0.500000 1.882789 92.6773 14.1006 2.716388
6544 6544 0.500000 1.890864 92.6666 13.9879 2.689460
6544.1 6544.1 0.500000 1.899574 92.6515 13.861 2.658881
6544.2 6544.2 0.500000 1.908878 92.661 13.7349 2.630131
6544.3 6544.3 0.500000 1.918445 92.6668 13.6083 2.601110
6544.4 6544.4 0.500000 1.928044 92.6709 13.4746 2.569432
6544.5 6544.5 0.500000 1.938365 92.6586 13.3371 2.538019
6544.59 6544.6 0.500000 1.948371 92.6579 13.207 2.508841
6544.7 6544.7 0.500000 1.958708 92.6557 13.0663 2.477034
6544.8 6544.8 0.500000 1.969014 92.6448 12.93 2.444623
6544.9 6544.9 0.500000 1.979144 92.6332 12.8015 2.415705
6545 6545 0.500000 1.989030 92.6552 12.6765 2.385900
6545.1 6545.1 0.500000 1.998940 92.666 12.5527 2.356569
6545.2 6545.2 0.500000 2.008529 92.6685 12.4394 2.329778
6545.3 6545.3 0.500000 2.017531 92.6517 12.3215 2.302769
6545.4 6545.4 0.500000 2.026840 92.6449 12.2046 2.274184
6545.5 6545.5 0.500000 2.035562 92.633 12.0978 2.248447
6545.6 6545.6 0.500000 2.043982 92.6334 11.9991 2.224279
6545.7 6545.7 0.500000 2.052223 92.6474 11.9004 2.199829
6545.8 6545.8 0.500000 2.060404 92.6523 11.8047 2.175469
6545.9 6545.9 0.500000 2.068188 92.6358 11.7129 2.152745
6546 6546 0.500000 2.075878 92.6202 11.6187 2.128702
6546.1 6546.1 0.500000 2.083663 92.6062 11.5264 2.105100
6546.2 6546.2 0.500000 2.091092 92.6335 11.4467 2.084590
6546.3 6546.3 0.500000 2.098508 92.6453 11.3622 2.062952
6546.4 6546.4 0.500000 2.106053 92.6356 11.2758 2.040273
6546.5 6546.5 0.500000 2.113674 92.6164 11.1888 2.018329
6546.6 6546.6 0.500000 2.121167 92.6356 11.107 1.997078
6546.7 6546.7 0.500000 2.129029 92.6196 11.0162 1.973976
6546.8 6546.8 0.500000 2.136633 92.7179 10.9459 1.954846
6546.9 6546.9 0.500000 2.144241 92.7313 10.8639 1.933788
6547 6547 0.500000 2.151860 92.7468 10.7822 1.913189
6547.1 6547.1 0.500000 2.159700 92.7593 10.7016 1.891716
6547.2 6547.2 0.500000 2.167278 92.7474 10.6181 1.871453
6547.3 6547.3 0.500000 2.175107 92.7318 10.5341 1.850393
6547.4 6547.4 0.500000 2.182802 92.7093 10.4505 1.829541
6547.5 6547.5 0.500000 2.190612 92.7203 10.3721 1.809437
6547.6 6547.6 0.500000 2.198150 92.7232 10.2916 1.789188
6547.7 6547.7 0.500000 2.206031 92.7368 10.2141 1.769389
6547.79 6547.8 0.500000 2.213558 92.7353 10.1392 1.750241
6547.9 6547.9 0.500000 2.221712 92.7072 10.0512 1.728463
6548 6548 0.500000 2.229665 92.7162 9.973081 1.709499
6548.1 6548.1 0.500000 2.237576 92.7261 9.895288 1.689725
6548.2 6548.2 0.500000 2.245622 92.7121 9.812024 1.669308
6548.3 6548.3 0.500000 2.254254 92.7064 9.730099 1.649076
6548.39 6548.4 0.500000 2.262696 92.7125 9.650587 1.630304
6548.5 6548.5 0.500000 2.271498 92.7894 9.571232 1.610799
6548.6 6548.6 0.500000 2.280327 92.7821 9.486925 1.590412
6548.7 6548.7 0.500000 2.289199 92.7511 9.400799 1.571001
6548.8 6548.8 0.500000 2.297838 92.7447 9.319012 1.552022
6548.9 6548.9 0.500000 2.306906 92.7692 9.235740 1.532034
6549 6549 0.500000 2.315502 92.79 9.163039 1.515200
6549.1 6549.1 0.500000 2.324316 92.7907 9.078996 1.495823
6549.2 6549.2 0.500000 2.332930 92.7717 8.998300 1.477101
6549.3 6549.3 0.500000 2.341315 92.7665 8.925846 1.460382
6549.4 6549.4 0.500000 2.349425 92.7791 8.853725 1.443975
6549.5 6549.5 0.500000 2.357346 92.7979 8.785178 1.427773
6549.6 6549.6 0.500000 2.364752 92.7799 8.719527 1.412050
6549.7 6549.7 0.500000 2.371436 92.7313 8.656439 1.397287
6549.81 6549.8 0.500000 2.378005 92.7681 8.601794 1.383220
6549.9 6549.9 0.500000 2.383770 92.7795 8.554423 1.371416
6550 6550 0.500000 2.388756 92.7715 8.510593 1.359698
6550.11 6550.1 0.500000 2.393339 92.7753 8.471850 1.349607
6550.2 6550.2 0.500000 2.397310 92.7791 8.439122 1.340300
6550.3 6550.3 0.500000 2.400549 92.8337 8.417338 1.332354
6550.4 6550.4 0.500000 2.403241 92.8738 8.397611 1.325389
6550.5 6550.5 0.500000 2.405530 92.8786 8.379363 1.318496
6550.6 6550.6 0.500000 2.407334 92.8784 8.364325 1.312884
6550.7 6550.7 0.500000 2.408698 92.8479 8.349890 1.306166
6550.8 6550.8 0.500000 2.409634 92.844 8.341688 1.301540
6550.9 6550.9 0.500000 2.410445 92.8561 8.336154 1.297058
6551 6551 0.500000 2.411002 92.8675 8.332462 1.293281
6551.1 6551.1 0.500000 2.411297 92.874 8.330605 1.289255
6551.2 6551.2 0.500000 2.411636 92.8546 8.326070 1.284950
6551.3 6551.3 0.500000 2.411842 92.8487 8.323819 1.281313
6551.4 6551.4 0.500000 2.411869 92.8353 8.322379 1.277477
6551.5 6551.5 0.500000 2.411974 92.8582 8.323572 1.274302
6551.6 6551.6 0.500000 2.412215 92.868 8.322417 1.270991
6551.7 6551.7 0.500000 2.412400 92.8462 8.318925 1.266603
6551.8 6551.8 0.500000 2.412596 92.8407 8.316836 1.262933
6551.9 6551.9 0.500000 2.412678 92.8499 8.316961 1.260050
6552 6552 0.500000 2.412767 92.8563 8.316791 1.256923
6552.1 6552.1 0.500000 2.412779 92.8448 8.315686 1.253346
6552.2 6552.2 0.500000 2.412450 92.8057 8.314874 1.250105
6552.3 6552.3 0.500000 2.411800 92.8432 8.323722 1.248096
6552.4 6552.4 0.500000 2.410840 92.8772 8.334616 1.246782
6552.5 6552.5 0.500000 2.409467 92.853 8.344011 1.245380
6552.6 6552.6 0.500000 2.407650 92.8236 8.357031 1.244454
6552.7 6552.7 0.500000 2.405156 92.8067 8.376176 1.244512
6552.8 6552.8 0.500000 2.402389 92.8217 8.399935 1.246343
6552.9 6552.9 0.500000 2.398812 92.8527 8.433795 1.248235
6553.01 6553 0.500000 2.394828 92.8431 8.466609 1.250646
6553.1 6553.1 0.500000 2.390533 92.8359 8.501446 1.253570
6553.2 6553.2 0.500000 2.385768 92.8376 8.542980 1.257250
6553.31 6553.3 0.500000 2.380508 92.8405 8.588476 1.261561
6553.4 6553.4 0.500000 2.375080 92.8179 8.632183 1.266020
6553.5 6553.5 0.500000 2.369534 92.8121 8.680439 1.270670
6553.6 6553.6 0.500000 2.363704 92.8083 8.731344 1.276658
6553.7 6553.7 0.500000 2.358043 92.8296 8.781758 1.282208
6553.8 6553.8 0.500000 2.352528 92.8494 8.833371 1.288120
6553.9 6553.9 0.500000 2.346959 92.8369 8.880667 1.293557
6554 6554 0.500000 2.341702 92.8316 8.927558 1.299400
6554.1 6554.1 0.500000 2.336715 92.8296 8.970662 1.304699
6554.2 6554.2 0.500000 2.331909 92.833 9.015486 1.310350
6554.3 6554.3 0.500000 2.327436 92.8187 9.053301 1.315147
6554.4 6554.4 0.500000 2.323351 92.826 9.091755 1.319943
6554.5 6554.5 0.500000 2.319378 92.8289 9.128819 1.325083
6554.6 6554.6 0.500000 2.315505 92.8291 9.163443 1.329777
6554.69 6554.7 0.500000 2.312015 92.8195 9.194540 1.333274
6554.8 6554.8 0.500000 2.308410 92.8171 9.227729 1.338990
6554.9 6554.9 0.500000 2.305081 92.8305 9.260200 1.343812
6555 6555 0.500000 2.302143 92.8136 9.285979 1.347982
6555.1 6555.1 0.500000 2.299018 92.8273 9.316176 1.352500
6555.2 6555.2 0.500000 2.296113 92.8364 9.343505 1.356901
6555.29 6555.3 0.500000 2.293228 92.8282 9.369550 1.361523
6555.4 6555.4 0.500000 2.290572 92.8235 9.394307 1.366818
6555.5 6555.5 0.500000 2.287927 92.823 9.419375 1.371140
6555.6 6555.6 0.500000 2.285427 92.8307 9.443487 1.376384
6555.7 6555.7 0.500000 2.282788 92.8424 9.469944 1.381260
6555.8 6555.8 0.500000 2.280192 92.8435 9.494541 1.386650
6555.9 6555.9 0.500000 2.277865 92.8187 9.513720 1.390884
6556 6556 0.500000 2.275424 92.8126 9.536419 1.396519
6556.1 6556.1 0.500000 2.272915 92.8307 9.562851 1.402167
6556.2 6556.2 0.500000 2.270540 92.8409 9.586280 1.407282
6556.3 6556.3 0.500000 2.268197 92.835 9.608381 1.412358
6556.4 6556.4 0.500000 2.265688 92.8192 9.630891 1.418062
6556.5 6556.5 0.500000 2.263193 92.811 9.653601 1.423687
6556.6 6556.6 0.500000 2.260741 92.8296 9.679585 1.429732
6556.71 6556.7 0.500000 2.258018 92.8482 9.708496 1.436665
6556.8 6556.8 0.500000 2.255063 92.8475 9.736189 1.443183
6556.9 6556.9 0.500000 2.252230 92.832 9.762773 1.449164
6557 6557 0.500000 2.249169 92.8183 9.791472 1.455909
6557.1 6557.1 0.500000 2.245870 92.8424 9.825737 1.463695
6557.2 6557.2 0.500000 2.242724 92.8504 9.857339 1.470960
6557.3 6557.3 0.500000 2.239141 92.8394 9.892231 1.478364
6557.4 6557.4 0.500000 2.235325 92.8346 9.929527 1.486417
6557.5 6557.5 0.500000 2.231731 92.826 9.963636 1.493454
6557.6 6557.6 0.500000 2.227849 92.8371 10.0047 1.501644
6557.7 6557.7 0.500000 2.223902 92.8502 10.0453 1.509964
6557.8 6557.8 0.500000 2.220114 92.8367 10.0818 1.517105
6557.9 6557.9 0.500000 2.216103 92.8379 10.1229 1.525468
6558 6558 0.500000 2.212243 92.833 10.1607 1.533486
6558.1 6558.1 0.500000 2.208578 92.8323 10.1981 1.540742
6558.2 6558.2 0.500000 2.204794 92.842 10.2383 1.548429
6558.3 6558.3 0.500000 2.201068 92.8327 10.2754 1.555839
6558.4 6558.4 0.500000 2.197517 92.823 10.3103 1.563096
6558.5 6558.5 0.500000 2.194221 92.8296 10.3454 1.569157
6558.6 6558.6 0.500000 2.190749 92.8393 10.3824 1.576336
6558.7 6558.7 0.500000 2.187625 92.8337 10.4143 1.583512
6558.8 6558.8 0.500000 2.184688 92.8393 10.4455 1.588772
6558.9 6558.9 0.500000 2.181856 92.8447 10.4754 1.594666
6559 6559 0.500000 2.179445 92.8343 10.4996 1.600166
6559.1 6559.1 0.500000 2.177274 92.8224 10.5209 1.603657
6559.2 6559.2 0.500000 2.175259 92.8285 10.5432 1.608315
6559.3 6559.3 0.500000 2.173441 92.8445 10.5646 1.612943
6559.4 6559.4 0.500000 2.171895 92.8449 10.5804 1.616155
6559.5 6559.5 0.500000 2.170593 92.8342 10.5934 1.618424
6559.6 6559.6 0.500000 2.169459 92.8208 10.6037 1.620833
6559.7 6559.7 0.500000 2.168483 92.8188 10.6139 1.622362
6559.8 6559.8 0.500000 2.167769 92.8155 10.621 1.624825
6559.9 6559.9 0.500000 2.167198 92.8414 10.6301 1.626563
6560 6560 0.500000 2.166674 92.8226 10.6336 1.627123
6560.1 6560.1 0.500000 2.166218 92.8228 10.6383 1.627348
6560.2 6560.2 0.500000 2.166014 92.8067 10.6387 1.628519
6560.3 6560.3 0.500000 2.165840 92.787 10.6382 1.628987
6560.4 6560.4 0.500000 2.165785 92.7805 10.6381 1.628895
6560.51 6560.5 0.500000 2.165772 92.7617 10.6361 1.628775
6560.6 6560.6 0.500000 2.165793 92.7394 10.6332 1.628059
6560.7 6560.7 0.500000 2.165952 92.7134 10.6286 1.628166
6560.8 6560.8 0.500000 2.165904 92.6806 10.6253 1.627297
6560.9 6560.9 0.500000 2.165976 92.6711 10.6235 1.625781
6560.99 6561 0.500000 2.166133 92.6765 10.6225 1.626334
6561.1 6561.1 0.500000 2.166239 92.731 10.6276 1.626785
6561.2 6561.2 0.500000 2.166264 92.7795 10.6329 1.627557
6561.3 6561.3 0.500000 2.166224 92.8072 10.6365 1.627566
6561.4 6561.4 0.500000 2.166104 92.8389 10.6414 1.628170
6561.5 6561.5 0.500000 2.166064 92.8691 10.6453 1.628146
6561.6 6561.6 0.500000 2.166048 93.0232 10.6631 1.630704
6561.7 6561.7 0.500000 2.165864 93.035 10.6665 1.631114
6561.8 6561.8 0.500000 2.165771 93.0252 10.6664 1.631216
6561.9 6561.9 0.500000 2.165618 93.0196 10.6673 1.630292
6562 6562 0.500000 2.165522 93.0387 10.6706 1.630602
6562.1 6562.1 0.500000 2.165392 93.0186 10.6696 1.630165
6562.19 6562.2 0.500000 2.165352 93.025 10.6707 1.629724
6562.3 6562.3 0.500000 2.165288 93.0301 10.6721 1.629463
6562.4 6562.4 0.500000 2.165289 93.027 10.6717 1.629161
6562.5 6562.5 0.500000 2.165389 93.0269 10.6707 1.628549
6562.6 6562.6 0.500000 2.165411 93.0445 10.6724 1.628401
6562.7 6562.7 0.500000 2.165522 93.041 10.6708 1.627312
6562.8 6562.8 0.500000 2.165696 93.0387 10.6687 1.627277
6562.9 6562.9 0.500000 2.165923 93.0299 10.6652 1.625653
6563 6563 0.500000 2.166130 93.0193 10.6619 1.624990
6563.1 6563.1 0.500000 2.166383 93.0241 10.6597 1.624072
6563.2 6563.2 0.500000 2.166718 93.0317 10.6569 1.623133
6563.3 6563.3 0.500000 2.166984 93.0353 10.6546 1.622969
6563.4 6563.4 0.500000 2.167324 93.1266 10.6614 1.623606
6563.5 6563.5 0.500000 2.167511 93.1304 10.6599 1.622648
6563.6 6563.6 0.500000 2.167798 93.142 10.6581 1.621902
6563.7 6563.7 0.500000 2.168097 93.1488 10.6557 1.621807
6563.8 6563.8 0.500000 2.168265 93.1498 10.654 1.620585
6563.9 6563.9 0.500000 2.168553 93.1338 10.6492 1.619516
6564 6564 0.500000 2.168919 93.1367 10.6457 1.618907
6564.1 6564.1 0.500000 2.168996 93.1266 10.6436 1.618416
6564.19 6564.2 0.500000 2.169104 93.1283 10.6427 1.618023
6564.3 6564.3 0.500000 2.169254 93.1316 10.6415 1.617630
6564.4 6564.4 0.500000 2.169349 93.1419 10.6416 1.617246
6564.5 6564.5 0.500000 2.169397 93.1274 10.6395 1.616804
6564.6 6564.6 0.500000 2.169274 93.1249 10.6404 1.616728
6564.7 6564.7 0.500000 2.169056 93.1231 10.6425 1.616531
6564.79 6564.8 0.500000 2.168811 93.125 10.6453 1.617425
6564.9 6564.9 0.500000 2.168602 93.1135 10.6463 1.617373
6565 6565 0.500000 2.168293 93.1326 10.6519 1.617933
6565.1 6565.1 0.500000 2.167859 93.117 10.6546 1.618210
6565.2 6565.2 0.500000 2.167337 93.1169 10.6602 1.618880
6565.3 6565.3 0.500000 2.166767 93.127 10.6674 1.619924
6565.4 6565.4 0.500000 2.166181 93.1399 10.6752 1.621277
6565.5 6565.5 0.500000 2.165518 93.1271 10.6809 1.621852
6565.6 6565.6 0.500000 2.164764 93.1116 10.6873 1.622708
6565.7 6565.7 0.500000 2.163980 93.0912 10.6934 1.623273
6565.8 6565.8 0.500000 2.163174 93.0958 10.7024 1.624783
6565.9 6565.9 0.500000 2.162346 93.1146 10.7136 1.626743
6566.01 6566 0.500000 2.161413 93.1247 10.725 1.629198
6566.1 6566.1 0.500000 2.160521 93.1307 10.7352 1.630263
6566.2 6566.2 0.500000 2.159512 93.1197 10.7445 1.631749
6566.3 6566.3 0.500000 2.158621 93.1109 10.7529 1.633043
6566.4 6566.4 0.500000 2.157632 93.0898 10.7606 1.633374
6566.5 6566.5 0.500000 2.156665 93.0921 10.7716 1.635816
6566.6 6566.6 0.500000 2.155722 93.0987 10.7826 1.637964
6566.7 6566.7 0.500000 2.154845 93.1176 10.7942 1.639769
6566.8 6566.8 0.500000 2.153884 93.0915 10.8015 1.640329
6566.9 6566.9 0.500000 2.153105 93.0952 10.8103 1.642578
6567 6567 0.500000 2.152200 93.0969 10.8207 1.643692
6567.1 6567.1 0.500000 2.151304 93.0779 10.8279 1.645453
6567.2 6567.2 0.500000 2.150236 93.0922 10.8411 1.647050
6567.3 6567.3 0.500000 2.149397 93.0916 10.85 1.648384
6567.4 6567.4 0.500000 2.148476 93.0966 10.8603 1.650373
6567.5 6567.5 0.500000 2.147532 93.0931 10.8706 1.652399
6567.6 6567.6 0.500000 2.146617 93.0901 10.8802 1.653981
6567.7 6567.7 0.500000 2.145744 93.0988 10.8908 1.655640
6567.8 6567.8 0.500000 2.144742 93.0741 10.8987 1.656679
6567.9 6567.9 0.500000 2.143864 93.0816 10.9091 1.658851
6568 6568 0.500000 2.142837 93.0816 10.9203 1.661236
6568.1 6568.1 0.500000 2.141910 93.0631 10.9284 1.662346
6568.2 6568.2 0.500000 2.140935 93.0721 10.9401 1.663770
6568.3 6568.3 0.500000 2.140032 93.0951 10.9528 1.666321
6568.41 6568.4 0.500000 2.139110 93.0998 10.9637 1.668280
6568.5 6568.5 0.500000 2.138134 93.0718 10.9708 1.669775
6568.6 6568.6 0.500000 2.137261 93.0412 10.9768 1.670719
6568.71 6568.7 0.500000 2.136361 93.0385 10.9867 1.672349
6568.8 6568.8 0.500000 2.135329 93.0629 11.0008 1.675136
6568.9 6568.9 0.500000 2.134462 93.3147 11.04 1.681496
6569.01 6569 0.700000 2.133436 130.309 15.4328 2.350143
6570.09 6570.08 0.710000 2.122862 132.161 15.8176 2.412546
6571.2 6571.18 0.730000 2.112417 135.895 16.4352 2.508771
6572.29 6572.29 0.740000 2.103428 137.74 16.8093 2.566879
6573.43 6573.43 0.750000 2.097289 139.65 17.1469 2.616948
6574.59 6574.58 0.760000 2.095326 141.519 17.411 2.652971
6575.77 6575.76 0.780000 2.097136 145.224 17.8345 2.710540
6576.96 6576.95 0.790000 2.101263 147.125 17.9936 2.726911
6578.17 6578.16 0.800000 2.106292 149.051 18.1378 2.740714
6579.4 6579.39 0.810000 2.112510 150.9 18.249 2.748872
6580.65 6580.64 0.830000 2.118568 154.63 18.587 2.791890
6581.92 6581.91 0.840000 2.123745 156.54 18.7195 2.803137
6583.21 6583.2 0.850000 2.128495 158.42 18.8544 2.817244
6584.52 6584.51 0.860000 2.133189 160.253 18.9835 2.835557
6585.85 6585.83 0.880000 2.139601 164.024 19.3056 2.890734
6587.19 6587.18 0.890000 2.147285 165.651 19.348 2.908916
6588.55 6588.54 0.900000 2.154800 167.786 19.4505 2.942422
6589.94 6589.93 0.910000 2.160924 169.633 19.5447 2.973117
6591.34 6591.33 0.930000 2.164723 173.428 19.9063 3.043352
6592.76 6592.75 0.940000 2.167958 175.338 20.0605 3.080888
6594.2 6594.19 0.950000 2.172382 177.199 20.1842 3.112474
6595.66 6595.65 0.960000 2.170082 179.132 20.4512 3.168810
6597.13 6597.13 0.980000 2.163132 182.861 21.022 3.271568
6598.64 6598.63 0.990000 2.157498 184.79 21.3641 3.336475
6600.15 6600.14 1.000000 2.153372 186.86 21.6926 3.395357
6601.69 6601.68 1.010000 2.151117 188.364 21.9167 3.433307
6603.24 6603.24 1.030000 2.149938 192.471 22.421 3.512008
6604.82 6604.81 1.040000 2.147733 194.443 22.7009 3.553226
6606.4 6606.4 1.050000 2.142845 196.269 23.026 3.599711
6608.02 6608.01 1.060000 2.135872 198.197 23.4152 3.656245
6609.66 6609.65 1.080000 2.127658 201.988 24.0598 3.749354
6611.31 6611.3 1.090000 2.119206 203.867 24.4893 3.809062
6612.98 6612.97 1.100000 2.111859 205.725 24.8948 3.866914
6614.66 6614.65 1.110000 2.105912 207.668 25.2801 3.923061
6616.37 6616.36 1.130000 2.101125 211.51 25.8714 4.013515
6618.1 6618.09 1.140000 2.097626 213.588 26.2171 4.069518
6619.84 6619.83 1.150000 2.095328 215.482 26.5107 4.119611
6621.61 6621.6 1.160000 2.093792 217.393 26.7868 4.169196
6623.39 6623.38 1.180000 2.092645 221.179 27.2846 4.255232
6625.19 6625.18 1.190000 2.091779 223.09 27.5441 4.306098
6627.01 6627 1.200000 2.090739 224.984 27.8069 4.358727
6628.84 6628.84 1.210000 2.089096 226.671 28.0613 4.409920
6630.71 6630.7 1.230000 2.087136 230.652 28.6103 4.506517
6632.59 6632.58 1.240000 2.085621 232.556 28.8902 4.559233
6634.49 6634.48 1.250000 2.084872 234.498 29.1533 4.607539
6636.41 6636.4 1.260000 2.084864 236.575 29.4119 4.650392
6638.34 6638.33 1.280000 2.085085 240.371 29.8772 4.726416
6640.3 6640.29 1.290000 2.084772 242.204 30.1145 4.768291
6642.27 6642.26 1.300000 2.083047 244.203 30.4154 4.821810
6644.27 6644.26 1.310000 2.080061 246.033 30.735 4.883630
6646.28 6646.27 1.330000 2.076797 249.888 31.3186 4.989229
6648.3 6648.3 1.340000 2.073708 251.79 31.6545 5.058138
6650.36 6650.35 1.350000 2.070992 253.684 31.9795 5.125119
6652.43 6652.42 1.360000 2.068718 255.576 32.2913 5.189836
6654.52 6654.51 1.380000 2.066458 259.333 32.8401 5.291702
6656.62 6656.61 1.390000 2.064173 261.25 33.1586 5.353837
6658.75 6658.74 1.400000 2.062178 263.182 33.4706 5.413469
6660.9 6660.89 1.410000 2.060690 265.139 33.7697 5.468393
6663.06 6663.05 1.430000 2.059772 268.878 34.2773 5.554143
6665.24 6665.23 1.440000 2.059554 270.781 34.5275 5.596556
6667.45 6667.44 1.450000 2.059336 272.789 34.7912 5.638640
6669.67 6669.66 1.460000 2.058830 274.602 35.04 5.680037
6671.91 6671.9 1.480000 2.057689 278.405 35.5661 5.764237
6674.16 6674.16 1.490000 2.055497 280.4 35.8995 5.820927
6676.45 6676.44 1.500000 2.052364 282.221 36.2458 5.880660
6678.75 6678.74 1.510000 2.048444 284.197 36.6435 5.951663
6681.06 6681.05 1.530000 2.044198 288.085 37.303 6.068113
6683.39 6683.39 1.540000 2.039602 289.82 37.7001 6.143706
6685.74 6685.74 1.550000 2.035337 291.741 38.112 6.222612
6688.12 6688.12 1.560000 2.031852 293.708 38.5031 6.302378
6690.51 6690.51 1.580000 2.028722 297.423 39.1123 6.419467
6692.92 6692.92 1.590000 2.025485 299.312 39.4882 6.500739
6695.35 6695.35 1.600000 2.022213 301.329 39.8848 6.586756
6697.8 6697.8 1.610000 2.019028 303.099 40.2471 6.668284
6700.27 6700.27 1.630000 2.015845 306.885 40.8794 6.792831
6702.76 6702.76 1.640000 2.012632 308.856 41.2747 6.878718
6705.27 6705.27 1.650000 2.009179 310.685 41.6624 6.962433
6707.79 6707.79 1.660000 2.005399 312.586 42.0759 7.048797
6710.34 6710.34 1.680000 2.001426 316.293 42.7448 7.174838
6712.9 6712.9 1.690000 1.997562 318.273 43.1791 7.259405
6715.49 6715.49 1.700000 1.994057 320.1 43.579 7.337769
6718.09 6718.09 1.710000 1.990958 322.012 43.9755 7.415033
6720.7 6720.71 1.730000 1.988129 325.714 44.6071 7.530878
6723.35 6723.35 1.740000 1.985377 327.556 44.9828 7.604628
6726.01 6726.01 1.750000 1.982887 329.422 45.352 7.676150
6728.69 6728.69 1.760000 1.980691 331.336 45.7158 7.747455
6731.39 6731.39 1.780000 1.978620 335.085 46.329 7.861273
6734.11 6734.11 1.790000 1.976295 336.897 46.6877 7.932196
6736.84 6736.84 1.800000 1.973666 338.72 47.0638 8.008036
6739.6 6739.6 1.810000 1.970755 340.683 47.4746 8.091569
6742.37 6742.37 1.830000 1.967892 344.205 48.1031 8.215457
6745.17 6745.17 1.840000 1.965297 346.274 48.5177 8.303670
6747.98 6747.98 1.850000 1.962842 348.414 48.9373 8.396527
6750.81 6750.81 1.860000 1.960381 350.293 49.3226 8.485014
6753.66 6753.66 1.880000 1.957564 353.878 49.9679 8.617669
6756.54 6756.53 1.890000 1.954630 355.682 50.37 8.710011
6759.42 6759.42 1.900000 1.951472 357.495 50.787 8.803720
6762.31 6762.32 1.910000 1.947878 359.163 51.2075 8.897026
6765.26 6765.25 1.930000 1.943817 362.954 51.9589 9.048967
6768.2 6768.2 1.940000 1.939476 364.988 52.4775 9.159991
6771.16 6771.16 1.950000 1.935227 367.091 53.0046 9.275018
6774.14 6774.14 1.960000 1.931186 368.84 53.4725 9.380212
6777.15 6777.15 1.980000 1.927317 372.53 54.2171 9.535487
6780.17 6780.17 1.990000 1.923666 374.225 54.6629 9.640065
6783.21 6783.21 2.000000 1.920230 376.145 55.1324 9.748661
6786.27 6786.27 2.010000 1.917121 377.8 55.5474 9.846219
6789.35 6789.35 2.030000 1.914336 381.667 56.2727 9.999724
6792.45 6792.45 2.040000 1.911309 380.486 56.2686 10.0216
6795.56 6795.56 2.050000 1.908520 384.385 57.004 10.1746
6798.71 6798.7 2.060000 1.905264 387.257 57.6172 10.3068
6801.85 6801.85 2.080000 1.901561 391.012 58.3916 10.4648
6805.04 6805.03 2.090000 1.897547 392.913 58.9116 10.576
6808.23 6808.22 2.100000 1.893475 394.856 59.4446 10.6902
6811.43 6811.43 2.110000 1.889152 371.761 56.21 10.1259
6814.66 6814.66 2.130000 1.885865 398.239 60.4117 10.9026
6817.92 6817.92 2.140000 1.882250 401.199 61.0812 11.0439
6821.18 6821.18 2.150000 1.878163 389.813 59.5905 10.7938
6824.47 6824.47 2.160000 1.875542 402.086 61.6283 11.1866
6827.78 6827.78 2.180000 1.872255 406.977 62.5831 11.386
6831.11 6831.11 2.190000 1.868861 408.911 63.0943 11.5065
6834.46 6834.45 2.200000 1.865594 410.492 63.5457 11.6162
6837.82 6837.82 2.210000 1.862127 411.732 63.9588 11.7229
6841.2 6841.2 2.230000 1.859114 406.458 63.3303 11.6379
6844.6 6844.6 2.240000 1.855109 416.609 65.1718 12.0044
6848.03 6848.03 2.250000 1.851463 418.272 65.6711 12.1295
6851.47 6851.47 2.260000 1.847842 420.051 66.1901 12.2574
6854.94 6854.93 2.280000 1.844347 423.402 66.9516 12.4313
6858.41 6858.4 2.290000 1.840711 425.218 67.4838 12.5629
6861.91 6861.9 2.300000 1.837482 425.885 67.8085 12.6574
6865.43 6865.42 2.310000 1.833817 427.925 68.3832 12.797
6868.97 6868.96 2.330000 1.830186 431.838 69.2596 12.9953
6872.52 6872.51 2.340000 1.826520 433.628 69.8018 13.1292
6876.1 6876.09 2.350000 1.822848 435.656 70.3864 13.2729
6879.68 6879.68 2.360000 1.819177 437.175 70.8914 13.4002
6883.29 6883.29 2.380000 1.815310 441.419 71.8569 13.6163
6886.93 6886.92 2.390000 1.811348 443.283 72.4471 13.7591
6890.57 6890.57 2.400000 1.807407 444.962 73.0085 13.8973
6894.24 6894.24 2.410000 1.803492 446.919 73.6171 14.0455
6897.93 6897.93 2.430000 1.799710 450.409 74.4732 14.2417
6901.64 6901.64 2.440000 1.795901 452.079 75.0347 14.3821
6905.36 6905.36 2.450000 1.792080 453.866 75.6198 14.5283
6909.11 6909.11 2.460000 1.788328 455.238 76.1333 14.6594
6912.87 6912.87 2.480000 1.784647 458.911 77.0306 14.8662
6916.66 6916.66 2.490000 1.780919 460.679 77.6157 15.0149
6920.46 6920.46 2.500000 1.777039 462.33 78.1964 15.1631
6924.28 6924.28 2.510000 1.773207 463.753 78.7384 15.3048
6928.13 6928.12 2.530000 1.769374 467.567 79.6911 15.5296
6931.99 6931.98 2.540000 1.765396 469.001 80.2542 15.6782
6935.87 6935.86 2.550000 1.761331 470.726 80.8776 15.8404
6939.77 6939.76 2.560000 1.757390 472.613 81.5227 16.0056
6943.69 6943.68 2.580000 1.753499 476.408 82.4975 16.2372
6947.61 6947.61 2.590000 1.749670 477.751 83.0474 16.3867
6951.57 6951.57 2.600000 1.745868 479.388 83.6494 16.5495
6955.55 6955.54 2.610000 1.742050 481.044 84.2594 16.7114
6959.55 6959.54 2.630000 1.738236 484.402 85.172 16.9376
6963.55 6963.55 2.640000 1.734360 486.147 85.8107 17.1105
6967.58 6967.58 2.650000 1.730440 488.018 86.4792 17.2898
6971.63 6971.63 2.660000 1.726504 489.564 87.0954 17.4588
6975.7 6975.7 2.680000 1.722467 493.042 88.0688 17.7007
6979.79 6979.79 2.690000 1.718456 494.574 88.6976 17.875
6983.9 6983.9 2.700000 1.714602 496.105 89.3156 18.0458
6988.02 6988.02 2.710000 1.710638 497.741 89.9661 18.224
6992.18 6992.17 2.730000 1.706719 500.993 90.91 18.4633
6996.33 6996.33 2.740000 1.702772 502.695 91.5792 18.6454
7000.53 7000.52 2.750000 1.698914 503.964 92.1657 18.8133
7004.73 7004.72 2.760000 1.694910 505.83 92.8775 19.0041
7008.95 7008.94 2.780000 1.690949 508.985 93.828 19.2482
7013.19 7013.18 2.790000 1.686914 510.392 94.4681 19.4267
7017.45 7017.44 2.800000 1.682816 511.992 95.1533 19.6162
7021.73 7021.72 2.810000 1.678695 513.399 95.8087 19.8027
7026.03 7026.02 2.830000 1.674754 516.655 96.7977 20.0561
7030.35 7030.34 2.840000 1.670685 517.884 97.423 20.2383
7034.68 7034.67 2.850000 1.666637 519.454 98.1142 20.4342
7039.03 7039.03 2.860000 1.662482 520.809 98.7799 20.6273
7043.4 7043.4 2.880000 1.658336 524.083 99.8137 20.8994
7047.8 7047.8 2.890000 1.654355 525.203 100.426 21.0815
7052.21 7052.21 2.900000 1.650274 526.789 101.141 21.2879
7056.65 7056.64 2.910000 1.646103 528.149 101.826 21.4886
7061.1 7061.09 2.930000 1.641944 529.712 102.553 21.6994
7065.57 7065.56 2.940000 1.637943 533.091 103.621 21.984
7070.06 7070.05 2.950000 1.633885 530.64 103.564 22.0295
7074.56 7074.56 2.960000 1.629680 531.284 104.127 22.2065
7079.09 7079.08 2.980000 1.625483 538.956 106.075 22.6852
7083.64 7083.63 2.990000 1.621344 539.909 106.703 22.8799
7088.2 7088.19 3.000000 1.617116 541.807 107.532 23.1198
7092.78 7092.78 3.010000 1.612915 543.603 108.341 23.3567
7097.38 7097.38 3.030000 1.608823 547.079 109.481 23.664
7102 7102 3.040000 1.604710 548.31 110.18 23.8789
7106.65 7106.64 3.050000 1.600575 549.632 110.903 24.0988
7111.31 7111.3 3.060000 1.596964 550.096 111.398 24.257
7115.99 7115.98 3.080000 1.593549 552.36 112.238 24.4899
7120.68 7120.68 3.090000 1.598742 551.723 111.529 24.3791
7125.4 7125.4 3.100000 1.613569 542.504 108.052 23.643
7130.13 7130.13 3.110000 1.611451 530.713 105.927 23.2163
7134.9 7134.89 3.130000 1.602645 533.23 107.37 23.6021
7139.66 7139.66 3.140000 1.597366 539.192 109.146 24.0558
7144.47 7144.46 3.150000 1.591055 542.068 110.423 24.4068
7149.28 7149.27 3.160000 1.584683 545.579 111.849 24.7908
7154.1 7154.1 3.180000 1.579599 551.372 113.613 25.2509
7158.95 7158.95 3.190000 1.575725 553.348 114.462 25.5068
7163.82 7163.82 3.200000 1.573202 554.206 114.929 25.6824
7168.71 7168.71 3.210000 1.570693 554.629 115.306 25.8366
7173.63 7173.62 3.230000 1.567246 557.22 116.245 26.1174
7178.54 7178.54 3.240000 1.562989 558.016 116.908 26.3378
7183.5 7183.49 3.250000 1.558522 558.924 117.622 26.5676
7188.46 7188.45 3.260000 1.553791 559.78 118.361 26.8081
7193.44 7193.44 3.280000 1.549005 562.948 119.601 27.1637
7198.44 7198.44 3.290000 1.544350 564.533 120.497 27.4407
7203.47 7203.46 3.300000 1.539801 566.221 121.409 27.7265
7208.51 7208.5 3.310000 1.535545 568.073 122.326 28.0121
7213.56 7213.56 3.330000 1.531405 571.363 123.545 28.3689
7218.64 7218.64 3.340000 1.527137 572.156 124.245 28.6064
7223.74 7223.74 3.350000 1.522761 572.859 124.943 28.8488
7228.87 7228.86 3.360000 1.518361 575.328 126.035 29.1834
7233.99 7233.99 3.380000 1.513854 578.031 127.199 29.5338
7239.15 7239.15 3.390000 1.509586 578.831 127.92 29.7849
7244.32 7244.32 3.400000 1.505351 580.336 128.797 30.0709
7249.52 7249.52 3.410000 1.501093 580.619 129.409 30.2943
7254.73 7254.73 3.430000 1.496664 578.755 129.566 30.4126
7259.97 7259.96 3.440000 1.492560 584.108 131.303 30.9067
7265.21 7265.21 3.450000 1.488479 583.818 131.774 31.1015
7270.49 7270.48 3.460000 1.484072 589.532 133.652 31.6306
7275.77 7275.77 3.480000 1.479685 593.136 135.059 32.0513
7281.08 7281.08 3.490000 1.475213 583.926 133.557 31.7801