File: xdidata/Mn/Mn-Manganosite.xdi
# XDI/1.0 BlueSky/1.10.0 BMM/2023-1.0-py310-tiled
# Beamline.name: BMM (06BM) -- Beamline for Materials Measurement (NIST)
# Beamline.xray_source: NSLS-II three-pole wiggler
# Beamline.collimation: paraboloid mirror, 5 nm Rh on 30 nm Pt
# Beamline.focusing: not in use
# Beamline.harmonic_rejection: flat mirror, Si stripe, pitch = 7.0 mrad relative to beam
# Beamline.software: Bluesky 1.10.0, Ophyd 1.7.0, DataBroker 2.0.0b13, Python 3.10.8, 2023-1.0-py310-tiled
# Detector.I0: 10 cm N2
# Detector.I1: 25 cm N2
# Detector.I2: 25 cm N2
# Element.symbol: Mn
# Element.edge: K
# Element.reference: Mn
# Element.reference_material: Mn metal powder
# Facility.name: NSLS-II
# Facility.energy: 3.0
# Facility.current: 400.6
# Facility.mode: top-off
# Facility.GUP: 123456
# Facility.SAF: 301027
# Facility.cycle: 2023-2
# Mono.name: Si(111)
# Mono.d_spacing: 3.13519
# Mono.encoder_resolution: 0.0000050 deg/ct
# Mono.angle_offset: 16.0754 deg
# Mono.scan_mode: pseudo channel cut
# Mono.scan_type: step
# Mono.direction: forward in energy
# Sample.name: MnO
# Sample.prep: powder on tape
# Sample.x: 123.848 mm
# Sample.y: 114.690 mm
# Sample.SDD_position: 205.000 mm
# Scan.experimenters: Bruce Ravel
# Scan.edge_energy: 6539.0
# Scan.start_time: 2023-05-08T11:11:23
# Scan.end_time: 2023-05-08T11:19:42
# Scan.transient_id: 75367
# Scan.uid: eeff05dd-5cd6-453d-93c2-04dfcb22806d
# Scan.plot_hint: ln(I0/It)  --  ln($5/$6)
# Column.1: energy eV
# Column.2: requested_energy eV
# Column.3: measurement_time seconds
# Column.4: xmu
# Column.5: I0 nA
# Column.6: It nA
# Column.7: Ir nA
# ///////////
# Welcome to BMM
# -----------
# energy  requested_energy  measurement_time  xmu  I0  It  Ir
  6339.006  6339.000  0.500  2.306912  149.757  14.9111  0.767878
  6349.013  6349.000  0.500  2.292555  149.953  15.1465  0.790331
  6359.017  6359.000  0.500  2.278392  150.175  15.3853  0.813449
  6368.985  6369.000  0.500  2.264728  150.402  15.6205  0.837026
  6378.997  6379.000  0.500  2.250900  150.599  15.8587  0.860433
  6389.003  6389.000  0.500  2.237410  150.747  16.09  0.884132
  6399.012  6399.000  0.500  2.224166  150.906  16.3216  0.909047
  6409.011  6409.000  0.500  2.210561  151.068  16.563  0.934087
  6419.005  6419.000  0.500  2.197194  151.291  16.8106  0.960210
  6429.009  6429.000  0.500  2.183874  151.408  17.0492  0.985836
  6439.012  6439.000  0.500  2.170865  151.548  17.2884  1.011816
  6449.007  6449.000  0.500  2.157538  148.963  17.2215  1.020356
  6459.005  6459.000  0.500  2.145083  151.427  17.7258  1.062647
  6469.003  6469.000  0.500  2.132397  151.966  18.016  1.092160
  6479.860  6479.000  0.500  2.119512  152.162  18.2732  1.120236
  6488.981  6489.000  0.500  2.107318  152.429  18.5298  1.147001
  6498.980  6499.000  0.500  2.095254  152.559  18.7708  1.171527
  6508.985  6509.000  0.500  2.083988  152.692  18.9999  1.192197
  6510.986  6511.000  0.500  2.082307  152.742  19.0382  1.195271
  6512.985  6513.000  0.500  2.079731  152.759  19.0893  1.198585
  6514.991  6515.000  0.500  2.077500  152.765  19.1327  1.201024
  6516.992  6517.000  0.500  2.076198  152.795  19.1614  1.201441
  6518.991  6519.000  0.500  2.074428  152.841  19.2012  1.202324
  6520.994  6521.000  0.500  2.072412  152.858  19.242  1.202156
  6522.988  6523.000  0.500  2.070312  152.88  19.2852  1.200487
  6524.997  6525.000  0.500  2.068819  152.891  19.3155  1.196104
  6526.996  6527.000  0.500  2.068029  152.921  19.3346  1.188168
  6528.998  6529.000  0.500  2.067196  152.955  19.355  1.176326
  6529.287  6529.300  0.500  2.067208  152.962  19.3556  1.174031
  6529.586  6529.600  0.500  2.067196  152.959  19.3555  1.171456
  6529.884  6529.900  0.500  2.067093  152.956  19.3571  1.168019
  6530.183  6530.200  0.500  2.067070  152.967  19.3589  1.165172
  6530.483  6530.500  0.500  2.067367  152.979  19.3547  1.161676
  6530.786  6530.800  0.500  2.067246  152.977  19.3567  1.158235
  6531.088  6531.100  0.500  2.067158  152.957  19.356  1.154328
  6531.385  6531.400  0.500  2.067391  152.974  19.3535  1.150053
  6531.689  6531.700  0.500  2.067458  152.974  19.3523  1.145410
  6531.988  6532.000  0.500  2.067626  152.966  19.348  1.140393
  6532.290  6532.300  0.500  2.067539  152.977  19.3511  1.134947
  6532.590  6532.600  0.500  2.067831  152.978  19.3456  1.128721
  6532.889  6532.900  0.500  2.068034  152.977  19.3415  1.121854
  6533.188  6533.200  0.500  2.068379  153.002  19.338  1.114478
  6533.487  6533.500  0.500  2.068714  152.982  19.329  1.105718
  6533.787  6533.800  0.500  2.068804  152.991  19.3284  1.096891
  6534.091  6534.100  0.500  2.069257  152.984  19.3188  1.086348
  6534.391  6534.400  0.500  2.069712  152.987  19.3104  1.074412
  6534.691  6534.700  0.500  2.070093  152.978  19.3019  1.061237
  6534.992  6535.000  0.500  2.070709  152.971  19.2891  1.045058
  6535.292  6535.300  0.500  2.071165  152.976  19.2809  1.026787
  6535.594  6535.600  0.500  2.072258  152.976  19.2599  1.004342
  6535.896  6535.900  0.500  2.072815  152.98  19.2496  0.978781
  6536.193  6536.200  0.500  2.073878  152.98  19.2292  0.947060
  6536.493  6536.500  0.500  2.075091  152.982  19.2062  0.906470
  6536.793  6536.800  0.500  2.076545  152.974  19.1772  0.852210
  6537.090  6537.100  0.500  2.078139  152.977  19.147  0.780067
  6537.393  6537.400  0.500  2.080026  152.978  19.1111  0.684771
  6537.697  6537.700  0.500  2.082574  152.974  19.062  0.570176
  6537.999  6538.000  0.500  2.086743  152.976  18.9828  0.446266
  6538.298  6538.300  0.500  2.092275  152.958  18.876  0.336476
  6538.598  6538.600  0.500  2.099793  152.956  18.7344  0.255753
  6538.897  6538.900  0.500  2.108820  152.965  18.5671  0.203912
  6539.199  6539.200  0.500  2.115905  152.966  18.436  0.171447
  6539.498  6539.500  0.500  2.120887  152.964  18.3442  0.149449
  6539.796  6539.800  0.500  2.124275  152.965  18.2823  0.132741
  6540.093  6540.100  0.500  2.126100  152.983  18.2511  0.119622
  6540.395  6540.400  0.500  2.125207  152.957  18.2643  0.108770
  6540.692  6540.700  0.500  2.123893  152.957  18.2883  0.099950
  6540.993  6541.000  0.500  2.125590  152.974  18.2594  0.093200
  6541.299  6541.300  0.500  2.131381  152.97  18.1534  0.088358
  6541.598  6541.600  0.500  2.141632  152.966  17.9678  0.085362
  6541.900  6541.900  0.500  2.156943  152.957  17.6938  0.083468
  6542.203  6542.200  0.500  2.179929  152.974  17.2936  0.081402
  6542.503  6542.500  0.500  2.210764  152.966  16.7676  0.078140
  6542.802  6542.800  0.500  2.251190  152.963  16.1031  0.073063
  6543.100  6543.100  0.500  2.301518  152.977  15.3141  0.066860
  6543.399  6543.400  0.500  2.360090  152.993  14.4443  0.059994
  6543.696  6543.700  0.500  2.425573  152.973  13.527  0.053278
  6543.995  6544.000  0.500  2.492784  152.976  12.648  0.047066
  6544.296  6544.300  0.500  2.556502  152.996  11.8687  0.042002
  6544.595  6544.600  0.500  2.612146  152.994  11.2262  0.038385
  6544.898  6544.900  0.500  2.658157  152.983  10.7207  0.035730
  6545.199  6545.200  0.500  2.695510  152.986  10.3278  0.033370
  6545.500  6545.500  0.500  2.725726  152.983  10.0202  0.031317
  6545.799  6545.800  0.500  2.751207  152.987  9.768310  0.029616
  6546.102  6546.100  0.500  2.775735  152.972  9.530683  0.027413
  6546.401  6546.400  0.500  2.802102  152.97  9.282603  0.025369
  6546.699  6546.700  0.500  2.831059  152.992  9.018937  0.023156
  6546.998  6547.000  0.500  2.862959  152.991  8.735738  0.021210
  6547.297  6547.300  0.500  2.895461  153.003  8.457018  0.018959
  6547.598  6547.600  0.500  2.929586  152.996  8.172921  0.017054
  6547.898  6547.900  0.500  2.966306  152.989  7.877907  0.015260
  6548.201  6548.200  0.500  3.007385  152.991  7.560911  0.013471
  6548.504  6548.500  0.500  3.055326  152.99  7.206974  0.012000
  6548.804  6548.800  0.500  3.113423  152.989  6.800139  0.010505
  6549.101  6549.100  0.500  3.185402  152.989  6.327865  0.009195
  6549.401  6549.400  0.500  3.270134  152.995  5.814010  0.007782
  6549.702  6549.700  0.500  3.358350  152.996  5.323132  0.006543
  6549.998  6550.000  0.500  3.435989  152.985  4.925133  0.005769
  6550.296  6550.300  0.500  3.491000  152.971  4.661075  0.005062
  6550.594  6550.600  0.500  3.527954  152.97  4.491964  0.004463
  6550.894  6550.900  0.500  3.551720  152.97  4.386461  0.004080
  6551.199  6551.200  0.500  3.569701  152.971  4.308307  0.003767
  6551.502  6551.500  0.500  3.585394  152.964  4.241037  0.003532
  6551.800  6551.800  0.500  3.600445  152.986  4.178281  0.003247
  6552.102  6552.100  0.500  3.616650  153.435  4.123181  0.002997
  6552.404  6552.400  0.500  3.636649  153.495  4.043122  0.002900
  6552.698  6552.700  0.500  3.663259  153.517  3.937536  0.002545
  6552.996  6553.000  0.500  3.696950  153.516  3.807058  0.002394
  6553.298  6553.300  0.500  3.736077  153.508  3.660770  0.002208
  6553.600  6553.600  0.500  3.774540  153.538  3.523328  0.002080
  6553.900  6553.900  0.500  3.802352  153.514  3.426155  0.001905
  6554.200  6554.200  0.500  3.811536  153.512  3.394785  0.001889
  6554.502  6554.500  0.500  3.794448  153.528  3.453669  0.001796
  6554.798  6554.800  0.500  3.750387  153.534  3.609367  0.001847
  6555.104  6555.100  0.500  3.684026  153.526  3.856816  0.002051
  6555.399  6555.400  0.500  3.607771  153.524  4.162385  0.002020
  6555.702  6555.700  0.500  3.529062  153.543  4.503791  0.002154
  6555.997  6556.000  0.500  3.452544  153.556  4.862359  0.002332
  6556.296  6556.300  0.500  3.378274  153.548  5.236948  0.002455
  6556.599  6556.600  0.500  3.309648  153.532  5.608371  0.002622
  6556.900  6556.900  0.500  3.249205  153.549  5.958478  0.003018
  6557.200  6557.200  0.500  3.199220  153.54  6.263512  0.003148
  6557.504  6557.500  0.500  3.158450  153.515  6.523100  0.003255
  6557.803  6557.800  0.500  3.125951  153.514  6.738511  0.003714
  6558.105  6558.100  0.500  3.100271  153.506  6.913437  0.003765
  6558.405  6558.400  0.500  3.079394  153.506  7.059279  0.003935
  6558.700  6558.700  0.500  3.063941  153.523  7.170028  0.003981
  6559.004  6559.000  0.500  3.052677  153.522  7.251201  0.004264
  6559.298  6559.300  0.500  3.044401  153.515  7.311128  0.004294
  6559.598  6559.600  0.500  3.038029  153.534  7.358747  0.004597
  6559.897  6559.900  0.500  3.032129  153.533  7.402245  0.004626
  6560.201  6560.200  0.500  3.025435  153.524  7.451539  0.004593
  6560.502  6560.500  0.500  3.017923  153.513  7.507194  0.004752
  6560.806  6560.800  0.500  3.009597  153.508  7.569707  0.004705
  6561.105  6561.100  0.500  3.000447  153.51  7.639383  0.004856
  6561.402  6561.400  0.500  2.991372  153.419  7.704456  0.004757
  6561.701  6561.700  0.500  2.983621  153.281  7.757451  0.004781
  6562.002  6562.000  0.500  2.977452  153.212  7.801939  0.004856
  6562.299  6562.300  0.500  2.972946  153.201  7.836616  0.004723
  6562.598  6562.600  0.500  2.971063  153.345  7.858727  0.004815
  6562.899  6562.900  0.500  2.971582  153.452  7.860159  0.004786
  6563.202  6563.200  0.500  2.973541  153.49  7.846729  0.004777
  6563.499  6563.500  0.500  2.977656  153.512  7.815601  0.004539
  6563.804  6563.800  0.500  2.983517  153.525  7.770600  0.004581
  6564.003  6564.000  0.500  2.988757  153.525  7.729988  0.004591
  6565.002  6564.990  0.500  3.030186  153.542  7.417090  0.004385
  6566.000  6565.990  0.500  3.098829  153.532  6.924597  0.004010
  6567.036  6567.010  0.500  3.165203  153.538  6.480178  0.003784
  6568.048  6568.060  0.500  3.179922  153.509  6.384261  0.003752
  6569.106  6569.120  0.500  3.139566  153.509  6.647186  0.003854
  6570.192  6570.200  0.500  3.075885  153.537  7.085534  0.004039
  6571.294  6571.300  0.500  3.013504  153.542  7.541886  0.004392
  6572.413  6572.420  0.500  2.976636  153.559  7.825981  0.004566
  6573.554  6573.560  0.500  2.965502  153.572  7.914253  0.004610
  6574.709  6574.710  0.500  2.965605  153.589  7.914316  0.004383
  6575.892  6575.890  0.500  2.967679  153.592  7.898097  0.004624
  6577.084  6577.080  0.500  2.964597  153.626  7.924204  0.004453
  6578.304  6578.300  0.500  2.955572  153.606  7.995046  0.004236
  6579.538  6579.530  0.500  2.949283  153.622  8.046279  0.004192
  6580.788  6580.780  0.500  2.952709  153.608  8.018057  0.004042
  6582.055  6582.050  0.500  2.962481  153.593  7.939288  0.003871
  6583.343  6583.340  0.500  2.978080  153.609  7.817209  0.003927
  6584.655  6584.650  0.500  2.993714  153.627  7.696862  0.003841
  6585.982  6585.980  0.500  3.001230  153.373  7.626622  0.003807
  6587.336  6587.330  0.500  3.010426  153.605  7.568218  0.003749
  6588.704  6588.700  0.500  3.044549  153.631  7.315557  0.003761
  6590.088  6590.080  0.500  3.103833  153.634  6.894615  0.003644
  6591.496  6591.490  0.500  3.168138  153.638  6.465393  0.003666
  6592.914  6592.910  0.500  3.218927  153.63  6.144900  0.003619
  6594.353  6594.350  0.500  3.249981  153.636  5.957242  0.003534
  6595.814  6595.810  0.500  3.253797  153.648  5.934986  0.003752
  6597.297  6597.290  0.500  3.246280  153.674  5.980805  0.003854
  6598.796  6598.790  0.500  3.238663  153.676  6.026608  0.004020
  6600.325  6600.310  0.500  3.213218  153.653  6.180993  0.004031
  6601.850  6601.850  0.500  3.171544  153.665  6.444545  0.004241
  6603.418  6603.410  0.500  3.128200  153.384  6.717673  0.004518
  6604.986  6604.980  0.500  3.091281  153.67  6.983331  0.004489
  6606.594  6606.580  0.500  3.061828  153.687  7.192872  0.004611
  6608.201  6608.190  0.500  3.043417  153.717  7.327964  0.004510
  6609.836  6609.830  0.500  3.028234  153.734  7.440906  0.004561
  6611.483  6611.480  0.500  3.004381  153.736  7.620630  0.004499
  6613.163  6613.150  0.500  2.976589  153.712  7.834150  0.004624
  6614.849  6614.840  0.500  2.954923  153.703  8.005262  0.004561
  6616.563  6616.550  0.500  2.943953  153.712  8.094023  0.004612
  6618.293  6618.280  0.500  2.947111  153.711  8.068488  0.004463
  6620.039  6620.030  0.500  2.963266  153.724  7.939826  0.004390
  6621.802  6621.790  0.500  2.987242  153.707  7.750891  0.004320
  6623.585  6623.580  0.500  3.008650  153.731  7.587885  0.004352
  6625.393  6625.380  0.500  3.017718  153.717  7.518737  0.004341
  6627.220  6627.210  0.500  3.012406  153.721  7.558935  0.004499
  6629.061  6629.050  0.500  3.001187  153.678  7.642093  0.004633
  6630.922  6630.910  0.500  2.994467  153.712  7.695322  0.004756
  6632.797  6632.790  0.500  2.991823  153.738  7.717011  0.004748
  6634.705  6634.690  0.500  2.994695  153.741  7.695030  0.004734
  6636.619  6636.610  0.500  3.008236  153.757  7.592302  0.004753
  6638.559  6638.550  0.500  3.032692  153.753  7.408727  0.004400
  6640.522  6640.510  0.500  3.057409  153.73  7.226764  0.004524
  6642.487  6642.480  0.500  3.068768  153.745  7.145815  0.004148
  6644.491  6644.480  0.500  3.060600  153.748  7.204556  0.004325
  6646.503  6646.490  0.500  3.040234  153.759  7.353303  0.004605
  6648.529  6648.520  0.500  3.014871  153.752  7.541874  0.004785
  6650.589  6650.580  0.500  2.986952  153.774  7.756520  0.004933
  6652.664  6652.650  0.500  2.956525  153.767  7.995777  0.005134
  6654.746  6654.740  0.500  2.927245  153.759  8.232929  0.005360
  6656.862  6656.850  0.500  2.909769  153.75  8.377575  0.005752
  6658.997  6658.980  0.500  2.914358  153.749  8.339172  0.005672
  6661.130  6661.120  0.500  2.938713  153.753  8.138733  0.005592
  6663.302  6663.290  0.500  2.969893  153.757  7.889107  0.005533
  6665.490  6665.480  0.500  2.995517  153.748  7.689057  0.005275
  6667.693  6667.680  0.500  3.005417  153.759  7.613868  0.005291
  6669.908  6669.900  0.500  2.998533  153.767  7.666829  0.005151
  6672.161  6672.150  0.500  2.979559  153.757  7.813206  0.005126
  6674.421  6674.410  0.500  2.960592  153.745  7.962188  0.005175
  6676.700  6676.690  0.500  2.948055  153.713  8.060937  0.005312
  6678.997  6678.990  0.500  2.946224  153.717  8.075955  0.005215
  6681.324  6681.310  0.500  2.950737  153.741  8.040815  0.005145
  6683.662  6683.650  0.500  2.955774  153.756  8.001210  0.005071
  6686.004  6686.000  0.500  2.962210  153.763  7.950231  0.005122
  6688.385  6688.380  0.500  2.970253  153.743  7.885538  0.005128
  6690.780  6690.770  0.500  2.975266  153.744  7.846139  0.005112
  6693.200  6693.190  0.500  2.974002  153.715  7.854611  0.005312
  6695.629  6695.620  0.500  2.965669  153.718  7.920480  0.005294
  6698.076  6698.070  0.500  2.949891  153.69  8.044977  0.005559
  6700.559  6700.550  0.500  2.927585  153.675  8.225637  0.005758
  6703.047  6703.040  0.500  2.901000  153.689  8.447987  0.006003
  6705.566  6705.550  0.500  2.872563  153.675  8.690880  0.006355
  6708.076  6708.070  0.500  2.848478  153.684  8.903280  0.006610
  6710.624  6710.620  0.500  2.831940  153.667  9.050774  0.006726
  6713.204  6713.190  0.500  2.824965  153.658  9.113573  0.006665
  6715.777  6715.770  0.500  2.828550  153.697  9.083289  0.006722
  6718.394  6718.380  0.500  2.840886  153.642  8.968664  0.006664
  6721.009  6721.000  0.500  2.854754  153.633  8.844655  0.006558
  6723.662  6723.650  0.500  2.866294  153.619  8.742387  0.006566
  6726.323  6726.310  0.500  2.875376  153.607  8.662643  0.006364
  6729.002  6728.990  0.500  2.881309  153.591  8.610510  0.006352
  6731.700  6731.690  0.500  2.883283  153.554  8.591476  0.006470
  6734.418  6734.410  0.500  2.881747  153.557  8.604833  0.006346
  6737.165  6737.150  0.500  2.878150  153.528  8.634196  0.006407
  6739.908  6739.900  0.500  2.874692  153.506  8.662899  0.006572
  6742.689  6742.680  0.500  2.869878  153.483  8.703374  0.006497
  6745.481  6745.470  0.500  2.863474  153.454  8.757644  0.006574
  6748.297  6748.290  0.500  2.857411  153.416  8.808746  0.006615
  6751.131  6751.120  0.500  2.851810  153.412  8.857967  0.006799
  6753.990  6753.970  0.500  2.844085  153.408  8.926436  0.006922
  6756.862  6756.850  0.500  2.834337  153.413  9.014173  0.007045
  6759.753  6759.740  0.500  2.825290  153.368  9.093402  0.007138
  6762.660  6762.650  0.500  2.817839  153.335  9.159420  0.007232
  6765.582  6765.570  0.500  2.813501  153.311  9.197823  0.007174
  6768.536  6768.520  0.500  2.811479  153.258  9.213285  0.007268
  6771.497  6771.490  0.500  2.806826  153.236  9.254882  0.007248
  6774.485  6774.470  0.500  2.797096  153.228  9.344914  0.007425
  6777.488  6777.480  0.500  2.784216  153.228  9.466054  0.007639
  6780.516  6780.500  0.500  2.772593  153.224  9.576467  0.007905
  6783.559  6783.550  0.500  2.764047  153.192  9.656603  0.007929
  6786.632  6786.610  0.500  2.758937  153.176  9.705119  0.008209
  6789.705  6789.690  0.500  2.756416  153.17  9.729204  0.008421
  6792.804  6792.790  0.500  2.755467  153.104  9.734279  0.008479
  6795.940  6795.910  0.500  2.755707  150.569  9.570804  0.008393
  6799.063  6799.050  0.500  2.756852  152.594  9.688373  0.008453
  6802.214  6802.200  0.500  2.758705  152.698  9.677073  0.008687
  6805.394  6805.380  0.500  2.759118  152.716  9.674182  0.008486
  6808.582  6808.570  0.500  2.757806  152.613  9.680376  0.008573
  6811.804  6811.790  0.500  2.754879  142.919  9.092013  0.007992
  6815.031  6815.020  0.500  2.751421  152.348  9.725471  0.008643
  6818.285  6818.270  0.500  2.747441  152.466  9.771827  0.008619
  6821.572  6821.550  0.500  2.740077  152.116  9.821455  0.008725
  6824.852  6824.840  0.500  2.729410  151.336  9.875859  0.008748
  6828.167  6828.150  0.500  2.717863  152.133  10.0431  0.009005
  6831.493  6831.470  0.500  2.708769  152.184  10.1383  0.009165
  6834.837  6834.820  0.500  2.702570  152.16  10.1998  0.009187
  6838.205  6838.190  0.500  2.698048  152.337  10.2579  0.009467
  6841.581  6841.570  0.500  2.694493  149.826  10.1248  0.009314
  6844.991  6844.980  0.500  2.690362  152.096  10.3207  0.009542
  6848.413  6848.400  0.500  2.685204  152.184  10.38  0.009823
  6851.858  6851.850  0.500  2.679139  152.189  10.4435  0.009847
  6855.323  6855.310  0.500  2.672648  152.161  10.5096  0.010087
  6858.800  6858.790  0.500  2.667275  152.13  10.5641  0.010200
  6862.299  6862.290  0.500  2.663981  151.929  10.5849  0.010282
  6865.822  6865.810  0.500  2.661677  152.093  10.6208  0.010368
  6869.368  6869.350  0.500  2.659247  152.056  10.6441  0.010521
  6872.916  6872.900  0.500  2.657534  152.055  10.6622  0.010636
  6876.490  6876.480  0.500  2.656537  152.074  10.6742  0.010768
  6880.086  6880.080  0.500  2.654428  152.02  10.693  0.010907
  6883.698  6883.690  0.500  2.650799  151.953  10.7271  0.011048
  6887.341  6887.320  0.500  2.646747  151.91  10.7676  0.011051
  6890.991  6890.980  0.500  2.641282  151.852  10.8225  0.011253
  6894.667  6894.650  0.500  2.633798  151.794  10.8996  0.011389
  6898.353  6898.340  0.500  2.624330  151.714  10.9975  0.011548
  6902.068  6902.050  0.500  2.613780  151.639  11.1086  0.011778
  6905.798  6905.780  0.500  2.605215  151.562  11.1985  0.011887
  6909.535  6909.520  0.500  2.598620  151.481  11.2665  0.012089
  6913.305  6913.290  0.500  2.594071  151.308  11.305  0.012109
  6917.091  6917.080  0.500  2.590836  151.239  11.3365  0.012312
  6920.893  6920.880  0.500  2.587490  151.089  11.3632  0.012383
  6924.726  6924.710  0.500  2.582455  150.996  11.4135  0.012580
  6928.549  6928.550  0.500  2.576976  150.909  11.4696  0.012673
  6932.422  6932.410  0.500  2.571326  150.748  11.5223  0.012744
  6936.293  6936.290  0.500  2.566347  150.7  11.5761  0.012845
  6940.205  6940.190  0.500  2.561375  150.598  11.626  0.013114
  6944.126  6944.110  0.500  2.556402  150.549  11.6801  0.013229
  6948.074  6948.050  0.500  2.551806  150.443  11.7256  0.013469
  6952.028  6952.010  0.500  2.547127  150.404  11.7776  0.013487
  6955.989  6955.980  0.500  2.542452  150.353  11.8287  0.013658
  6959.994  6959.980  0.500  2.538048  150.246  11.8725  0.013990
  6964.002  6963.990  0.500  2.534546  150.174  11.9085  0.014063
  6968.048  6968.030  0.500  2.531642  150.101  11.9373  0.014254
  6972.092  6972.080  0.500  2.527640  150.032  11.9797  0.014338
  6976.162  6976.150  0.500  2.522549  149.942  12.0336  0.014485
  6980.259  6980.240  0.500  2.516945  149.842  12.0931  0.014711
  6984.366  6984.350  0.500  2.511184  149.721  12.1531  0.015013
  6988.496  6988.480  0.500  2.505420  149.628  12.2158  0.015165
  6992.650  6992.630  0.500  2.499244  149.563  12.2862  0.015329
  6996.813  6996.790  0.500  2.493112  149.451  12.3525  0.015570
  7000.998  7000.980  0.500  2.487186  149.321  12.4151  0.015809
  7005.182  7005.180  0.500  2.481292  149.213  12.4794  0.015832
  7009.408  7009.410  0.500  2.475251  149.073  12.5433  0.016137
  7013.649  7013.650  0.500  2.469623  148.971  12.6054  0.016353
  7017.913  7017.910  0.500  2.464336  148.898  12.6661  0.016514
  7022.193  7022.190  0.500  2.458789  148.765  12.7252  0.016650
  7026.494  7026.490  0.500  2.452782  148.673  12.7939  0.016935
  7030.821  7030.810  0.500  2.446774  148.57  12.8621  0.017033
  7035.153  7035.150  0.500  2.441011  148.465  12.9272  0.017357
  7039.520  7039.510  0.500  2.435740  148.366  12.9869  0.017447
  7043.891  7043.890  0.500  2.431297  148.259  13.0353  0.017609
  7048.282  7048.280  0.500  2.427669  148.122  13.0706  0.017902
  7052.702  7052.700  0.500  2.424229  148.01  13.1058  0.018152
  7057.135  7057.130  0.500  2.419892  147.911  13.1539  0.018175
  7061.583  7061.580  0.500  2.414625  147.792  13.2128  0.018541
  7066.059  7066.050  0.500  2.408942  147.652  13.2755  0.018766
  7070.551  7070.540  0.500  2.402704  146.971  13.2969  0.018898
  7075.062  7075.050  0.500  2.396759  146.336  13.3184  0.019130
  7079.594  7079.580  0.500  2.390999  147.292  13.4829  0.019528
  7084.142  7084.130  0.500  2.385530  146.981  13.5281  0.019755
  7088.714  7088.700  0.500  2.380399  147.041  13.6033  0.020090
  7093.313  7093.280  0.500  2.374387  146.922  13.6742  0.020156
  7097.927  7097.890  0.500  2.368284  146.766  13.7434  0.020536
  7102.508  7102.510  0.500  2.362379  146.632  13.8121  0.020772
  7107.199  7107.160  0.500  2.357031  146.485  13.8723  0.020957
  7111.808  7111.820  0.500  2.351742  146.205  13.9192  0.021222
  7116.507  7116.500  0.500  2.345967  145.952  13.9755  0.021494
  7121.216  7121.200  0.500  2.340654  145.688  14.0246  0.021465
  7125.967  7125.920  0.500  2.335446  145.403  14.0702  0.021734
  7130.673  7130.660  0.500  2.330072  145.019  14.1087  0.021797
  7135.428  7135.410  0.500  2.325156  144.801  14.1569  0.022196
  7140.231  7140.190  0.500  2.319847  144.697  14.2221  0.022464
  7145.023  7144.990  0.500  2.314699  144.604  14.2863  0.022713
  7149.835  7149.800  0.500  2.309575  144.524  14.3517  0.023179
  7154.667  7154.630  0.500  2.304335  144.421  14.4169  0.023184
  7159.539  7159.490  0.500  2.298717  144.285  14.4845  0.023670
  7164.386  7164.360  0.500  2.293029  144.079  14.5463  0.023925
  7169.271  7169.250  0.500  2.286930  143.863  14.6133  0.024071
  7174.144  7174.160  0.500  2.281244  143.684  14.6783  0.024451
  7179.132  7179.090  0.500  2.275541  143.521  14.7456  0.024798
  7184.076  7184.030  0.500  2.269882  143.361  14.8127  0.025197
  7189.030  7189.000  0.500  2.264279  143.23  14.8823  0.025483
  7194.030  7193.990  0.500  2.258914  142.908  14.9287  0.025824
  7199.029  7198.990  0.500  2.253379  142.798  15  0.026069
  7204.056  7204.020  0.500  2.247627  142.606  15.0663  0.026450
  7209.093  7209.060  0.500  2.241892  142.402  15.1312  0.026856
  7214.132  7214.120  0.500  2.236153  142.205  15.1973  0.027003
  7219.221  7219.200  0.500  2.230289  142.018  15.2666  0.027482
  7224.324  7224.300  0.500  2.224450  141.826  15.3352  0.027711
  7229.450  7229.420  0.500  2.219164  141.837  15.4177  0.028082
  7234.565  7234.560  0.500  2.213413  141.602  15.4809  0.028514
  7239.706  7239.720  0.500  2.207729  141.428  15.55  0.028898
  7244.937  7244.900  0.500  2.202385  138.844  15.3477  0.028760
  7250.134  7250.090  0.500  2.197291  140.998  15.6654  0.029506
  7254.952  7255.310  0.500  2.194651  140.378  15.6377  0.029565
  7260.550  7260.540  0.500  2.187235  140.496  15.7674  0.030163
  7265.806  7265.790  0.500  2.181598  139.501  15.7443  0.030451
  7271.047  7271.060  0.500  2.176268  140.815  15.9774  0.031265
  7276.348  7276.350  0.500  2.170712  140.778  16.0623  0.031431
  7281.650  7281.660  0.500  2.164970  140.597  16.134  0.031932
  7286.981  7286.990  0.500  2.159239  140.288  16.191  0.032358
  7292.360  7292.340  0.500  2.153537  140.19  16.2722  0.032573
  7297.695  7297.710  0.500  2.147907  139.987  16.3404  0.033201
  7303.071  7303.090  0.500  2.142372  139.981  16.4304  0.033619
  7308.499  7308.500  0.500  2.136667  139.767  16.4991  0.034031
  7313.898  7313.920  0.500  2.131177  139.585  16.5684  0.034427
  7319.344  7319.370  0.500  2.125575  139.427  16.6426  0.034926
  7324.814  7324.830  0.500  2.119871  139.249  16.7164  0.035422
  7330.292  7330.310  0.500  2.114282  139.075  16.7892  0.035837
  7335.834  7335.810  0.500  2.108291  138.918  16.8709  0.036302
  7341.307  7341.330  0.500  2.102838  138.642  16.9295  0.036718
  7346.853  7346.870  0.500  2.097346  138.516  17.0072  0.037235
  7352.402  7352.420  0.500  2.091879  138.332  17.0777  0.037616
  7357.968  7358.000  0.500  2.086146  138.147  17.1529  0.038159
  7363.581  7363.600  0.500  2.080512  137.963  17.2269  0.038683
  7369.196  7369.210  0.500  2.074938  137.804  17.3032  0.039169
  7374.834  7374.850  0.500  2.069104  137.621  17.3813  0.039655
  7380.507  7380.500  0.500  2.063501  137.431  17.4549  0.040026
  7386.179  7386.170  0.500  2.058010  137.24  17.5266  0.040635
  7391.853  7391.860  0.500  2.052362  137.077  17.6049  0.041139