File: xdidata/Mn/Mn-Mnfoil.xdi
# XDI/1.0 BlueSky/1.10.0 BMM/2023-1.0-py310-tiled
# Beamline.name: BMM (06BM) -- Beamline for Materials Measurement (NIST)
# Beamline.xray_source: NSLS-II three-pole wiggler
# Beamline.collimation: paraboloid mirror, 5 nm Rh on 30 nm Pt
# Beamline.focusing: not in use
# Beamline.harmonic_rejection: flat mirror, Si stripe, pitch = 7.0 mrad relative to beam
# Beamline.software: Bluesky 1.10.0, Ophyd 1.7.0, DataBroker 2.0.0b13, Python 3.10.8, 2023-1.0-py310-tiled
# Detector.I0: 10 cm N2
# Detector.I1: 25 cm N2
# Detector.I2: 25 cm N2
# Element.symbol: Mn
# Element.edge: K
# Element.reference: Mn
# Element.reference_material: Mn metal powder
# Facility.name: NSLS-II
# Facility.energy: 3.0
# Facility.current: 399.9
# Facility.mode: top-off
# Facility.GUP: 123456
# Facility.SAF: 301027
# Facility.cycle: 2023-2
# Mono.name: Si(111)
# Mono.d_spacing: 3.13519
# Mono.encoder_resolution: 0.0000050 deg/ct
# Mono.angle_offset: 16.0754 deg
# Mono.scan_mode: pseudo channel cut
# Mono.scan_type: step
# Mono.direction: forward in energy
# Sample.name: Mn foil
# Sample.prep: metal powder
# Sample.x: 123.848 mm
# Sample.y: 114.690 mm
# Sample.SDD_position: 205.000 mm
# Scan.experimenters: Bruce Ravel
# Scan.edge_energy: 6539.0
# Scan.start_time: 2023-05-08T12:28:57
# Scan.end_time: 2023-05-08T12:36:58
# Scan.transient_id: 75376
# Scan.uid: a5a1b95b-9ba7-412f-9f6e-b5fc9600c99a
# Scan.plot_hint: ln(I0/It)  --  ln($5/$6)
# Column.1: energy eV
# Column.2: requested_energy eV
# Column.3: measurement_time seconds
# Column.4: xmu
# Column.5: I0 nA
# Column.6: It nA
# Column.7: Ir nA
# ///////////
# reference wheel
# -----------
# energy  requested_energy  measurement_time  xmu  I0  It  Ir
  6339.001  6339.000  0.500  0.659827  150.301  77.6965  4.001704
  6349.013  6349.000  0.500  0.653440  150.518  78.3077  4.087290
  6359.024  6359.000  0.500  0.646932  150.753  78.9417  4.174386
  6369.002  6369.000  0.500  0.640364  150.979  79.5813  4.264913
  6378.993  6379.000  0.500  0.634541  151.171  80.1476  4.350807
  6389.007  6389.000  0.500  0.628535  151.357  80.7295  4.439507
  6399.009  6399.000  0.500  0.622232  151.536  81.3359  4.531651
  6409.013  6409.000  0.500  0.616311  151.717  81.917  4.621518
  6419.008  6419.000  0.500  0.610628  151.953  82.5122  4.714178
  6429.014  6429.000  0.500  0.604553  152.085  83.0871  4.807630
  6439.011  6439.000  0.500  0.598541  152.211  83.6571  4.899665
  6449.011  6449.000  0.500  0.592443  149.579  82.7133  4.903863
  6459.008  6459.000  0.500  0.586316  152.08  84.613  5.074225
  6469.012  6469.000  0.500  0.580588  152.673  85.431  5.181953
  6479.006  6479.000  0.500  0.575113  152.745  85.9407  5.269826
  6489.286  6489.000  0.500  0.569416  152.827  86.4778  5.357125
  6498.984  6499.000  0.500  0.563907  152.975  87.0398  5.436232
  6508.983  6509.000  0.500  0.558037  153.132  87.6422  5.504041
  6510.986  6511.000  0.500  0.556528  153.15  87.785  5.515052
  6512.981  6513.000  0.500  0.555248  153.194  87.9228  5.523224
  6514.983  6515.000  0.500  0.553892  153.207  88.0496  5.529988
  6516.987  6517.000  0.500  0.552692  153.241  88.1748  5.532500
  6518.988  6519.000  0.500  0.551504  153.283  88.3037  5.533050
  6520.994  6521.000  0.500  0.550752  153.313  88.3876  5.525364
  6522.992  6523.000  0.500  0.549490  153.339  88.5138  5.514352
  6524.997  6525.000  0.500  0.548282  153.345  88.6243  5.493016
  6526.994  6527.000  0.500  0.547163  153.374  88.7406  5.460209
  6528.998  6529.000  0.500  0.546177  153.408  88.8479  5.405608
  6529.283  6529.300  0.500  0.545871  153.401  88.8712  5.396410
  6529.584  6529.600  0.500  0.545845  153.404  88.8747  5.383189
  6529.884  6529.900  0.500  0.545649  153.401  88.8907  5.370748
  6530.183  6530.200  0.500  0.545522  153.378  88.8884  5.356104
  6530.485  6530.500  0.500  0.545272  153.387  88.9162  5.343839
  6530.786  6530.800  0.500  0.545017  153.38  88.9346  5.329151
  6531.086  6531.100  0.500  0.544899  153.382  88.9462  5.312142
  6531.387  6531.400  0.500  0.544601  153.389  88.9767  5.294343
  6531.692  6531.700  0.500  0.544781  153.423  88.9806  5.271993
  6531.990  6532.000  0.500  0.544480  153.443  89.019  5.252472
  6532.292  6532.300  0.500  0.544159  153.403  89.0242  5.227572
  6532.590  6532.600  0.500  0.544194  153.413  89.0271  5.202608
  6532.893  6532.900  0.500  0.543967  153.409  89.0448  5.173725
  6533.188  6533.200  0.500  0.544192  153.412  89.0266  5.139847
  6533.489  6533.500  0.500  0.544155  153.425  89.0373  5.103484
  6533.791  6533.800  0.500  0.544081  153.415  89.038  5.063019
  6534.091  6534.100  0.500  0.543742  153.391  89.0545  5.018850
  6534.391  6534.400  0.500  0.543674  153.395  89.063  4.969221
  6534.692  6534.700  0.500  0.543446  153.388  89.0793  4.911139
  6534.994  6535.000  0.500  0.542835  153.394  89.1369  4.846079
  6535.294  6535.300  0.500  0.542597  153.398  89.1604  4.765718
  6535.594  6535.600  0.500  0.542438  153.404  89.178  4.672546
  6535.894  6535.900  0.500  0.541952  153.403  89.2208  4.562528
  6536.193  6536.200  0.500  0.542056  153.417  89.22  4.424518
  6536.491  6536.500  0.500  0.541936  153.405  89.2237  4.248992
  6536.793  6536.800  0.500  0.541689  153.41  89.2486  4.014957
  6537.091  6537.100  0.500  0.541534  153.404  89.2587  3.702483
  6537.395  6537.400  0.500  0.541261  153.419  89.2917  3.284996
  6537.695  6537.700  0.500  0.541056  153.405  89.3023  2.768925
  6537.998  6538.000  0.500  0.540792  153.407  89.3271  2.200252
  6538.300  6538.300  0.500  0.540608  153.407  89.3433  1.668708
  6538.600  6538.600  0.500  0.540752  153.417  89.336  1.269468
  6538.900  6538.900  0.500  0.540791  153.912  89.6211  1.014719
  6539.201  6539.200  0.500  0.540489  153.987  89.6919  0.854647
  6539.498  6539.500  0.500  0.540012  154.008  89.7469  0.745848
  6539.794  6539.800  0.500  0.539788  154.002  89.7634  0.663847
  6540.095  6540.100  0.500  0.539486  154.011  89.7956  0.597817
  6540.395  6540.400  0.500  0.539253  154.008  89.815  0.542194
  6540.696  6540.700  0.500  0.539460  153.998  89.7904  0.496093
  6540.995  6541.000  0.500  0.539151  154  89.8193  0.462204
  6541.297  6541.300  0.500  0.539086  153.995  89.8225  0.439143
  6541.598  6541.600  0.500  0.538860  154.01  89.8513  0.427217
  6541.902  6541.900  0.500  0.538919  154.017  89.8503  0.423135
  6542.199  6542.200  0.500  0.538571  153.997  89.8698  0.422185
  6542.500  6542.500  0.500  0.538178  153.997  89.9052  0.418696
  6542.799  6542.800  0.500  0.538148  153.99  89.9039  0.408776
  6543.098  6543.100  0.500  0.538101  153.985  89.9053  0.393340
  6543.395  6543.400  0.500  0.537788  153.985  89.9333  0.373816
  6543.694  6543.700  0.500  0.537568  153.982  89.9513  0.353567
  6543.995  6544.000  0.500  0.537484  153.983  89.9595  0.334685
  6544.298  6544.300  0.500  0.537340  153.987  89.9746  0.318404
  6544.600  6544.600  0.500  0.537228  153.988  89.9856  0.306056
  6544.901  6544.900  0.500  0.537187  153.986  89.9881  0.296850
  6545.200  6545.200  0.500  0.537171  153.984  89.9881  0.288857
  6545.500  6545.500  0.500  0.536645  153.99  90.0392  0.280397
  6545.799  6545.800  0.500  0.536247  153.987  90.0733  0.270453
  6546.094  6546.100  0.500  0.536280  153.978  90.0647  0.258187
  6546.394  6546.400  0.500  0.535899  153.975  90.0974  0.244819
  6546.699  6546.700  0.500  0.536097  153.987  90.0864  0.230096
  6547.000  6547.000  0.500  0.536054  153.978  90.0853  0.215162
  6547.304  6547.300  0.500  0.535622  153.992  90.1326  0.200318
  6547.600  6547.600  0.500  0.535298  153.979  90.1537  0.185650
  6547.901  6547.900  0.500  0.535244  153.976  90.1567  0.171510
  6548.201  6548.200  0.500  0.535106  153.965  90.1628  0.158532
  6548.499  6548.500  0.500  0.534952  153.971  90.1803  0.146800
  6548.802  6548.800  0.500  0.534838  153.964  90.1866  0.135409
  6549.098  6549.100  0.500  0.534585  153.953  90.2032  0.125202
  6549.399  6549.400  0.500  0.534056  153.954  90.251  0.115297
  6549.699  6549.700  0.500  0.534488  153.96  90.2157  0.106074
  6550.002  6550.000  0.500  0.533888  153.947  90.2625  0.097880
  6550.303  6550.300  0.500  0.533821  153.954  90.2725  0.090543
  6550.603  6550.600  0.500  0.533665  153.948  90.2832  0.083953
  6550.905  6550.900  0.500  0.533776  153.958  90.2787  0.078010
  6551.204  6551.200  0.500  0.533468  153.956  90.3057  0.072822
  6551.499  6551.500  0.500  0.533050  153.956  90.3434  0.067830
  6551.797  6551.800  0.500  0.533318  153.953  90.3172  0.063388
  6552.095  6552.100  0.500  0.533567  153.948  90.2921  0.059336
  6552.395  6552.400  0.500  0.533323  153.948  90.3137  0.055579
  6552.698  6552.700  0.500  0.533233  153.937  90.3155  0.052099
  6553.004  6553.000  0.500  0.533009  153.934  90.3342  0.048769
  6553.303  6553.300  0.500  0.532744  153.927  90.3539  0.045819
  6553.603  6553.600  0.500  0.532705  153.933  90.3608  0.043197
  6553.902  6553.900  0.500  0.532514  153.917  90.3686  0.041178
  6554.198  6554.200  0.500  0.532213  153.928  90.4027  0.039480
  6554.496  6554.500  0.500  0.532116  153.926  90.4104  0.038060
  6554.796  6554.800  0.500  0.532085  153.928  90.4143  0.037039
  6555.100  6555.100  0.500  0.531957  153.929  90.426  0.036379
  6555.402  6555.400  0.500  0.531704  153.924  90.4463  0.035982
  6555.706  6555.700  0.500  0.531532  153.932  90.4664  0.035889
  6556.003  6556.000  0.500  0.531381  153.937  90.4831  0.036087
  6556.303  6556.300  0.500  0.531120  153.937  90.5069  0.036589
  6556.603  6556.600  0.500  0.531012  153.927  90.5103  0.037403
  6556.902  6556.900  0.500  0.530809  153.923  90.5266  0.038491
  6557.200  6557.200  0.500  0.530658  153.917  90.5368  0.039665
  6557.499  6557.500  0.500  0.530238  153.922  90.5776  0.041030
  6557.799  6557.800  0.500  0.529726  153.915  90.6197  0.042660
  6558.101  6558.100  0.500  0.529627  153.915  90.629  0.044055
  6558.403  6558.400  0.500  0.529478  153.919  90.6451  0.045684
  6558.702  6558.700  0.500  0.529030  153.919  90.6852  0.047090
  6559.003  6559.000  0.500  0.528788  153.919  90.7071  0.048430
  6559.300  6559.300  0.500  0.528571  153.913  90.7235  0.049554
  6559.602  6559.600  0.500  0.528508  153.943  90.747  0.050624
  6559.901  6559.900  0.500  0.528644  153.916  90.7188  0.051230
  6560.201  6560.200  0.500  0.528363  153.918  90.7452  0.051888
  6560.500  6560.500  0.500  0.528152  153.927  90.7696  0.052314
  6560.799  6560.800  0.500  0.528086  153.931  90.778  0.052516
  6561.105  6561.100  0.500  0.527905  153.927  90.7925  0.052737
  6561.400  6561.400  0.500  0.527862  153.852  90.7518  0.052486
  6561.705  6561.700  0.500  0.527914  153.739  90.6806  0.052146
  6562.002  6562.000  0.500  0.528032  153.653  90.619  0.052074
  6562.305  6562.300  0.500  0.527758  153.587  90.6051  0.051635
  6562.604  6562.600  0.500  0.527482  153.731  90.715  0.051360
  6562.906  6562.900  0.500  0.527003  153.849  90.8283  0.051089
  6563.202  6563.200  0.500  0.526764  153.881  90.8689  0.050769
  6563.503  6563.500  0.500  0.526340  153.893  90.914  0.050540
  6563.802  6563.800  0.500  0.526809  153.901  90.8767  0.049964
  6564.000  6564.000  0.500  0.526201  153.899  90.9307  0.049834
  6565.002  6564.990  0.500  0.525863  153.921  90.9742  0.049003
  6566.006  6565.990  0.500  0.525346  153.929  91.0262  0.048513
  6567.026  6567.010  0.500  0.524843  153.915  91.0635  0.048250
  6568.086  6568.060  0.500  0.524265  153.932  91.1261  0.048064
  6569.115  6569.120  0.500  0.523536  153.912  91.1808  0.048231
  6570.192  6570.200  0.500  0.523389  153.941  91.2117  0.048494
  6571.294  6571.300  0.500  0.522561  153.958  91.2969  0.048579
  6572.419  6572.420  0.500  0.521854  153.938  91.3497  0.048621
  6573.557  6573.560  0.500  0.521149  153.935  91.4125  0.048544
  6574.712  6574.710  0.500  0.520399  153.971  91.5024  0.048256
  6575.893  6575.890  0.500  0.519789  153.988  91.5686  0.047402
  6577.080  6577.080  0.500  0.518987  154.004  91.6512  0.046740
  6578.302  6578.300  0.500  0.518383  154.019  91.7157  0.045817
  6579.534  6579.530  0.500  0.517685  154.031  91.7868  0.044679
  6580.784  6580.780  0.500  0.516884  154.036  91.8632  0.043611
  6582.059  6582.050  0.500  0.516349  154.049  91.92  0.042084
  6583.347  6583.340  0.500  0.515733  154.04  91.9715  0.041201
  6584.653  6584.650  0.500  0.515023  154.048  92.0417  0.040222
  6585.984  6585.980  0.500  0.514346  153.8  91.9559  0.040089
  6587.334  6587.330  0.500  0.513781  154.026  92.1429  0.041047
  6588.702  6588.700  0.500  0.513182  154.046  92.21  0.042785
  6590.084  6590.080  0.500  0.512224  154.04  92.2947  0.044827
  6591.498  6591.490  0.500  0.511400  154.047  92.3749  0.046578
  6592.912  6592.910  0.500  0.510468  154.039  92.4563  0.047930
  6594.358  6594.350  0.500  0.509720  154.071  92.5447  0.049590
  6595.822  6595.810  0.500  0.508841  154.076  92.6291  0.051499
  6597.297  6597.290  0.500  0.508227  154.086  92.6923  0.053613
  6598.796  6598.790  0.500  0.507345  154.093  92.7783  0.055438
  6600.320  6600.310  0.500  0.506415  154.088  92.8613  0.056733
  6601.858  6601.850  0.500  0.505708  154.098  92.9333  0.057021
  6603.420  6603.410  0.500  0.504951  153.794  92.8198  0.056448
  6604.986  6604.980  0.500  0.504190  154.101  93.0763  0.055931
  6606.594  6606.580  0.500  0.503105  154.126  93.1925  0.054888
  6608.197  6608.190  0.500  0.502627  154.149  93.2506  0.053667
  6609.840  6609.830  0.500  0.501459  154.181  93.3792  0.052327
  6611.485  6611.480  0.500  0.500553  154.195  93.4725  0.050942
  6613.163  6613.150  0.500  0.499629  154.178  93.5483  0.049681
  6614.850  6614.840  0.500  0.498693  154.185  93.64  0.048675
  6616.559  6616.550  0.500  0.497845  154.192  93.724  0.048255
  6618.291  6618.280  0.500  0.496918  154.187  93.8078  0.047850
  6620.035  6620.030  0.500  0.496100  154.182  93.8817  0.048165
  6621.802  6621.790  0.500  0.495147  154.173  93.9657  0.048557
  6623.588  6623.580  0.500  0.494257  154.186  94.0574  0.049426
  6625.391  6625.380  0.500  0.493137  154.194  94.1676  0.050269
  6627.224  6627.210  0.500  0.492207  154.215  94.268  0.051369
  6629.058  6629.050  0.500  0.491457  154.142  94.2942  0.052535
  6630.922  6630.910  0.500  0.490215  154.211  94.4534  0.053457
  6632.799  6632.790  0.500  0.489449  154.235  94.5402  0.054106
  6634.703  6634.690  0.500  0.488411  154.235  94.6389  0.053853
  6636.619  6636.610  0.500  0.487352  154.234  94.7384  0.053332
  6638.557  6638.550  0.500  0.486204  154.238  94.8495  0.052414
  6640.522  6640.510  0.500  0.485209  154.225  94.9363  0.051777
  6642.487  6642.480  0.500  0.484262  154.252  95.0428  0.051590
  6644.488  6644.480  0.500  0.483287  154.249  95.1332  0.052171
  6646.505  6646.490  0.500  0.482031  154.254  95.2565  0.053025
  6648.525  6648.520  0.500  0.481138  154.247  95.3366  0.054536
  6650.589  6650.580  0.500  0.479910  154.267  95.4664  0.055949
  6652.663  6652.650  0.500  0.478912  154.266  95.5609  0.057278
  6654.750  6654.740  0.500  0.477674  154.269  95.6814  0.058643
  6656.856  6656.850  0.500  0.476485  154.261  95.7903  0.059650
  6658.997  6658.980  0.500  0.475455  154.276  95.8982  0.060860
  6661.132  6661.120  0.500  0.474311  154.271  96.0051  0.061176
  6663.296  6663.290  0.500  0.473181  154.259  96.1063  0.061380
  6665.488  6665.480  0.500  0.472223  154.251  96.1933  0.061117
  6667.693  6667.680  0.500  0.470780  154.252  96.3329  0.060457
  6669.910  6669.900  0.500  0.469798  154.258  96.4312  0.059450
  6672.156  6672.150  0.500  0.468770  154.236  96.5164  0.058458
  6674.421  6674.410  0.500  0.467574  154.252  96.6419  0.057676
  6676.700  6676.690  0.500  0.466287  154.218  96.7453  0.057102
  6678.992  6678.990  0.500  0.465103  154.219  96.8603  0.056930
  6681.319  6681.310  0.500  0.463924  154.223  96.9771  0.056910
  6683.660  6683.650  0.500  0.462659  154.241  97.111  0.057082
  6686.012  6686.000  0.500  0.461704  154.232  97.1987  0.057292
  6688.385  6688.380  0.500  0.460401  154.205  97.3077  0.057775
  6690.780  6690.770  0.500  0.459477  154.207  97.3995  0.058676
  6693.204  6693.190  0.500  0.458159  154.198  97.5223  0.059944
  6695.634  6695.620  0.500  0.456998  154.139  97.5981  0.061206
  6698.076  6698.070  0.500  0.455808  154.163  97.7291  0.062348
  6700.560  6700.550  0.500  0.454351  154.149  97.8631  0.063569
  6703.049  6703.040  0.500  0.452941  154.148  98.0007  0.064988
  6705.561  6705.550  0.500  0.451596  154.131  98.1215  0.066486
  6708.072  6708.070  0.500  0.450368  154.112  98.2302  0.067639
  6710.628  6710.620  0.500  0.449076  154.1  98.3495  0.068311
  6713.204  6713.190  0.500  0.447770  154.104  98.4807  0.068389
  6715.777  6715.770  0.500  0.446688  154.113  98.5925  0.068495
  6718.384  6718.380  0.500  0.445499  154.084  98.6914  0.068499
  6721.011  6721.000  0.500  0.443952  154.054  98.825  0.068622
  6723.662  6723.650  0.500  0.442587  154.634  99.3328  0.068978
  6726.316  6726.310  0.500  0.441260  154.637  99.4667  0.069132
  6728.998  6728.990  0.500  0.440103  154.621  99.5714  0.069147
  6731.702  6731.690  0.500  0.438695  154.586  99.6891  0.069073
  6734.426  6734.410  0.500  0.436897  154.566  99.8554  0.069308
  6737.163  6737.150  0.500  0.435867  154.541  99.942  0.069104
  6739.907  6739.900  0.500  0.434484  154.527  100.072  0.069492
  6742.689  6742.680  0.500  0.433123  154.479  100.177  0.069936
  6745.483  6745.470  0.500  0.431785  154.435  100.282  0.070414
  6748.299  6748.290  0.500  0.430341  154.426  100.421  0.071526
  6751.127  6751.120  0.500  0.428945  154.411  100.552  0.072624
  6753.980  6753.970  0.500  0.427354  154.384  100.694  0.073701
  6756.862  6756.850  0.500  0.426062  154.353  100.804  0.074431
  6759.755  6759.740  0.500  0.424723  154.309  100.911  0.075003
  6762.655  6762.650  0.500  0.423396  154.298  101.037  0.074856
  6765.582  6765.570  0.500  0.422339  154.279  101.132  0.075160
  6768.532  6768.520  0.500  0.420801  154.26  101.275  0.075394
  6771.499  6771.490  0.500  0.419419  154.223  101.391  0.075977
  6774.499  6774.470  0.500  0.417828  154.194  101.533  0.076793
  6777.493  6777.480  0.500  0.416126  154.178  101.695  0.077976
  6780.518  6780.500  0.500  0.414552  154.154  101.84  0.079526
  6783.568  6783.550  0.500  0.413198  154.1  101.942  0.081004
  6786.624  6786.610  0.500  0.411739  154.094  102.087  0.082248
  6789.700  6789.690  0.500  0.410355  154.105  102.236  0.083666
  6792.807  6792.790  0.500  0.408885  154.038  102.342  0.084512
  6795.928  6795.910  0.500  0.407342  151.141  100.572  0.083826
  6799.062  6799.050  0.500  0.405798  153.499  102.298  0.085942
  6802.216  6802.200  0.500  0.404231  153.652  102.561  0.086507
  6805.394  6805.380  0.500  0.402901  153.657  102.701  0.086842
  6808.586  6808.570  0.500  0.401580  153.569  102.778  0.086936
  6811.808  6811.790  0.500  0.399769  143.079  95.931  0.080982
  6815.051  6815.020  0.500  0.398110  153.24  102.914  0.086741
  6818.301  6818.270  0.500  0.396570  153.381  103.167  0.087118
  6821.564  6821.550  0.500  0.395057  153.088  103.126  0.087334
  6824.854  6824.840  0.500  0.393644  152.127  102.624  0.087079
  6828.175  6828.150  0.500  0.392157  153.085  103.424  0.088452
  6831.485  6831.470  0.500  0.390525  153.103  103.605  0.089067
  6834.837  6834.820  0.500  0.388674  153.079  103.781  0.090125
  6838.207  6838.190  0.500  0.387085  152.833  103.778  0.090915
  6841.572  6841.570  0.500  0.385666  149.966  101.977  0.090052
  6844.997  6844.980  0.500  0.384097  152.418  103.807  0.092316
  6848.423  6848.400  0.500  0.382381  152.505  104.044  0.093230
  6851.867  6851.850  0.500  0.380955  152.485  104.179  0.094255
  6855.319  6855.310  0.500  0.379370  152.452  104.322  0.095443
  6858.787  6858.790  0.500  0.377839  152.433  104.469  0.096550
  6862.289  6862.290  0.500  0.376451  152.237  104.479  0.097575
  6865.824  6865.810  0.500  0.374840  152.433  104.783  0.098958
  6869.366  6869.350  0.500  0.373267  152.383  104.913  0.099986
  6872.898  6872.900  0.500  0.371680  152.378  105.076  0.101106
  6876.492  6876.480  0.500  0.370030  152.392  105.26  0.102339
  6880.098  6880.080  0.500  0.368423  152.331  105.387  0.103330
  6883.704  6883.690  0.500  0.366865  152.285  105.519  0.104263
  6887.331  6887.320  0.500  0.365130  152.213  105.652  0.105037
  6890.985  6890.980  0.500  0.363376  152.176  105.812  0.105896
  6894.655  6894.650  0.500  0.361665  152.126  105.958  0.106869
  6898.353  6898.340  0.500  0.360031  152.064  106.088  0.107884
  6902.060  6902.050  0.500  0.358376  152  106.219  0.108478
  6905.792  6905.780  0.500  0.356712  151.915  106.336  0.109113
  6909.535  6909.520  0.500  0.355083  151.799  106.428  0.109784
  6913.278  6913.290  0.500  0.353380  151.646  106.503  0.110408
  6917.095  6917.080  0.500  0.351414  151.544  106.64  0.111137
  6920.899  6920.880  0.500  0.349455  151.388  106.739  0.112091
  6924.710  6924.710  0.500  0.347716  151.284  106.852  0.113163
  6928.551  6928.550  0.500  0.345999  151.217  106.988  0.114187
  6932.422  6932.410  0.500  0.344433  151.115  107.083  0.115142
  6936.303  6936.290  0.500  0.342634  151.049  107.23  0.115895
  6940.207  6940.190  0.500  0.340875  150.981  107.37  0.116932
  6944.126  6944.110  0.500  0.339427  150.896  107.465  0.117614
  6948.059  6948.050  0.500  0.337497  150.832  107.627  0.118632
  6952.028  6952.010  0.500  0.335768  150.724  107.736  0.119744
  6955.998  6955.980  0.500  0.334007  150.676  107.892  0.121041
  6959.982  6959.980  0.500  0.332401  150.585  108  0.122202
  6964.006  6963.990  0.500  0.330545  150.513  108.148  0.123640
  6968.021  6968.030  0.500  0.328855  150.424  108.267  0.124934
  6972.084  6972.080  0.500  0.326982  150.359  108.424  0.126392
  6976.153  6976.150  0.500  0.325117  150.267  108.559  0.127740
  6980.247  6980.240  0.500  0.323443  150.134  108.645  0.129251
  6984.351  6984.350  0.500  0.321700  150.024  108.755  0.130336
  6988.481  6988.480  0.500  0.320230  149.949  108.86  0.131428
  6992.629  6992.630  0.500  0.318652  149.87  108.975  0.132759
  6996.792  6996.790  0.500  0.316458  149.751  109.127  0.133636
  7000.979  7000.980  0.500  0.314802  149.634  109.223  0.134781
  7005.188  7005.180  0.500  0.312983  149.533  109.348  0.135788
  7009.419  7009.410  0.500  0.311058  149.376  109.443  0.136733
  7013.661  7013.650  0.500  0.309105  149.284  109.59  0.137778
  7017.924  7017.910  0.500  0.307400  149.187  109.706  0.138898
  7022.200  7022.190  0.500  0.305742  149.114  109.834  0.140351
  7026.502  7026.490  0.500  0.303910  149.01  109.958  0.141392
  7030.816  7030.810  0.500  0.302056  148.91  110.088  0.142696
  7035.161  7035.150  0.500  0.300260  148.76  110.175  0.143928
  7039.524  7039.510  0.500  0.298633  148.669  110.287  0.145238
  7043.904  7043.890  0.500  0.296504  148.533  110.421  0.146764
  7048.297  7048.280  0.500  0.294813  148.416  110.521  0.148016
  7052.719  7052.700  0.500  0.293014  148.333  110.658  0.149401
  7057.147  7057.130  0.500  0.291241  148.225  110.774  0.150603
  7061.605  7061.580  0.500  0.289539  148.098  110.867  0.151950
  7066.040  7066.050  0.500  0.287543  147.952  110.98  0.153157
  7070.553  7070.540  0.500  0.285533  147.208  110.644  0.153917
  7075.039  7075.050  0.500  0.283760  146.726  110.477  0.155141
  7079.566  7079.580  0.500  0.281846  147.569  111.324  0.157877
  7084.119  7084.130  0.500  0.280105  147.264  111.288  0.159171
  7088.688  7088.700  0.500  0.278164  147.298  111.53  0.160960
  7093.274  7093.280  0.500  0.276321  147.164  111.634  0.162214
  7097.877  7097.890  0.500  0.274640  147.05  111.735  0.163910
  7102.502  7102.510  0.500  0.272632  146.947  111.881  0.165369
  7107.188  7107.160  0.500  0.270775  146.787  111.967  0.166741
  7111.803  7111.820  0.500  0.268764  146.527  111.994  0.167701
  7116.479  7116.500  0.500  0.267248  146.238  111.943  0.168361
  7121.242  7121.200  0.500  0.265638  145.965  111.914  0.169030
  7125.959  7125.920  0.500  0.263729  145.651  111.887  0.169872
  7130.703  7130.660  0.500  0.261736  145.242  111.795  0.170798
  7135.400  7135.410  0.500  0.259974  145.007  111.811  0.172060
  7140.201  7140.190  0.500  0.258185  144.89  111.921  0.173609
  7144.969  7144.990  0.500  0.256024  144.824  112.111  0.175238
  7149.777  7149.800  0.500  0.254007  144.705  112.246  0.176828
  7154.617  7154.630  0.500  0.252133  144.577  112.357  0.178352
  7159.521  7159.490  0.500  0.250597  144.458  112.437  0.180030
  7164.391  7164.360  0.500  0.248473  144.249  112.513  0.181691
  7169.267  7169.250  0.500  0.246381  144.039  112.584  0.183455
  7174.146  7174.160  0.500  0.244437  143.846  112.652  0.184944
  7179.110  7179.090  0.500  0.242522  143.693  112.748  0.186868
  7184.017  7184.030  0.500  0.240708  143.522  112.819  0.188723
  7188.978  7189.000  0.500  0.238845  143.382  112.918  0.190239
  7193.970  7193.990  0.500  0.237071  143.045  112.854  0.191779
  7198.977  7198.990  0.500  0.235022  142.953  113.012  0.193495
  7203.999  7204.020  0.500  0.233127  142.745  113.062  0.195469
  7209.049  7209.060  0.500  0.231165  142.541  113.122  0.197163
  7214.119  7214.120  0.500  0.229265  142.346  113.182  0.198821
  7219.177  7219.200  0.500  0.227509  142.155  113.229  0.200431
  7224.277  7224.300  0.500  0.225746  141.956  113.27  0.202287
  7229.405  7229.420  0.500  0.223541  141.926  113.496  0.204288
  7234.543  7234.560  0.500  0.221729  141.717  113.534  0.206574
  7239.702  7239.720  0.500  0.219546  141.545  113.644  0.208344
  7244.886  7244.900  0.500  0.217635  138.949  111.774  0.206694
  7250.078  7250.090  0.500  0.215830  141.085  113.696  0.212050
  7255.289  7255.310  0.500  0.213925  140.76  113.651  0.213568
  7260.519  7260.540  0.500  0.212291  140.575  113.687  0.215426
  7265.775  7265.790  0.500  0.210460  139.338  112.894  0.215484
  7271.043  7271.060  0.500  0.208243  140.861  114.381  0.220183
  7276.323  7276.350  0.500  0.206305  140.835  114.581  0.222061
  7281.657  7281.660  0.500  0.204423  140.646  114.643  0.224121
  7286.972  7286.990  0.500  0.202394  140.316  114.606  0.225987
  7292.321  7292.340  0.500  0.200795  140.251  114.737  0.228085
  7297.691  7297.710  0.500  0.198835  140.058  114.803  0.230410
  7303.071  7303.090  0.500  0.196844  140.035  115.014  0.232714
  7308.477  7308.500  0.500  0.194893  139.824  115.064  0.234757
  7313.903  7313.920  0.500  0.192712  139.627  115.153  0.237031
  7319.357  7319.370  0.500  0.190729  139.454  115.239  0.239201
  7324.812  7324.830  0.500  0.188993  139.278  115.293  0.241536
  7330.290  7330.310  0.500  0.187075  139.089  115.358  0.243446
  7335.828  7335.810  0.500  0.184828  138.928  115.483  0.245972
  7341.312  7341.330  0.500  0.182870  138.656  115.483  0.247793
  7346.848  7346.870  0.500  0.181266  138.542  115.574  0.250370
  7352.400  7352.420  0.500  0.179039  138.35  115.671  0.252601
  7357.984  7358.000  0.500  0.177201  138.189  115.748  0.254719
  7363.583  7363.600  0.500  0.175230  137.974  115.797  0.257094
  7369.194  7369.210  0.500  0.173424  137.794  115.854  0.259580
  7374.867  7374.850  0.500  0.171423  137.613  115.934  0.262035
  7380.486  7380.500  0.500  0.169245  137.424  116.028  0.264424
  7386.179  7386.170  0.500  0.167330  137.225  116.081  0.266906
  7391.839  7391.860  0.500  0.165627  137.052  116.133  0.269219