File: xdidata/Mn/Mn-Olmite.xdi
# XDI/1.0 BlueSky/1.10.0 BMM/2023-1.0-py310-tiled
# Beamline.name: BMM (06BM) -- Beamline for Materials Measurement (NIST)
# Beamline.xray_source: NSLS-II three-pole wiggler
# Beamline.collimation: paraboloid mirror, 5 nm Rh on 30 nm Pt
# Beamline.focusing: not in use
# Beamline.harmonic_rejection: flat mirror, Si stripe, pitch = 7.0 mrad relative to beam
# Beamline.software: Bluesky 1.10.0, Ophyd 1.7.0, DataBroker 2.0.0b13, Python 3.10.8, 2023-1.0-py310-tiled
# Detector.I0: 10 cm N2
# Detector.I1: 25 cm N2
# Detector.I2: 25 cm N2
# Element.symbol: Mn
# Element.edge: K
# Element.reference: Mn
# Element.reference_material: Mn metal powder
# Facility.name: NSLS-II
# Facility.energy: 3.0
# Facility.current: 400.5
# Facility.mode: top-off
# Facility.GUP: 123456
# Facility.SAF: 301027
# Facility.cycle: 2023-2
# Mono.name: Si(111)
# Mono.d_spacing: 3.13519
# Mono.encoder_resolution: 0.0000050 deg/ct
# Mono.angle_offset: 16.0754 deg
# Mono.scan_mode: pseudo channel cut
# Mono.scan_type: step
# Mono.direction: forward in energy
# Sample.name: CaMnSiO3(OH)(OH)
# Sample.prep: PEG pellet
# Sample.x: 123.848 mm
# Sample.y: 114.690 mm
# Sample.SDD_position: 205.000 mm
# Scan.experimenters: Bruce Ravel
# Scan.edge_energy: 6539.0
# Scan.start_time: 2023-05-08T11:54:45
# Scan.end_time: 2023-05-08T12:02:39
# Scan.transient_id: 75372
# Scan.uid: 18507fd3-c928-485e-876b-9c4d8e591d94
# Scan.plot_hint: ln(I0/It)  --  ln($5/$6)
# Column.1: energy eV
# Column.2: requested_energy eV
# Column.3: measurement_time seconds
# Column.4: xmu
# Column.5: I0 nA
# Column.6: It nA
# Column.7: Ir nA
# ///////////
# Olmite, N'Chwanning II Mine, Kuruma, Kalahari Manganese Field, Northoern Cape, SA
# -----------
# energy  requested_energy  measurement_time  xmu  I0  It  Ir
  6338.998  6339.000  0.500  2.607968  150.794  11.1112  0.571176
  6349.010  6349.000  0.500  2.593113  151.007  11.2933  0.588383
  6359.016  6359.000  0.500  2.578348  151.244  11.4793  0.605923
  6369.013  6369.000  0.500  2.564067  151.497  11.6639  0.624007
  6379.048  6379.000  0.500  2.550005  151.719  11.8464  0.641566
  6389.013  6389.000  0.500  2.535864  151.915  12.0307  0.659986
  6399.012  6399.000  0.500  2.521289  152.103  12.2224  0.679499
  6409.020  6409.000  0.500  2.507526  152.27  12.4054  0.698554
  6419.017  6419.000  0.500  2.493930  152.499  12.5941  0.718440
  6429.017  6429.000  0.500  2.480267  152.626  12.778  0.737907
  6439.011  6439.000  0.500  2.466290  152.77  12.9701  0.758127
  6449.009  6449.000  0.500  2.452633  150.125  12.9207  0.764244
  6459.015  6459.000  0.500  2.439156  152.677  13.3187  0.797080
  6469.012  6469.000  0.500  2.426133  153.271  13.5458  0.819943
  6479.011  6479.000  0.500  2.412597  153.352  13.7377  0.840561
  6488.987  6489.000  0.500  2.399732  153.538  13.9324  0.860985
  6498.989  6499.000  0.500  2.386782  153.617  14.1212  0.879886
  6508.987  6509.000  0.500  2.374144  153.784  14.3164  0.896879
  6510.993  6511.000  0.500  2.371759  153.812  14.3532  0.899874
  6512.987  6513.000  0.500  2.369253  153.849  14.3926  0.901919
  6514.992  6515.000  0.500  2.366947  153.854  14.4263  0.904071
  6516.992  6517.000  0.500  2.364587  153.895  14.4643  0.905780
  6518.993  6519.000  0.500  2.362152  153.933  14.5031  0.906575
  6520.997  6521.000  0.500  2.359899  153.958  14.5382  0.906659
  6522.994  6523.000  0.500  2.357853  153.971  14.5692  0.905242
  6525.000  6525.000  0.500  2.355873  153.977  14.5987  0.902772
  6526.996  6527.000  0.500  2.353926  153.989  14.6282  0.897713
  6528.998  6529.000  0.500  2.352361  154.029  14.655  0.889656
  6529.283  6529.300  0.500  2.351965  154.028  14.6607  0.888275
  6529.583  6529.600  0.500  2.352164  154.033  14.6583  0.885388
  6529.884  6529.900  0.500  2.351732  154.026  14.6639  0.884003
  6530.183  6530.200  0.500  2.351264  154.02  14.6702  0.881692
  6530.485  6530.500  0.500  2.351031  154.023  14.6739  0.879634
  6530.784  6530.800  0.500  2.351296  154.025  14.6702  0.876957
  6531.086  6531.100  0.500  2.350780  154.023  14.6776  0.874330
  6531.387  6531.400  0.500  2.350774  154.028  14.6782  0.871198
  6531.687  6531.700  0.500  2.350601  154.031  14.6809  0.867913
  6531.988  6532.000  0.500  2.350763  154.035  14.679  0.863794
  6532.290  6532.300  0.500  2.350337  154.02  14.6838  0.860190
  6532.590  6532.600  0.500  2.350161  154.028  14.6872  0.855736
  6532.888  6532.900  0.500  2.349974  154.025  14.6896  0.851085
  6533.184  6533.200  0.500  2.349752  154.024  14.6928  0.845923
  6533.487  6533.500  0.500  2.349621  154.01  14.6934  0.840087
  6533.787  6533.800  0.500  2.349731  154.016  14.6923  0.833024
  6534.089  6534.100  0.500  2.349733  154.011  14.6919  0.825743
  6534.392  6534.400  0.500  2.349688  154.003  14.6917  0.817009
  6534.691  6534.700  0.500  2.349912  153.997  14.6879  0.807556
  6534.996  6535.000  0.500  2.350147  154.007  14.6853  0.795491
  6535.294  6535.300  0.500  2.350141  153.992  14.684  0.782064
  6535.594  6535.600  0.500  2.350461  153.998  14.6798  0.766201
  6535.896  6535.900  0.500  2.350488  153.999  14.6796  0.747172
  6536.196  6536.200  0.500  2.350691  153.994  14.6761  0.723869
  6536.493  6536.500  0.500  2.351329  154.002  14.6675  0.694162
  6536.791  6536.800  0.500  2.351766  153.988  14.6598  0.654934
  6537.093  6537.100  0.500  2.352493  153.996  14.6499  0.601720
  6537.392  6537.400  0.500  2.353228  153.997  14.6392  0.531790
  6537.695  6537.700  0.500  2.354590  153.994  14.6191  0.445346
  6537.992  6538.000  0.500  2.356564  153.986  14.5894  0.352715
  6538.298  6538.300  0.500  2.360130  153.977  14.5367  0.265991
  6538.596  6538.600  0.500  2.365510  153.974  14.4584  0.202243
  6538.897  6538.900  0.500  2.373676  153.978  14.3412  0.160339
  6539.199  6539.200  0.500  2.383059  153.979  14.2073  0.134004
  6539.498  6539.500  0.500  2.388624  153.98  14.1286  0.116222
  6539.794  6539.800  0.500  2.389162  153.981  14.121  0.103563
  6540.095  6540.100  0.500  2.385112  153.984  14.1787  0.093440
  6540.392  6540.400  0.500  2.379319  153.97  14.2597  0.085435
  6540.696  6540.700  0.500  2.374437  153.966  14.3291  0.078587
  6540.993  6541.000  0.500  2.371302  153.966  14.3742  0.073515
  6541.297  6541.300  0.500  2.370604  153.969  14.3844  0.070183
  6541.598  6541.600  0.500  2.371560  153.96  14.3699  0.068187
  6541.902  6541.900  0.500  2.373434  153.96  14.3429  0.067542
  6542.199  6542.200  0.500  2.376776  153.96  14.2951  0.067129
  6542.500  6542.500  0.500  2.382074  153.973  14.2208  0.066119
  6542.801  6542.800  0.500  2.389569  153.98  14.1152  0.064146
  6543.101  6543.100  0.500  2.399931  153.979  13.9696  0.060957
  6543.397  6543.400  0.500  2.413825  153.98  13.777  0.057208
  6543.698  6543.700  0.500  2.433719  153.98  13.5056  0.053026
  6543.995  6544.000  0.500  2.461297  153.987  13.1389  0.048934
  6544.296  6544.300  0.500  2.498418  153.982  12.6596  0.044720
  6544.598  6544.600  0.500  2.545922  153.975  12.0717  0.041182
  6544.898  6544.900  0.500  2.600578  153.973  11.4295  0.037828
  6545.200  6545.200  0.500  2.658989  153.979  10.7814  0.034716
  6545.501  6545.500  0.500  2.715733  153.974  10.1863  0.032008
  6545.801  6545.800  0.500  2.767179  153.964  9.674970  0.029251
  6546.098  6546.100  0.500  2.812828  153.964  9.243207  0.026793
  6546.397  6546.400  0.500  2.853408  153.969  8.875907  0.024269
  6546.700  6546.700  0.500  2.889836  153.972  8.558557  0.022036
  6546.998  6547.000  0.500  2.922370  153.981  8.285102  0.020067
  6547.295  6547.300  0.500  2.951501  153.976  8.046993  0.018029
  6547.597  6547.600  0.500  2.979004  153.974  7.828548  0.016382
  6547.900  6547.900  0.500  3.006461  153.955  7.615613  0.014813
  6548.199  6548.200  0.500  3.034528  153.946  7.404412  0.013194
  6548.502  6548.500  0.500  3.064012  153.961  7.189985  0.011959
  6548.800  6548.800  0.500  3.096630  153.942  6.958394  0.010853
  6549.098  6549.100  0.500  3.133805  153.944  6.704512  0.009582
  6549.401  6549.400  0.500  3.176314  153.945  6.425552  0.008432
  6549.697  6549.700  0.500  3.221578  153.945  6.141176  0.007642
  6549.998  6550.000  0.500  3.267352  153.934  5.865989  0.006715
  6550.296  6550.300  0.500  3.311769  153.934  5.611162  0.006021
  6550.601  6550.600  0.500  3.352554  153.923  5.386507  0.005392
  6550.903  6550.900  0.500  3.389582  153.921  5.190628  0.004918
  6551.204  6551.200  0.500  3.419907  153.918  5.035516  0.004448
  6551.501  6551.500  0.500  3.442662  153.919  4.922241  0.004047
  6551.799  6551.800  0.500  3.455556  153.912  4.858963  0.003797
  6552.097  6552.100  0.500  3.457090  153.91  4.851455  0.003554
  6552.398  6552.400  0.500  3.445471  153.902  4.907888  0.003417
  6552.700  6552.700  0.500  3.419565  153.895  5.036474  0.003183
  6552.996  6553.000  0.500  3.382019  153.898  5.229253  0.003203
  6553.303  6553.300  0.500  3.339400  153.89  5.456650  0.003031
  6553.605  6553.600  0.500  3.298098  153.892  5.686814  0.003101
  6553.903  6553.900  0.500  3.263835  153.88  5.884597  0.003044
  6554.204  6554.200  0.500  3.236268  153.882  6.049139  0.002988
  6554.500  6554.500  0.500  3.215705  153.898  6.175465  0.002972
  6554.798  6554.800  0.500  3.199606  153.885  6.275167  0.002920
  6555.097  6555.100  0.500  3.185684  153.872  6.362621  0.002883
  6555.399  6555.400  0.500  3.170531  154.212  6.474037  0.002946
  6555.697  6555.700  0.500  3.153334  154.44  6.596043  0.003021
  6555.999  6556.000  0.500  3.134357  154.458  6.723203  0.003006
  6556.305  6556.300  0.500  3.113594  154.462  6.864428  0.003116
  6556.603  6556.600  0.500  3.093368  154.454  7.004321  0.003210
  6556.905  6556.900  0.500  3.075707  154.445  7.128708  0.003291
  6557.200  6557.200  0.500  3.062064  154.433  7.226098  0.003540
  6557.500  6557.500  0.500  3.052925  154.431  7.292326  0.003688
  6557.803  6557.800  0.500  3.047796  154.421  7.329342  0.003769
  6558.099  6558.100  0.500  3.046031  154.415  7.341994  0.003910
  6558.402  6558.400  0.500  3.046764  154.425  7.337126  0.004089
  6558.699  6558.700  0.500  3.049038  154.421  7.320258  0.004171
  6559.001  6559.000  0.500  3.051720  154.421  7.300642  0.004286
  6559.301  6559.300  0.500  3.053291  154.42  7.289127  0.004455
  6559.606  6559.600  0.500  3.052682  154.43  7.294053  0.004415
  6559.903  6559.900  0.500  3.048889  154.425  7.321524  0.004524
  6560.205  6560.200  0.500  3.042937  154.424  7.365171  0.004593
  6560.500  6560.500  0.500  3.035887  154.417  7.416947  0.004626
  6560.799  6560.800  0.500  3.028661  154.408  7.470325  0.004674
  6561.098  6561.100  0.500  3.022574  154.399  7.515468  0.004775
  6561.399  6561.400  0.500  3.017420  154.342  7.551511  0.004746
  6561.698  6561.700  0.500  3.012405  154.199  7.582477  0.004654
  6562.000  6562.000  0.500  3.009016  154.111  7.603864  0.004622
  6562.301  6562.300  0.500  3.006494  154.074  7.621251  0.004589
  6562.607  6562.600  0.500  3.005003  154.225  7.640092  0.004654
  6562.906  6562.900  0.500  3.004415  154.333  7.649952  0.004613
  6563.204  6563.200  0.500  3.005038  154.371  7.647072  0.004606
  6563.505  6563.500  0.500  3.006473  154.389  7.636969  0.004660
  6563.802  6563.800  0.500  3.008373  154.392  7.622622  0.004518
  6564.000  6564.000  0.500  3.009845  154.392  7.611423  0.004643
  6564.999  6564.990  0.500  3.013355  154.409  7.585578  0.004426
  6566.004  6565.990  0.500  3.004985  154.421  7.649941  0.004461
  6567.031  6567.010  0.500  2.986286  154.431  7.794819  0.004462
  6568.049  6568.060  0.500  2.965244  154.413  7.959653  0.004593
  6569.112  6569.120  0.500  2.947318  154.434  8.104731  0.004549
  6570.194  6570.200  0.500  2.933027  154.457  8.222642  0.004750
  6571.290  6571.300  0.500  2.919790  154.47  8.332888  0.004827
  6572.415  6572.420  0.500  2.905547  154.478  8.452851  0.004804
  6573.555  6573.560  0.500  2.892752  154.487  8.562188  0.004899
  6574.711  6574.710  0.500  2.884847  154.506  8.631209  0.004929
  6575.892  6575.890  0.500  2.883295  154.526  8.645719  0.004838
  6577.080  6577.080  0.500  2.887203  154.545  8.613104  0.004668
  6578.302  6578.300  0.500  2.894729  154.555  8.549032  0.004649
  6579.534  6579.530  0.500  2.901834  154.561  8.488862  0.004542
  6580.782  6580.780  0.500  2.905759  154.571  8.456163  0.004392
  6582.053  6582.050  0.500  2.907945  154.582  8.438273  0.004288
  6583.345  6583.340  0.500  2.911298  154.591  8.410534  0.004168
  6584.651  6584.650  0.500  2.915975  154.6  8.371780  0.003935
  6585.984  6585.980  0.500  2.921394  154.356  8.313401  0.004061
  6587.330  6587.330  0.500  2.928197  154.589  8.269504  0.003959
  6588.702  6588.700  0.500  2.935785  154.616  8.208396  0.004197
  6590.084  6590.080  0.500  2.944320  154.621  8.138891  0.004445
  6591.493  6591.490  0.500  2.954642  154.629  8.055744  0.004407
  6592.918  6592.910  0.500  2.966418  154.642  7.962102  0.004445
  6594.353  6594.350  0.500  2.982621  154.667  7.835427  0.004621
  6595.818  6595.810  0.500  2.992311  154.687  7.760847  0.004696
  6597.297  6597.290  0.500  2.987886  154.697  7.795784  0.004901
  6598.800  6598.790  0.500  2.981493  154.71  7.846458  0.005017
  6600.316  6600.310  0.500  2.975554  154.715  7.893430  0.005182
  6601.861  6601.850  0.500  2.971433  154.72  7.926303  0.005213
  6603.414  6603.410  0.500  2.968369  154.423  7.935331  0.005258
  6604.988  6604.980  0.500  2.964833  154.745  7.980075  0.005171
  6606.587  6606.580  0.500  2.958731  154.756  8.029477  0.005108
  6608.196  6608.190  0.500  2.953772  154.784  8.070868  0.005021
  6609.834  6609.830  0.500  2.950242  154.822  8.101373  0.004924
  6611.487  6611.480  0.500  2.947449  154.825  8.124174  0.004771
  6613.159  6613.150  0.500  2.944757  154.826  8.146136  0.004577
  6614.843  6614.840  0.500  2.940231  154.83  8.183304  0.004644
  6616.561  6616.550  0.500  2.933093  154.837  8.242313  0.004642
  6618.287  6618.280  0.500  2.923785  154.832  8.319133  0.004592
  6620.040  6620.030  0.500  2.912943  154.825  8.409430  0.004672
  6621.798  6621.790  0.500  2.901757  154.83  8.504290  0.004725
  6623.590  6623.580  0.500  2.890770  154.849  8.599316  0.004821
  6625.389  6625.380  0.500  2.880860  154.878  8.686563  0.005055
  6627.218  6627.210  0.500  2.873931  154.882  8.747185  0.005019
  6629.065  6629.050  0.500  2.870244  154.829  8.776505  0.005166
  6630.920  6630.910  0.500  2.868111  154.89  8.798704  0.005221
  6632.799  6632.790  0.500  2.866321  154.914  8.815859  0.005448
  6634.699  6634.690  0.500  2.865067  154.924  8.827446  0.005480
  6636.614  6636.610  0.500  2.863632  154.936  8.840802  0.005306
  6638.559  6638.550  0.500  2.861780  154.942  8.857561  0.005206
  6640.520  6640.510  0.500  2.859897  154.934  8.873814  0.005235
  6642.487  6642.480  0.500  2.858353  154.934  8.887474  0.005243
  6644.488  6644.480  0.500  2.857343  154.948  8.897294  0.005141
  6646.497  6646.490  0.500  2.856694  154.967  8.904154  0.005202
  6648.527  6648.520  0.500  2.856854  154.965  8.902606  0.005375
  6650.589  6650.580  0.500  2.857615  154.981  8.896788  0.005627
  6652.659  6652.650  0.500  2.858883  154.971  8.884901  0.005749
  6654.750  6654.740  0.500  2.860868  154.973  8.867403  0.005812
  6656.858  6656.850  0.500  2.863474  154.958  8.843470  0.005761
  6658.991  6658.980  0.500  2.865643  154.964  8.824653  0.006046
  6661.126  6661.120  0.500  2.865362  154.97  8.827506  0.005972
  6663.292  6663.290  0.500  2.863575  154.973  8.843438  0.005903
  6665.488  6665.480  0.500  2.861181  154.966  8.864209  0.005833
  6667.687  6667.680  0.500  2.857455  154.968  8.897438  0.005846
  6669.907  6669.900  0.500  2.853134  154.965  8.935793  0.005894
  6672.158  6672.150  0.500  2.848240  154.946  8.978567  0.005885
  6674.418  6674.410  0.500  2.842685  154.949  9.028695  0.005719
  6676.702  6676.690  0.500  2.836898  154.945  9.080866  0.005762
  6678.995  6678.990  0.500  2.831439  154.949  9.130855  0.005680
  6681.320  6681.310  0.500  2.826194  154.964  9.179753  0.005787
  6683.659  6683.650  0.500  2.821355  154.967  9.224429  0.005759
  6686.006  6686.000  0.500  2.816565  154.956  9.268106  0.005855
  6688.383  6688.380  0.500  2.811970  154.956  9.310788  0.005820
  6690.782  6690.770  0.500  2.807669  154.959  9.351048  0.005902
  6693.197  6693.190  0.500  2.803450  154.935  9.389141  0.006059
  6695.629  6695.620  0.500  2.798781  154.916  9.431914  0.006291
  6698.077  6698.070  0.500  2.794426  154.909  9.472688  0.006387
  6700.557  6700.550  0.500  2.790453  154.895  9.509536  0.006543
  6703.051  6703.040  0.500  2.785561  154.903  9.556655  0.006766
  6705.559  6705.550  0.500  2.781057  154.871  9.597844  0.006784
  6708.082  6708.070  0.500  2.776803  154.87  9.638676  0.006933
  6710.630  6710.620  0.500  2.772542  154.849  9.678485  0.007031
  6713.198  6713.190  0.500  2.768467  154.847  9.717890  0.007088
  6715.777  6715.770  0.500  2.765090  154.844  9.750602  0.006983
  6718.388  6718.380  0.500  2.761814  154.822  9.781204  0.007067
  6721.007  6721.000  0.500  2.758368  154.791  9.812986  0.007122
  6723.662  6723.650  0.500  2.754634  154.784  9.849264  0.007238
  6726.325  6726.310  0.500  2.750405  154.8  9.892045  0.007272
  6728.995  6728.990  0.500  2.746145  154.775  9.932633  0.007238
  6731.700  6731.690  0.500  2.742103  154.751  9.971369  0.007268
  6734.424  6734.410  0.500  2.737939  154.743  10.0124  0.007231
  6737.159  6737.150  0.500  2.733898  154.71  10.0508  0.007365
  6739.910  6739.900  0.500  2.729848  154.675  10.0893  0.007300
  6742.687  6742.680  0.500  2.726002  154.643  10.1261  0.007307
  6745.481  6745.470  0.500  2.722786  154.586  10.155  0.007439
  6748.301  6748.290  0.500  2.719781  154.572  10.1846  0.007641
  6751.129  6751.120  0.500  2.716697  154.561  10.2154  0.007609
  6753.978  6753.970  0.500  2.714041  154.547  10.2416  0.007827
  6756.858  6756.850  0.500  2.711105  154.52  10.2699  0.007904
  6759.755  6759.740  0.500  2.707809  154.484  10.3014  0.007931
  6762.662  6762.650  0.500  2.704147  154.468  10.3381  0.007984
  6765.578  6765.570  0.500  2.700083  154.461  10.3798  0.008045
  6768.532  6768.520  0.500  2.695806  154.404  10.4204  0.008103
  6771.501  6771.490  0.500  2.691095  154.386  10.4684  0.008068
  6774.481  6774.470  0.500  2.686195  154.364  10.5183  0.008292
  6777.493  6777.480  0.500  2.681059  154.34  10.5709  0.008395
  6780.527  6780.500  0.500  2.676341  154.331  10.6202  0.008623
  6783.564  6783.550  0.500  2.671952  154.294  10.6644  0.008829
  6786.624  6786.610  0.500  2.666892  154.297  10.7186  0.008881
  6789.705  6789.690  0.500  2.661751  154.308  10.7747  0.009111
  6792.804  6792.790  0.500  2.656353  154.215  10.8265  0.009344
  6795.918  6795.910  0.500  2.651169  151.561  10.6955  0.009123
  6799.065  6799.050  0.500  2.646530  153.761  10.9012  0.009462
  6802.216  6802.200  0.500  2.641958  153.887  10.9601  0.009568
  6805.394  6805.380  0.500  2.637765  153.896  11.0068  0.009586
  6808.586  6808.570  0.500  2.632937  153.825  11.0549  0.009691
  6811.806  6811.790  0.500  2.627696  143.46  10.3642  0.009037
  6815.035  6815.020  0.500  2.622614  153.497  11.1458  0.009816
  6818.281  6818.270  0.500  2.618298  153.59  11.2008  0.009721
  6821.562  6821.550  0.500  2.613119  153.331  11.24  0.009691
  6824.854  6824.840  0.500  2.608897  152.342  11.2148  0.009852
  6828.161  6828.150  0.500  2.604828  153.305  11.3317  0.009934
  6831.483  6831.470  0.500  2.600781  153.34  11.3802  0.010167
  6834.839  6834.820  0.500  2.596797  153.333  11.4251  0.010137
  6838.199  6838.190  0.500  2.592376  153.033  11.4533  0.010355
  6841.583  6841.570  0.500  2.587913  150.407  11.3071  0.010204
  6844.999  6844.980  0.500  2.583374  152.685  11.5306  0.010511
  6848.411  6848.400  0.500  2.578908  152.777  11.5892  0.010697
  6851.867  6851.850  0.500  2.574436  152.778  11.6412  0.010911
  6855.327  6855.310  0.500  2.570383  152.767  11.6876  0.011029
  6858.800  6858.790  0.500  2.566221  152.74  11.7343  0.011290
  6862.303  6862.290  0.500  2.561609  152.54  11.7731  0.011267
  6865.820  6865.810  0.500  2.557105  152.721  11.8403  0.011346
  6869.362  6869.350  0.500  2.552345  152.707  11.8957  0.011620
  6872.914  6872.900  0.500  2.547746  152.686  11.9489  0.011741
  6876.496  6876.480  0.500  2.543012  152.655  12.0031  0.011818
  6880.096  6880.080  0.500  2.538227  152.615  12.0576  0.012203
  6883.700  6883.690  0.500  2.533538  152.556  12.1095  0.012157
  6887.333  6887.320  0.500  2.528402  153.04  12.2105  0.012445
  6890.991  6890.980  0.500  2.523230  153.033  12.2733  0.012458
  6894.659  6894.650  0.500  2.518403  153.005  12.3304  0.012738
  6898.351  6898.340  0.500  2.513166  152.97  12.3923  0.012950
  6902.060  6902.050  0.500  2.508126  152.886  12.4481  0.012928
  6905.792  6905.780  0.500  2.503225  152.79  12.5014  0.013145
  6909.527  6909.520  0.500  2.498145  152.697  12.5574  0.013127
  6913.301  6913.290  0.500  2.493181  152.56  12.6086  0.013286
  6917.095  6917.080  0.500  2.488295  152.45  12.6612  0.013405
  6920.891  6920.880  0.500  2.483401  152.297  12.7105  0.013717
  6924.720  6924.710  0.500  2.478646  152.214  12.7642  0.013847
  6928.556  6928.550  0.500  2.473802  152.125  12.8187  0.014013
  6932.420  6932.410  0.500  2.468868  152.025  12.8736  0.014048
  6936.301  6936.290  0.500  2.463792  151.934  12.9313  0.014251
  6940.199  6940.190  0.500  2.459104  151.896  12.9888  0.014325
  6944.117  6944.110  0.500  2.453939  151.807  13.0485  0.014512
  6948.057  6948.050  0.500  2.448949  151.721  13.1063  0.014721
  6952.020  6952.010  0.500  2.444300  151.627  13.1592  0.014922
  6955.989  6955.980  0.500  2.439103  151.573  13.2231  0.015031
  6959.994  6959.980  0.500  2.434246  151.491  13.2803  0.015304
  6964.000  6963.990  0.500  2.429691  151.416  13.3343  0.015416
  6968.042  6968.030  0.500  2.424685  151.34  13.3945  0.015563
  6972.090  6972.080  0.500  2.419700  151.236  13.4522  0.015880
  6976.151  6976.150  0.500  2.414829  151.152  13.5103  0.016155
  6980.243  6980.240  0.500  2.409982  151.042  13.5661  0.016329
  6984.357  6984.350  0.500  2.404968  150.957  13.6267  0.016470
  6988.479  6988.480  0.500  2.399917  150.842  13.6852  0.016744
  6992.633  6992.630  0.500  2.394870  150.756  13.7466  0.016881
  6996.790  6996.790  0.500  2.389900  150.639  13.8044  0.017042
  7000.981  7000.980  0.500  2.384844  150.52  13.8634  0.017362
  7005.184  7005.180  0.500  2.379785  150.433  13.9256  0.017462
  7009.408  7009.410  0.500  2.374651  150.291  13.9842  0.017684
  7013.653  7013.650  0.500  2.369434  150.193  14.0481  0.017923
  7017.915  7017.910  0.500  2.364393  150.088  14.1093  0.018110
  7022.195  7022.190  0.500  2.359221  150  14.1741  0.018285
  7026.498  7026.490  0.500  2.354098  149.881  14.2355  0.018598
  7030.818  7030.810  0.500  2.348752  149.772  14.3015  0.018703
  7035.157  7035.150  0.500  2.343772  149.614  14.3577  0.018992
  7039.516  7039.510  0.500  2.338718  149.526  14.4219  0.019223
  7043.893  7043.890  0.500  2.333501  149.428  14.4879  0.019568
  7048.289  7048.280  0.500  2.328091  149.299  14.5539  0.019634
  7052.707  7052.700  0.500  2.323159  149.191  14.6153  0.019774
  7057.135  7057.130  0.500  2.318098  149.087  14.6792  0.020076
  7061.590  7061.580  0.500  2.312905  148.968  14.7438  0.020284
  7066.063  7066.050  0.500  2.307603  148.819  14.8075  0.020595
  7070.549  7070.540  0.500  2.302268  148.086  14.8133  0.020804
  7075.066  7075.050  0.500  2.296930  147.503  14.834  0.020978
  7079.587  7079.580  0.500  2.291783  148.391  15.0003  0.021336
  7084.142  7084.130  0.500  2.286417  148.1  15.0514  0.021601
  7088.709  7088.700  0.500  2.280868  148.122  15.1374  0.021826
  7093.296  7093.280  0.500  2.275694  147.963  15.1996  0.022209
  7097.884  7097.890  0.500  2.270411  147.84  15.2674  0.022514
  7102.536  7102.510  0.500  2.265261  147.7  15.3317  0.022701
  7107.179  7107.160  0.500  2.259920  147.539  15.397  0.023039
  7111.840  7111.820  0.500  2.255021  147.228  15.44  0.023145
  7116.509  7116.500  0.500  2.249917  146.964  15.4912  0.023320
  7121.219  7121.200  0.500  2.245050  146.678  15.5364  0.023464
  7125.933  7125.920  0.500  2.240106  146.363  15.5799  0.023766
  7130.688  7130.660  0.500  2.235300  145.947  15.6105  0.023858
  7135.443  7135.410  0.500  2.229916  145.719  15.6702  0.024132
  7140.205  7140.190  0.500  2.224523  145.624  15.7447  0.024509
  7145.010  7144.990  0.500  2.219308  145.554  15.8194  0.024682
  7149.777  7149.800  0.500  2.213669  145.423  15.8946  0.024983
  7154.661  7154.630  0.500  2.208579  145.301  15.9623  0.025457
  7159.495  7159.490  0.500  2.202949  145.162  16.037  0.025805
  7164.362  7164.360  0.500  2.197546  144.955  16.1009  0.026091
  7169.237  7169.250  0.500  2.191983  144.723  16.1649  0.026306
  7174.146  7174.160  0.500  2.186768  144.528  16.2275  0.026667
  7179.076  7179.090  0.500  2.181378  144.352  16.2953  0.026948
  7184.017  7184.030  0.500  2.176064  144.151  16.3593  0.027272
  7188.984  7189.000  0.500  2.170498  144.006  16.4341  0.027681
  7193.979  7193.990  0.500  2.165251  143.676  16.4827  0.027955
  7198.996  7198.990  0.500  2.160079  143.552  16.5539  0.028309
  7204.030  7204.020  0.500  2.154672  143.357  16.621  0.028731
  7209.046  7209.060  0.500  2.149397  143.135  16.683  0.029068
  7214.110  7214.120  0.500  2.143741  142.926  16.7531  0.029455
  7219.188  7219.200  0.500  2.138109  142.714  16.8228  0.029830
  7224.273  7224.300  0.500  2.132463  142.548  16.8984  0.030075
  7229.403  7229.420  0.500  2.127363  142.477  16.9763  0.030622
  7234.585  7234.560  0.500  2.121914  142.197  17.0355  0.031047
  7239.708  7239.720  0.500  2.116469  141.998  17.1046  0.031331
  7244.877  7244.900  0.500  2.111111  139.419  16.8841  0.031206
  7250.080  7250.090  0.500  2.105705  141.57  17.2376  0.032061
  7255.293  7255.310  0.500  2.100343  141.298  17.2969  0.032539
  7260.519  7260.540  0.500  2.094574  141.051  17.3666  0.032874
  7265.770  7265.790  0.500  2.089281  139.949  17.3224  0.032836
  7271.045  7271.060  0.500  2.083879  141.362  17.5921  0.033718
  7276.337  7276.350  0.500  2.078514  141.321  17.6815  0.034251
  7281.641  7281.660  0.500  2.073250  141.119  17.7495  0.034552
  7286.974  7286.990  0.500  2.067686  140.764  17.8036  0.034906
  7292.330  7292.340  0.500  2.062530  140.692  17.8865  0.035415
  7297.713  7297.710  0.500  2.056857  140.491  17.9625  0.036100
  7303.068  7303.090  0.500  2.051771  140.493  18.0543  0.036468
  7308.486  7308.500  0.500  2.046139  140.259  18.1261  0.036852
  7313.903  7313.920  0.500  2.040712  140.058  18.1986  0.037405
  7319.351  7319.370  0.500  2.035223  139.881  18.2757  0.037925
  7324.816  7324.830  0.500  2.029877  139.688  18.3482  0.038313
  7330.292  7330.310  0.500  2.024469  139.481  18.4204  0.038782
  7335.791  7335.810  0.500  2.018874  139.309  18.5009  0.039180
  7341.310  7341.330  0.500  2.013383  139.041  18.5669  0.039703
  7346.848  7346.870  0.500  2.007824  138.901  18.6517  0.040313
  7352.405  7352.420  0.500  2.002385  138.701  18.7265  0.040702
  7357.979  7358.000  0.500  1.997064  138.507  18.8  0.041152
  7363.586  7363.600  0.500  1.991726  138.301  18.8725  0.041784
  7369.194  7369.210  0.500  1.986028  138.092  18.9517  0.042296
  7374.869  7374.850  0.500  1.980465  137.89  19.0296  0.042832
  7380.479  7380.500  0.500  1.974946  137.686  19.1065  0.043362
  7386.188  7386.170  0.500  1.969448  137.469  19.1815  0.043780
  7391.846  7391.860  0.500  1.963666  137.282  19.2665  0.044601