File: xdidata/Mn/Mn-Pyrolucite.xdi
# XDI/1.0 BlueSky/1.10.0 BMM/2023-1.0-py310-tiled
# Beamline.name: BMM (06BM) -- Beamline for Materials Measurement (NIST)
# Beamline.xray_source: NSLS-II three-pole wiggler
# Beamline.collimation: paraboloid mirror, 5 nm Rh on 30 nm Pt
# Beamline.focusing: not in use
# Beamline.harmonic_rejection: flat mirror, Si stripe, pitch = 7.0 mrad relative to beam
# Beamline.software: Bluesky 1.10.0, Ophyd 1.7.0, DataBroker 2.0.0b13, Python 3.10.8, 2023-1.0-py310-tiled
# Detector.I0: 10 cm N2
# Detector.I1: 25 cm N2
# Detector.I2: 25 cm N2
# Element.symbol: Mn
# Element.edge: K
# Element.reference: Mn
# Element.reference_material: Mn metal powder
# Facility.name: NSLS-II
# Facility.energy: 3.0
# Facility.current: 400.1
# Facility.mode: top-off
# Facility.GUP: 123456
# Facility.SAF: 301027
# Facility.cycle: 2023-2
# Mono.name: Si(111)
# Mono.d_spacing: 3.13519
# Mono.encoder_resolution: 0.0000050 deg/ct
# Mono.angle_offset: 16.0754 deg
# Mono.scan_mode: pseudo channel cut
# Mono.scan_type: step
# Mono.direction: forward in energy
# Sample.name: MnO2
# Sample.prep: powder on tape
# Sample.x: 123.848 mm
# Sample.y: 114.690 mm
# Sample.SDD_position: 205.000 mm
# Scan.experimenters: Bruce Ravel
# Scan.edge_energy: 6539.0
# Scan.start_time: 2023-05-08T11:28:53
# Scan.end_time: 2023-05-08T11:36:52
# Scan.transient_id: 75369
# Scan.uid: e33fcfa9-e239-4062-a66d-db816c8f57ff
# Scan.plot_hint: ln(I0/It)  --  ln($5/$6)
# Column.1: energy eV
# Column.2: requested_energy eV
# Column.3: measurement_time seconds
# Column.4: xmu
# Column.5: I0 nA
# Column.6: It nA
# Column.7: Ir nA
# ///////////
# Welcome to BMM
# -----------
# energy  requested_energy  measurement_time  xmu  I0  It  Ir
  6338.998  6339.000  0.500  2.238266  150.548  16.0549  0.822197
  6349.008  6349.000  0.500  2.224653  150.783  16.3004  0.846345
  6359.022  6359.000  0.500  2.210919  151.024  16.5522  0.870775
  6368.999  6369.000  0.500  2.197721  151.274  16.7999  0.895193
  6379.060  6379.000  0.500  2.184174  151.508  17.0554  0.921029
  6389.003  6389.000  0.500  2.170713  151.71  17.3095  0.946843
  6399.012  6399.000  0.500  2.157654  151.891  17.558  0.972954
  6409.018  6409.000  0.500  2.144568  152.086  17.8121  0.999741
  6419.018  6419.000  0.500  2.131638  152.32  18.0717  1.027402
  6429.019  6429.000  0.500  2.118498  152.453  18.3267  1.054866
  6439.018  6439.000  0.500  2.105788  152.608  18.58  1.082514
  6449.014  6449.000  0.500  2.092580  149.995  18.5046  1.091524
  6459.006  6459.000  0.500  2.079690  152.528  19.0613  1.137306
  6469.014  6469.000  0.500  2.066946  153.118  19.3805  1.169831
  6479.013  6479.000  0.500  2.054346  153.202  19.6369  1.198335
  6490.600  6489.000  0.500  2.041645  153.059  19.8693  1.225275
  6498.986  6499.000  0.500  2.030717  153.511  20.147  1.252679
  6508.978  6509.000  0.500  2.018794  153.669  20.4096  1.275471
  6510.986  6511.000  0.500  2.016222  153.709  20.4675  1.279535
  6512.981  6513.000  0.500  2.013855  153.738  20.5199  1.282972
  6514.987  6515.000  0.500  2.011708  153.743  20.5647  1.285337
  6516.990  6517.000  0.500  2.009644  153.793  20.6139  1.287200
  6518.990  6519.000  0.500  2.007362  153.846  20.668  1.289176
  6520.992  6521.000  0.500  2.004780  153.874  20.7252  1.289853
  6522.990  6523.000  0.500  2.002723  153.889  20.7699  1.287290
  6524.997  6525.000  0.500  2.000821  153.907  20.812  1.284136
  6526.992  6527.000  0.500  1.998841  153.927  20.8559  1.277112
  6528.998  6529.000  0.500  1.997098  153.968  20.8979  1.265664
  6529.283  6529.300  0.500  1.996639  153.975  20.9084  1.263534
  6529.584  6529.600  0.500  1.996752  153.993  20.9085  1.260399
  6529.882  6529.900  0.500  1.996409  153.994  20.9157  1.257187
  6530.183  6530.200  0.500  1.996100  154.001  20.9233  1.254765
  6530.485  6530.500  0.500  1.996324  154.001  20.9186  1.250833
  6530.784  6530.800  0.500  1.995981  154.015  20.9277  1.247831
  6531.088  6531.100  0.500  1.995642  154.012  20.9342  1.243779
  6531.389  6531.400  0.500  1.995399  154.018  20.9402  1.239550
  6531.691  6531.700  0.500  1.995010  154.018  20.9484  1.235163
  6531.990  6532.000  0.500  1.994906  154.022  20.9511  1.229377
  6532.294  6532.300  0.500  1.994820  154.028  20.9537  1.224376
  6532.590  6532.600  0.500  1.994688  154.039  20.958  1.218233
  6532.889  6532.900  0.500  1.995160  154.03  20.9468  1.210733
  6533.188  6533.200  0.500  1.995058  154.04  20.9504  1.202937
  6533.487  6533.500  0.500  1.994642  154.038  20.9588  1.194837
  6533.785  6533.800  0.500  1.994502  154.045  20.9627  1.184976
  6534.089  6534.100  0.500  1.994258  154.052  20.9687  1.174789
  6534.389  6534.400  0.500  1.994119  154.04  20.97  1.162923
  6534.692  6534.700  0.500  1.994087  154.038  20.9704  1.149006
  6534.992  6535.000  0.500  1.994462  154.043  20.9632  1.132085
  6535.294  6535.300  0.500  1.994538  154.035  20.9605  1.112294
  6535.594  6535.600  0.500  1.994336  154.03  20.9641  1.089997
  6535.894  6535.900  0.500  1.994714  154.036  20.957  1.062267
  6536.194  6536.200  0.500  1.994643  154.043  20.9595  1.028731
  6536.493  6536.500  0.500  1.994838  154.053  20.9567  0.986012
  6536.793  6536.800  0.500  1.994998  154.051  20.953  0.928257
  6537.091  6537.100  0.500  1.995628  154.064  20.9416  0.851486
  6537.399  6537.400  0.500  1.996760  154.063  20.9178  0.748147
  6537.697  6537.700  0.500  1.998060  154.063  20.8906  0.624637
  6537.998  6538.000  0.500  2.000152  154.057  20.8462  0.490543
  6538.296  6538.300  0.500  2.003284  154.054  20.7805  0.370927
  6538.600  6538.600  0.500  2.008480  154.046  20.6718  0.281835
  6538.900  6538.900  0.500  2.014694  154.041  20.5431  0.225121
  6539.199  6539.200  0.500  2.020913  154.047  20.4166  0.189732
  6539.499  6539.500  0.500  2.025964  154.045  20.3134  0.164877
  6539.796  6539.800  0.500  2.029502  154.052  20.2426  0.146797
  6540.095  6540.100  0.500  2.031489  154.058  20.2031  0.132012
  6540.392  6540.400  0.500  2.032343  154.048  20.1846  0.119713
  6540.692  6540.700  0.500  2.033019  154.043  20.1703  0.109797
  6540.995  6541.000  0.500  2.034327  154.043  20.1439  0.102474
  6541.294  6541.300  0.500  2.037123  154.033  20.0864  0.097436
  6541.598  6541.600  0.500  2.039970  154.032  20.0292  0.094863
  6541.898  6541.900  0.500  2.042477  154.487  20.0381  0.094093
  6542.201  6542.200  0.500  2.043180  154.544  20.0313  0.093675
  6542.498  6542.500  0.500  2.042519  154.589  20.0504  0.092907
  6542.799  6542.800  0.500  2.041514  154.608  20.0731  0.090704
  6543.100  6543.100  0.500  2.041414  154.61  20.0753  0.086903
  6543.397  6543.400  0.500  2.041300  154.624  20.0794  0.082483
  6543.698  6543.700  0.500  2.041703  154.625  20.0715  0.077915
  6543.997  6544.000  0.500  2.042946  154.624  20.0465  0.073687
  6544.298  6544.300  0.500  2.045036  154.621  20.0041  0.070184
  6544.598  6544.600  0.500  2.047564  154.617  19.9531  0.067601
  6544.903  6544.900  0.500  2.050853  154.625  19.8886  0.065187
  6545.202  6545.200  0.500  2.055500  154.625  19.7965  0.063369
  6545.501  6545.500  0.500  2.060795  154.608  19.6898  0.061043
  6545.801  6545.800  0.500  2.067476  154.624  19.5606  0.058428
  6546.102  6546.100  0.500  2.076992  154.613  19.374  0.055145
  6546.401  6546.400  0.500  2.088651  154.608  19.1488  0.051565
  6546.699  6546.700  0.500  2.103453  154.612  18.8679  0.047798
  6546.998  6547.000  0.500  2.121664  154.611  18.5274  0.043996
  6547.294  6547.300  0.500  2.143839  154.62  18.122  0.040157
  6547.597  6547.600  0.500  2.171557  154.62  17.6267  0.036117
  6547.896  6547.900  0.500  2.204185  154.626  17.0615  0.032425
  6548.199  6548.200  0.500  2.240540  154.621  16.4519  0.028902
  6548.499  6548.500  0.500  2.277869  154.623  15.8492  0.025884
  6548.802  6548.800  0.500  2.316545  154.6  15.2456  0.022892
  6549.098  6549.100  0.500  2.353897  154.61  14.6877  0.020358
  6549.399  6549.400  0.500  2.388892  154.604  14.182  0.018169
  6549.697  6549.700  0.500  2.419329  154.609  13.7573  0.016260
  6549.997  6550.000  0.500  2.446114  154.606  13.3935  0.014678
  6550.300  6550.300  0.500  2.469873  154.608  13.0791  0.013295
  6550.601  6550.600  0.500  2.491765  154.606  12.7958  0.012140
  6550.903  6550.900  0.500  2.513694  154.608  12.5184  0.011071
  6551.204  6551.200  0.500  2.535934  154.609  12.2431  0.009866
  6551.504  6551.500  0.500  2.558345  154.603  11.9713  0.009169
  6551.799  6551.800  0.500  2.580651  154.601  11.7071  0.008490
  6552.100  6552.100  0.500  2.602701  154.599  11.4516  0.007819
  6552.396  6552.400  0.500  2.624324  154.593  11.2063  0.007204
  6552.698  6552.700  0.500  2.645105  154.59  10.9756  0.006664
  6552.996  6553.000  0.500  2.665542  154.587  10.7534  0.006128
  6553.300  6553.300  0.500  2.685002  154.592  10.5465  0.005761
  6553.605  6553.600  0.500  2.703206  154.595  10.3564  0.005384
  6553.903  6553.900  0.500  2.721530  154.579  10.1673  0.004962
  6554.204  6554.200  0.500  2.740328  154.588  9.978533  0.004787
  6554.500  6554.500  0.500  2.760018  154.585  9.783811  0.004468
  6554.800  6554.800  0.500  2.781094  154.596  9.580433  0.004191
  6555.098  6555.100  0.500  2.803324  154.601  9.370101  0.004039
  6555.395  6555.400  0.500  2.825142  154.597  9.167652  0.004030
  6555.697  6555.700  0.500  2.846709  154.6  8.972216  0.004013
  6555.997  6556.000  0.500  2.867579  154.606  8.787267  0.003942
  6556.303  6556.300  0.500  2.886588  154.613  8.622158  0.003951
  6556.603  6556.600  0.500  2.903285  154.596  8.478484  0.003951
  6556.905  6556.900  0.500  2.917085  154.601  8.362530  0.004040
  6557.202  6557.200  0.500  2.928509  154.584  8.266659  0.004001
  6557.504  6557.500  0.500  2.937840  154.578  8.189553  0.004091
  6557.799  6557.800  0.500  2.945997  154.584  8.123334  0.004186
  6558.098  6558.100  0.500  2.953483  154.588  8.062950  0.004314
  6558.396  6558.400  0.500  2.960192  154.582  8.008732  0.004380
  6558.699  6558.700  0.500  2.966337  154.593  7.960231  0.004548
  6558.999  6559.000  0.500  2.972447  154.584  7.911290  0.004589
  6559.301  6559.300  0.500  2.977636  154.582  7.870255  0.004649
  6559.606  6559.600  0.500  2.982439  154.598  7.833349  0.004723
  6559.904  6559.900  0.500  2.984109  154.583  7.819513  0.004777
  6560.207  6560.200  0.500  2.983296  154.586  7.826003  0.004955
  6560.504  6560.500  0.500  2.979765  154.582  7.853514  0.005043
  6560.801  6560.800  0.500  2.973616  154.59  7.902369  0.004862
  6561.100  6561.100  0.500  2.964978  154.577  7.970241  0.004959
  6561.397  6561.400  0.500  2.954806  154.511  8.048283  0.004902
  6561.698  6561.700  0.500  2.942893  154.378  8.137722  0.004904
  6562.000  6562.000  0.500  2.930070  154.287  8.237886  0.005105
  6562.303  6562.300  0.500  2.916872  154.267  8.346274  0.005128
  6562.604  6562.600  0.500  2.904292  154.428  8.460709  0.005168
  6562.908  6562.900  0.500  2.891657  154.534  8.574171  0.005152
  6563.205  6563.200  0.500  2.881169  154.549  8.665463  0.005242
  6563.503  6563.500  0.500  2.870857  154.572  8.756539  0.005201
  6563.800  6563.800  0.500  2.861297  154.584  8.841348  0.005267
  6564.000  6564.000  0.500  2.855087  154.588  8.896659  0.005100
  6564.999  6564.990  0.500  2.832837  154.607  9.097972  0.005356
  6566.006  6565.990  0.500  2.816210  154.604  9.250319  0.005201
  6567.035  6567.010  0.500  2.802800  154.609  9.375508  0.005231
  6568.051  6568.060  0.500  2.792211  154.58  9.473550  0.005212
  6569.117  6569.120  0.500  2.788688  154.599  9.508150  0.005333
  6570.192  6570.200  0.500  2.791629  154.614  9.481098  0.005433
  6571.297  6571.300  0.500  2.799057  154.626  9.411716  0.005442
  6572.415  6572.420  0.500  2.806108  154.631  9.345860  0.005377
  6573.563  6573.560  0.500  2.806757  154.643  9.340496  0.005229
  6574.709  6574.710  0.500  2.796643  154.656  9.436267  0.005357
  6575.892  6575.890  0.500  2.776048  154.674  9.633736  0.005376
  6577.084  6577.080  0.500  2.751016  154.681  9.878393  0.005343
  6578.299  6578.300  0.500  2.725458  154.697  10.1352  0.005390
  6579.539  6579.530  0.500  2.701231  154.695  10.3836  0.005348
  6580.786  6580.780  0.500  2.679331  154.692  10.6133  0.005436
  6582.052  6582.050  0.500  2.659943  154.7  10.8216  0.005301
  6583.341  6583.340  0.500  2.641938  154.705  11.0186  0.005175
  6584.648  6584.650  0.500  2.625658  154.714  11.2001  0.005288
  6585.984  6585.980  0.500  2.611902  154.462  11.3367  0.005326
  6587.334  6587.330  0.500  2.601503  154.677  11.4712  0.005467
  6588.702  6588.700  0.500  2.595129  154.693  11.5457  0.005634
  6590.084  6590.080  0.500  2.592467  154.696  11.5767  0.005905
  6591.496  6591.490  0.500  2.593331  154.686  11.566  0.006098
  6592.914  6592.910  0.500  2.596767  154.706  11.5278  0.006363
  6594.353  6594.350  0.500  2.601957  154.71  11.4684  0.006483
  6595.818  6595.810  0.500  2.609841  154.714  11.3786  0.006729
  6597.295  6597.290  0.500  2.621517  154.719  11.2469  0.006864
  6598.800  6598.790  0.500  2.632184  154.723  11.1279  0.007080
  6600.316  6600.310  0.500  2.641421  154.712  11.0247  0.007108
  6601.859  6601.850  0.500  2.650857  154.706  10.9208  0.007083
  6603.412  6603.410  0.500  2.659318  154.396  10.8071  0.006902
  6604.990  6604.980  0.500  2.666027  154.696  10.7557  0.006862
  6606.585  6606.580  0.500  2.670399  154.694  10.7086  0.006783
  6608.196  6608.190  0.500  2.674029  154.708  10.6708  0.006479
  6609.834  6609.830  0.500  2.677073  154.727  10.6397  0.006345
  6611.489  6611.480  0.500  2.679380  154.724  10.6149  0.006087
  6613.157  6613.150  0.500  2.680208  154.716  10.6056  0.005900
  6614.849  6614.840  0.500  2.679772  154.706  10.6095  0.005934
  6616.559  6616.550  0.500  2.678494  154.704  10.623  0.005752
  6618.291  6618.280  0.500  2.675803  154.674  10.6496  0.005795
  6620.039  6620.030  0.500  2.672238  154.675  10.6876  0.005857
  6621.798  6621.790  0.500  2.668064  154.659  10.7313  0.005890
  6623.587  6623.580  0.500  2.663501  154.672  10.7812  0.005990
  6625.387  6625.380  0.500  2.659182  154.668  10.8276  0.006257
  6627.214  6627.210  0.500  2.655257  154.672  10.8705  0.006216
  6629.061  6629.050  0.500  2.651826  154.617  10.904  0.006343
  6630.919  6630.910  0.500  2.649217  154.653  10.935  0.006510
  6632.805  6632.790  0.500  2.647059  154.664  10.9594  0.006623
  6634.699  6634.690  0.500  2.645919  154.673  10.9725  0.006588
  6636.621  6636.610  0.500  2.644550  154.681  10.9881  0.006641
  6638.561  6638.550  0.500  2.642252  154.667  11.0124  0.006469
  6640.517  6640.510  0.500  2.638159  154.653  11.0566  0.006322
  6642.487  6642.480  0.500  2.632012  154.662  11.1254  0.006561
  6644.493  6644.480  0.500  2.625042  154.658  11.2029  0.006524
  6646.493  6646.490  0.500  2.617700  154.647  11.2847  0.006734
  6648.529  6648.520  0.500  2.610013  154.64  11.3712  0.006895
  6650.591  6650.580  0.500  2.602820  154.644  11.4536  0.007103
  6652.657  6652.650  0.500  2.596694  154.637  11.5235  0.007375
  6654.750  6654.740  0.500  2.590983  154.634  11.5893  0.007439
  6656.860  6656.850  0.500  2.587129  154.619  11.6329  0.007609
  6658.989  6658.980  0.500  2.583890  154.622  11.6708  0.007782
  6661.126  6661.120  0.500  2.581184  154.621  11.7024  0.007832
  6663.302  6663.290  0.500  2.578587  154.611  11.7321  0.007891
  6665.490  6665.480  0.500  2.575815  154.583  11.7625  0.007923
  6667.691  6667.680  0.500  2.571972  154.577  11.8073  0.007783
  6669.907  6669.900  0.500  2.567429  154.576  11.8611  0.007718
  6672.156  6672.150  0.500  2.562091  154.564  11.9236  0.007537
  6674.418  6674.410  0.500  2.556217  154.551  11.9928  0.007580
  6676.696  6676.690  0.500  2.550156  154.536  12.0645  0.007410
  6678.993  6678.990  0.500  2.544800  154.554  12.1307  0.007576
  6681.322  6681.310  0.500  2.540916  154.548  12.1775  0.007502
  6683.660  6683.650  0.500  2.538049  154.552  12.2127  0.007579
  6686.002  6686.000  0.500  2.536387  154.532  12.2315  0.007520
  6688.387  6688.380  0.500  2.535337  154.533  12.2444  0.007664
  6690.782  6690.770  0.500  2.534705  154.517  12.2509  0.007704
  6693.200  6693.190  0.500  2.534630  154.484  12.2492  0.007895
  6695.629  6695.620  0.500  2.533977  154.489  12.2576  0.008100
  6698.081  6698.070  0.500  2.532990  154.473  12.2684  0.008103
  6700.559  6700.550  0.500  2.531667  154.457  12.2834  0.008355
  6703.049  6703.040  0.500  2.530767  154.451  12.2939  0.008439
  6705.551  6705.550  0.500  2.529150  154.428  12.3121  0.008720
  6708.082  6708.070  0.500  2.527396  154.427  12.3336  0.008904
  6710.628  6710.620  0.500  2.525217  154.412  12.3593  0.008860
  6713.200  6713.190  0.500  2.522680  154.412  12.3907  0.008851
  6715.779  6715.770  0.500  2.519743  154.396  12.4258  0.009072
  6718.384  6718.380  0.500  2.516592  154.369  12.4629  0.008992
  6721.014  6721.000  0.500  2.513555  154.367  12.5006  0.008987
  6723.660  6723.650  0.500  2.510125  154.351  12.5422  0.009155
  6726.318  6726.310  0.500  2.506518  154.361  12.5884  0.009074
  6729.000  6728.990  0.500  2.501787  154.336  12.6461  0.009068
  6731.698  6731.690  0.500  2.495887  154.314  12.719  0.009178
  6734.422  6734.410  0.500  2.489638  154.29  12.7968  0.009197
  6737.163  6737.150  0.500  2.483047  154.251  12.8782  0.009300
  6739.907  6739.900  0.500  2.476451  154.239  12.9624  0.009383
  6742.685  6742.680  0.500  2.470307  154.193  13.0384  0.009506
  6745.481  6745.470  0.500  2.464469  154.176  13.1133  0.009605
  6748.301  6748.290  0.500  2.459150  154.627  13.2217  0.009712
  6751.131  6751.120  0.500  2.454112  154.656  13.2911  0.009962
  6753.978  6753.970  0.500  2.449640  154.666  13.3515  0.010181
  6756.858  6756.850  0.500  2.444575  154.674  13.42  0.010221
  6759.753  6759.740  0.500  2.440226  154.659  13.4772  0.010290
  6762.666  6762.650  0.500  2.435940  154.631  13.5326  0.010414
  6765.580  6765.570  0.500  2.431425  154.606  13.5916  0.010376
  6768.532  6768.520  0.500  2.427231  154.585  13.6469  0.010489
  6771.497  6771.490  0.500  2.422464  154.569  13.7107  0.010533
  6774.485  6774.470  0.500  2.418554  154.55  13.7627  0.010712
  6777.495  6777.480  0.500  2.414581  154.533  13.816  0.010780
  6780.527  6780.500  0.500  2.410787  154.528  13.868  0.011128
  6783.563  6783.550  0.500  2.406908  154.511  13.9204  0.011397
  6786.626  6786.610  0.500  2.403256  154.521  13.9723  0.011569
  6789.703  6789.690  0.500  2.399589  154.517  14.0232  0.011760
  6792.800  6792.790  0.500  2.395701  154.429  14.0699  0.011978
  6795.926  6795.910  0.500  2.391840  151.948  13.8973  0.011937
  6799.067  6799.050  0.500  2.387390  154.004  14.1482  0.012204
  6802.212  6802.200  0.500  2.382965  154.142  14.2237  0.012305
  6805.398  6805.380  0.500  2.378516  154.173  14.29  0.012495
  6808.595  6808.570  0.500  2.374490  154.088  14.3397  0.012415
  6811.812  6811.790  0.500  2.370266  143.996  13.4573  0.011710
  6815.029  6815.020  0.500  2.366587  153.741  14.421  0.012531
  6818.287  6818.270  0.500  2.362883  153.907  14.4901  0.012566
  6821.562  6821.550  0.500  2.359622  153.635  14.5117  0.012523
  6824.852  6824.840  0.500  2.355898  152.633  14.4709  0.012440
  6828.157  6828.150  0.500  2.351842  153.582  14.6201  0.012831
  6831.479  6831.470  0.500  2.347670  153.631  14.6858  0.012868
  6834.835  6834.820  0.500  2.343550  153.619  14.7453  0.013217
  6838.201  6838.190  0.500  2.338850  153.305  14.7845  0.013208
  6841.579  6841.570  0.500  2.333975  150.813  14.6153  0.013226
  6844.999  6844.980  0.500  2.329207  153.037  14.9017  0.013586
  6848.417  6848.400  0.500  2.324368  153.148  14.9848  0.013720
  6851.864  6851.850  0.500  2.319629  153.145  15.0557  0.013897
  6855.327  6855.310  0.500  2.315038  153.121  15.1226  0.014175
  6858.804  6858.790  0.500  2.310492  153.117  15.1912  0.014341
  6862.301  6862.290  0.500  2.306073  152.927  15.2395  0.014545
  6865.826  6865.810  0.500  2.301476  153.08  15.325  0.014664
  6869.364  6869.350  0.500  2.296934  153.075  15.3942  0.014897
  6872.914  6872.900  0.500  2.292025  153.049  15.4674  0.015047
  6876.490  6876.480  0.500  2.287227  153.033  15.5401  0.015363
  6880.096  6880.080  0.500  2.281984  152.999  15.6183  0.015657
  6883.706  6883.690  0.500  2.276823  152.946  15.6937  0.015703
  6887.329  6887.320  0.500  2.271576  152.906  15.7721  0.015950
  6890.995  6890.980  0.500  2.266907  152.888  15.8441  0.016179
  6894.659  6894.650  0.500  2.261770  152.819  15.9185  0.016341
  6898.353  6898.340  0.500  2.256872  152.765  15.9911  0.016584
  6902.068  6902.050  0.500  2.251792  152.709  16.0666  0.016688
  6905.798  6905.780  0.500  2.246686  152.637  16.1412  0.016747
  6909.535  6909.520  0.500  2.241787  152.555  16.2117  0.017030
  6913.303  6913.290  0.500  2.237027  152.415  16.2742  0.017148
  6917.101  6917.080  0.500  2.232349  152.332  16.3416  0.017393
  6920.893  6920.880  0.500  2.227838  152.185  16.3996  0.017567
  6924.722  6924.710  0.500  2.222761  152.101  16.474  0.017646
  6928.562  6928.550  0.500  2.217963  152.007  16.543  0.017774
  6932.420  6932.410  0.500  2.213369  151.929  16.6106  0.017972
  6936.305  6936.290  0.500  2.208998  151.848  16.6745  0.018166
  6940.205  6940.190  0.500  2.204713  151.769  16.7375  0.018376
  6944.126  6944.110  0.500  2.200364  151.694  16.802  0.018525
  6948.063  6948.050  0.500  2.196041  151.61  16.8655  0.018776
  6952.024  6952.010  0.500  2.191738  151.539  16.9303  0.019126
  6955.994  6955.980  0.500  2.187369  151.463  16.9959  0.019247
  6959.994  6959.980  0.500  2.182869  151.393  17.0646  0.019475
  6964.004  6963.990  0.500  2.178461  151.339  17.134  0.019807
  6968.048  6968.030  0.500  2.173787  151.272  17.2066  0.020129
  6972.096  6972.080  0.500  2.168862  151.18  17.281  0.020343
  6976.166  6976.150  0.500  2.163898  151.099  17.3577  0.020597
  6980.247  6980.240  0.500  2.158867  150.998  17.4336  0.020960
  6984.355  6984.350  0.500  2.153863  150.911  17.511  0.021234
  6988.483  6988.480  0.500  2.148832  150.804  17.5868  0.021360
  6992.635  6992.630  0.500  2.143823  150.693  17.6621  0.021734
  6996.794  6996.790  0.500  2.139059  150.605  17.736  0.021765
  7000.983  7000.980  0.500  2.134043  150.489  17.8115  0.022043
  7005.186  7005.180  0.500  2.128801  150.387  17.8931  0.022434
  7009.413  7009.410  0.500  2.124130  150.266  17.9623  0.022589
  7013.655  7013.650  0.500  2.119123  150.166  18.0405  0.022780
  7017.911  7017.910  0.500  2.113902  150.081  18.1246  0.023059
  7022.193  7022.190  0.500  2.108503  149.984  18.211  0.023398
  7026.496  7026.490  0.500  2.103333  149.86  18.2903  0.023665
  7030.816  7030.810  0.500  2.098193  149.748  18.3708  0.023963
  7035.159  7035.150  0.500  2.093507  149.601  18.439  0.024175
  7039.518  7039.510  0.500  2.088628  149.505  18.5172  0.024526
  7043.899  7043.890  0.500  2.083733  149.385  18.5932  0.024715
  7048.289  7048.280  0.500  2.078810  149.238  18.6665  0.025092
  7052.709  7052.700  0.500  2.073798  149.144  18.7485  0.025322
  7057.135  7057.130  0.500  2.068730  149.033  18.8297  0.025716
  7061.594  7061.580  0.500  2.063854  148.917  18.907  0.026042
  7066.065  7066.050  0.500  2.058764  148.763  18.9839  0.026261
  7070.560  7070.540  0.500  2.053598  148.072  18.9936  0.026546
  7075.073  7075.050  0.500  2.048434  147.434  19.0096  0.026730
  7079.596  7079.580  0.500  2.043481  148.363  19.2244  0.027332
  7084.146  7084.130  0.500  2.038220  148.097  19.2912  0.027673
  7088.718  7088.700  0.500  2.033274  148.103  19.3876  0.027990
  7093.264  7093.280  0.500  2.028199  147.962  19.4677  0.028394
  7097.873  7097.890  0.500  2.023445  147.835  19.5437  0.028643
  7102.534  7102.510  0.500  2.018697  147.677  19.6157  0.029028
  7107.194  7107.160  0.500  2.013452  147.529  19.6991  0.029349
  7111.835  7111.820  0.500  2.008256  147.237  19.7626  0.029726
  7116.487  7116.500  0.500  2.003378  146.986  19.8253  0.029983
  7121.219  7121.200  0.500  1.998433  146.706  19.8857  0.030253
  7125.903  7125.920  0.500  1.993317  146.399  19.9459  0.030336
  7130.694  7130.660  0.500  1.988336  145.977  19.9877  0.030481
  7135.445  7135.410  0.500  1.983342  145.744  20.0556  0.030906
  7140.209  7140.190  0.500  1.978376  145.629  20.1396  0.031204
  7144.980  7144.990  0.500  1.973385  145.529  20.2265  0.031541
  7149.781  7149.800  0.500  1.968225  145.395  20.3123  0.031904
  7154.609  7154.630  0.500  1.963257  145.261  20.3947  0.032401
  7159.469  7159.490  0.500  1.958472  145.096  20.4692  0.032623
  7164.388  7164.360  0.500  1.953591  144.892  20.5404  0.033162
  7169.278  7169.250  0.500  1.948378  144.681  20.6178  0.033558
  7174.150  7174.160  0.500  1.943003  144.494  20.7021  0.034017
  7179.071  7179.090  0.500  1.937837  144.324  20.7849  0.034459
  7184.010  7184.030  0.500  1.932835  144.121  20.8597  0.034810
  7188.980  7189.000  0.500  1.927514  143.973  20.9494  0.035325
  7194.016  7193.990  0.500  1.922039  143.659  21.0184  0.035730
  7198.979  7198.990  0.500  1.916757  143.523  21.1098  0.036076
  7203.997  7204.020  0.500  1.911643  143.323  21.1885  0.036511
  7209.042  7209.060  0.500  1.906370  143.093  21.2664  0.037027
  7214.108  7214.120  0.500  1.901196  142.878  21.3445  0.037390
  7219.181  7219.200  0.500  1.896405  142.654  21.4134  0.037857
  7224.282  7224.300  0.500  1.891568  142.425  21.4827  0.038255
  7229.403  7229.420  0.500  1.886002  142.429  21.6032  0.038812
  7234.545  7234.560  0.500  1.880687  142.186  21.6813  0.039449
  7239.711  7239.720  0.500  1.875514  141.991  21.7638  0.039771
  7244.879  7244.900  0.500  1.870289  139.386  21.4764  0.039654
  7250.069  7250.090  0.500  1.865225  141.526  21.9168  0.040790
  7255.293  7255.310  0.500  1.859898  141.249  21.9908  0.041253
  7260.526  7260.540  0.500  1.854941  140.986  22.059  0.041668
  7265.770  7265.790  0.500  1.849673  139.985  22.0181  0.041854
  7271.041  7271.060  0.500  1.844407  141.294  22.3413  0.042933
  7276.339  7276.350  0.500  1.839369  141.227  22.4434  0.043325
  7281.648  7281.660  0.500  1.834257  141.03  22.527  0.043962
  7286.967  7286.990  0.500  1.829266  140.681  22.5837  0.044358
  7292.324  7292.340  0.500  1.824013  140.588  22.6876  0.044850
  7297.695  7297.710  0.500  1.818899  140.382  22.7705  0.045539
  7303.071  7303.090  0.500  1.813679  140.371  22.8879  0.046110
  7308.484  7308.500  0.500  1.808582  140.137  22.9665  0.046750
  7313.919  7313.920  0.500  1.803510  139.922  23.048  0.047220
  7319.351  7319.370  0.500  1.798175  139.738  23.1408  0.047935
  7324.805  7324.830  0.500  1.793015  139.546  23.2284  0.048289
  7330.292  7330.310  0.500  1.787897  139.355  23.3157  0.048980
  7335.791  7335.810  0.500  1.782789  139.163  23.4028  0.049495
  7341.316  7341.330  0.500  1.777582  138.872  23.4758  0.050254
  7346.844  7346.870  0.500  1.772486  138.728  23.5712  0.050864
  7352.405  7352.420  0.500  1.767201  138.515  23.6599  0.051563
  7357.984  7358.000  0.500  1.762137  138.308  23.7444  0.052097
  7363.579  7363.600  0.500  1.756847  138.085  23.8318  0.052606
  7369.189  7369.210  0.500  1.751726  137.876  23.918  0.053239
  7374.834  7374.850  0.500  1.746422  137.661  24.0077  0.054008
  7380.486  7380.500  0.500  1.741108  137.443  24.0974  0.054832
  7386.151  7386.170  0.500  1.736024  137.208  24.1788  0.055240
  7391.851  7391.860  0.500  1.730991  136.998  24.2636  0.055974