File: xdidata/Data/Re/Re-L1-Rhenium_metal.xdi
# XDI/1.0 BlueSky/1.10.0 BMM/2023-1.0-py310-tiled
# Beamline.name: BMM (06BM) -- Beamline for Materials Measurement (NIST)
# Beamline.xray_source: NSLS-II three-pole wiggler
# Beamline.collimation: paraboloid mirror, 5 nm Rh on 30 nm Pt
# Beamline.focusing: not in use
# Beamline.harmonic_rejection: flat mirror, Pt stripe, pitch = 7.0 mrad relative to beam
# Beamline.software: Bluesky 1.10.0, Ophyd 1.7.0, DataBroker 2.0.0b13, Python 3.10.8, 2023-1.0-py310-tiled
# Detector.I0: 10 cm N2
# Detector.I1: 25 cm N2
# Detector.I2: 25 cm N2
# Element.symbol: Re
# Element.edge: L1
# Element.reference: Re
# Element.reference_material: ReO2
# Facility.name: NSLS-II
# Facility.energy: 3.0
# Facility.current: 400.0
# Facility.mode: top-off
# Facility.GUP: 301027
# Facility.SAF: 310583
# Facility.cycle: 2023-2
# Mono.name: Si(111)
# Mono.d_spacing: 3.13519
# Mono.encoder_resolution: 0.0000050 deg/ct
# Mono.angle_offset: 16.0754 deg
# Mono.scan_mode: pseudo channel cut
# Mono.scan_type: step
# Mono.direction: forward in energy
# Sample.name: Re metal powder
# Sample.prep: powder on tape
# Sample.x: 145.711 mm
# Sample.y: 114.376 mm
# Sample.SDD_position: 205.000 mm
# Scan.experimenters: Bruce Ravel
# Scan.edge_energy: 12526.7
# Scan.start_time: 2023-06-27T18:51:22
# Scan.end_time: 2023-06-27T18:59:29
# Scan.transient_id: 85239
# Scan.uid: b701cb24-48b9-43e4-8448-aa0e4152638d
# Scan.plot_hint: ln(I0/It)  --  ln($5/$6)
# Column.1: energy eV
# Column.2: requested_energy eV
# Column.3: measurement_time seconds
# Column.4: xmu
# Column.5: I0 nA
# Column.6: It nA
# Column.7: Ir nA
# ///////////
# Welcome to BMM
# -----------
# energy  requested_energy  measurement_time  xmu  I0  It  Ir
  12326.711  12326.700  0.500  5.670397  55.9744  0.192916  0.006219
  12336.754  12336.700  0.500  5.659349  55.9173  0.194860  0.006452
  12346.774  12346.700  0.500  5.652537  55.8148  0.195832  0.006502
  12356.777  12356.700  0.500  5.642683  55.6361  0.197138  0.006555
  12366.790  12366.700  0.500  5.639536  55.5597  0.197488  0.006642
  12376.766  12376.700  0.500  5.636306  55.4571  0.197761  0.006625
  12386.738  12386.700  0.500  5.636883  55.326  0.197180  0.006804
  12396.720  12396.700  0.500  5.635664  55.2122  0.197014  0.006645
  12406.738  12406.700  0.500  5.618929  55.0837  0.199872  0.006876
  12416.739  12416.700  0.500  5.594312  54.9415  0.204325  0.006960
  12426.783  12426.700  0.500  5.575739  54.834  0.207748  0.007462
  12436.689  12436.700  0.500  5.565121  54.378  0.208220  0.007294
  12446.705  12446.700  0.500  5.564004  54.6013  0.209309  0.007397
  12456.751  12456.700  0.500  5.564058  54.4854  0.208853  0.007345
  12466.719  12466.700  0.500  5.565912  54.3586  0.207981  0.007355
  12476.730  12476.700  0.500  5.564555  54.2311  0.207775  0.007495
  12486.737  12486.700  0.500  5.559058  53.7871  0.207210  0.007451
  12496.740  12496.700  0.500  5.551810  54.0083  0.209576  0.007603
  12498.680  12498.700  0.500  5.550495  53.9867  0.209767  0.007513
  12500.661  12500.700  0.500  5.549059  53.9552  0.209946  0.007596
  12502.670  12502.700  0.500  5.547785  53.9323  0.210124  0.007720
  12504.660  12504.700  0.500  5.545489  53.8931  0.210454  0.007620
  12506.670  12506.700  0.500  5.546484  53.8759  0.210178  0.007671
  12508.675  12508.700  0.500  5.545434  53.8445  0.210276  0.007469
  12510.666  12510.700  0.500  5.545522  53.8203  0.210163  0.007731
  12512.665  12512.700  0.500  5.545625  53.8022  0.210071  0.007612
  12514.678  12514.700  0.500  5.546215  53.7721  0.209830  0.007558
  12516.678  12516.700  0.500  5.548401  53.7459  0.209269  0.007583
  12516.951  12517.000  0.500  5.550176  53.7464  0.208900  0.007568
  12517.245  12517.300  0.500  5.549476  53.7434  0.209035  0.007682
  12517.566  12517.600  0.500  5.549741  53.7266  0.208914  0.007476
  12517.846  12517.900  0.500  5.550073  53.7266  0.208845  0.007694
  12518.153  12518.200  0.500  5.550590  53.7232  0.208723  0.007587
  12518.454  12518.500  0.500  5.550866  53.7185  0.208648  0.007550
  12518.747  12518.800  0.500  5.552154  53.7177  0.208376  0.007469
  12519.048  12519.100  0.500  5.551481  53.7084  0.208480  0.007562
  12519.355  12519.400  0.500  5.552226  53.704  0.208308  0.007495
  12519.656  12519.700  0.500  5.554222  53.7015  0.207883  0.007580
  12519.943  12520.000  0.500  5.553726  53.6976  0.207971  0.007517
  12520.250  12520.300  0.500  5.554677  53.6933  0.207756  0.007497
  12520.551  12520.600  0.500  5.556268  53.7011  0.207456  0.007382
  12520.844  12520.900  0.500  5.558697  53.6886  0.206905  0.007529
  12521.166  12521.200  0.500  5.556984  53.6759  0.207211  0.007516
  12521.466  12521.500  0.500  5.559467  53.6714  0.206679  0.007338
  12521.753  12521.800  0.500  5.559480  53.6682  0.206664  0.007471
  12522.067  12522.100  0.500  5.560867  53.6606  0.206349  0.007319
  12522.361  12522.400  0.500  5.562210  53.6595  0.206067  0.007422
  12522.662  12522.700  0.500  5.563699  53.6596  0.205761  0.007341
  12522.976  12523.000  0.500  5.565911  53.6563  0.205294  0.007419
  12523.284  12523.300  0.500  5.565486  53.6533  0.205370  0.007481
  12523.571  12523.600  0.500  5.569722  53.6515  0.204495  0.007126
  12523.879  12523.900  0.500  5.571999  53.6432  0.203998  0.007313
  12524.186  12524.200  0.500  5.573602  53.6439  0.203674  0.007272
  12524.473  12524.500  0.500  5.576481  53.6288  0.203031  0.007345
  12524.788  12524.800  0.500  5.578429  53.6288  0.202636  0.007246
  12525.095  12525.100  0.500  5.580140  53.6235  0.202270  0.007132
  12525.389  12525.400  0.500  5.583983  53.6199  0.201481  0.007152
  12525.697  12525.700  0.500  5.588309  53.6149  0.200592  0.007238
  12525.991  12526.000  0.500  5.592342  53.6123  0.199775  0.007041
  12526.278  12526.300  0.500  5.595851  53.6091  0.199063  0.007053
  12526.600  12526.600  0.500  5.600773  53.6013  0.198057  0.006856
  12526.887  12526.900  0.500  5.606071  53.6014  0.197011  0.007018
  12527.195  12527.200  0.500  5.613155  53.5886  0.195574  0.007003
  12527.502  12527.500  0.500  5.617827  53.5859  0.194652  0.006760
  12527.797  12527.800  0.500  5.623191  53.5733  0.193566  0.006922
  12528.104  12528.100  0.500  5.631043  53.5702  0.192040  0.006792
  12528.392  12528.400  0.500  5.637314  53.5688  0.190835  0.006733
  12528.693  12528.700  0.500  5.645043  53.5717  0.189376  0.006561
  12528.973  12529.000  0.500  5.650706  53.5546  0.188246  0.006429
  12529.288  12529.300  0.500  5.656781  53.5584  0.187119  0.006443
  12529.582  12529.600  0.500  5.665838  53.553  0.185413  0.006522
  12529.869  12529.900  0.500  5.670552  53.5468  0.184520  0.006298
  12530.184  12530.200  0.500  5.679205  53.5488  0.182937  0.006337
  12530.478  12530.500  0.500  5.686070  53.5377  0.181648  0.006236
  12530.793  12530.800  0.500  5.693215  53.5374  0.180354  0.006177
  12531.087  12531.100  0.500  5.700327  53.5412  0.179088  0.006057
  12531.382  12531.400  0.500  5.706087  53.5674  0.178147  0.006060
  12531.676  12531.700  0.500  5.713234  53.6798  0.177249  0.006004
  12532.005  12532.000  0.500  5.720177  53.6686  0.175986  0.005960
  12532.306  12532.300  0.500  5.725602  53.6655  0.175024  0.005904
  12532.607  12532.600  0.500  5.731996  53.664  0.173904  0.005740
  12532.901  12532.900  0.500  5.738901  53.6567  0.172684  0.005719
  12533.209  12533.200  0.500  5.745794  53.6511  0.171480  0.005552
  12533.510  12533.500  0.500  5.751463  53.6454  0.170492  0.005565
  12533.798  12533.800  0.500  5.758590  53.642  0.169270  0.005448
  12534.106  12534.100  0.500  5.765888  53.6452  0.168050  0.005344
  12534.401  12534.400  0.500  5.772146  53.6357  0.166972  0.005310
  12534.702  12534.700  0.500  5.778204  53.6278  0.165939  0.005307
  12535.003  12535.000  0.500  5.785293  53.625  0.164758  0.005270
  12535.304  12535.300  0.500  5.791551  53.6141  0.163697  0.005275
  12535.592  12535.600  0.500  5.796354  53.6061  0.162888  0.005044
  12535.893  12535.900  0.500  5.805784  53.6102  0.161372  0.005147
  12536.188  12536.200  0.500  5.812046  53.6001  0.160334  0.004991
  12536.489  12536.500  0.500  5.818397  53.6038  0.159330  0.004996
  12536.770  12536.800  0.500  5.824864  53.5971  0.158283  0.004850
  12537.092  12537.100  0.500  5.831372  53.5849  0.157221  0.004912
  12537.380  12537.400  0.500  5.839907  53.5792  0.155868  0.004786
  12537.688  12537.700  0.500  5.847681  53.5753  0.154650  0.004852
  12537.996  12538.000  0.500  5.855224  53.5679  0.153466  0.004614
  12538.305  12538.300  0.500  5.863726  53.5595  0.152143  0.004523
  12538.592  12538.600  0.500  5.871190  53.5498  0.150984  0.004512
  12538.901  12538.900  0.500  5.881704  53.5386  0.149374  0.004661
  12539.195  12539.200  0.500  5.890160  53.5186  0.148061  0.004434
  12539.511  12539.500  0.500  5.899735  53.4949  0.146585  0.004617
  12539.792  12539.800  0.500  5.908898  53.4424  0.145105  0.004316
  12540.114  12540.100  0.500  5.921605  53.3491  0.143023  0.004276
  12540.402  12540.400  0.500  5.928620  53.2427  0.141740  0.004074
  12540.717  12540.700  0.500  5.941377  53.1403  0.139674  0.004044
  12540.998  12541.000  0.500  5.951057  53.0865  0.138189  0.003958
  12541.299  12541.300  0.500  5.962033  53.0869  0.136681  0.003902
  12541.601  12541.600  0.500  5.972238  53.1285  0.135400  0.003750
  12541.903  12541.900  0.500  5.980679  53.2209  0.134495  0.003852
  12542.204  12542.200  0.500  5.990735  53.308  0.133367  0.003673
  12542.499  12542.500  0.500  6.002370  53.3767  0.131994  0.003766
  12542.787  12542.800  0.500  6.010259  53.4268  0.131080  0.003594
  12543.109  12543.100  0.500  6.019336  53.4727  0.130007  0.003424
  12543.391  12543.400  0.500  6.025785  53.4959  0.129228  0.003366
  12543.692  12543.700  0.500  6.035659  53.5066  0.127984  0.003535
  12543.980  12544.000  0.500  6.041130  53.5035  0.127278  0.003499
  12544.296  12544.300  0.500  6.051428  53.5014  0.125969  0.003396
  12544.591  12544.600  0.500  6.056649  53.5117  0.125337  0.003349
  12544.899  12544.900  0.500  6.062777  53.4916  0.124525  0.003291
  12545.187  12545.200  0.500  6.067045  53.4905  0.123992  0.003151
  12545.489  12545.500  0.500  6.073683  53.4825  0.123153  0.003135
  12545.812  12545.800  0.500  6.078361  53.4798  0.122572  0.003117
  12546.107  12546.100  0.500  6.081711  53.4733  0.122147  0.003047
  12546.408  12546.400  0.500  6.086602  53.4674  0.121538  0.003041
  12546.703  12546.700  0.500  6.089907  53.4613  0.121123  0.003069
  12547.012  12547.000  0.500  6.090791  53.4581  0.121009  0.002905
  12547.300  12547.300  0.500  6.093405  53.4592  0.120695  0.002962
  12547.616  12547.600  0.500  6.094606  53.445  0.120518  0.002948
  12547.897  12547.900  0.500  6.095265  53.4416  0.120431  0.003002
  12548.220  12548.200  0.500  6.094469  53.4355  0.120513  0.002860
  12548.487  12548.500  0.500  6.092609  53.4325  0.120731  0.002948
  12548.803  12548.800  0.500  6.091065  53.4305  0.120913  0.002886
  12549.098  12549.100  0.500  6.088756  53.4258  0.121182  0.002838
  12549.407  12549.400  0.500  6.085752  53.4207  0.121535  0.002857
  12549.695  12549.700  0.500  6.084001  53.4217  0.121750  0.002803
  12549.991  12550.000  0.500  6.081233  53.4154  0.122073  0.002801
  12550.286  12550.300  0.500  6.077837  53.4057  0.122466  0.002988
  12550.581  12550.600  0.500  6.072902  53.3992  0.123057  0.002752
  12550.890  12550.900  0.500  6.071884  53.403  0.123191  0.002812
  12551.178  12551.200  0.500  6.066652  53.3983  0.123827  0.002786
  12551.501  12551.500  0.500  6.062491  53.3899  0.124323  0.002947
  12551.679  12551.700  0.500  6.059891  53.3916  0.124651  0.002821
  12552.716  12552.690  0.500  6.048709  53.3722  0.126007  0.002794
  12553.692  12553.690  0.500  6.039738  53.367  0.127130  0.002924
  12554.722  12554.710  0.500  6.032583  53.3473  0.127996  0.002946
  12555.759  12555.760  0.500  6.028303  53.3269  0.128495  0.002952
  12556.838  12556.820  0.500  6.023007  53.3143  0.129147  0.002961
  12557.903  12557.900  0.500  6.019965  53.3047  0.129517  0.002938
  12559.024  12559.000  0.500  6.017502  53.2923  0.129806  0.003027
  12560.117  12560.120  0.500  6.014857  53.2806  0.130122  0.003056
  12561.279  12561.260  0.500  6.015429  53.2585  0.129993  0.003052
  12562.414  12562.410  0.500  6.014703  53.2445  0.130054  0.003008
  12563.590  12563.590  0.500  6.020362  53.2351  0.129297  0.003178
  12564.767  12564.780  0.500  6.026243  53.2182  0.128498  0.002875
  12565.992  12566.000  0.500  6.034289  53.2009  0.127427  0.003131
  12567.230  12567.230  0.500  6.043814  53.1867  0.126185  0.002916
  12568.497  12568.480  0.500  6.051464  53.1693  0.125182  0.003046
  12569.737  12569.750  0.500  6.059544  53.1553  0.124142  0.002984
  12571.038  12571.040  0.500  6.065277  53.1361  0.123388  0.003038
  12572.313  12572.350  0.500  6.071911  53.12  0.122535  0.003092
  12573.656  12573.680  0.500  6.074463  53.11  0.122200  0.003051
  12575.034  12575.030  0.500  6.075473  53.0872  0.122024  0.003044
  12576.392  12576.400  0.500  6.073748  53.0639  0.122181  0.003080
  12577.750  12577.780  0.500  6.066692  53.0387  0.122988  0.003179
  12579.157  12579.190  0.500  6.058534  53.0327  0.123981  0.003187
  12580.606  12580.610  0.500  6.052511  53.0225  0.124706  0.003260
  12582.048  12582.050  0.500  6.044929  53.0016  0.125606  0.003138
  12583.504  12583.510  0.500  6.039046  52.9823  0.126301  0.003356
  12585.381  12584.990  0.500  6.034903  52.9572  0.126765  0.003263
  12586.431  12586.490  0.500  6.029668  52.9436  0.127398  0.003287
  12588.081  12588.010  0.500  6.029229  52.9132  0.127380  0.003349
  12589.635  12589.550  0.500  6.024931  52.8861  0.127864  0.003337
  12591.086  12591.110  0.500  6.023356  52.8631  0.128010  0.003258
  12592.641  12592.680  0.500  6.020673  52.8505  0.128323  0.003360
  12594.266  12594.280  0.500  6.016134  52.8244  0.128843  0.003356
  12595.884  12595.890  0.500  6.012565  52.8048  0.129256  0.003480
  12597.516  12597.530  0.500  6.008816  52.7782  0.129676  0.003466
  12599.183  12599.180  0.500  6.006109  52.7626  0.129989  0.003425
  12600.844  12600.850  0.500  6.003949  52.733  0.130197  0.003294
  12602.540  12602.540  0.500  6.001914  52.7163  0.130421  0.003465
  12604.250  12604.250  0.500  6.001063  52.7007  0.130493  0.003495
  12605.961  12605.980  0.500  5.998665  52.6775  0.130749  0.003425
  12607.720  12607.730  0.500  5.998558  52.6638  0.130729  0.003398
  12609.473  12609.490  0.500  5.999087  52.6413  0.130604  0.003377
  12611.282  12611.280  0.500  5.998484  52.6182  0.130625  0.003388
  12613.085  12613.080  0.500  5.998857  52.5905  0.130508  0.003463
  12614.930  12614.910  0.500  6.000909  52.5754  0.130203  0.003425
  12616.755  12616.750  0.500  6.003533  52.5532  0.129807  0.003329
  12618.600  12618.610  0.500  6.007888  52.5181  0.129156  0.003267
  12620.482  12620.490  0.500  6.010207  52.4897  0.128788  0.003346
  12622.377  12622.390  0.500  6.010911  52.4029  0.128484  0.003181
  12624.294  12624.310  0.500  6.010505  52.4368  0.128619  0.003400
  12626.268  12626.250  0.500  6.004928  52.4284  0.129318  0.003382
  12628.221  12628.210  0.500  6.003097  52.343  0.129344  0.003424
  12630.181  12630.180  0.500  6.000462  52.3744  0.129763  0.003376
  12632.177  12632.180  0.500  5.998194  52.3613  0.130025  0.003449
  12634.167  12634.190  0.500  5.993000  52.2969  0.130542  0.003357
  12636.199  12636.220  0.500  5.990216  52.2867  0.130880  0.003377
  12638.287  12638.280  0.500  5.989099  52.2836  0.131019  0.003459
  12640.349  12640.350  0.500  5.985927  52.2564  0.131366  0.003452
  12642.452  12642.440  0.500  5.982669  52.1617  0.131556  0.003521
  12644.571  12644.550  0.500  5.978485  52.2087  0.132227  0.003566
  12646.669  12646.680  0.500  5.975718  52.1899  0.132545  0.003398
  12648.810  12648.820  0.500  5.969557  52.1489  0.133260  0.003407
  12650.965  12650.990  0.500  5.964317  52.1267  0.133903  0.003587
  12653.198  12653.180  0.500  5.956177  52.1072  0.134947  0.003545
  12655.397  12655.380  0.500  5.947865  52.0862  0.136018  0.003618
  12657.610  12657.600  0.500  5.939970  52.0489  0.136998  0.003504
  12659.839  12659.850  0.500  5.932766  52.0277  0.137933  0.003839
  12662.103  12662.110  0.500  5.926407  51.9986  0.138735  0.003803
  12664.389  12664.390  0.500  5.920929  51.9662  0.139410  0.003794
  12666.703  12666.690  0.500  5.916213  51.943  0.140007  0.003816
  12669.033  12669.010  0.500  5.916748  51.911  0.139845  0.003914
  12671.370  12671.350  0.500  5.919020  51.8847  0.139457  0.003932
  12673.702  12673.700  0.500  5.923950  51.8613  0.138709  0.003828
  12676.083  12676.080  0.500  5.930418  51.8269  0.137723  0.003829
  12678.486  12678.470  0.500  5.936802  51.7999  0.136775  0.003755
  12680.890  12680.890  0.500  5.939766  51.7728  0.136300  0.003574
  12683.309  12683.320  0.500  5.940870  51.7442  0.136074  0.003820
  12685.757  12685.770  0.500  5.940486  51.7104  0.136037  0.003705
  12688.241  12688.250  0.500  5.938782  51.6818  0.136194  0.003652
  12690.733  12690.740  0.500  5.939177  51.6612  0.136086  0.003724
  12693.261  12693.250  0.500  5.939722  51.6208  0.135905  0.003792
  12695.748  12695.770  0.500  5.937253  51.5908  0.136162  0.003716
  12698.313  12698.320  0.500  5.938104  51.5636  0.135974  0.003754
  12700.894  12700.890  0.500  5.935792  51.5343  0.136212  0.003699
  12703.482  12703.470  0.500  5.934331  51.5007  0.136322  0.003621
  12706.072  12706.080  0.500  5.932178  51.6371  0.136978  0.003819
  12708.677  12708.700  0.500  5.931944  51.5966  0.136902  0.003713
  12711.346  12711.350  0.500  5.927996  51.5718  0.137378  0.003753
  12714.030  12714.010  0.500  5.926914  51.5383  0.137437  0.003808
  12716.681  12716.690  0.500  5.923402  51.5005  0.137820  0.003656
  12719.375  12719.390  0.500  5.917287  51.4699  0.138582  0.003845
  12722.119  12722.110  0.500  5.910903  51.434  0.139373  0.003862
  12724.864  12724.850  0.500  5.901752  51.4012  0.140564  0.003887
  12727.597  12727.600  0.500  5.892119  51.3709  0.141841  0.003919
  12730.366  12730.380  0.500  5.885275  51.3343  0.142714  0.004067
  12733.165  12733.170  0.500  5.878861  51.2889  0.143505  0.003944
  12736.021  12735.990  0.500  5.875549  51.2112  0.143763  0.004143
  12738.822  12738.820  0.500  5.874778  50.5498  0.142016  0.004098
  12741.674  12741.670  0.500  5.876821  51.2104  0.143578  0.004035
  12744.556  12744.550  0.500  5.880415  51.1797  0.142977  0.003947
  12747.446  12747.440  0.500  5.879641  51.1487  0.143001  0.004058
  12750.351  12750.350  0.500  5.877979  51.1116  0.143135  0.004004
  12753.272  12753.270  0.500  5.875755  51.0714  0.143341  0.004031
  12756.244  12756.220  0.500  5.872161  51.0421  0.143774  0.004088
  12759.211  12759.190  0.500  5.870632  51.0035  0.143885  0.004142
  12762.185  12762.170  0.500  5.872724  50.9659  0.143479  0.004068
  12765.176  12765.180  0.500  5.873563  50.9305  0.143259  0.004116
  12768.218  12768.200  0.500  5.874911  50.895  0.142966  0.004108
  12771.261  12771.250  0.500  5.872070  50.8559  0.143263  0.004260
  12774.319  12774.310  0.500  5.867654  50.8229  0.143804  0.004165
  12777.408  12777.390  0.500  5.860085  50.7826  0.144781  0.004237
  12780.520  12780.490  0.500  5.852226  50.7488  0.145826  0.004210
  12783.626  12783.610  0.500  5.845396  50.7105  0.146715  0.004345
  12786.755  12786.750  0.500  5.837960  50.6756  0.147708  0.004262
  12789.907  12789.900  0.500  5.831454  50.6382  0.148563  0.004281
  12793.089  12793.080  0.500  5.826974  50.6006  0.149119  0.004210
  12796.258  12796.270  0.500  5.820328  50.562  0.149999  0.004449
  12799.507  12799.490  0.500  5.816073  50.5194  0.150511  0.004509
  12802.744  12802.720  0.500  5.809548  50.4879  0.151402  0.004541
  12805.961  12805.970  0.500  5.805386  50.4497  0.151919  0.004587
  12809.259  12809.250  0.500  5.801015  50.4129  0.152473  0.004565
  12812.572  12812.540  0.500  5.799526  50.3731  0.152580  0.004661
  12815.866  12815.850  0.500  5.798424  50.3361  0.152636  0.004524
  12819.161  12819.170  0.500  5.799499  50.2997  0.152361  0.004455
  12822.544  12822.520  0.500  5.801679  50.2615  0.151914  0.004419
  12825.922  12825.890  0.500  5.802997  50.2092  0.151556  0.004460
  12829.266  12829.270  0.500  5.802790  50.1682  0.151464  0.004397
  12832.705  12832.680  0.500  5.800922  50.1376  0.151654  0.004513
  12836.124  12836.100  0.500  5.798238  50.0823  0.151894  0.004643
  12839.559  12839.550  0.500  5.798270  50.0554  0.151808  0.004562
  12843.018  12843.010  0.500  5.798742  50.0049  0.151583  0.004544
  12846.522  12846.490  0.500  5.799261  49.9681  0.151393  0.004608
  12849.999  12849.990  0.500  5.798829  49.9262  0.151332  0.004523
  12853.528  12853.510  0.500  5.798487  49.8758  0.151230  0.004611
  12857.088  12857.050  0.500  5.793081  49.8472  0.151963  0.004507
  12860.607  12860.600  0.500  5.788795  49.8062  0.152490  0.004672
  12864.193  12864.180  0.500  5.783019  49.7641  0.153244  0.004649
  12867.795  12867.780  0.500  5.776754  49.7278  0.154094  0.004891
  12871.407  12871.390  0.500  5.768255  49.6742  0.155242  0.004709
  12875.028  12875.020  0.500  5.759683  49.5753  0.156267  0.004924
  12878.694  12878.680  0.500  5.753647  49.4712  0.156883  0.004753
  12882.362  12882.350  0.500  5.748897  49.5558  0.157899  0.005011
  12886.069  12886.040  0.500  5.744729  49.5144  0.158426  0.004813
  12889.770  12889.750  0.500  5.741148  49.467  0.158842  0.005066
  12893.489  12893.480  0.500  5.740946  49.4263  0.158744  0.004955
  12897.224  12897.220  0.500  5.738503  49.3783  0.158978  0.005104
  12901.019  12900.990  0.500  5.736507  49.2776  0.158970  0.005007
  12904.787  12904.780  0.500  5.733403  49.2907  0.159507  0.004962
  12908.594  12908.580  0.500  5.731798  49.2422  0.159606  0.005027
  12912.440  12912.410  0.500  5.728181  49.1859  0.160001  0.004898
  12916.251  12916.250  0.500  5.724391  48.6935  0.159001  0.005002
  12920.131  12920.110  0.500  5.720342  49.1263  0.161065  0.005301
  12924.012  12923.990  0.500  5.717304  49.0719  0.161376  0.005090
  12927.896  12927.890  0.500  5.710494  48.9473  0.162066  0.005229
  12931.863  12931.810  0.500  5.709334  48.9726  0.162338  0.005163
  12935.796  12935.750  0.500  5.707845  48.9394  0.162470  0.005286
  12939.745  12939.710  0.500  5.705108  48.828  0.162544  0.005250
  12943.726  12943.680  0.500  5.700642  48.8264  0.163267  0.005198
  12947.696  12947.680  0.500  5.698291  48.7739  0.163475  0.005298
  12951.711  12951.690  0.500  5.694566  48.7252  0.163921  0.005429
  12955.751  12955.730  0.500  5.689635  48.3278  0.163388  0.005308
  12959.779  12959.780  0.500  5.683945  48.6862  0.165539  0.005468
  12963.876  12963.850  0.500  5.677212  48.6261  0.166451  0.005431
  12967.975  12967.940  0.500  5.671041  48.5835  0.167335  0.005409
  12972.062  12972.050  0.500  5.666477  48.5358  0.167935  0.005616
  12976.225  12976.180  0.500  5.660985  48.4472  0.168552  0.005567
  12980.368  12980.330  0.500  5.656542  48.4408  0.169280  0.005657
  12984.515  12984.490  0.500  5.653983  48.3894  0.169534  0.005675
  12988.730  12988.680  0.500  5.651283  48.3376  0.169810  0.005569
  12992.919  12992.880  0.500  5.649129  48.2222  0.169770  0.005642
  12997.139  12997.110  0.500  5.648898  48.2464  0.169895  0.005598
  13001.385  13001.350  0.500  5.647324  48.1981  0.169992  0.005649
  13005.634  13005.610  0.500  5.646165  48.15  0.170019  0.005697
  13009.929  13009.890  0.500  5.643868  48.0977  0.170225  0.005752
  13014.228  13014.190  0.500  5.644181  48.047  0.169993  0.005880
  13018.529  13018.510  0.500  5.639118  47.9962  0.170674  0.005704
  13022.870  13022.850  0.500  5.636477  47.9503  0.170962  0.005844
  13027.252  13027.210  0.500  5.632618  47.8967  0.171431  0.005689
  13031.599  13031.590  0.500  5.628955  47.8454  0.171876  0.005954
  13036.008  13035.980  0.500  5.624983  47.7991  0.172393  0.005857
  13040.413  13040.400  0.500  5.621951  47.7469  0.172728  0.005941
  13044.858  13044.830  0.500  5.618040  47.6959  0.173220  0.005954
  13049.321  13049.280  0.500  5.609832  47.5979  0.174289  0.006028
  13053.765  13053.750  0.500  5.604162  47.5923  0.175259  0.006031
  13058.272  13058.240  0.500  5.597138  47.5434  0.176313  0.006045
  13062.781  13062.750  0.500  5.591037  47.4886  0.177187  0.006098
  13067.301  13067.280  0.500  5.586895  47.4355  0.177724  0.006322
  13071.884  13071.830  0.500  5.580105  47.3647  0.178668  0.006125
  13076.433  13076.400  0.500  5.573227  47.3308  0.179772  0.006305
  13081.030  13080.980  0.500  5.569152  47.2777  0.180304  0.006406
  13085.623  13085.590  0.500  5.562685  47.2262  0.181276  0.006487
  13090.241  13090.210  0.500  5.557882  47.173  0.181943  0.006419
  13094.908  13094.860  0.500  5.551939  47.0474  0.182541  0.006591
  13099.555  13099.520  0.500  5.547478  47.0687  0.183440  0.006501
  13104.228  13104.200  0.500  5.545418  47.0028  0.183561  0.006668
  13108.950  13108.900  0.500  5.543151  46.9436  0.183746  0.006561
  13113.638  13113.620  0.500  5.540279  46.9116  0.184148  0.006575
  13118.381  13118.360  0.500  5.538048  46.7931  0.184093  0.006550
  13123.166  13123.110  0.500  5.537384  46.7969  0.184231  0.006667
  13127.916  13127.890  0.500  5.538206  46.7325  0.183826  0.006638
  13132.753  13132.690  0.500  5.535680  46.6748  0.184063  0.006753
  13137.518  13137.500  0.500  5.532950  46.6336  0.184403  0.006837
  13142.362  13142.330  0.500  5.528575  46.5805  0.185001  0.006642
  13147.247  13147.190  0.500  5.527380  46.5243  0.184999  0.006881
  13152.114  13152.060  0.500  5.522437  46.4701  0.185699  0.006822
  13156.999  13156.950  0.500  5.517938  46.4132  0.186308  0.006950
  13161.903  13161.860  0.500  5.512425  46.3582  0.187116  0.006952
  13166.825  13166.790  0.500  5.505929  46.2976  0.188089  0.006955
  13171.782  13171.730  0.500  5.499166  46.2293  0.189086  0.007105
  13176.735  13176.700  0.500  5.492752  46.1899  0.190141  0.007216
  13181.752  13181.690  0.500  5.486074  46.131  0.191171  0.007090
  13186.735  13186.690  0.500  5.480339  46.0747  0.192035  0.007170
  13191.760  13191.720  0.500  5.477318  46.0197  0.192387  0.007208
  13196.797  13196.760  0.500  5.472828  45.9564  0.192987  0.007344
  13201.852  13201.820  0.500  5.467954  45.9011  0.193696  0.007267
  13206.935  13206.900  0.500  5.464809  45.8414  0.194054  0.007327
  13212.082  13212.000  0.500  5.460796  45.7803  0.194574  0.007403
  13217.126  13217.120  0.500  5.455083  45.714  0.195405  0.007526
  13222.282  13222.260  0.500  5.448409  45.6523  0.196449  0.007545
  13227.441  13227.420  0.500  5.443769  45.5377  0.196867  0.007654
  13232.643  13232.600  0.500  5.437519  45.5318  0.198075  0.007752
  13237.833  13237.790  0.500  5.432476  45.4662  0.198790  0.007659
  13243.043  13243.010  0.500  5.430252  45.4032  0.198956  0.007850
  13248.280  13248.240  0.500  5.426856  45.3328  0.199324  0.007747
  13253.544  13253.490  0.500  5.424726  45.2641  0.199446  0.007926
  13258.782  13258.760  0.500  5.422346  45.1795  0.199548  0.007889
  13264.085  13264.050  0.500  5.419137  45.0849  0.199770  0.007888
  13269.393  13269.360  0.500  5.415087  44.9453  0.199960  0.007864
  13274.720  13274.690  0.500  5.411656  44.5351  0.198815  0.007921
  13280.106  13280.040  0.500  5.406929  44.3811  0.199067  0.007844
  13285.434  13285.410  0.500  5.402797  44.3125  0.199582  0.008029
  13290.836  13290.790  0.500  5.395702  44.1545  0.200286  0.008050
  13296.243  13296.200  0.500  5.390378  44.1636  0.201397  0.008110
  13301.661  13301.620  0.500  5.382997  44.0687  0.202453  0.008060
  13307.108  13307.070  0.500  5.377380  44.0058  0.203303  0.008273
  13312.566  13312.530  0.500  5.373547  43.9871  0.203997  0.008254
  13318.037  13318.010  0.500  5.369159  43.9413  0.204681  0.008475
  13323.559  13323.510  0.500  5.364500  43.8591  0.205252  0.008322
  13329.070  13329.030  0.500  5.359338  43.7554  0.205826  0.008524
  13334.609  13334.570  0.500  5.354086  43.7282  0.206782  0.008343
  13340.145  13340.120  0.500  5.350201  43.6981  0.207443  0.008409
  13345.755  13345.700  0.500  5.345786  43.6559  0.208160  0.008672
  13351.347  13351.300  0.500  5.340845  43.6156  0.208998  0.008613
  13356.951  13356.910  0.500  5.337025  43.5622  0.209541  0.008726
  13362.591  13362.550  0.500  5.331050  43.502  0.210506  0.008863
  13368.252  13368.200  0.500  5.325901  43.4241  0.211213  0.008869
  13373.918  13373.870  0.500  5.322441  43.3539  0.211603  0.008791
  13379.619  13379.560  0.500  5.316908  43.2974  0.212500  0.009125