File: xdidata/Dy/Dy-L1-Dy2Ti2O7.xdi
# XDI/1.0 BlueSky/1.10.0 BMM/2023-1.0-py310-tiled
# Beamline.name: BMM (06BM) -- Beamline for Materials Measurement (NIST)
# Beamline.xray_source: NSLS-II three-pole wiggler
# Beamline.collimation: paraboloid mirror, 5 nm Rh on 30 nm Pt
# Beamline.focusing: not in use
# Beamline.harmonic_rejection: flat mirror, Pt stripe, pitch = 7.0 mrad relative to beam
# Beamline.software: Bluesky 1.10.0, Ophyd 1.7.0, DataBroker 2.0.0b13, Python 3.10.8, 2023-1.0-py310-tiled
# Detector.I0: 10 cm N2
# Detector.I1: 25 cm N2
# Detector.I2: 25 cm N2
# Element.symbol: Dy
# Element.edge: L1
# Element.reference: Dy
# Element.reference_material: Dy2O3
# Facility.name: NSLS-II
# Facility.energy: 3.0
# Facility.current: 400.7
# Facility.mode: top-off
# Facility.GUP: 123456
# Facility.SAF: 301027
# Facility.cycle: 2023-2
# Mono.name: Si(111)
# Mono.d_spacing: 3.13519
# Mono.encoder_resolution: 0.0000050 deg/ct
# Mono.angle_offset: 16.0754 deg
# Mono.scan_mode: pseudo channel cut
# Mono.scan_type: step
# Mono.direction: forward in energy
# Sample.name: Dy2Ti2O7
# Sample.prep: Powder in PEG pellet
# Sample.x: 149.848 mm
# Sample.y: 114.690 mm
# Sample.SDD_position: 205.000 mm
# Scan.experimenters: Bruce Ravel
# Scan.edge_energy: 9045.8
# Scan.start_time: 2023-05-08T22:14:58
# Scan.end_time: 2023-05-08T22:20:49
# Scan.transient_id: 75666
# Scan.uid: 3c126c66-3572-47d8-a65e-aebd7969abe2
# Scan.plot_hint: ln(I0/It)  --  ln($5/$6)
# Column.1: energy eV
# Column.2: requested_energy eV
# Column.3: measurement_time seconds
# Column.4: xmu
# Column.5: I0 nA
# Column.6: It nA
# Column.7: Ir nA
# ///////////
# sample courtesy Martin Stennett, University of Sheffield
# -----------
# energy  requested_energy  measurement_time  xmu  I0  It  Ir
  8845.801  8845.800  0.500  2.138396  121.898  14.3649  1.484902
  8855.844  8855.800  0.500  2.130910  121.688  14.4479  1.501818
  8865.852  8865.800  0.500  2.122279  121.468  14.5468  1.522122
  8875.874  8875.800  0.500  2.113809  121.255  14.6449  1.542438
  8885.868  8885.800  0.500  2.108337  121.035  14.6984  1.554078
  8895.867  8895.800  0.500  2.102870  120.806  14.7511  1.565897
  8905.836  8905.800  0.500  2.095332  120.55  14.8312  1.583484
  8915.851  8915.800  0.500  2.087810  120.265  14.9078  1.601084
  8925.831  8925.800  0.500  2.081944  120.231  14.9913  1.616864
  8935.838  8935.800  0.500  2.076129  119.744  15.0177  1.625840
  8945.819  8945.800  0.500  2.070002  119.771  15.1134  1.644867
  8955.816  8955.800  0.500  2.064717  119.513  15.1607  1.656324
  8965.816  8965.800  0.500  2.059372  119.024  15.1796  1.663879
  8975.814  8975.800  0.500  2.053389  119.067  15.2762  1.682251
  8985.818  8985.800  0.500  2.046722  118.774  15.3406  1.697959
  8995.820  8995.800  0.500  2.039900  118.557  15.4174  1.715270
  9005.813  9005.800  0.500  2.033253  118.347  15.4927  1.731635
  9015.851  9015.800  0.500  2.026742  117.597  15.495  1.740188
  9017.766  9017.800  0.500  2.025845  118.022  15.565  1.749947
  9019.769  9019.800  0.500  2.024711  117.584  15.5248  1.746512
  9021.770  9021.800  0.500  2.023679  117.456  15.524  1.747767
  9024.021  9023.800  0.500  2.022908  117.967  15.6035  1.757587
  9025.760  9025.800  0.500  2.022260  117.903  15.6051  1.759402
  9027.820  9027.800  0.500  2.021625  117.835  15.6061  1.759702
  9029.800  9029.800  0.500  2.021039  117.792  15.6095  1.760288
  9031.784  9031.800  0.500  2.020764  117.741  15.6071  1.760765
  9033.787  9033.800  0.500  2.020519  117.693  15.6045  1.760435
  9035.794  9035.800  0.500  2.020385  117.638  15.5993  1.759483
  9036.276  9036.300  0.500  2.020531  117.625  15.5953  1.758399
  9036.775  9036.800  0.500  2.020587  117.597  15.5907  1.758418
  9037.275  9037.300  0.500  2.020610  117.587  15.5891  1.757960
  9037.774  9037.800  0.500  2.020617  117.572  15.5869  1.757384
  9038.270  9038.300  0.500  2.020903  117.553  15.58  1.756434
  9038.773  9038.800  0.500  2.021184  117.534  15.5731  1.755609
  9039.269  9039.300  0.500  2.021202  117.518  15.5707  1.754584
  9039.776  9039.800  0.500  2.021471  117.498  15.5638  1.753910
  9040.286  9040.300  0.500  2.021575  117.414  15.551  1.751790
  9040.779  9040.800  0.500  2.022112  116.989  15.4864  1.744086
  9041.283  9041.300  0.500  2.022434  116.408  15.4046  1.733746
  9041.786  9041.800  0.500  2.022822  116.138  15.3629  1.729060
  9042.283  9042.300  0.500  2.023193  116.435  15.3965  1.731993
  9042.793  9042.800  0.500  2.023595  117.119  15.4808  1.740655
  9043.286  9043.300  0.500  2.024190  117.298  15.4952  1.741776
  9043.790  9043.800  0.500  2.024806  117.325  15.4892  1.740206
  9044.279  9044.300  0.500  2.025520  117.333  15.4792  1.737990
  9044.783  9044.800  0.500  2.026320  117.332  15.4666  1.735616
  9045.287  9045.300  0.500  2.027321  117.324  15.4501  1.731987
  9045.787  9045.800  0.500  2.028684  117.304  15.4265  1.726883
  9046.284  9046.300  0.500  2.030407  117.301  15.3996  1.721600
  9046.785  9046.800  0.500  2.032538  117.295  15.366  1.714926
  9047.289  9047.300  0.500  2.035011  117.277  15.3257  1.706546
  9047.793  9047.800  0.500  2.037944  117.261  15.2787  1.697010
  9048.294  9048.300  0.500  2.041582  117.24  15.2205  1.685608
  9048.798  9048.800  0.500  2.045693  117.231  15.1569  1.672885
  9049.292  9049.300  0.500  2.050158  117.226  15.0887  1.659830
  9049.793  9049.800  0.500  2.054717  117.205  15.0173  1.645678
  9050.297  9050.300  0.500  2.059042  117.189  14.9505  1.632574
  9050.798  9050.800  0.500  2.063142  117.174  14.8874  1.619685
  9051.292  9051.300  0.500  2.067286  117.166  14.8248  1.607405
  9051.786  9051.800  0.500  2.071420  117.158  14.7627  1.595227
  9052.287  9052.300  0.500  2.075339  117.141  14.7029  1.582965
  9052.795  9052.800  0.500  2.079641  117.121  14.6372  1.570393
  9053.300  9053.300  0.500  2.083642  117.105  14.5768  1.559159
  9053.791  9053.800  0.500  2.087758  117.095  14.5157  1.547520
  9054.289  9054.300  0.500  2.091678  117.078  14.4568  1.536022
  9054.797  9054.800  0.500  2.095984  117.067  14.3934  1.523376
  9055.302  9055.300  0.500  2.100524  117.055  14.3267  1.511404
  9055.807  9055.800  0.500  2.105329  117.05  14.2573  1.497754
  9056.298  9056.300  0.500  2.110315  117.029  14.1839  1.483588
  9056.796  9056.800  0.500  2.115529  117.014  14.1083  1.469863
  9057.294  9057.300  0.500  2.121188  117.006  14.0277  1.454825
  9057.800  9057.800  0.500  2.127067  116.996  13.9444  1.438606
  9058.298  9058.300  0.500  2.133383  116.979  13.8545  1.422054
  9058.800  9058.800  0.500  2.140468  116.972  13.7559  1.404182
  9059.287  9059.300  0.500  2.147874  116.952  13.6521  1.384808
  9059.793  9059.800  0.500  2.155700  116.93  13.5431  1.364952
  9060.298  9060.300  0.500  2.163267  116.922  13.44  1.346121
  9060.801  9060.800  0.500  2.170657  116.907  13.3394  1.328510
  9061.292  9061.300  0.500  2.177318  116.888  13.2487  1.312001
  9061.798  9061.800  0.500  2.183416  116.846  13.1634  1.296810
  9062.297  9062.300  0.500  2.188417  116.701  13.0815  1.283651
  9062.806  9062.800  0.500  2.192348  116.155  12.9692  1.268118
  9063.312  9063.300  0.500  2.194524  115.685  12.8887  1.257786
  9063.807  9063.800  0.500  2.195550  115.582  12.8639  1.254214
  9064.299  9064.300  0.500  2.195689  116.08  12.9176  1.259646
  9064.794  9064.800  0.500  2.195032  116.557  12.9792  1.266401
  9065.301  9065.300  0.500  2.193675  116.679  13.0104  1.270566
  9065.800  9065.800  0.500  2.192161  116.705  13.033  1.274020
  9066.292  9066.300  0.500  2.190967  116.704  13.0485  1.277113
  9066.795  9066.800  0.500  2.189953  116.703  13.0616  1.279143
  9067.287  9067.300  0.500  2.189037  116.697  13.073  1.281738
  9067.804  9067.800  0.500  2.188606  116.686  13.0773  1.282161
  9068.303  9068.300  0.500  2.188650  116.68  13.076  1.282294
  9068.803  9068.800  0.500  2.189022  116.68  13.0712  1.280942
  9069.299  9069.300  0.500  2.189631  116.665  13.0616  1.279214
  9069.805  9069.800  0.500  2.189959  116.656  13.0563  1.278353
  9070.308  9070.300  0.500  2.190561  116.639  13.0466  1.276713
  9070.812  9070.800  0.500  2.190967  116.64  13.0414  1.275508
  9071.786  9071.790  0.500  2.191423  116.612  13.0323  1.274424
  9072.797  9072.790  0.500  2.190812  116.598  13.0386  1.275169
  9073.814  9073.810  0.500  2.189403  116.565  13.0534  1.277927
  9074.871  9074.860  0.500  2.186707  116.552  13.0872  1.283771
  9075.922  9075.920  0.500  2.182757  116.525  13.1359  1.292894
  9077.014  9077.000  0.500  2.177370  116.495  13.2034  1.305365
  9078.111  9078.100  0.500  2.171229  116.481  13.2832  1.320183
  9079.215  9079.220  0.500  2.164749  116.448  13.3657  1.335048
  9080.370  9080.360  0.500  2.157842  116.162  13.4253  1.348577
  9081.517  9081.510  0.500  2.151195  115.145  13.3966  1.352783
  9082.704  9082.690  0.500  2.145236  116.071  13.5849  1.378417
  9083.887  9083.880  0.500  2.139750  116.263  13.6823  1.394696
  9085.096  9085.100  0.500  2.135105  116.263  13.746  1.405721
  9086.337  9086.330  0.500  2.131778  116.243  13.7895  1.414394
  9087.589  9087.580  0.500  2.129228  116.639  13.8718  1.426164
  9088.863  9088.850  0.500  2.127438  116.611  13.8932  1.430124
  9090.140  9090.140  0.500  2.126030  116.583  13.9096  1.433527
  9091.458  9091.450  0.500  2.125049  116.549  13.9192  1.435198
  9092.789  9092.780  0.500  2.124641  116.517  13.921  1.436011
  9094.143  9094.130  0.500  2.124688  116.486  13.9166  1.435916
  9095.497  9095.500  0.500  2.124862  116.46  13.9111  1.435256
  9096.891  9096.880  0.500  2.124977  116.425  13.9053  1.433641
  9098.303  9098.290  0.500  2.125502  116.397  13.8947  1.432628
  9099.715  9099.710  0.500  2.125799  116.364  13.8865  1.430608
  9101.156  9101.150  0.500  2.126407  116.33  13.8741  1.428687
  9102.620  9102.610  0.500  2.127250  116.221  13.8494  1.425050
  9104.094  9104.090  0.500  2.128747  115.012  13.6849  1.407269
  9105.608  9105.590  0.500  2.129998  116.088  13.7956  1.416042
  9107.127  9107.110  0.500  2.131513  116.133  13.7801  1.412671
  9108.646  9108.650  0.500  2.133248  116.111  13.7536  1.408204
  9110.222  9110.210  0.500  2.134964  116.081  13.7265  1.402866
  9111.785  9111.780  0.500  2.137096  116.047  13.6932  1.396307
  9113.391  9113.380  0.500  2.139362  116  13.6567  1.390125
  9114.987  9114.990  0.500  2.141410  115.96  13.624  1.384734
  9116.631  9116.630  0.500  2.142777  115.922  13.6009  1.381003
  9118.285  9118.280  0.500  2.143261  115.885  13.59  1.378658
  9119.948  9119.950  0.500  2.143004  115.828  13.5868  1.378741
  9121.654  9121.640  0.500  2.142156  115.796  13.5946  1.380520
  9123.361  9123.350  0.500  2.140065  115.749  13.6175  1.384408
  9125.086  9125.080  0.500  2.137350  115.706  13.6495  1.391037
  9126.841  9126.830  0.500  2.133765  115.664  13.6935  1.399222
  9128.607  9128.590  0.500  2.129606  115.612  13.7445  1.409633
  9130.391  9130.380  0.500  2.125661  115.562  13.7927  1.419044
  9132.191  9132.180  0.500  2.121768  115.508  13.8401  1.428066
  9134.024  9134.010  0.500  2.118894  115.455  13.8735  1.434472
  9135.869  9135.850  0.500  2.116673  115.402  13.8981  1.440291
  9137.711  9137.710  0.500  2.115074  115.344  13.9132  1.443169
  9139.611  9139.590  0.500  2.113830  115.262  13.9207  1.445312
  9141.504  9141.490  0.500  2.112852  115.129  13.9183  1.445750
  9143.420  9143.410  0.500  2.112202  114.358  13.8341  1.438384
  9145.362  9145.350  0.500  2.111504  113.963  13.7959  1.434066
  9147.316  9147.310  0.500  2.110670  115.257  13.9642  1.452892
  9149.285  9149.280  0.500  2.109164  115.151  13.9724  1.455341
  9151.291  9151.280  0.500  2.107001  115.072  13.9929  1.460018
  9153.305  9153.290  0.500  2.104641  114.972  14.0139  1.464833
  9155.324  9155.320  0.500  2.102299  114.786  14.024  1.468710
  9157.398  9157.380  0.500  2.099762  111.364  13.6405  1.431801
  9159.469  9159.450  0.500  2.097393  114.976  14.1164  1.484004
  9161.545  9161.540  0.500  2.095125  114.888  14.1375  1.488854
  9163.668  9163.650  0.500  2.092528  114.787  14.1619  1.494842
  9165.793  9165.780  0.500  2.090418  114.622  14.1713  1.497862
  9167.926  9167.920  0.500  2.089038  112.331  13.9073  1.472734
  9170.114  9170.090  0.500  2.087568  114.691  14.2204  1.506793
  9172.289  9172.280  0.500  2.086848  114.672  14.2283  1.508233
  9174.491  9174.480  0.500  2.086384  114.589  14.2245  1.508139
  9176.715  9176.700  0.500  2.086086  114.488  14.2162  1.507092
  9178.966  9178.950  0.500  2.086300  114.346  14.1955  1.505139
  9181.218  9181.210  0.500  2.086921  113.556  14.0887  1.493736
  9183.503  9183.490  0.500  2.087255  113.966  14.1349  1.496704
  9185.801  9185.790  0.500  2.087451  114.405  14.1865  1.502185
  9188.122  9188.110  0.500  2.086878  114.282  14.1794  1.501588
  9190.458  9190.450  0.500  2.085534  114.197  14.1879  1.504153
  9192.829  9192.800  0.500  2.084040  114.134  14.2013  1.506804
  9195.197  9195.180  0.500  2.082606  114.05  14.2112  1.509367
  9197.585  9197.570  0.500  2.081421  113.978  14.2191  1.511984
  9200.010  9199.990  0.500  2.079961  113.887  14.2285  1.514036
  9202.437  9202.420  0.500  2.078366  113.823  14.2432  1.517652
  9204.883  9204.870  0.500  2.076076  113.769  14.2691  1.522992
  9207.364  9207.350  0.500  2.073211  113.695  14.3007  1.529877
  9209.857  9209.840  0.500  2.070225  113.634  14.3358  1.537392
  9212.362  9212.350  0.500  2.067145  113.568  14.3717  1.544907
  9214.883  9214.870  0.500  2.064149  113.516  14.4081  1.552309
  9217.442  9217.420  0.500  2.061673  113.45  14.4354  1.559128
  9220.003  9219.990  0.500  2.059644  113.384  14.4565  1.563678
  9222.580  9222.570  0.500  2.058374  113.313  14.4657  1.565894
  9225.191  9225.180  0.500  2.057890  113.237  14.463  1.566131
  9227.815  9227.800  0.500  2.056985  113.153  14.4654  1.567038
  9230.470  9230.450  0.500  2.055997  113.104  14.4733  1.569131
  9233.126  9233.110  0.500  2.054684  113.026  14.4824  1.571155
  9235.799  9235.790  0.500  2.053338  112.973  14.4951  1.574079
  9238.514  9238.490  0.500  2.051458  112.899  14.5129  1.577874
  9241.223  9241.210  0.500  2.049794  112.831  14.5283  1.581832
  9243.966  9243.950  0.500  2.047699  112.774  14.5514  1.587328
  9246.716  9246.700  0.500  2.045695  112.714  14.5729  1.591989
  9249.496  9249.480  0.500  2.043733  112.637  14.5915  1.596543
  9252.285  9252.270  0.500  2.041560  112.575  14.6151  1.602038
  9255.113  9255.090  0.500  2.039126  112.491  14.6398  1.608088
  9257.932  9257.920  0.500  2.036489  112.425  14.6699  1.613856
  9260.801  9260.770  0.500  2.034146  112.35  14.6944  1.619702
  9263.660  9263.650  0.500  2.032296  112.278  14.7123  1.623474
  9266.562  9266.540  0.500  2.031026  112.215  14.7226  1.626189
  9269.465  9269.450  0.500  2.029404  112.143  14.7372  1.630202
  9272.389  9272.370  0.500  2.027932  112.055  14.7473  1.632565
  9275.345  9275.320  0.500  2.027104  111.543  14.6921  1.628328
  9278.310  9278.290  0.500  2.025945  111.967  14.765  1.636748
  9281.288  9281.270  0.500  2.024891  111.885  14.7698  1.639043
  9284.298  9284.280  0.500  2.023579  111.794  14.7771  1.641357
  9287.325  9287.300  0.500  2.022266  111.725  14.7873  1.643829
  9290.364  9290.350  0.500  2.020367  111.611  14.8003  1.647936
  9293.440  9293.410  0.500  2.018384  111.187  14.7734  1.646747
  9296.502  9296.490  0.500  2.016685  111.432  14.8312  1.655196
  9299.619  9299.590  0.500  2.014888  108.111  14.4151  1.610990
  9302.734  9302.710  0.500  2.012805  111.401  14.8847  1.666221
  9305.878  9305.850  0.500  2.010630  110.993  14.8624  1.666606
  9309.016  9309.000  0.500  2.008223  111.257  14.9337  1.677581
  9312.205  9312.180  0.500  2.005823  111.173  14.9583  1.683332
  9315.389  9315.370  0.500  2.003417  111.082  14.9821  1.688862
  9318.613  9318.590  0.500  2.000937  110.998  15.0079  1.695150
  9321.842  9321.820  0.500  1.998439  110.88  15.0295  1.700987
  9325.089  9325.070  0.500  1.995940  110.723  15.0457  1.705596
  9328.375  9328.350  0.500  1.993677  110.783  15.088  1.713850
  9331.664  9331.640  0.500  1.991453  110.695  15.1096  1.719039
  9334.978  9334.950  0.500  1.989424  110.621  15.1302  1.724217
  9338.298  9338.270  0.500  1.987704  110.537  15.1447  1.727973
  9341.644  9341.620  0.500  1.985908  110.438  15.1583  1.731447
  9344.999  9344.990  0.500  1.984127  110.35  15.1731  1.736013
  9348.394  9348.370  0.500  1.981983  110.271  15.1948  1.740955
  9351.803  9351.780  0.500  1.979978  110.183  15.2131  1.745763
  9355.211  9355.200  0.500  1.977880  110.098  15.2334  1.751192
  9358.674  9358.650  0.500  1.975399  110.017  15.26  1.757401
  9362.125  9362.110  0.500  1.973053  109.933  15.2842  1.763540
  9365.616  9365.590  0.500  1.970666  109.842  15.308  1.769054
  9369.114  9369.090  0.500  1.968479  109.73  15.3259  1.774680
  9372.633  9372.610  0.500  1.966456  109.629  15.3429  1.779111
  9376.178  9376.150  0.500  1.964687  109.543  15.358  1.783324
  9379.726  9379.700  0.500  1.962874  109.459  15.3739  1.787582
  9383.306  9383.280  0.500  1.960982  109.361  15.3893  1.792244
  9386.894  9386.880  0.500  1.959097  109.269  15.4054  1.796106
  9390.518  9390.490  0.500  1.957071  109.183  15.4244  1.800357
  9394.145  9394.120  0.500  1.955175  109.082  15.4394  1.805228
  9397.798  9397.780  0.500  1.952973  108.999  15.4616  1.811225
  9401.473  9401.450  0.500  1.950745  108.906  15.483  1.815862
  9405.166  9405.140  0.500  1.948510  108.826  15.5063  1.821921
  9408.874  9408.850  0.500  1.946444  108.734  15.5252  1.826743
  9412.603  9412.580  0.500  1.944319  108.641  15.5448  1.831911
  9416.328  9416.320  0.500  1.942153  108.551  15.5656  1.837405
  9420.114  9420.090  0.500  1.940077  108.449  15.5834  1.842937
  9423.906  9423.880  0.500  1.937794  108.363  15.6066  1.848645
  9427.702  9427.680  0.500  1.935296  108.281  15.6337  1.855134
  9431.535  9431.510  0.500  1.932679  108.173  15.6591  1.862316
  9435.371  9435.350  0.500  1.930126  108.037  15.6794  1.868465
  9439.234  9439.210  0.500  1.927344  107.959  15.7118  1.875756
  9443.111  9443.090  0.500  1.924784  107.872  15.7393  1.883012
  9447.008  9446.990  0.500  1.922213  107.779  15.7662  1.889856
  9450.930  9450.910  0.500  1.919511  107.681  15.7946  1.896659
  9454.875  9454.850  0.500  1.917279  107.578  15.8147  1.902780
  9458.828  9458.810  0.500  1.914663  107.475  15.8408  1.909914
  9462.799  9462.780  0.500  1.912175  107.373  15.8653  1.916202
  9466.797  9466.780  0.500  1.909861  107.256  15.8848  1.921761
  9470.794  9470.790  0.500  1.907429  107.155  15.9084  1.928274
  9474.853  9474.830  0.500  1.904998  107.066  15.9338  1.934063
  9478.900  9478.880  0.500  1.902830  106.954  15.9518  1.940263
  9482.962  9482.950  0.500  1.900654  106.856  15.9718  1.945608
  9487.059  9487.040  0.500  1.898597  106.75  15.9889  1.950507
  9491.164  9491.150  0.500  1.896606  106.642  16.0045  1.955374
  9495.295  9495.280  0.500  1.894480  106.529  16.0216  1.960720
  9499.446  9499.430  0.500  1.892421  106.42  16.0382  1.965069
  9503.600  9503.590  0.500  1.890298  106.319  16.0571  1.970911
  9507.797  9507.780  0.500  1.887794  106.206  16.0801  1.977335
  9511.990  9511.980  0.500  1.885021  106.097  16.1082  1.985315
  9516.222  9516.210  0.500  1.882591  106  16.1327  1.992026
  9520.470  9520.450  0.500  1.879885  105.899  16.161  1.999781
  9524.729  9524.710  0.500  1.877239  105.785  16.1864  2.006018
  9529.008  9528.990  0.500  1.874926  105.682  16.2081  2.012906
  9533.319  9533.290  0.500  1.872024  105.57  16.238  2.021066
  9537.625  9537.610  0.500  1.869195  105.47  16.2686  2.028320
  9541.975  9541.950  0.500  1.866649  105.329  16.2883  2.036188
  9546.329  9546.310  0.500  1.864016  105.245  16.318  2.043826
  9550.702  9550.690  0.500  1.861305  105.123  16.3435  2.050754
  9555.096  9555.080  0.500  1.858786  105.021  16.3688  2.057382
  9559.525  9559.500  0.500  1.856117  104.88  16.3905  2.064668
  9563.943  9563.930  0.500  1.853692  104.771  16.4132  2.071771
  9568.400  9568.380  0.500  1.851386  104.689  16.4381  2.077992
  9572.874  9572.850  0.500  1.848984  104.57  16.459  2.083934
  9577.359  9577.340  0.500  1.846782  104.453  16.4768  2.089689
  9581.881  9581.850  0.500  1.844543  104.333  16.4948  2.095610
  9586.403  9586.380  0.500  1.842027  104.223  16.5189  2.103083
  9590.941  9590.930  0.500  1.839381  104.095  16.5424  2.109821