File: xdidata/Dy/Dy-L3-Dy2Ti2O7.xdi
# XDI/1.0 BlueSky/1.10.0 BMM/2023-1.0-py310-tiled
# Beamline.name: BMM (06BM) -- Beamline for Materials Measurement (NIST)
# Beamline.xray_source: NSLS-II three-pole wiggler
# Beamline.collimation: paraboloid mirror, 5 nm Rh on 30 nm Pt
# Beamline.focusing: not in use
# Beamline.harmonic_rejection: flat mirror, Si stripe, pitch = 7.0 mrad relative to beam
# Beamline.software: Bluesky 1.10.0, Ophyd 1.7.0, DataBroker 2.0.0b13, Python 3.10.8, 2023-1.0-py310-tiled
# Detector.I0: 10 cm N2
# Detector.I1: 25 cm N2
# Detector.I2: 25 cm N2
# Element.symbol: Dy
# Element.edge: L3
# Element.reference: Dy
# Element.reference_material: Dy2O3
# Facility.name: NSLS-II
# Facility.energy: 3.0
# Facility.current: 398.9
# Facility.mode: top-off
# Facility.GUP: 123456
# Facility.SAF: 301027
# Facility.cycle: 2023-2
# Mono.name: Si(111)
# Mono.d_spacing: 3.13519
# Mono.encoder_resolution: 0.0000050 deg/ct
# Mono.angle_offset: 16.0754 deg
# Mono.scan_mode: pseudo channel cut
# Mono.scan_type: step
# Mono.direction: forward in energy
# Sample.name: Dy2Ti2O7
# Sample.prep: Powder in PEG pellet
# Sample.x: 149.848 mm
# Sample.y: 114.690 mm
# Sample.SDD_position: 205.000 mm
# Scan.experimenters: Bruce Ravel
# Scan.edge_energy: 7790.1
# Scan.start_time: 2023-05-08T18:41:04
# Scan.end_time: 2023-05-08T18:47:04
# Scan.transient_id: 75502
# Scan.uid: c42f417d-762a-4568-a2ca-022485f0c13c
# Scan.plot_hint: ln(I0/It)  --  ln($5/$6)
# Column.1: energy eV
# Column.2: requested_energy eV
# Column.3: measurement_time seconds
# Column.4: xmu
# Column.5: I0 nA
# Column.6: It nA
# Column.7: Ir nA
# ///////////
# sample courtesy Martin Stennett, University of Sheffield
# -----------
# energy  requested_energy  measurement_time  xmu  I0  It  Ir
  7590.102  7590.100  0.500  1.882660  142.831  21.7367  3.216460
  7600.114  7600.100  0.500  1.873003  142.478  21.8933  3.261669
  7610.121  7610.100  0.500  1.863727  141.844  21.9992  3.299993
  7620.171  7620.100  0.500  1.854711  142.012  22.2246  3.356572
  7630.181  7630.100  0.500  1.845741  142.21  22.4562  3.414303
  7640.123  7640.100  0.500  1.836724  142.603  22.7222  3.477920
  7650.123  7650.100  0.500  1.827882  142.497  22.907  3.529603
  7660.129  7660.100  0.500  1.819068  142.368  23.0888  3.581200
  7670.118  7670.100  0.500  1.810328  142.213  23.2661  3.631682
  7680.116  7680.100  0.500  1.801779  142.019  23.4338  3.681902
  7690.116  7690.100  0.500  1.792992  141.963  23.6314  3.736528
  7700.115  7700.100  0.500  1.784574  141.689  23.7851  3.785369
  7710.118  7710.100  0.500  1.776175  141.607  23.9719  3.838635
  7720.118  7720.100  0.500  1.767966  140.655  24.007  3.867339
  7730.114  7730.100  0.500  1.760136  141.229  24.2944  3.934463
  7740.108  7740.100  0.500  1.753105  137.578  23.8334  3.879309
  7750.206  7750.100  0.500  1.747483  140.85  24.5377  4.008200
  7760.070  7760.100  0.500  1.745020  140.641  24.5617  4.015003
  7762.070  7762.100  0.500  1.745244  140.566  24.5431  4.010489
  7764.081  7764.100  0.500  1.745893  140.523  24.5197  4.002493
  7766.081  7766.100  0.500  1.746933  140.484  24.4875  3.992335
  7768.084  7768.100  0.500  1.748404  140.438  24.4434  3.977696
  7770.085  7770.100  0.500  1.750986  140.412  24.376  3.955590
  7772.083  7772.100  0.500  1.754517  140.333  24.2763  3.924622
  7774.087  7774.100  0.500  1.759490  140.309  24.1517  3.884018
  7776.087  7776.100  0.500  1.767066  140.255  23.9603  3.824794
  7778.087  7778.100  0.500  1.777907  140.217  23.6955  3.742017
  7780.089  7780.100  0.500  1.794485  140.187  23.3009  3.621755
  7780.580  7780.600  0.500  1.800129  140.168  23.1666  3.581326
  7781.076  7781.100  0.500  1.806545  140.157  23.0166  3.537203
  7781.575  7781.600  0.500  1.813719  140.147  22.8505  3.486584
  7782.074  7782.100  0.500  1.821875  140.144  22.6644  3.430099
  7782.576  7782.600  0.500  1.831792  140.136  22.4394  3.365718
  7783.077  7783.100  0.500  1.843754  140.135  22.1724  3.288732
  7783.579  7783.600  0.500  1.857718  140.122  21.863  3.199950
  7784.086  7784.100  0.500  1.874091  140.108  21.5058  3.100456
  7784.588  7784.600  0.500  1.891631  140.105  21.1314  2.996220
  7785.089  7785.100  0.500  1.911252  140.081  20.7173  2.885882
  7785.586  7785.600  0.500  1.930588  140.07  20.3189  2.779089
  7786.088  7786.100  0.500  1.950563  140.072  19.9174  2.674422
  7786.582  7786.600  0.500  1.972103  140.04  19.4885  2.564365
  7787.082  7787.100  0.500  1.996998  140.032  19.0083  2.445374
  7787.584  7787.600  0.500  2.026506  140.02  18.454  2.311808
  7788.087  7788.100  0.500  2.063206  140.023  17.7894  2.156312
  7788.586  7788.600  0.500  2.108702  139.991  16.9942  1.977481
  7789.091  7789.100  0.500  2.166083  139.979  16.0452  1.775147
  7789.596  7789.600  0.500  2.237350  139.976  14.9412  1.553813
  7790.096  7790.100  0.500  2.325138  139.976  13.6855  1.320835
  7790.594  7790.600  0.500  2.436671  139.964  12.24  1.075736
  7791.091  7791.100  0.500  2.573718  139.944  10.6709  0.837172
  7791.591  7791.600  0.500  2.733376  139.922  9.094837  0.626330
  7792.089  7792.100  0.500  2.903917  139.925  7.669028  0.459303
  7792.587  7792.600  0.500  3.074993  139.928  6.463246  0.336782
  7793.090  7793.100  0.500  3.238012  139.916  5.490549  0.250037
  7793.590  7793.600  0.500  3.377289  139.916  4.776710  0.194163
  7794.096  7794.100  0.500  3.486078  139.908  4.284088  0.159090
  7794.599  7794.600  0.500  3.561381  139.89  3.972821  0.138806
  7795.102  7795.100  0.500  3.612991  139.875  3.772566  0.126486
  7795.600  7795.600  0.500  3.645292  139.866  3.652437  0.119430
  7796.096  7796.100  0.500  3.655866  139.845  3.613472  0.117114
  7796.594  7796.600  0.500  3.639021  139.848  3.674929  0.120435
  7797.092  7797.100  0.500  3.592854  139.824  3.847899  0.130457
  7797.588  7797.600  0.500  3.521760  139.809  4.130995  0.148438
  7798.094  7798.100  0.500  3.427168  139.822  4.541235  0.175861
  7798.595  7798.600  0.500  3.317564  139.794  5.066283  0.214039
  7799.094  7799.100  0.500  3.201873  139.789  5.687429  0.263315
  7799.603  7799.600  0.500  3.089171  139.782  6.365641  0.322725
  7800.104  7800.100  0.500  2.988518  139.765  7.038857  0.387265
  7800.605  7800.600  0.500  2.897829  139.755  7.706485  0.456337
  7801.099  7801.100  0.500  2.819066  139.75  8.337689  0.525950
  7801.601  7801.600  0.500  2.752289  139.744  8.913119  0.593884
  7802.094  7802.100  0.500  2.699572  139.732  9.394785  0.653882
  7802.596  7802.600  0.500  2.657141  139.707  9.800257  0.706285
  7803.098  7803.100  0.500  2.623016  139.697  10.1397  0.752000
  7803.597  7803.600  0.500  2.594457  139.671  10.4315  0.792221
  7804.101  7804.100  0.500  2.570578  139.666  10.6832  0.828150
  7804.608  7804.600  0.500  2.550004  139.657  10.9046  0.860129
  7805.105  7805.100  0.500  2.533027  139.649  11.0907  0.887209
  7805.607  7805.600  0.500  2.518647  139.625  11.2494  0.910749
  7806.106  7806.100  0.500  2.506502  139.621  11.3865  0.931509
  7806.596  7806.600  0.500  2.496428  139.61  11.5009  0.949493
  7807.095  7807.100  0.500  2.488441  139.6  11.5922  0.963304
  7807.595  7807.600  0.500  2.482796  139.609  11.6586  0.973287
  7808.092  7808.100  0.500  2.479081  139.58  11.6996  0.980316
  7808.594  7808.600  0.500  2.477293  139.577  11.7203  0.983699
  7809.102  7809.100  0.500  2.476800  139.538  11.7228  0.983564
  7809.599  7809.600  0.500  2.478668  139.504  11.6981  0.980384
  7810.097  7810.100  0.500  2.481684  139.506  11.6631  0.974739
  7810.592  7810.600  0.500  2.485008  139.504  11.6242  0.968350
  7811.097  7811.100  0.500  2.489028  139.51  11.578  0.960721
  7811.592  7811.600  0.500  2.493028  139.499  11.5309  0.954095
  7812.097  7812.100  0.500  2.496185  139.478  11.4928  0.948056
  7812.600  7812.600  0.500  2.497937  139.426  11.4684  0.944811
  7813.098  7813.100  0.500  2.498295  139.438  11.4653  0.943899
  7813.604  7813.600  0.500  2.497537  139.431  11.4734  0.944984
  7814.102  7814.100  0.500  2.495788  139.414  11.4921  0.948335
  7814.595  7814.600  0.500  2.492567  139.397  11.5278  0.953964
  7815.098  7815.100  0.500  2.488402  139.39  11.5753  0.961034
  7816.092  7816.090  0.500  2.479057  139.372  11.6825  0.977851
  7817.101  7817.090  0.500  2.469322  139.354  11.7952  0.996105
  7818.116  7818.110  0.500  2.463109  139.31  11.865  1.007475
  7819.171  7819.160  0.500  2.462632  139.29  11.8689  1.007939
  7820.231  7820.220  0.500  2.469810  139.25  11.7807  0.994446
  7821.312  7821.300  0.500  2.482341  139.239  11.633  0.971567
  7822.412  7822.400  0.500  2.499396  139.215  11.4344  0.940910
  7823.528  7823.520  0.500  2.518671  139.18  11.2133  0.907490
  7824.668  7824.660  0.500  2.539883  139.151  10.9756  0.872187
  7825.823  7825.810  0.500  2.563265  139.126  10.7201  0.835200
  7826.998  7826.990  0.500  2.588429  139.091  10.451  0.797188
  7828.183  7828.180  0.500  2.614449  139.056  10.1801  0.759645
  7829.408  7829.400  0.500  2.637626  139.005  9.943170  0.727184
  7830.638  7830.630  0.500  2.654495  138.777  9.760804  0.703244
  7831.890  7831.880  0.500  2.661741  137.796  9.621801  0.689030
  7833.153  7833.150  0.500  2.659465  138.829  9.716036  0.697046
  7834.445  7834.440  0.500  2.648995  138.803  9.816477  0.710551
  7835.753  7835.750  0.500  2.632242  138.781  9.980758  0.732273
  7837.088  7837.080  0.500  2.613234  138.739  10.1692  0.757882
  7838.434  7838.430  0.500  2.593452  138.666  10.3669  0.785513
  7839.809  7839.800  0.500  2.575545  137.584  10.4718  0.805223
  7841.185  7841.180  0.500  2.560138  138.535  10.708  0.833992
  7842.598  7842.590  0.500  2.547767  138.549  10.8423  0.853120
  7844.027  7844.010  0.500  2.537537  138.524  10.9518  0.869440
  7845.454  7845.450  0.500  2.527834  137.794  11.0003  0.880056
  7846.919  7846.910  0.500  2.519412  138.181  11.1246  0.896753
  7848.402  7848.390  0.500  2.511893  138.331  11.2206  0.910181
  7849.892  7849.890  0.500  2.505228  138.309  11.2939  0.920966
  7851.419  7851.410  0.500  2.499872  138.276  11.3518  0.929915
  7852.962  7852.950  0.500  2.495046  138.208  11.4011  0.937986
  7854.519  7854.510  0.500  2.490454  137.146  11.3656  0.938956
  7856.092  7856.080  0.500  2.486428  138.047  11.4864  0.951661
  7857.695  7857.680  0.500  2.483257  138.025  11.5211  0.956929
  7859.291  7859.290  0.500  2.481338  138  11.5411  0.960659
  7860.946  7860.930  0.500  2.480868  137.939  11.5414  0.960413
  7862.591  7862.580  0.500  2.482174  137.886  11.522  0.957995
  7864.255  7864.250  0.500  2.485263  137.893  11.487  0.952023
  7865.946  7865.940  0.500  2.489903  137.818  11.4276  0.943243
  7867.654  7867.650  0.500  2.496053  137.778  11.3542  0.931976
  7869.389  7869.380  0.500  2.503066  137.743  11.2721  0.919467
  7871.138  7871.130  0.500  2.510113  137.683  11.188  0.906990
  7872.896  7872.890  0.500  2.516276  137.639  11.1157  0.896444
  7874.694  7874.680  0.500  2.521531  137.573  11.0522  0.886950
  7876.485  7876.480  0.500  2.525312  137.554  11.0089  0.880438
  7878.320  7878.310  0.500  2.527493  137.494  10.9801  0.876146
  7880.150  7880.150  0.500  2.527900  137.437  10.9711  0.874887
  7882.023  7882.010  0.500  2.527098  137.371  10.9746  0.875739
  7883.900  7883.890  0.500  2.525212  137.325  10.9917  0.878247
  7885.794  7885.790  0.500  2.522895  137.276  11.0132  0.881560
  7887.721  7887.710  0.500  2.520791  137.236  11.0332  0.884610
  7889.654  7889.650  0.500  2.519082  137.188  11.0483  0.887104
  7891.617  7891.610  0.500  2.517307  137.109  11.0615  0.889460
  7893.592  7893.580  0.500  2.515089  137.052  11.0815  0.892379
  7895.586  7895.580  0.500  2.512565  136.995  11.1048  0.895948
  7897.601  7897.590  0.500  2.510282  136.937  11.1255  0.899253
  7899.629  7899.620  0.500  2.508269  135.7  11.0472  0.894109
  7901.694  7901.680  0.500  2.506691  136.792  11.1537  0.903836
  7903.756  7903.750  0.500  2.505454  136.741  11.1633  0.905529
  7905.850  7905.840  0.500  2.504099  136.694  11.1746  0.906673
  7907.960  7907.950  0.500  2.502233  136.628  11.1901  0.909026
  7910.096  7910.080  0.500  2.498785  136.576  11.2244  0.914915
  7912.236  7912.220  0.500  2.493099  137.044  11.3272  0.927233
  7914.409  7914.390  0.500  2.485672  136.982  11.4065  0.939599
  7916.588  7916.580  0.500  2.477158  136.934  11.5  0.953628
  7918.806  7918.780  0.500  2.468082  136.86  11.5985  0.969564
  7921.005  7921.000  0.500  2.459201  136.799  11.6967  0.984864
  7923.268  7923.250  0.500  2.451369  136.744  11.784  0.998405
  7925.517  7925.510  0.500  2.446091  136.676  11.8404  1.008241
  7927.808  7927.790  0.500  2.444202  135.803  11.7871  1.004895
  7930.103  7930.090  0.500  2.445436  136.433  11.8271  1.006682
  7932.428  7932.410  0.500  2.447985  136.425  11.7964  1.001894
  7934.758  7934.750  0.500  2.450526  136.346  11.7596  0.996534
  7937.119  7937.100  0.500  2.452195  136.137  11.722  0.991862
  7939.489  7939.480  0.500  2.453029  131.159  11.2839  0.953035
  7941.891  7941.870  0.500  2.454970  136.334  11.7064  0.987214
  7944.304  7944.290  0.500  2.457764  136.255  11.667  0.981572
  7946.736  7946.720  0.500  2.461615  136.168  11.6147  0.973627
  7949.188  7949.170  0.500  2.465986  136.069  11.5556  0.964658
  7951.663  7951.650  0.500  2.470190  135.676  11.4739  0.953862
  7954.156  7954.140  0.500  2.472537  135.9  11.4659  0.951249
  7956.661  7956.650  0.500  2.471841  135.832  11.4682  0.952004
  7959.195  7959.170  0.500  2.468260  135.772  11.5043  0.957709
  7961.706  7961.720  0.500  2.462077  135.662  11.5662  0.967227
  7964.284  7964.290  0.500  2.454261  135.562  11.6484  0.980345
  7966.859  7966.870  0.500  2.446503  135.501  11.7338  0.994209
  7969.483  7969.480  0.500  2.440079  135.408  11.8013  1.005412
  7972.107  7972.100  0.500  2.435289  135.284  11.8471  1.012896
  7974.760  7974.750  0.500  2.431391  135.088  11.8762  1.018745
  7977.426  7977.410  0.500  2.428736  134.918  11.8928  1.022213
  7980.099  7980.090  0.500  2.427468  133.929  11.8206  1.016663
  7982.798  7982.790  0.500  2.426845  134.704  11.8964  1.023703
  7985.524  7985.510  0.500  2.426423  134.646  11.8963  1.023358
  7988.257  7988.250  0.500  2.426286  134.573  11.8915  1.022947
  7991.012  7991.000  0.500  2.426115  134.492  11.8863  1.022320
  7993.795  7993.780  0.500  2.425845  134.423  11.8835  1.021942
  7996.575  7996.570  0.500  2.425159  134.334  11.8837  1.022601
  7999.406  7999.390  0.500  2.423379  134.255  11.8979  1.024766
  8002.237  8002.220  0.500  2.419958  134.227  11.9362  1.030203
  8005.086  8005.070  0.500  2.415110  134.168  11.9889  1.038967
  8007.962  8007.950  0.500  2.409549  134.195  12.0582  1.050137
  8010.848  8010.840  0.500  2.403670  134.2  12.1297  1.061292
  8013.770  8013.750  0.500  2.398602  134.185  12.19  1.070798
  8016.682  8016.670  0.500  2.394204  134.136  12.2393  1.078967
  8019.633  8019.620  0.500  2.391148  134.049  12.2688  1.084883
  8022.605  8022.590  0.500  2.388855  133.985  12.291  1.088257
  8025.585  8025.570  0.500  2.387336  133.914  12.3032  1.090018
  8028.591  8028.580  0.500  2.386458  133.835  12.3068  1.090398
  8031.620  8031.600  0.500  2.386230  133.743  12.3011  1.090479
  8034.659  8034.650  0.500  2.385920  133.669  12.2981  1.089641
  8037.720  8037.710  0.500  2.385382  133.557  12.2944  1.089844
  8040.811  8040.790  0.500  2.384578  133.457  12.2951  1.090801
  8043.905  8043.890  0.500  2.384024  133.369  12.2938  1.089841
  8047.023  8047.010  0.500  2.383294  133.264  12.2931  1.090589
  8050.168  8050.150  0.500  2.382024  133.176  12.3006  1.092026
  8053.319  8053.300  0.500  2.379826  133.029  12.3141  1.094708
  8056.495  8056.480  0.500  2.376957  132.627  12.3121  1.097012
  8059.687  8059.670  0.500  2.373777  132.838  12.371  1.104476
  8062.904  8062.890  0.500  2.370615  132.912  12.4171  1.111372
  8066.132  8066.120  0.500  2.366863  132.724  12.4461  1.116880
  8069.382  8069.370  0.500  2.363213  130.124  12.2469  1.103291
  8072.671  8072.650  0.500  2.358709  132.632  12.5394  1.132861
  8075.957  8075.940  0.500  2.354254  132.41  12.5742  1.140276
  8079.268  8079.250  0.500  2.349037  126.713  12.0962  1.100883
  8082.585  8082.570  0.500  2.344908  132.37  12.6884  1.159081
  8085.933  8085.920  0.500  2.342130  132.21  12.7084  1.163254
  8089.303  8089.290  0.500  2.339723  131.807  12.7002  1.164175
  8092.685  8092.670  0.500  2.337725  131.974  12.7417  1.169303
  8096.095  8096.080  0.500  2.336174  132.051  12.7689  1.173475
  8099.513  8099.500  0.500  2.334743  131.884  12.771  1.174277
  8102.971  8102.950  0.500  2.332935  131.77  12.7831  1.176701
  8106.417  8106.410  0.500  2.330462  131.649  12.803  1.180972
  8109.901  8109.890  0.500  2.327352  131.54  12.8322  1.186270
  8113.405  8113.390  0.500  2.323614  131.413  12.8679  1.193460
  8116.922  8116.910  0.500  2.319470  131.329  12.913  1.201506
  8120.466  8120.450  0.500  2.315427  131.221  12.9546  1.208561
  8124.010  8124.000  0.500  2.311812  131.095  12.9891  1.214940
  8127.591  8127.580  0.500  2.308579  130.964  13.0182  1.221064
  8131.199  8131.180  0.500  2.305704  130.839  13.0432  1.225476
  8134.806  8134.790  0.500  2.303140  130.739  13.0667  1.230637
  8138.426  8138.420  0.500  2.300675  130.617  13.0867  1.234148
  8142.088  8142.080  0.500  2.298481  130.49  13.1026  1.238496
  8145.757  8145.750  0.500  2.295615  130.355  13.1266  1.243377
  8149.449  8149.440  0.500  2.292401  130.229  13.1562  1.249524
  8153.161  8153.150  0.500  2.288538  130.086  13.1926  1.255619
  8156.889  8156.880  0.500  2.285735  129.97  13.2179  1.260669
  8160.628  8160.620  0.500  2.283503  129.85  13.2351  1.264410
  8164.400  8164.390  0.500  2.281352  129.702  13.2485  1.267919
  8168.192  8168.180  0.500  2.279134  129.585  13.266  1.271195
  8171.991  8171.980  0.500  2.276978  129.436  13.2793  1.274933
  8175.819  8175.810  0.500  2.274288  129.284  13.2994  1.278523
  8179.659  8179.650  0.500  2.271210  129.131  13.3247  1.283713
  8183.527  8183.510  0.500  2.268094  129.02  13.3548  1.289971
  8187.406  8187.390  0.500  2.264278  128.898  13.3932  1.297296
  8191.295  8191.290  0.500  2.260670  128.759  13.427  1.304106
  8195.220  8195.210  0.500  2.256997  128.624  13.4623  1.311086
  8199.168  8199.150  0.500  2.252895  128.48  13.5026  1.319047
  8203.121  8203.110  0.500  2.249143  128.344  13.539  1.326893
  8207.100  8207.080  0.500  2.245182  128.184  13.5757  1.334358
  8211.090  8211.080  0.500  2.241647  128.065  13.6112  1.341805
  8215.103  8215.090  0.500  2.237696  127.925  13.6501  1.349577
  8219.141  8219.130  0.500  2.233577  127.75  13.6877  1.357731
  8223.200  8223.180  0.500  2.229342  127.608  13.7305  1.366020
  8227.264  8227.250  0.500  2.225067  127.464  13.7738  1.374441
  8231.349  8231.340  0.500  2.221453  127.297  13.8055  1.381090
  8235.455  8235.450  0.500  2.218510  127.152  13.8305  1.387089
  8239.589  8239.580  0.500  2.216252  126.999  13.845  1.390999
  8243.742  8243.730  0.500  2.214141  126.86  13.8591  1.393988
  8247.905  8247.890  0.500  2.211972  126.695  13.8711  1.397484
  8252.099  8252.080  0.500  2.209648  126.528  13.8851  1.400872
  8256.297  8256.280  0.500  2.207127  126.39  13.9049  1.405376
  8260.520  8260.510  0.500  2.203531  126.231  13.9375  1.412373
  8264.756  8264.750  0.500  2.199847  126.068  13.9709  1.420393
  8269.018  8269.010  0.500  2.196062  125.899  14.005  1.427911
  8273.310  8273.290  0.500  2.191996  125.743  14.0447  1.435922
  8277.603  8277.590  0.500  2.188142  125.252  14.0438  1.441111
  8281.931  8281.910  0.500  2.184195  125.364  14.1121  1.452442
  8286.266  8286.250  0.500  2.180204  125.202  14.1502  1.459923
  8290.630  8290.610  0.500  2.176271  125.008  14.1839  1.467921
  8295.004  8294.990  0.500  2.172248  124.847  14.2228  1.476236
  8299.398  8299.380  0.500  2.168206  124.668  14.2599  1.484420
  8303.823  8303.800  0.500  2.163975  124.456  14.296  1.493194
  8308.256  8308.230  0.500  2.159768  124.247  14.3321  1.501802
  8312.730  8312.680  0.500  2.155975  123.883  14.3445  1.507099
  8317.199  8317.150  0.500  2.152507  123.653  14.3676  1.513329
  8321.700  8321.640  0.500  2.149490  122.136  14.2342  1.502637
  8326.212  8326.150  0.500  2.146897  123.468  14.4268  1.525892
  8330.738  8330.680  0.500  2.144861  123.295  14.4358  1.529126
  8335.270  8335.230  0.500  2.142698  122.947  14.4263  1.529645