File: xdidata/Dy/Dy-L3-DyScO3.xdi
# XDI/1.0 BlueSky/1.10.0 BMM/2023-1.0-py310-tiled
# Beamline.name: BMM (06BM) -- Beamline for Materials Measurement (NIST)
# Beamline.xray_source: NSLS-II three-pole wiggler
# Beamline.collimation: paraboloid mirror, 5 nm Rh on 30 nm Pt
# Beamline.focusing: not in use
# Beamline.harmonic_rejection: flat mirror, Si stripe, pitch = 7.0 mrad relative to beam
# Beamline.software: Bluesky 1.10.0, Ophyd 1.7.0, DataBroker 2.0.0b13, Python 3.10.8, 2023-1.0-py310-tiled
# Detector.I0: 10 cm N2
# Detector.I1: 25 cm N2
# Detector.I2: 25 cm N2
# Element.symbol: Dy
# Element.edge: L3
# Element.reference: Dy
# Element.reference_material: Dy2O3
# Facility.name: NSLS-II
# Facility.energy: 3.0
# Facility.current: 399.0
# Facility.mode: top-off
# Facility.GUP: 123456
# Facility.SAF: 301027
# Facility.cycle: 2023-2
# Mono.name: Si(111)
# Mono.d_spacing: 3.13519
# Mono.encoder_resolution: 0.0000050 deg/ct
# Mono.angle_offset: 16.0754 deg
# Mono.scan_mode: pseudo channel cut
# Mono.scan_type: step
# Mono.direction: forward in energy
# Sample.name: DyScO3
# Sample.prep: powder on tape
# Sample.x: 149.848 mm
# Sample.y: 114.690 mm
# Sample.SDD_position: 205.000 mm
# Scan.experimenters: Bruce Ravel
# Scan.edge_energy: 7790.1
# Scan.start_time: 2023-05-08T18:47:37
# Scan.end_time: 2023-05-08T18:53:24
# Scan.transient_id: 75507
# Scan.uid: 434180f4-cc27-4516-bbb2-9855999995f3
# Scan.plot_hint: ln(I0/It)  --  ln($5/$6)
# Column.1: energy eV
# Column.2: requested_energy eV
# Column.3: measurement_time seconds
# Column.4: xmu
# Column.5: I0 nA
# Column.6: It nA
# Column.7: Ir nA
# ///////////
# sample courtesy Igor Levin, NIST
# -----------
# energy  requested_energy  measurement_time  xmu  I0  It  Ir
  7590.112  7590.100  0.500  0.908162  142.577  57.4962  8.535959
  7600.109  7600.100  0.500  0.902148  142.242  57.7073  8.625887
  7610.114  7610.100  0.500  0.896080  141.589  57.792  8.697324
  7620.166  7620.100  0.500  0.891789  141.762  58.1113  8.804035
  7630.131  7630.100  0.500  0.884998  141.953  58.586  8.935218
  7640.138  7640.100  0.500  0.879194  141.861  58.8889  9.041302
  7650.120  7650.100  0.500  0.873282  142.216  59.3863  9.177778
  7660.122  7660.100  0.500  0.867570  142.089  59.6734  9.283373
  7670.116  7670.100  0.500  0.861785  141.916  59.9466  9.386626
  7680.114  7680.100  0.500  0.856238  141.728  60.1999  9.486480
  7690.121  7690.100  0.500  0.850367  141.66  60.5254  9.599176
  7700.115  7700.100  0.500  0.845169  141.365  60.7142  9.690735
  7710.121  7710.100  0.500  0.839876  141.289  61.0033  9.795134
  7720.110  7720.100  0.500  0.834536  140.353  60.9238  9.841252
  7730.116  7730.100  0.500  0.829286  140.903  61.4844  9.985468
  7740.118  7740.100  0.500  0.824694  137.228  60.1564  9.819183
  7750.081  7750.100  0.500  0.821205  140.616  61.857  10.1297
  7760.088  7760.100  0.500  0.819370  140.49  61.9151  10.1473
  7762.088  7762.100  0.500  0.819445  140.432  61.8851  10.1355
  7764.081  7764.100  0.500  0.819915  140.384  61.8348  10.1192
  7766.088  7766.100  0.500  0.820549  140.328  61.7709  10.0954
  7768.081  7768.100  0.500  0.821625  140.293  61.6893  10.0637
  7770.088  7770.100  0.500  0.823113  140.238  61.5734  10.017
  7772.088  7772.100  0.500  0.825410  140.195  61.413  9.953304
  7774.092  7774.100  0.500  0.828702  140.135  61.1852  9.864005
  7776.094  7776.100  0.500  0.833692  140.095  60.8634  9.740612
  7778.090  7778.100  0.500  0.840765  140.057  60.4177  9.565326
  7780.094  7780.100  0.500  0.851627  140.013  59.7465  9.308120
  7780.578  7780.600  0.500  0.855218  139.993  59.5239  9.224342
  7781.076  7781.100  0.500  0.859536  139.977  59.2606  9.127641
  7781.578  7781.600  0.500  0.864099  139.958  58.9826  9.021417
  7782.079  7782.100  0.500  0.869668  139.952  58.6527  8.900824
  7782.578  7782.600  0.500  0.875875  139.926  58.2789  8.762734
  7783.075  7783.100  0.500  0.883742  139.875  57.8009  8.595839
  7783.579  7783.600  0.500  0.892961  139.9  57.2808  8.406361
  7784.083  7784.100  0.500  0.903726  139.882  56.66  8.189731
  7784.585  7784.600  0.500  0.915600  139.862  55.9832  7.959671
  7785.089  7785.100  0.500  0.928449  139.859  55.2675  7.719519
  7785.586  7785.600  0.500  0.941299  139.85  54.5582  7.481957
  7786.086  7786.100  0.500  0.954540  139.813  53.8265  7.246716
  7786.585  7786.600  0.500  0.968845  139.808  53.0602  7.001091
  7787.077  7787.100  0.500  0.984767  139.791  52.2157  6.736585
  7787.582  7787.600  0.500  1.004613  139.791  51.1894  6.429924
  7788.081  7788.100  0.500  1.028114  139.746  49.9846  6.075385
  7788.581  7788.600  0.500  1.057562  139.747  48.5342  5.665597
  7789.089  7789.100  0.500  1.094996  139.722  46.7429  5.187439
  7789.591  7789.600  0.500  1.141739  139.753  44.618  4.655839
  7790.091  7790.100  0.500  1.201248  139.722  42.0309  4.067745
  7790.596  7790.600  0.500  1.280524  139.709  38.8239  3.418877
  7791.094  7791.100  0.500  1.384101  139.687  34.9985  2.751833
  7791.589  7791.600  0.500  1.515944  139.692  30.6765  2.120611
  7792.089  7792.100  0.500  1.676319  139.679  26.1285  1.574276
  7792.587  7792.600  0.500  1.861834  139.649  21.6997  1.140377
  7793.087  7793.100  0.500  2.066935  139.653  17.6763  0.814823
  7793.587  7793.600  0.500  2.271352  139.627  14.4057  0.592175
  7794.093  7794.100  0.500  2.451176  139.631  12.0351  0.451885
  7794.599  7794.600  0.500  2.578643  139.616  10.5936  0.372791
  7795.099  7795.100  0.500  2.641522  139.611  9.947683  0.335260
  7795.603  7795.600  0.500  2.642748  139.596  9.934435  0.325650
  7796.098  7796.100  0.500  2.588166  139.584  10.4908  0.340623
  7796.596  7796.600  0.500  2.493518  139.564  11.5307  0.379174
  7797.095  7797.100  0.500  2.379554  139.56  12.9221  0.440433
  7797.593  7797.600  0.500  2.257220  139.541  14.6017  0.526597
  7798.092  7798.100  0.500  2.133024  139.542  16.5328  0.641635
  7798.595  7798.600  0.500  2.009472  139.515  18.7032  0.791140
  7799.094  7799.100  0.500  1.892287  139.487  21.0244  0.975428
  7799.600  7799.600  0.500  1.787375  139.493  23.351  1.184617
  7800.101  7800.100  0.500  1.697362  139.484  25.5487  1.406844
  7800.600  7800.600  0.500  1.621565  139.466  27.5569  1.632751
  7801.104  7801.100  0.500  1.559209  139.427  29.3218  1.853051
  7801.603  7801.600  0.500  1.511266  139.447  30.7662  2.054072
  7802.099  7802.100  0.500  1.477926  139.418  31.8026  2.218399
  7802.591  7802.600  0.500  1.456371  139.412  32.4941  2.346995
  7803.095  7803.100  0.500  1.443311  139.419  32.9229  2.446619
  7803.591  7803.600  0.500  1.437391  139.412  33.1169  2.520991
  7804.096  7804.100  0.500  1.436163  139.382  33.1504  2.576139
  7804.598  7804.600  0.500  1.437851  139.366  33.0907  2.616201
  7805.100  7805.100  0.500  1.440260  139.351  33.0075  2.646860
  7805.604  7805.600  0.500  1.442189  139.308  32.9338  2.674554
  7806.109  7806.100  0.500  1.441595  139.302  32.9519  2.703866
  7806.606  7806.600  0.500  1.438864  139.311  33.0441  2.734289
  7807.100  7807.100  0.500  1.433950  139.323  33.2098  2.767254
  7807.603  7807.600  0.500  1.427694  139.292  33.4107  2.797614
  7808.095  7808.100  0.500  1.420277  139.269  33.6539  2.826663
  7808.600  7808.600  0.500  1.411935  139.257  33.933  2.854593
  7809.099  7809.100  0.500  1.403257  139.239  34.2243  2.879685
  7809.602  7809.600  0.500  1.393973  139.217  34.538  2.901750
  7810.099  7810.100  0.500  1.384628  139.205  34.8592  2.921683
  7810.605  7810.600  0.500  1.375603  139.2  35.174  2.938585
  7811.102  7811.100  0.500  1.367209  139.182  35.4661  2.952760
  7811.600  7811.600  0.500  1.359869  139.101  35.7066  2.963043
  7812.095  7812.100  0.500  1.354077  139.151  35.9267  2.973599
  7812.598  7812.600  0.500  1.350140  139.126  36.0621  2.979913
  7813.101  7813.100  0.500  1.348378  139.128  36.1263  2.983253
  7813.596  7813.600  0.500  1.347869  139.115  36.1412  2.986465
  7814.097  7814.100  0.500  1.348337  139.11  36.1228  2.989882
  7814.597  7814.600  0.500  1.349592  139.095  36.0736  2.993381
  7815.101  7815.100  0.500  1.351147  139.076  36.0128  2.999665
  7816.094  7816.090  0.500  1.353879  139.072  35.9134  3.015407
  7817.091  7817.090  0.500  1.355438  139.045  35.8505  3.034969
  7818.122  7818.110  0.500  1.358276  139.017  35.7418  3.042690
  7819.174  7819.160  0.500  1.365267  138.995  35.4872  3.022965
  7820.236  7820.220  0.500  1.378801  138.973  35.0047  2.963520
  7821.310  7821.300  0.500  1.397039  138.948  34.3658  2.878366
  7822.404  7822.400  0.500  1.418941  138.92  33.6145  2.774276
  7823.533  7823.520  0.500  1.439472  138.864  32.9181  2.672603
  7824.668  7824.660  0.500  1.454871  138.891  32.4213  2.584484
  7825.826  7825.810  0.500  1.463887  138.838  32.1181  2.509812
  7827.003  7826.990  0.500  1.466827  138.832  32.0224  2.449942
  7828.196  7828.180  0.500  1.466462  138.81  32.0291  2.396501
  7829.411  7829.400  0.500  1.464834  138.768  32.0716  2.352776
  7830.636  7830.630  0.500  1.462774  138.628  32.1053  2.321824
  7831.890  7831.880  0.500  1.461208  137.599  31.9168  2.293432
  7833.161  7833.150  0.500  1.459237  138.59  32.2101  2.318480
  7834.443  7834.440  0.500  1.456323  138.619  32.3109  2.346117
  7835.756  7835.750  0.500  1.451463  138.593  32.4624  2.388702
  7837.099  7837.080  0.500  1.444792  138.572  32.6746  2.442665
  7838.429  7838.430  0.500  1.436097  138.483  32.9389  2.502795
  7839.812  7839.800  0.500  1.426386  137.439  33.0095  2.547218
  7841.193  7841.180  0.500  1.417198  138.375  33.541  2.620339
  7842.590  7842.590  0.500  1.410179  138.409  33.7855  2.666407
  7844.014  7844.010  0.500  1.405955  138.37  33.9191  2.700852
  7845.457  7845.450  0.500  1.404154  137.667  33.8076  2.713513
  7846.911  7846.910  0.500  1.403866  138.038  33.9084  2.740806
  7848.395  7848.390  0.500  1.404652  138.209  33.9237  2.760496
  7849.897  7849.890  0.500  1.404092  138.211  33.9431  2.776854
  7851.405  7851.410  0.500  1.401422  138.17  34.0238  2.796679
  7852.957  7852.950  0.500  1.396216  138.138  34.1936  2.821830
  7854.527  7854.510  0.500  1.389172  137.088  34.1736  2.831009
  7856.079  7856.080  0.500  1.381867  138.01  34.6555  2.880681
  7857.690  7857.680  0.500  1.375330  137.991  34.878  2.906355
  7859.302  7859.290  0.500  1.370162  137.969  35.0532  2.924792
  7860.935  7860.930  0.500  1.366959  137.933  35.1564  2.934433
  7862.591  7862.580  0.500  1.366167  137.872  35.1689  2.932630
  7864.260  7864.250  0.500  1.367786  137.836  35.1026  2.918660
  7865.941  7865.940  0.500  1.371707  137.802  34.9568  2.894541
  7867.659  7867.650  0.500  1.377139  137.768  34.7588  2.862476
  7869.383  7869.380  0.500  1.383643  137.738  34.5258  2.826111
  7871.138  7871.130  0.500  1.391048  137.68  34.2569  2.787014
  7872.904  7872.890  0.500  1.398133  137.643  34.0057  2.750389
  7874.683  7874.680  0.500  1.403744  137.612  33.8079  2.721176
  7876.490  7876.480  0.500  1.407566  137.569  33.6685  2.701065
  7878.320  7878.310  0.500  1.409861  137.504  33.5752  2.687842
  7880.158  7880.150  0.500  1.410621  137.464  33.5401  2.683304
  7882.018  7882.010  0.500  1.409189  137.419  33.5772  2.687735
  7883.897  7883.890  0.500  1.405781  137.366  33.6788  2.699809
  7885.799  7885.790  0.500  1.400988  137.317  33.8286  2.716931
  7887.718  7887.710  0.500  1.395479  137.298  34.0108  2.735631
  7889.662  7889.650  0.500  1.390017  137.24  34.1825  2.753298
  7891.617  7891.610  0.500  1.384906  137.176  34.3416  2.769590
  7893.586  7893.580  0.500  1.380661  137.106  34.4702  2.784674
  7895.592  7895.580  0.500  1.377825  137.037  34.5506  2.796602
  7897.601  7897.590  0.500  1.376771  137.017  34.5821  2.804487
  7899.637  7899.620  0.500  1.377145  135.78  34.257  2.781893
  7901.691  7901.680  0.500  1.378374  136.854  34.4856  2.803742
  7903.767  7903.750  0.500  1.379421  136.815  34.4395  2.801837
  7905.847  7905.840  0.500  1.379715  136.792  34.4236  2.802768
  7907.968  7907.950  0.500  1.379599  136.726  34.4112  2.805398
  7910.088  7910.080  0.500  1.379234  136.688  34.4142  2.813155
  7912.230  7912.220  0.500  1.378746  136.631  34.4165  2.825993
  7914.401  7914.390  0.500  1.378048  136.566  34.4242  2.844268
  7916.594  7916.580  0.500  1.377433  136.483  34.4244  2.864522
  7918.793  7918.780  0.500  1.376419  136.473  34.4569  2.887750
  7921.007  7921.000  0.500  1.374008  136.42  34.5267  2.916491
  7923.271  7923.250  0.500  1.369265  136.371  34.6782  2.948719
  7925.517  7925.510  0.500  1.362830  136.299  34.8838  2.978221
  7927.813  7927.790  0.500  1.355697  135.426  34.9085  2.985559
  7930.100  7930.090  0.500  1.349480  136.05  35.2879  3.013805
  7932.426  7932.410  0.500  1.345968  136.051  35.4125  3.017701
  7934.769  7934.750  0.500  1.344987  135.953  35.4215  3.010538
  7937.116  7937.100  0.500  1.345649  136.199  35.4623  3.009837
  7939.489  7939.480  0.500  1.346761  131.113  34.1001  2.888800
  7941.882  7941.870  0.500  1.347933  136.391  35.4311  2.997997
  7944.312  7944.290  0.500  1.348465  136.322  35.3944  2.986977
  7946.733  7946.720  0.500  1.348405  136.243  35.376  2.974983
  7949.193  7949.170  0.500  1.348059  136.139  35.3612  2.960844
  7951.657  7951.650  0.500  1.348013  135.681  35.2438  2.939802
  7954.153  7954.140  0.500  1.348266  136.004  35.3188  2.940015
  7956.664  7956.650  0.500  1.348758  135.919  35.2795  2.937614
  7959.184  7959.170  0.500  1.349740  135.846  35.2258  2.941115
  7961.739  7961.720  0.500  1.350957  135.748  35.1576  2.950122
  7964.309  7964.290  0.500  1.352271  135.66  35.0888  2.962859
  7966.888  7966.870  0.500  1.353211  135.583  35.0358  2.978357
  7969.481  7969.480  0.500  1.352382  135.485  35.0397  2.993837
  7972.118  7972.100  0.500  1.349549  135.353  35.1047  3.011831
  7974.760  7974.750  0.500  1.345898  135.191  35.1909  3.028417
  7977.429  7977.410  0.500  1.341848  135.024  35.2901  3.042249
  7980.102  7980.090  0.500  1.338374  134.028  35.1519  3.033260
  7982.801  7982.790  0.500  1.335472  134.795  35.4557  3.060408
  7985.532  7985.510  0.500  1.332850  134.72  35.5291  3.066668
  7988.266  7988.250  0.500  1.330366  134.68  35.6069  3.072867
  7991.012  7991.000  0.500  1.327900  134.604  35.6746  3.079352
  7993.790  7993.780  0.500  1.325470  134.536  35.7432  3.084468
  7996.583  7996.570  0.500  1.323173  134.449  35.8023  3.090033
  7999.406  7999.390  0.500  1.320755  134.371  35.8683  3.098749
  8002.248  8002.220  0.500  1.318609  134.304  35.9272  3.111426
  8005.083  8005.070  0.500  1.316942  134.246  35.9717  3.127968
  8007.970  8007.950  0.500  1.315463  134.29  36.0367  3.148245
  8010.859  8010.840  0.500  1.313870  134.291  36.0944  3.167892
  8013.764  8013.750  0.500  1.312502  134.273  36.1391  3.185197
  8016.685  8016.670  0.500  1.311306  134.218  36.1674  3.198325
  8019.635  8019.620  0.500  1.310624  134.161  36.1767  3.207313
  8022.602  8022.590  0.500  1.310439  134.091  36.1647  3.211993
  8025.596  8025.570  0.500  1.310008  134.01  36.1584  3.214664
  8028.594  8028.580  0.500  1.308826  133.913  36.1749  3.217380
  8031.609  8031.600  0.500  1.306764  133.842  36.2303  3.221385
  8034.673  8034.650  0.500  1.304061  133.745  36.302  3.227900
  8037.720  8037.710  0.500  1.301130  133.663  36.3863  3.235575
  8040.808  8040.790  0.500  1.298634  133.565  36.4503  3.241837
  8043.907  8043.890  0.500  1.296787  133.45  36.4863  3.246119
  8047.031  8047.010  0.500  1.295353  133.358  36.5136  3.249464
  8050.163  8050.150  0.500  1.294203  133.256  36.5277  3.251773
  8053.313  8053.300  0.500  1.293115  133.13  36.5329  3.258708
  8056.500  8056.480  0.500  1.291623  132.711  36.4723  3.260723
  8059.687  8059.670  0.500  1.290249  132.887  36.5708  3.276811
  8062.904  8062.890  0.500  1.288692  133.004  36.66  3.293016
  8066.143  8066.120  0.500  1.287160  132.782  36.6551  3.301811
  8069.384  8069.370  0.500  1.285684  130.294  36.0214  3.255622
  8072.662  8072.650  0.500  1.284162  132.733  36.7514  3.331457
  8075.965  8075.940  0.500  1.282803  132.526  36.744  3.342395
  8079.268  8079.250  0.500  1.280500  126.848  35.2508  3.218545
  8082.591  8082.570  0.500  1.277591  132.466  36.9194  3.382550
  8085.930  8085.920  0.500  1.274996  132.312  36.9722  3.394825
  8089.309  8089.290  0.500  1.272117  131.918  36.9685  3.400267
  8092.690  8092.670  0.500  1.269210  132.044  37.1116  3.418100
  8096.097  8096.080  0.500  1.266850  132.137  37.2255  3.432070
  8099.513  8099.500  0.500  1.264634  131.994  37.2674  3.438702
  8102.971  8102.950  0.500  1.262664  131.83  37.2945  3.445883
  8106.429  8106.410  0.500  1.260354  131.729  37.3524  3.456683
  8109.901  8109.890  0.500  1.258196  131.639  37.4075  3.470253
  8113.402  8113.390  0.500  1.256116  131.517  37.4505  3.485412
  8116.925  8116.910  0.500  1.254241  131.407  37.4895  3.499275
  8120.463  8120.450  0.500  1.252258  131.303  37.5341  3.514305
  8124.019  8124.000  0.500  1.250173  131.185  37.5788  3.528790
  8127.597  8127.580  0.500  1.248360  131.04  37.6051  3.539065
  8131.193  8131.180  0.500  1.246759  130.918  37.6304  3.548661
  8134.809  8134.790  0.500  1.245060  130.798  37.6599  3.559069
  8138.440  8138.420  0.500  1.242943  130.68  37.7056  3.568042
  8142.096  8142.080  0.500  1.240789  130.556  37.7509  3.579581
  8145.762  8145.750  0.500  1.238076  130.43  37.817  3.593408
  8149.446  8149.440  0.500  1.235615  130.292  37.8702  3.607709
  8153.158  8153.150  0.500  1.233014  130.158  37.9296  3.622576
  8156.894  8156.880  0.500  1.230522  130.01  37.9811  3.634331
  8160.628  8160.620  0.500  1.228196  129.889  38.0341  3.646528
  8164.397  8164.390  0.500  1.225714  129.799  38.1024  3.658358
  8168.186  8168.180  0.500  1.223644  129.657  38.1394  3.667824
  8171.988  8171.980  0.500  1.221919  129.517  38.164  3.674893
  8175.822  8175.810  0.500  1.219993  129.388  38.1997  3.684783
  8179.657  8179.650  0.500  1.218446  129.226  38.2107  3.694152
  8183.521  8183.510  0.500  1.216487  129.096  38.2472  3.707263
  8187.406  8187.390  0.500  1.214644  128.938  38.2709  3.719225
  8191.301  8191.290  0.500  1.212553  128.825  38.3175  3.734078
  8195.220  8195.210  0.500  1.210526  128.701  38.3581  3.748543
  8199.157  8199.150  0.500  1.208414  128.535  38.3896  3.763622
  8203.115  8203.110  0.500  1.206186  128.4  38.4348  3.780003
  8207.092  8207.080  0.500  1.203603  128.277  38.4975  3.797787
  8211.093  8211.080  0.500  1.200559  128.136  38.5722  3.815153
  8215.100  8215.090  0.500  1.197462  127.981  38.645  3.832809
  8219.138  8219.130  0.500  1.194644  127.815  38.7038  3.851012
  8223.189  8223.180  0.500  1.191581  127.657  38.7747  3.870892
  8227.261  8227.250  0.500  1.188765  127.517  38.8412  3.889556
  8231.360  8231.340  0.500  1.185778  127.355  38.908  3.906591
  8235.464  8235.450  0.500  1.183094  127.218  38.9707  3.921504
  8239.595  8239.580  0.500  1.180383  127.076  39.0328  3.934794
  8243.740  8243.730  0.500  1.177946  126.9  39.0737  3.943749
  8247.900  8247.890  0.500  1.175725  126.752  39.1149  3.952631
  8252.093  8252.080  0.500  1.173716  126.6  39.1466  3.962585
  8256.297  8256.280  0.500  1.171665  126.434  39.1758  3.973125
  8260.526  8260.510  0.500  1.169738  126.285  39.2049  3.987470
  8264.765  8264.750  0.500  1.167606  126.132  39.2409  4.002757
  8269.023  8269.010  0.500  1.165696  125.973  39.2665  4.017058
  8273.298  8273.290  0.500  1.163437  125.803  39.3023  4.032810
  8277.603  8277.590  0.500  1.160909  125.324  39.2518  4.040953
  8281.919  8281.910  0.500  1.158234  125.419  39.3865  4.066374
  8286.261  8286.250  0.500  1.155392  125.259  39.4484  4.084172
  8290.624  8290.610  0.500  1.152524  125.093  39.5093  4.102144
  8295.013  8294.990  0.500  1.149787  124.892  39.554  4.119475
  8299.398  8299.380  0.500  1.146805  124.709  39.6139  4.138305
  8303.823  8303.800  0.500  1.143757  124.514  39.6726  4.158097
  8308.250  8308.230  0.500  1.141080  124.314  39.715  4.176097
  8312.697  8312.680  0.500  1.138538  123.941  39.6966  4.186506
  8317.158  8317.150  0.500  1.136374  123.689  39.7019  4.196553
  8321.665  8321.640  0.500  1.134261  122.214  39.3112  4.165064
  8326.200  8326.150  0.500  1.131972  123.54  39.8289  4.226528
  8330.721  8330.680  0.500  1.129291  123.375  39.8824  4.238238
  8335.258  8335.230  0.500  1.126291  123.008  39.8833  4.244242