File: xdidata/Dy/Dy-L1-Dy2TiO5.xdi
# XDI/1.0 BlueSky/1.10.0 BMM/2023-1.0-py310-tiled
# Beamline.name: BMM (06BM) -- Beamline for Materials Measurement (NIST)
# Beamline.xray_source: NSLS-II three-pole wiggler
# Beamline.collimation: paraboloid mirror, 5 nm Rh on 30 nm Pt
# Beamline.focusing: not in use
# Beamline.harmonic_rejection: flat mirror, Pt stripe, pitch = 7.0 mrad relative to beam
# Beamline.software: Bluesky 1.10.0, Ophyd 1.7.0, DataBroker 2.0.0b13, Python 3.10.8, 2023-1.0-py310-tiled
# Detector.I0: 10 cm N2
# Detector.I1: 25 cm N2
# Detector.I2: 25 cm N2
# Element.symbol: Dy
# Element.edge: L1
# Element.reference: Dy
# Element.reference_material: Dy2O3
# Facility.name: NSLS-II
# Facility.energy: 3.0
# Facility.current: 400.5
# Facility.mode: top-off
# Facility.GUP: 123456
# Facility.SAF: 301027
# Facility.cycle: 2023-2
# Mono.name: Si(111)
# Mono.d_spacing: 3.13519
# Mono.encoder_resolution: 0.0000050 deg/ct
# Mono.angle_offset: 16.0754 deg
# Mono.scan_mode: pseudo channel cut
# Mono.scan_type: step
# Mono.direction: forward in energy
# Sample.name: Dy2TiO5
# Sample.prep: Powder in PEG pellet
# Sample.x: 149.848 mm
# Sample.y: 114.690 mm
# Sample.SDD_position: 205.000 mm
# Scan.experimenters: Bruce Ravel
# Scan.edge_energy: 9045.8
# Scan.start_time: 2023-05-08T22:08:22
# Scan.end_time: 2023-05-08T22:14:16
# Scan.transient_id: 75661
# Scan.uid: b6a63314-fa7a-4740-850c-fed1dcc4f594
# Scan.plot_hint: ln(I0/It)  --  ln($5/$6)
# Column.1: energy eV
# Column.2: requested_energy eV
# Column.3: measurement_time seconds
# Column.4: xmu
# Column.5: I0 nA
# Column.6: It nA
# Column.7: Ir nA
# ///////////
# sample courtesy Martin Stennett, University of Sheffield
# -----------
# energy  requested_energy  measurement_time  xmu  I0  It  Ir
  8845.835  8845.800  0.500  1.486755  121.771  27.533  2.869866
  8855.820  8855.800  0.500  1.481615  121.563  27.6276  2.896154
  8865.873  8865.800  0.500  1.476504  121.355  27.7217  2.925143
  8875.833  8875.800  0.500  1.471657  121.139  27.8068  2.953573
  8885.864  8885.800  0.500  1.466889  120.938  27.8933  2.974260
  8895.840  8895.800  0.500  1.462121  120.704  27.9725  2.993977
  8905.829  8905.800  0.500  1.457286  120.459  28.0509  3.019833
  8915.820  8915.800  0.500  1.452373  120.164  28.1201  3.043783
  8925.828  8925.800  0.500  1.447723  120.174  28.2536  3.072764
  8935.827  8935.800  0.500  1.443620  119.672  28.2512  3.085395
  8945.936  8945.800  0.500  1.439297  119.83  28.411  3.116675
  8955.778  8955.800  0.500  1.434443  119.587  28.4913  3.136181
  8965.764  8965.800  0.500  1.429732  119.09  28.5068  3.148848
  8975.772  8975.800  0.500  1.424910  119.13  28.6543  3.179934
  8985.769  8985.800  0.500  1.420399  118.839  28.7137  3.202167
  8995.778  8995.800  0.500  1.416471  118.609  28.7708  3.224658
  9005.789  9005.800  0.500  1.412100  118.403  28.8467  3.248841
  9015.784  9015.800  0.500  1.408370  118.17  28.8974  3.270757
  9017.780  9017.800  0.500  1.407437  118.085  28.9036  3.274673
  9019.769  9019.800  0.500  1.406584  117.615  28.8133  3.266830
  9021.767  9021.800  0.500  1.405970  117.558  28.8168  3.268609
  9023.768  9023.800  0.500  1.405394  118.04  28.9518  3.286593
  9025.767  9025.800  0.500  1.404551  117.975  28.9601  3.289425
  9027.764  9027.800  0.500  1.403850  117.925  28.9682  3.291553
  9029.779  9029.800  0.500  1.403186  117.871  28.9742  3.293279
  9031.770  9031.800  0.500  1.402744  117.818  28.9739  3.293675
  9033.773  9033.800  0.500  1.402232  117.766  28.9761  3.294547
  9035.773  9035.800  0.500  1.401894  117.713  28.9727  3.293058
  9036.276  9036.300  0.500  1.402071  117.7  28.9644  3.292316
  9036.775  9036.800  0.500  1.401901  117.672  28.9623  3.292045
  9037.268  9037.300  0.500  1.401773  117.663  28.9639  3.291267
  9037.767  9037.800  0.500  1.401917  117.644  28.9552  3.290227
  9038.270  9038.300  0.500  1.401917  117.626  28.9507  3.289048
  9038.770  9038.800  0.500  1.401804  117.618  28.9521  3.288966
  9039.273  9039.300  0.500  1.401889  117.593  28.9433  3.287569
  9039.776  9039.800  0.500  1.401845  117.555  28.9352  3.284929
  9040.283  9040.300  0.500  1.402082  117.479  28.9097  3.282035
  9040.772  9040.800  0.500  1.402138  117.031  28.7977  3.269192
  9041.279  9041.300  0.500  1.402315  116.462  28.6527  3.250831
  9041.783  9041.800  0.500  1.402348  116.208  28.5894  3.242223
  9042.283  9042.300  0.500  1.402697  116.533  28.6593  3.249077
  9042.779  9042.800  0.500  1.403002  117.186  28.811  3.265218
  9043.286  9043.300  0.500  1.403103  117.361  28.8513  3.268061
  9043.783  9043.800  0.500  1.403433  117.384  28.8474  3.266271
  9044.283  9044.300  0.500  1.403831  117.404  28.8407  3.264044
  9044.787  9044.800  0.500  1.404168  117.389  28.8275  3.259949
  9045.280  9045.300  0.500  1.404758  117.394  28.8116  3.254106
  9045.784  9045.800  0.500  1.405572  117.371  28.7825  3.247226
  9046.284  9046.300  0.500  1.406632  117.376  28.7532  3.239661
  9046.792  9046.800  0.500  1.407608  117.363  28.7221  3.230714
  9047.296  9047.300  0.500  1.408898  117.353  28.6826  3.219555
  9047.804  9047.800  0.500  1.410568  117.342  28.632  3.205345
  9048.290  9048.300  0.500  1.412514  117.319  28.5707  3.189490
  9048.794  9048.800  0.500  1.414878  117.311  28.5013  3.171333
  9049.292  9049.300  0.500  1.417426  117.3  28.4261  3.151060
  9049.793  9049.800  0.500  1.420010  117.286  28.3493  3.131157
  9050.290  9050.300  0.500  1.422789  117.274  28.2678  3.111226
  9050.791  9050.800  0.500  1.425443  117.257  28.1889  3.091314
  9051.292  9051.300  0.500  1.428187  117.247  28.1091  3.072430
  9051.786  9051.800  0.500  1.430877  117.231  28.0298  3.052691
  9052.291  9052.300  0.500  1.433556  117.218  27.9518  3.034222
  9052.799  9052.800  0.500  1.436201  117.205  27.8748  3.015996
  9053.300  9053.300  0.500  1.438937  117.19  27.7952  2.996487
  9053.801  9053.800  0.500  1.441789  117.173  27.712  2.978506
  9054.299  9054.300  0.500  1.444590  117.17  27.6336  2.960248
  9054.793  9054.800  0.500  1.447670  117.147  27.5433  2.940342
  9055.288  9055.300  0.500  1.450967  117.143  27.4518  2.920260
  9055.786  9055.800  0.500  1.454481  117.127  27.3516  2.897434
  9056.291  9056.300  0.500  1.458160  117.114  27.2483  2.874304
  9056.789  9056.800  0.500  1.461765  117.102  27.1473  2.852128
  9057.287  9057.300  0.500  1.465679  117.089  27.0384  2.827624
  9057.792  9057.800  0.500  1.469628  117.077  26.929  2.802763
  9058.294  9058.300  0.500  1.473950  117.067  26.8106  2.775973
  9058.800  9058.800  0.500  1.478447  117.053  26.6872  2.747830
  9059.302  9059.300  0.500  1.483142  117.041  26.5593  2.718166
  9059.800  9059.800  0.500  1.487726  117.021  26.4333  2.687901
  9060.295  9060.300  0.500  1.492423  117.01  26.307  2.658974
  9060.797  9060.800  0.500  1.496736  116.988  26.1888  2.631014
  9061.285  9061.300  0.500  1.500708  116.968  26.0805  2.606541
  9061.791  9061.800  0.500  1.504434  116.943  25.9781  2.583906
  9062.293  9062.300  0.500  1.507657  116.782  25.8588  2.561171
  9062.792  9062.800  0.500  1.510215  116.228  25.6703  2.535378
  9063.294  9063.300  0.500  1.512098  115.772  25.5217  2.514849
  9063.804  9063.800  0.500  1.513247  115.696  25.4754  2.509323
  9064.303  9064.300  0.500  1.513634  116.202  25.577  2.518429
  9064.802  9064.800  0.500  1.513590  116.67  25.6811  2.530165
  9065.297  9065.300  0.500  1.513169  116.789  25.7181  2.536903
  9065.800  9065.800  0.500  1.512325  116.803  25.743  2.542041
  9066.302  9066.300  0.500  1.511662  116.809  25.7614  2.546926
  9066.788  9066.800  0.500  1.510831  116.808  25.7826  2.551146
  9067.297  9067.300  0.500  1.509965  116.798  25.8027  2.554246
  9067.793  9067.800  0.500  1.509090  116.785  25.8225  2.556342
  9068.300  9068.300  0.500  1.508299  116.774  25.8404  2.558534
  9068.799  9068.800  0.500  1.507948  116.764  25.8474  2.558114
  9069.306  9069.300  0.500  1.507270  116.749  25.8615  2.559018
  9069.802  9069.800  0.500  1.506550  116.741  25.8784  2.558710
  9070.308  9070.300  0.500  1.506009  116.728  25.8895  2.558680
  9070.805  9070.800  0.500  1.505061  116.716  25.9115  2.560021
  9071.793  9071.790  0.500  1.503306  116.692  25.9516  2.562566
  9072.797  9072.790  0.500  1.501301  116.671  25.9989  2.568384
  9073.818  9073.810  0.500  1.499167  116.646  26.0489  2.575551
  9074.886  9074.860  0.500  1.497247  116.622  26.0937  2.585530
  9075.943  9075.920  0.500  1.495166  116.593  26.1416  2.598816
  9077.011  9077.000  0.500  1.492784  116.557  26.1958  2.614849
  9078.101  9078.100  0.500  1.490093  116.543  26.2631  2.635206
  9079.230  9079.220  0.500  1.486855  116.505  26.3398  2.655973
  9080.380  9080.360  0.500  1.483283  116.189  26.3623  2.673598
  9081.520  9081.510  0.500  1.479625  115.194  26.2323  2.675163
  9082.700  9082.690  0.500  1.476390  116.678  26.6563  2.731111
  9083.887  9083.880  0.500  1.473382  116.846  26.7751  2.754306
  9085.114  9085.100  0.500  1.470784  116.841  26.8437  2.772125
  9086.340  9086.330  0.500  1.468887  116.82  26.8898  2.785059
  9087.589  9087.580  0.500  1.467141  116.796  26.9312  2.794110
  9088.863  9088.850  0.500  1.466024  116.765  26.9542  2.800679
  9090.144  9090.140  0.500  1.465244  116.746  26.9709  2.805258
  9091.465  9091.450  0.500  1.464638  116.71  26.9788  2.808295
  9092.796  9092.780  0.500  1.464360  116.684  26.9804  2.809597
  9094.132  9094.130  0.500  1.464532  116.643  26.9664  2.808447
  9095.504  9095.500  0.500  1.464845  116.614  26.951  2.805633
  9096.887  9096.880  0.500  1.465821  116.584  26.9178  2.801214
  9098.299  9098.290  0.500  1.466577  116.545  26.8884  2.797196
  9099.711  9099.710  0.500  1.467434  116.52  26.8597  2.792938
  9101.156  9101.150  0.500  1.468197  116.474  26.8287  2.788042
  9102.623  9102.610  0.500  1.469128  116.354  26.7761  2.781055
  9104.101  9104.090  0.500  1.469746  115.141  26.4807  2.747184
  9105.598  9105.590  0.500  1.470398  116.235  26.7148  2.768165
  9107.134  9107.110  0.500  1.471055  116.281  26.7077  2.763809
  9108.674  9108.650  0.500  1.471466  116.263  26.6926  2.758656
  9110.226  9110.210  0.500  1.471788  116.224  26.6751  2.752224
  9111.789  9111.780  0.500  1.472250  116.188  26.6546  2.745037
  9113.398  9113.380  0.500  1.472503  116.143  26.6375  2.738360
  9114.995  9114.990  0.500  1.472392  116.103  26.6313  2.732316
  9116.638  9116.630  0.500  1.471924  116.072  26.6366  2.730020
  9118.289  9118.280  0.500  1.471016  116.025  26.65  2.729818
  9119.966  9119.950  0.500  1.469788  115.974  26.6709  2.732302
  9121.639  9121.640  0.500  1.468359  115.93  26.6989  2.737304
  9123.361  9123.350  0.500  1.466796  115.885  26.7305  2.743640
  9125.097  9125.080  0.500  1.465102  115.834  26.7641  2.753532
  9126.837  9126.830  0.500  1.463559  115.786  26.7943  2.764928
  9128.603  9128.590  0.500  1.461835  115.736  26.8289  2.777683
  9130.384  9130.380  0.500  1.460488  115.684  26.8528  2.789330
  9132.191  9132.180  0.500  1.459127  115.632  26.8773  2.800690
  9134.032  9134.010  0.500  1.457876  115.581  26.8991  2.808768
  9135.865  9135.850  0.500  1.456867  115.525  26.9134  2.815316
  9137.718  9137.710  0.500  1.455868  115.466  26.9265  2.819262
  9139.600  9139.590  0.500  1.454732  115.387  26.9385  2.822865
  9141.501  9141.490  0.500  1.453509  115.25  26.9396  2.825352
  9143.417  9143.410  0.500  1.452269  114.396  26.7731  2.808818
  9145.366  9145.350  0.500  1.451212  114.216  26.7593  2.807529
  9147.320  9147.310  0.500  1.450189  115.365  27.0561  2.841025
  9149.292  9149.280  0.500  1.449075  115.271  27.0643  2.846057
  9151.295  9151.280  0.500  1.447856  115.183  27.0766  2.851796
  9153.291  9153.290  0.500  1.446649  115.081  27.0851  2.857814
  9155.339  9155.320  0.500  1.445408  114.86  27.0668  2.861584
  9157.394  9157.380  0.500  1.444171  111.381  26.2793  2.783641
  9159.462  9159.450  0.500  1.442957  115.061  27.1807  2.883831
  9161.556  9161.540  0.500  1.441783  114.975  27.1923  2.891610
  9163.650  9163.650  0.500  1.440899  114.872  27.1919  2.896590
  9165.797  9165.780  0.500  1.439935  114.701  27.1775  2.899206
  9167.941  9167.920  0.500  1.439161  112.215  26.6091  2.843849
  9170.100  9170.090  0.500  1.438837  114.785  27.2275  2.912032
  9172.300  9172.280  0.500  1.438392  114.744  27.2298  2.913732
  9174.483  9174.480  0.500  1.438189  114.659  27.2151  2.912748
  9176.722  9176.700  0.500  1.437839  114.565  27.2024  2.911438
  9178.969  9178.950  0.500  1.437301  114.426  27.184  2.909256
  9181.221  9181.210  0.500  1.436615  113.552  26.9947  2.887908
  9183.514  9183.490  0.500  1.435936  114.152  27.1559  2.902124
  9185.808  9185.790  0.500  1.435171  114.478  27.2544  2.911782
  9188.115  9188.110  0.500  1.434224  114.373  27.2552  2.913780
  9190.455  9190.450  0.500  1.433138  114.286  27.2639  2.917571
  9192.814  9192.800  0.500  1.431865  114.203  27.2789  2.922186
  9195.194  9195.180  0.500  1.430495  114.126  27.2979  2.927250
  9197.588  9197.570  0.500  1.428891  114.034  27.3197  2.932136
  9200.018  9199.990  0.500  1.427504  113.95  27.3374  2.937152
  9202.441  9202.420  0.500  1.426039  113.887  27.3623  2.943587
  9204.898  9204.870  0.500  1.424243  113.813  27.3938  2.951555
  9207.367  9207.350  0.500  1.422769  113.74  27.4166  2.961246
  9209.864  9209.840  0.500  1.421451  113.687  27.4399  2.970098
  9212.373  9212.350  0.500  1.420067  113.613  27.46  2.980184
  9214.894  9214.870  0.500  1.418852  113.553  27.479  2.989157
  9217.428  9217.420  0.500  1.417668  113.482  27.4943  2.995892
  9220.010  9219.990  0.500  1.416544  113.421  27.5104  3.003106
  9222.584  9222.570  0.500  1.415446  113.36  27.5258  3.007391
  9225.202  9225.180  0.500  1.414166  113.283  27.5423  3.010574
  9227.808  9227.800  0.500  1.413083  113.212  27.5548  3.013179
  9230.477  9230.450  0.500  1.411979  113.154  27.5711  3.017158
  9233.119  9233.110  0.500  1.410772  113.086  27.5879  3.021429
  9235.817  9235.790  0.500  1.409503  113.02  27.6068  3.026310
  9238.514  9238.490  0.500  1.408528  112.95  27.6166  3.030699
  9241.237  9241.210  0.500  1.407207  112.867  27.6327  3.036708
  9243.966  9243.950  0.500  1.406076  112.806  27.6492  3.043550
  9246.719  9246.700  0.500  1.404831  112.74  27.6674  3.050569
  9249.496  9249.480  0.500  1.403557  112.666  27.6845  3.057500
  9252.293  9252.270  0.500  1.402245  112.596  27.7037  3.064241
  9255.106  9255.090  0.500  1.401046  112.525  27.7193  3.072528
  9257.951  9257.920  0.500  1.399561  112.445  27.7407  3.080139
  9260.782  9260.770  0.500  1.398488  112.368  27.7514  3.087048
  9263.667  9263.650  0.500  1.397301  112.302  27.7683  3.092775
  9266.554  9266.540  0.500  1.396191  112.221  27.7791  3.097388
  9269.473  9269.450  0.500  1.395080  112.154  27.7931  3.101863
  9272.393  9272.370  0.500  1.393910  112.08  27.8073  3.107417
  9275.360  9275.320  0.500  1.392640  111.492  27.6966  3.097207
  9278.295  9278.290  0.500  1.391327  111.963  27.8503  3.116919
  9281.303  9281.270  0.500  1.389915  111.867  27.8656  3.120324
  9284.302  9284.280  0.500  1.388699  111.775  27.8766  3.124800
  9287.317  9287.300  0.500  1.387416  111.692  27.8917  3.129327
  9290.372  9290.350  0.500  1.386054  111.581  27.9019  3.135088
  9293.444  9293.410  0.500  1.384707  111.216  27.8483  3.133230
  9296.510  9296.490  0.500  1.383247  111.396  27.934  3.146559
  9299.608  9299.590  0.500  1.381806  108.035  27.1303  3.061099
  9302.738  9302.710  0.500  1.380400  111.36  28.0045  3.164038
  9305.871  9305.850  0.500  1.378925  110.915  27.9337  3.160806
  9309.027  9309.000  0.500  1.377191  111.22  28.0592  3.180538
  9312.202  9312.180  0.500  1.375709  111.124  28.0767  3.189125
  9315.393  9315.370  0.500  1.374289  111.03  28.0928  3.196979
  9318.609  9318.590  0.500  1.372869  110.938  28.1094  3.204366
  9321.838  9321.820  0.500  1.371364  110.823  28.1225  3.212040
  9325.085  9325.070  0.500  1.370124  110.684  28.1222  3.217584
  9328.372  9328.350  0.500  1.368568  110.707  28.1716  3.228276
  9331.657  9331.640  0.500  1.367130  110.636  28.1941  3.236974
  9334.978  9334.950  0.500  1.365743  110.549  28.2112  3.244506
  9338.291  9338.270  0.500  1.364179  110.443  28.2283  3.249751
  9341.644  9341.620  0.500  1.362664  110.348  28.2466  3.256467
  9345.006  9344.990  0.500  1.361186  110.253  28.2642  3.263046
  9348.386  9348.370  0.500  1.359632  110.165  28.2855  3.269475
  9351.807  9351.780  0.500  1.358091  110.069  28.3043  3.277807
  9355.215  9355.200  0.500  1.356821  109.988  28.3195  3.285540
  9358.667  9358.650  0.500  1.355306  109.884  28.3356  3.292800
  9362.129  9362.110  0.500  1.353760  109.804  28.3588  3.301382
  9365.616  9365.590  0.500  1.352201  109.712  28.3793  3.309602
  9369.110  9369.090  0.500  1.350521  109.612  28.4011  3.317507
  9372.630  9372.610  0.500  1.349087  109.506  28.4142  3.325019
  9376.167  9376.150  0.500  1.347555  109.414  28.434  3.331960
  9379.714  9379.700  0.500  1.346116  109.337  28.4549  3.337522
  9383.295  9383.280  0.500  1.344743  109.239  28.4684  3.344053
  9386.897  9386.880  0.500  1.343185  109.144  28.4881  3.350935
  9390.510  9390.490  0.500  1.341601  109.059  28.5109  3.358533
  9394.130  9394.120  0.500  1.340098  108.967  28.5298  3.365445
  9397.809  9397.780  0.500  1.338503  108.864  28.5481  3.373206
  9401.461  9401.450  0.500  1.336850  108.771  28.5712  3.382018
  9405.162  9405.140  0.500  1.335389  108.683  28.5898  3.390053
  9408.866  9408.850  0.500  1.333850  108.579  28.6062  3.396291
  9412.592  9412.580  0.500  1.332003  108.483  28.6339  3.405244
  9416.332  9416.320  0.500  1.330481  108.392  28.6534  3.412493
  9420.106  9420.090  0.500  1.328688  108.295  28.6793  3.421105
  9423.898  9423.880  0.500  1.327146  108.191  28.6959  3.428982
  9427.698  9427.680  0.500  1.325345  108.096  28.7224  3.438891
  9431.523  9431.510  0.500  1.323894  108.009  28.7409  3.447540
  9435.367  9435.350  0.500  1.322076  107.866  28.755  3.455756
  9439.230  9439.210  0.500  1.320493  107.768  28.7745  3.466264
  9443.104  9443.090  0.500  1.318726  107.688  28.8039  3.475684
  9447.015  9446.990  0.500  1.317228  107.586  28.8197  3.484082
  9450.926  9450.910  0.500  1.315590  107.489  28.8411  3.493234
  9454.864  9454.850  0.500  1.314092  107.398  28.8597  3.502790
  9458.824  9458.810  0.500  1.312433  107.283  28.8768  3.511875
  9462.803  9462.780  0.500  1.310529  107.181  28.9043  3.520755
  9466.801  9466.780  0.500  1.308940  107.084  28.924  3.529814
  9470.798  9470.790  0.500  1.307122  106.985  28.9498  3.538984
  9474.849  9474.830  0.500  1.305526  106.881  28.9679  3.547604
  9478.896  9478.880  0.500  1.304039  106.774  28.9819  3.555985
  9482.974  9482.950  0.500  1.302304  106.669  29.0038  3.564347
  9487.052  9487.040  0.500  1.300507  106.566  29.028  3.572374
  9491.175  9491.150  0.500  1.298758  106.456  29.0487  3.579827
  9495.291  9495.280  0.500  1.297000  106.359  29.0734  3.588226
  9499.438  9499.430  0.500  1.295294  106.244  29.0915  3.596046
  9503.612  9503.590  0.500  1.293587  106.145  29.1139  3.605503
  9507.793  9507.780  0.500  1.291764  106.04  29.1383  3.614734
  9511.994  9511.980  0.500  1.290037  105.919  29.1554  3.624255
  9516.234  9516.210  0.500  1.288148  105.813  29.1813  3.633879
  9520.462  9520.450  0.500  1.286404  105.712  29.2044  3.645020
  9524.737  9524.710  0.500  1.284556  105.606  29.2288  3.654927
  9529.012  9528.990  0.500  1.282767  105.491  29.2494  3.664259
  9533.307  9533.290  0.500  1.281135  105.373  29.2645  3.673613
  9537.633  9537.610  0.500  1.279359  105.278  29.2901  3.684708
  9541.963  9541.950  0.500  1.277452  105.167  29.3149  3.695575
  9546.325  9546.310  0.500  1.275933  105.059  29.3294  3.704104
  9550.714  9550.690  0.500  1.274234  104.94  29.3459  3.713533
  9555.104  9555.080  0.500  1.272443  104.832  29.3683  3.723779
  9559.529  9559.500  0.500  1.270606  104.72  29.3909  3.733853
  9563.955  9563.930  0.500  1.268769  104.605  29.4125  3.742679
  9568.408  9568.380  0.500  1.266962  104.481  29.4309  3.752494
  9572.870  9572.850  0.500  1.265132  104.378  29.4558  3.761330
  9577.363  9577.340  0.500  1.263187  104.272  29.4831  3.771356
  9581.873  9581.850  0.500  1.261151  104.148  29.5079  3.781181
  9586.395  9586.380  0.500  1.259341  104.01  29.5222  3.789356
  9590.953  9590.930  0.500  1.257395  104.297  29.6616  3.815247