File: xdidata/Dy/Dy-L1-DyScO3.xdi
# XDI/1.0 BlueSky/1.10.0 BMM/2023-1.0-py310-tiled
# Beamline.name: BMM (06BM) -- Beamline for Materials Measurement (NIST)
# Beamline.xray_source: NSLS-II three-pole wiggler
# Beamline.collimation: paraboloid mirror, 5 nm Rh on 30 nm Pt
# Beamline.focusing: not in use
# Beamline.harmonic_rejection: flat mirror, Pt stripe, pitch = 7.0 mrad relative to beam
# Beamline.software: Bluesky 1.10.0, Ophyd 1.7.0, DataBroker 2.0.0b13, Python 3.10.8, 2023-1.0-py310-tiled
# Detector.I0: 10 cm N2
# Detector.I1: 25 cm N2
# Detector.I2: 25 cm N2
# Element.symbol: Dy
# Element.edge: L1
# Element.reference: Dy
# Element.reference_material: Dy2O3
# Facility.name: NSLS-II
# Facility.energy: 3.0
# Facility.current: 400.5
# Facility.mode: top-off
# Facility.GUP: 123456
# Facility.SAF: 301027
# Facility.cycle: 2023-2
# Mono.name: Si(111)
# Mono.d_spacing: 3.13519
# Mono.encoder_resolution: 0.0000050 deg/ct
# Mono.angle_offset: 16.0754 deg
# Mono.scan_mode: pseudo channel cut
# Mono.scan_type: step
# Mono.direction: forward in energy
# Sample.name: DyScO3
# Sample.prep: powder on tape
# Sample.x: 149.848 mm
# Sample.y: 114.690 mm
# Sample.SDD_position: 205.000 mm
# Scan.experimenters: Bruce Ravel
# Scan.edge_energy: 9045.8
# Scan.start_time: 2023-05-08T22:21:22
# Scan.end_time: 2023-05-08T22:27:11
# Scan.transient_id: 75671
# Scan.uid: ff9fd2cd-21e4-40a2-96a1-0b5ddaa988f7
# Scan.plot_hint: ln(I0/It)  --  ln($5/$6)
# Column.1: energy eV
# Column.2: requested_energy eV
# Column.3: measurement_time seconds
# Column.4: xmu
# Column.5: I0 nA
# Column.6: It nA
# Column.7: Ir nA
# ///////////
# sample courtesy Igor Levin, NIST
# -----------
# energy  requested_energy  measurement_time  xmu  I0  It  Ir
  8845.805  8845.800  0.500  1.155781  122.102  38.4392  3.978937
  8855.807  8855.800  0.500  1.151317  121.898  38.5467  4.012174
  8865.849  8865.800  0.500  1.146760  121.671  38.6505  4.050536
  8875.864  8875.800  0.500  1.141184  121.471  38.8027  4.093831
  8885.868  8885.800  0.500  1.135348  121.259  38.9617  4.126566
  8895.844  8895.800  0.500  1.130431  121.019  39.0763  4.153946
  8905.826  8905.800  0.500  1.125673  120.758  39.178  4.188354
  8915.827  8915.800  0.500  1.121074  120.483  39.269  4.222088
  8925.855  8925.800  0.500  1.117216  120.441  39.4072  4.255427
  8935.824  8935.800  0.500  1.112269  119.949  39.4407  4.277492
  8945.819  8945.800  0.500  1.106928  119.981  39.6626  4.320478
  8955.820  8955.800  0.500  1.102082  119.733  39.7726  4.350340
  8965.816  8965.800  0.500  1.098090  119.235  39.7657  4.364944
  8975.818  8975.800  0.500  1.094203  119.276  39.9343  4.403703
  8985.825  8985.800  0.500  1.090181  118.982  39.9966  4.431648
  8995.823  8995.800  0.500  1.085565  118.76  40.1066  4.467274
  9005.827  9005.800  0.500  1.080743  118.555  40.2308  4.501976
  9015.812  9015.800  0.500  1.076297  118.326  40.3319  4.535121
  9017.801  9017.800  0.500  1.075728  118.23  40.3223  4.538516
  9019.794  9019.800  0.500  1.074868  117.793  40.208  4.528474
  9021.791  9021.800  0.500  1.073873  117.684  40.2106  4.531096
  9023.793  9023.800  0.500  1.073279  118.2  40.4108  4.557167
  9025.802  9025.800  0.500  1.072674  118.145  40.4165  4.560791
  9027.810  9027.800  0.500  1.072027  118.089  40.4234  4.562841
  9029.789  9029.800  0.500  1.071441  118.047  40.4329  4.565318
  9032.016  9031.800  0.500  1.070993  117.973  40.4257  4.565291
  9033.762  9033.800  0.500  1.070702  117.927  40.4217  4.564226
  9035.815  9035.800  0.500  1.070891  117.844  40.3856  4.561018
  9036.286  9036.300  0.500  1.070691  117.848  40.395  4.561849
  9036.775  9036.800  0.500  1.070577  117.834  40.3949  4.561251
  9037.278  9037.300  0.500  1.070668  117.814  40.3843  4.559857
  9037.771  9037.800  0.500  1.070856  117.809  40.3748  4.558630
  9038.277  9038.300  0.500  1.070903  117.783  40.364  4.556193
  9038.780  9038.800  0.500  1.070993  117.767  40.3548  4.554279
  9039.280  9039.300  0.500  1.071078  117.73  40.3389  4.550970
  9039.773  9039.800  0.500  1.071305  117.713  40.3238  4.548590
  9040.279  9040.300  0.500  1.071626  117.639  40.2855  4.543356
  9040.779  9040.800  0.500  1.071787  117.226  40.1376  4.525926
  9041.283  9041.300  0.500  1.071997  116.621  39.922  4.499387
  9041.779  9041.800  0.500  1.072351  116.358  39.8181  4.486768
  9042.283  9042.300  0.500  1.072590  116.637  39.9041  4.493613
  9042.783  9042.800  0.500  1.073190  117.31  40.1104  4.515711
  9043.293  9043.300  0.500  1.073587  117.508  40.162  4.520003
  9043.790  9043.800  0.500  1.074100  117.547  40.1547  4.516925
  9044.287  9044.300  0.500  1.074668  117.545  40.1311  4.510657
  9044.780  9044.800  0.500  1.075448  117.543  40.0993  4.504854
  9045.277  9045.300  0.500  1.076133  117.531  40.0677  4.495712
  9045.787  9045.800  0.500  1.077265  117.518  40.018  4.486269
  9046.288  9046.300  0.500  1.078449  117.501  39.9649  4.473035
  9046.785  9046.800  0.500  1.080130  117.494  39.8951  4.457968
  9047.285  9047.300  0.500  1.082106  117.481  39.8119  4.440134
  9047.786  9047.800  0.500  1.084523  117.469  39.712  4.417702
  9048.294  9048.300  0.500  1.087442  117.443  39.5875  4.390590
  9048.794  9048.800  0.500  1.090986  117.425  39.4415  4.359547
  9049.295  9049.300  0.500  1.095288  117.412  39.2675  4.323962
  9049.793  9049.800  0.500  1.099673  117.395  39.0901  4.288970
  9050.286  9050.300  0.500  1.104171  117.381  38.9101  4.253991
  9050.798  9050.800  0.500  1.108852  117.361  38.7217  4.218537
  9051.292  9051.300  0.500  1.113294  117.351  38.547  4.183738
  9051.796  9051.800  0.500  1.117144  117.33  38.3919  4.152478
  9052.291  9052.300  0.500  1.121091  117.319  38.2372  4.123065
  9052.788  9052.800  0.500  1.124190  117.301  38.1129  4.094615
  9053.286  9053.300  0.500  1.127397  117.284  37.9855  4.067483
  9053.791  9053.800  0.500  1.130950  117.258  37.8421  4.039033
  9054.292  9054.300  0.500  1.134448  117.247  37.7065  4.010679
  9054.790  9054.800  0.500  1.138303  117.219  37.5524  3.980835
  9055.291  9055.300  0.500  1.142768  117.212  37.3831  3.947930
  9055.789  9055.800  0.500  1.147885  117.193  37.1863  3.911736
  9056.302  9056.300  0.500  1.153907  117.176  36.9577  3.871400
  9056.796  9056.800  0.500  1.160450  117.153  36.7093  3.829193
  9057.301  9057.300  0.500  1.167546  117.135  36.4442  3.784297
  9057.792  9057.800  0.500  1.175120  117.125  36.1661  3.737480
  9058.298  9058.300  0.500  1.183308  117.123  35.8706  3.687132
  9058.796  9058.800  0.500  1.191044  117.09  35.584  3.636037
  9059.298  9059.300  0.500  1.198634  117.082  35.3126  3.587465
  9059.796  9059.800  0.500  1.204622  117.061  35.0954  3.542374
  9060.284  9060.300  0.500  1.209580  117.044  34.917  3.502140
  9060.790  9060.800  0.500  1.213360  117.022  34.7785  3.468019
  9061.292  9061.300  0.500  1.216019  116.998  34.679  3.438429
  9061.801  9061.800  0.500  1.217935  116.962  34.6022  3.413554
  9062.304  9062.300  0.500  1.219185  116.818  34.5164  3.390206
  9062.802  9062.800  0.500  1.220241  116.282  34.3218  3.361918
  9063.308  9063.300  0.500  1.220302  115.793  34.1754  3.340042
  9063.804  9063.800  0.500  1.219936  115.674  34.1528  3.334761
  9064.310  9064.300  0.500  1.219355  116.154  34.3144  3.349828
  9064.798  9064.800  0.500  1.218486  116.646  34.4895  3.369761
  9065.294  9065.300  0.500  1.217362  116.764  34.5632  3.380165
  9065.796  9065.800  0.500  1.216367  116.78  34.6025  3.387849
  9066.295  9066.300  0.500  1.215219  116.78  34.6423  3.395229
  9066.791  9066.800  0.500  1.214206  116.767  34.6734  3.401954
  9067.294  9067.300  0.500  1.213367  116.762  34.7012  3.406085
  9067.797  9067.800  0.500  1.212699  116.745  34.7191  3.408180
  9068.303  9068.300  0.500  1.212147  116.731  34.7343  3.410285
  9068.803  9068.800  0.500  1.211851  116.718  34.7405  3.409586
  9069.302  9069.300  0.500  1.211636  116.706  34.7445  3.408301
  9069.798  9069.800  0.500  1.211467  116.692  34.7463  3.406211
  9070.301  9070.300  0.500  1.211641  116.674  34.7348  3.403709
  9070.801  9070.800  0.500  1.211640  116.663  34.7316  3.401911
  9071.801  9071.790  0.500  1.211093  116.642  34.7442  3.402024
  9072.797  9072.790  0.500  1.209367  116.613  34.7957  3.407531
  9073.807  9073.810  0.500  1.206543  116.582  34.8849  3.421263
  9074.868  9074.860  0.500  1.202917  116.556  35.0036  3.439193
  9075.925  9075.920  0.500  1.199117  116.515  35.1246  3.461625
  9077.011  9077.000  0.500  1.195694  116.487  35.2367  3.487598
  9078.111  9078.100  0.500  1.192668  116.462  35.3357  3.515245
  9079.230  9079.220  0.500  1.190309  116.422  35.4072  3.541135
  9080.362  9080.360  0.500  1.188318  116.147  35.3939  3.559632
  9081.506  9081.510  0.500  1.186480  115.115  35.1439  3.553894
  9082.700  9082.690  0.500  1.184267  116.01  35.4955  3.606298
  9083.891  9083.880  0.500  1.181692  116.209  35.6481  3.637356
  9085.114  9085.100  0.500  1.178818  116.205  35.7495  3.661670
  9086.330  9086.330  0.500  1.176068  116.185  35.8419  3.681273
  9087.582  9087.580  0.500  1.173465  116.155  35.926  3.698404
  9088.852  9088.850  0.500  1.170901  116.117  36.0065  3.711542
  9090.147  9090.140  0.500  1.169029  116.085  36.0639  3.721532
  9091.450  9091.450  0.500  1.167572  116.054  36.107  3.727994
  9092.782  9092.780  0.500  1.166914  116.021  36.1202  3.731078
  9094.125  9094.130  0.500  1.166853  115.98  36.1098  3.730081
  9095.501  9095.500  0.500  1.167047  115.951  36.0938  3.727830
  9096.887  9096.880  0.500  1.167540  115.915  36.0648  3.723070
  9098.292  9098.290  0.500  1.167985  115.872  36.0353  3.719427
  9099.719  9099.710  0.500  1.168579  115.836  36.0027  3.714062
  9101.153  9101.150  0.500  1.169412  115.792  35.9593  3.707846
  9102.620  9102.610  0.500  1.170297  115.677  35.8916  3.697328
  9104.094  9104.090  0.500  1.171008  114.474  35.4932  3.653179
  9105.598  9105.590  0.500  1.171810  115.535  35.7933  3.678950
  9107.120  9107.110  0.500  1.172579  115.584  35.781  3.672527
  9108.663  9108.650  0.500  1.173049  115.561  35.7571  3.665374
  9110.222  9110.210  0.500  1.173356  115.525  35.7351  3.657025
  9111.778  9111.780  0.500  1.173655  115.484  35.7117  3.647466
  9113.402  9113.380  0.500  1.174103  115.893  35.8221  3.651650
  9114.998  9114.990  0.500  1.174416  115.849  35.7974  3.642682
  9116.627  9116.630  0.500  1.174840  115.798  35.7665  3.635678
  9118.275  9118.280  0.500  1.175235  115.767  35.7426  3.630659
  9119.955  9119.950  0.500  1.175401  115.728  35.7246  3.629060
  9121.654  9121.640  0.500  1.175579  115.669  35.7001  3.628566
  9123.357  9123.350  0.500  1.175274  115.621  35.6963  3.634172
  9125.097  9125.080  0.500  1.173843  115.567  35.7305  3.645283
  9126.837  9126.830  0.500  1.171367  115.52  35.8045  3.663184
  9128.596  9128.590  0.500  1.168001  115.458  35.9062  3.685854
  9130.395  9130.380  0.500  1.164723  115.419  36.0118  3.710171
  9132.202  9132.180  0.500  1.161728  115.366  36.1032  3.730412
  9134.014  9134.010  0.500  1.159365  115.308  36.1703  3.745712
  9135.865  9135.850  0.500  1.157338  115.241  36.2226  3.757410
  9137.721  9137.710  0.500  1.155731  115.177  36.2608  3.766181
  9139.600  9139.590  0.500  1.154414  115.08  36.2781  3.770945
  9141.497  9141.490  0.500  1.153396  114.959  36.2767  3.772908
  9143.420  9143.410  0.500  1.152725  114.203  36.0625  3.753271
  9145.359  9145.350  0.500  1.152130  113.754  35.942  3.740512
  9147.316  9147.310  0.500  1.152094  115.082  36.3631  3.789112
  9149.296  9149.280  0.500  1.151807  114.991  36.3445  3.790393
  9151.298  9151.280  0.500  1.151547  114.897  36.3243  3.794675
  9153.295  9153.290  0.500  1.151059  114.772  36.3025  3.799530
  9155.331  9155.320  0.500  1.150348  114.59  36.2706  3.803115
  9157.398  9157.380  0.500  1.149673  111.247  35.2364  3.702749
  9159.458  9159.450  0.500  1.148756  114.761  36.383  3.830852
  9161.559  9161.540  0.500  1.147539  114.693  36.4055  3.839162
  9163.665  9163.650  0.500  1.146015  114.584  36.4263  3.848967
  9165.793  9165.780  0.500  1.144250  114.42  36.4386  3.856849
  9167.948  9167.920  0.500  1.142865  112.13  35.7586  3.792003
  9170.104  9170.090  0.500  1.141230  114.467  36.5639  3.878734
  9172.300  9172.280  0.500  1.139545  114.459  36.6229  3.886854
  9174.498  9174.480  0.500  1.137878  114.364  36.6534  3.891730
  9176.708  9176.700  0.500  1.136197  114.261  36.682  3.894257
  9178.977  9178.950  0.500  1.134630  114.128  36.6969  3.895033
  9181.225  9181.210  0.500  1.133420  113.347  36.4897  3.871531
  9183.492  9183.490  0.500  1.132531  113.672  36.627  3.883268
  9185.805  9185.790  0.500  1.132365  114.179  36.7964  3.900680
  9188.118  9188.110  0.500  1.132297  114.077  36.7661  3.899146
  9190.469  9190.450  0.500  1.132404  113.985  36.7326  3.898611
  9192.811  9192.800  0.500  1.132230  113.91  36.7148  3.901673
  9195.190  9195.180  0.500  1.131616  113.836  36.7135  3.904600
  9197.578  9197.570  0.500  1.130569  113.746  36.7227  3.909299
  9200.007  9199.990  0.500  1.129328  113.665  36.7424  3.914253
  9202.433  9202.420  0.500  1.128312  113.585  36.7538  3.921750
  9204.880  9204.870  0.500  1.127454  113.517  36.7632  3.928981
  9207.371  9207.350  0.500  1.126569  113.442  36.7715  3.938992
  9209.860  9209.840  0.500  1.125504  113.386  36.7924  3.949882
  9212.358  9212.350  0.500  1.124089  113.329  36.8262  3.963198
  9214.887  9214.870  0.500  1.122246  113.259  36.8711  3.978452
  9217.420  9217.420  0.500  1.120319  113.184  36.9178  3.990899
  9220.007  9219.990  0.500  1.118293  113.124  36.9732  4.003220
  9222.576  9222.570  0.500  1.116020  113.052  37.0337  4.013199
  9225.188  9225.180  0.500  1.113908  112.974  37.0863  4.021418
  9227.812  9227.800  0.500  1.111873  112.918  37.1434  4.029048
  9230.466  9230.450  0.500  1.110267  112.845  37.1793  4.035017
  9233.126  9233.110  0.500  1.109043  112.77  37.1999  4.040185
  9235.810  9235.790  0.500  1.108088  112.706  37.2144  4.046189
  9238.514  9238.490  0.500  1.107144  112.642  37.2282  4.052927
  9241.223  9241.210  0.500  1.106040  112.57  37.2458  4.060269
  9243.963  9243.950  0.500  1.104738  112.506  37.2729  4.070328
  9246.723  9246.700  0.500  1.103380  112.443  37.3029  4.079966
  9249.489  9249.480  0.500  1.102149  112.38  37.3277  4.088764
  9252.289  9252.270  0.500  1.101117  112.308  37.3423  4.097010
  9255.102  9255.090  0.500  1.100047  112.233  37.3573  4.106859
  9257.943  9257.920  0.500  1.099193  112.153  37.3626  4.114210
  9260.782  9260.770  0.500  1.097990  112.072  37.3806  4.124248
  9263.667  9263.650  0.500  1.096823  112.001  37.4005  4.132491
  9266.562  9266.540  0.500  1.095843  111.933  37.4145  4.137909
  9269.462  9269.450  0.500  1.094658  111.858  37.4338  4.144756
  9272.389  9272.370  0.500  1.093541  111.777  37.4484  4.151036
  9275.327  9275.320  0.500  1.092295  111.294  37.333  4.141563
  9278.317  9278.290  0.500  1.090775  111.672  37.5169  4.164234
  9281.277  9281.270  0.500  1.089272  111.583  37.5433  4.170997
  9284.294  9284.280  0.500  1.087405  111.495  37.5837  4.178474
  9287.328  9287.300  0.500  1.085551  111.417  37.6273  4.188907
  9290.364  9290.350  0.500  1.083818  111.32  37.6598  4.197374
  9293.451  9293.410  0.500  1.082387  110.869  37.5609  4.191367
  9296.491  9296.490  0.500  1.081018  111.125  37.6992  4.212554
  9299.597  9299.590  0.500  1.079940  107.89  36.641  4.100084
  9302.723  9302.710  0.500  1.078530  111.101  37.7848  4.234814
  9305.863  9305.850  0.500  1.077137  110.702  37.7017  4.233165
  9309.020  9309.000  0.500  1.075702  110.941  37.8375  4.254858
  9312.202  9312.180  0.500  1.074246  110.852  37.862  4.266389
  9315.389  9315.370  0.500  1.072727  110.773  37.8925  4.277138
  9318.605  9318.590  0.500  1.071018  110.677  37.9245  4.289760
  9321.831  9321.820  0.500  1.069364  110.549  37.9436  4.298802
  9325.078  9325.070  0.500  1.067743  110.373  37.9446  4.306855
  9328.368  9328.350  0.500  1.066162  110.453  38.0321  4.324554
  9331.649  9331.640  0.500  1.064549  110.374  38.066  4.336660
  9334.975  9334.950  0.500  1.062750  110.288  38.1048  4.346797
  9338.283  9338.270  0.500  1.060928  110.198  38.1434  4.357137
  9341.651  9341.620  0.500  1.059165  110.105  38.1783  4.366630
  9345.002  9344.990  0.500  1.057581  110.023  38.2103  4.376822
  9348.398  9348.370  0.500  1.056099  109.929  38.2343  4.386416
  9351.803  9351.780  0.500  1.054579  109.849  38.2646  4.396152
  9355.218  9355.200  0.500  1.053098  109.774  38.2953  4.406557
  9358.670  9358.650  0.500  1.051621  109.684  38.3203  4.417778
  9362.129  9362.110  0.500  1.050204  109.604  38.3466  4.429161
  9365.616  9365.590  0.500  1.048566  109.503  38.3743  4.439893
  9369.110  9369.090  0.500  1.047156  109.43  38.4027  4.451049
  9372.630  9372.610  0.500  1.045704  109.343  38.4279  4.461020
  9376.174  9376.150  0.500  1.044007  109.253  38.4616  4.470732
  9379.710  9379.700  0.500  1.042407  109.169  38.4935  4.480733
  9383.310  9383.280  0.500  1.040999  109.09  38.52  4.489783
  9386.897  9386.880  0.500  1.039262  109.022  38.5629  4.500732
  9390.507  9390.490  0.500  1.037661  108.944  38.597  4.511369
  9394.149  9394.120  0.500  1.035817  108.865  38.64  4.523482
  9397.794  9397.780  0.500  1.033968  108.786  38.6834  4.536105
  9401.477  9401.450  0.500  1.032196  108.704  38.7231  4.547594
  9405.158  9405.140  0.500  1.030620  108.615  38.7522  4.558362
  9408.874  9408.850  0.500  1.029063  108.534  38.7838  4.570432
  9412.603  9412.580  0.500  1.027362  108.454  38.8213  4.580480
  9416.332  9416.320  0.500  1.025703  108.375  38.8571  4.592423
  9420.106  9420.090  0.500  1.024198  108.292  38.886  4.603217
  9423.902  9423.880  0.500  1.022337  108.206  38.9274  4.615344
  9427.694  9427.680  0.500  1.020719  108.12  38.9593  4.627617
  9431.527  9431.510  0.500  1.019033  108.038  38.9956  4.642347
  9435.364  9435.350  0.500  1.017464  107.946  39.0234  4.654036
  9439.230  9439.210  0.500  1.015699  107.843  39.0554  4.667372
  9443.115  9443.090  0.500  1.013953  107.781  39.1008  4.682229
  9447.008  9446.990  0.500  1.012133  107.689  39.1387  4.696275
  9450.930  9450.910  0.500  1.010141  107.601  39.1847  4.711804
  9454.871  9454.850  0.500  1.008340  107.517  39.2246  4.725813
  9458.828  9458.810  0.500  1.006370  107.412  39.2637  4.738493
  9462.803  9462.780  0.500  1.004427  107.326  39.3085  4.752147
  9466.801  9466.780  0.500  1.002462  107.238  39.3538  4.765818
  9470.802  9470.790  0.500  1.000514  107.157  39.4006  4.780409
  9474.853  9474.830  0.500  0.998750  107.059  39.4342  4.792991
  9478.900  9478.880  0.500  0.996959  106.965  39.4699  4.805671
  9482.966  9482.950  0.500  0.995157  106.866  39.5047  4.818840
  9487.063  9487.040  0.500  0.993382  106.761  39.5359  4.829667
  9491.164  9491.150  0.500  0.991603  106.662  39.5698  4.839136
  9495.291  9495.280  0.500  0.990013  106.566  39.5968  4.850490
  9499.446  9499.430  0.500  0.988314  106.456  39.6233  4.861322
  9503.604  9503.590  0.500  0.986547  106.352  39.6545  4.874127
  9507.786  9507.780  0.500  0.984787  106.256  39.6887  4.886803
  9511.998  9511.980  0.500  0.983011  106.156  39.7216  4.900682
  9516.222  9516.210  0.500  0.981366  106.06  39.7512  4.913132
  9520.458  9520.450  0.500  0.979441  105.962  39.7911  4.928179
  9524.725  9524.710  0.500  0.977461  105.846  39.826  4.942434
  9528.997  9528.990  0.500  0.975534  105.75  39.8667  4.957239
  9533.307  9533.290  0.500  0.973661  105.633  39.8973  4.971738
  9537.629  9537.610  0.500  0.971593  105.526  39.9396  4.986642
  9541.955  9541.950  0.500  0.969665  105.429  39.9798  5.002659
  9546.333  9546.310  0.500  0.967719  105.328  40.0194  5.017399
  9550.710  9550.690  0.500  0.965917  105.214  40.0479  5.030722
  9555.088  9555.080  0.500  0.963930  105.111  40.0884  5.045899
  9559.525  9559.500  0.500  0.962053  104.996  40.1196  5.059519
  9563.943  9563.930  0.500  0.960196  104.877  40.1489  5.072004
  9568.392  9568.380  0.500  0.958384  104.762  40.1777  5.084281
  9572.870  9572.850  0.500  0.956523  104.659  40.2128  5.097708
  9577.363  9577.340  0.500  0.954832  104.557  40.2414  5.110185
  9581.865  9581.850  0.500  0.952843  104.435  40.2748  5.123698
  9586.403  9586.380  0.500  0.950784  104.312  40.31  5.136231
  9590.953  9590.930  0.500  0.948833  104.202  40.3461  5.151856