File: xdidata/Dy/Dy-L1-DysprosiumOxide.xdi
# XDI/1.0 BlueSky/1.10.0 BMM/2023-1.0-py310-tiled
# Beamline.name: BMM (06BM) -- Beamline for Materials Measurement (NIST)
# Beamline.xray_source: NSLS-II three-pole wiggler
# Beamline.collimation: paraboloid mirror, 5 nm Rh on 30 nm Pt
# Beamline.focusing: not in use
# Beamline.harmonic_rejection: flat mirror, Pt stripe, pitch = 7.0 mrad relative to beam
# Beamline.software: Bluesky 1.10.0, Ophyd 1.7.0, DataBroker 2.0.0b13, Python 3.10.8, 2023-1.0-py310-tiled
# Detector.I0: 10 cm N2
# Detector.I1: 25 cm N2
# Detector.I2: 25 cm N2
# Element.symbol: Dy
# Element.edge: L1
# Element.reference: Dy
# Element.reference_material: Dy2O3
# Facility.name: NSLS-II
# Facility.energy: 3.0
# Facility.current: 400.8
# Facility.mode: top-off
# Facility.GUP: 301027
# Facility.SAF: 310583
# Facility.cycle: 2023-2
# Mono.name: Si(111)
# Mono.d_spacing: 3.13519
# Mono.encoder_resolution: 0.0000050 deg/ct
# Mono.angle_offset: 16.0754 deg
# Mono.scan_mode: pseudo channel cut
# Mono.scan_type: step
# Mono.direction: forward in energy
# Sample.name: Dy2O3
# Sample.prep: PEG pellet
# Sample.x: 109.138 mm
# Sample.y: 153.150 mm
# Sample.SDD_position: 205.000 mm
# Scan.experimenters: Bruce Ravel
# Scan.edge_energy: 9045.8
# Scan.start_time: 2023-05-28T16:11:12
# Scan.end_time: 2023-05-28T16:19:16
# Scan.transient_id: 78826
# Scan.uid: f60d82a3-a0e1-4be0-8544-d5ebbde5450b
# Scan.plot_hint: ln(It/Ir)  --  ln($6/$7)
# Column.1: energy eV
# Column.2: requested_energy eV
# Column.3: measurement_time seconds
# Column.4: xmu
# Column.5: I0 nA
# Column.6: It nA
# Column.7: Ir nA
# ///////////
# sample courtesy Martin Stennett, University of Sheffield
# -----------
# energy  requested_energy  measurement_time  xmu  I0  It  Ir
  8845.808  8845.800  0.500  2.426077  121.56  166.997  14.7597
  8855.868  8855.800  0.500  2.419906  121.393  166.993  14.8507
  8865.856  8865.800  0.500  2.412769  121.208  166.93  14.9514
  8875.799  8875.800  0.500  2.405802  121.043  166.877  15.0511
  8885.830  8885.800  0.500  2.401168  120.839  166.78  15.1123
  8895.864  8895.800  0.500  2.396890  120.65  166.724  15.172
  8905.849  8905.800  0.500  2.390770  120.442  166.642  15.2576
  8915.892  8915.800  0.500  2.384593  120.193  166.5  15.3391
  8925.807  8925.800  0.500  2.379470  120.26  166.81  15.4466
  8935.824  8935.800  0.500  2.374829  119.886  166.452  15.4851
  8945.871  8945.800  0.500  2.369565  119.809  166.527  15.5738
  8955.827  8955.800  0.500  2.365424  119.602  166.466  15.6327
  8965.826  8965.800  0.500  2.361196  119.12  165.982  15.6533
  8975.821  8975.800  0.500  2.356200  119.221  166.313  15.7631
  8985.818  8985.800  0.500  2.350791  118.971  166.154  15.8334
  8995.820  8995.800  0.500  2.345073  118.393  165.517  15.8632
  9005.827  9005.800  0.500  2.339881  118.638  166.036  15.9958
  9015.819  9015.800  0.500  2.334426  118.479  165.995  16.0792
  9017.790  9017.800  0.500  2.333475  118.409  165.956  16.0908
  9019.790  9019.800  0.500  2.332525  118.24  165.742  16.0853
  9021.781  9021.800  0.500  2.331821  116.814  163.767  15.9049
  9023.775  9023.800  0.500  2.331022  118.348  165.955  16.1302
  9025.771  9025.800  0.500  2.330413  118.309  165.928  16.1374
  9027.778  9027.800  0.500  2.329876  118.283  165.922  16.1455
  9029.779  9029.800  0.500  2.329556  118.219  165.866  16.1452
  9031.788  9031.800  0.500  2.329143  118.182  165.873  16.1526
  9033.783  9033.800  0.500  2.329035  118.147  165.873  16.1543
  9035.784  9035.800  0.500  2.328892  118.098  165.842  16.1536
  9036.072  9036.100  0.500  2.329065  118.087  165.811  16.1478
  9036.364  9036.400  0.500  2.328985  118.089  165.819  16.1499
  9036.670  9036.700  0.500  2.328963  118.079  165.819  16.1502
  9036.969  9037.000  0.500  2.328983  118.063  165.808  16.1488
  9037.278  9037.300  0.500  2.329064  118.063  165.829  16.1496
  9037.570  9037.600  0.500  2.329074  118.039  165.792  16.1458
  9037.880  9037.900  0.500  2.329173  118.033  165.792  16.1442
  9038.168  9038.200  0.500  2.329239  118.028  165.792  16.1432
  9038.478  9038.500  0.500  2.329337  118.016  165.782  16.1406
  9038.777  9038.800  0.500  2.329304  118.006  165.77  16.14
  9039.076  9039.100  0.500  2.329399  118.006  165.772  16.1387
  9039.371  9039.400  0.500  2.329551  118.001  165.777  16.1366
  9039.681  9039.700  0.500  2.329632  117.996  165.782  16.1358
  9039.970  9040.000  0.500  2.329732  117.986  165.758  16.1318
  9040.272  9040.300  0.500  2.329819  117.968  165.725  16.1273
  9040.575  9040.600  0.500  2.330018  117.946  165.689  16.1206
  9040.874  9040.900  0.500  2.330212  117.886  165.632  16.1119
  9041.177  9041.200  0.500  2.330329  117.651  165.294  16.0771
  9041.480  9041.500  0.500  2.330475  117.257  164.725  16.0195
  9041.779  9041.800  0.500  2.330646  116.898  164.238  15.9694
  9042.089  9042.100  0.500  2.330874  116.672  163.933  15.936
  9042.388  9042.400  0.500  2.331097  116.605  163.843  15.9237
  9042.687  9042.700  0.500  2.331304  116.732  164.046  15.9402
  9042.987  9043.000  0.500  2.331559  117.079  164.55  15.9851
  9043.300  9043.300  0.500  2.331794  117.471  165.087  16.0335
  9043.586  9043.600  0.500  2.332017  117.643  165.314  16.052
  9043.899  9043.900  0.500  2.332255  117.724  165.447  16.061
  9044.195  9044.200  0.500  2.332521  117.742  165.523  16.0642
  9044.491  9044.500  0.500  2.332914  117.755  165.5  16.0556
  9044.797  9044.800  0.500  2.333387  117.772  165.548  16.0526
  9045.086  9045.100  0.500  2.333781  117.76  165.547  16.0462
  9045.400  9045.400  0.500  2.334111  117.758  165.535  16.0398
  9045.685  9045.700  0.500  2.334800  117.759  165.525  16.0278
  9045.978  9046.000  0.500  2.335418  117.754  165.514  16.0168
  9046.291  9046.300  0.500  2.336084  117.755  165.556  16.0102
  9046.584  9046.600  0.500  2.336864  117.757  165.558  15.9979
  9046.887  9046.900  0.500  2.337748  117.738  165.529  15.981
  9047.197  9047.200  0.500  2.338700  117.729  165.497  15.9626
  9047.493  9047.500  0.500  2.339786  117.719  165.494  15.945
  9047.797  9047.800  0.500  2.341125  117.709  165.488  15.9231
  9048.093  9048.100  0.500  2.342547  117.729  165.541  15.9056
  9048.396  9048.400  0.500  2.344359  117.701  165.503  15.8732
  9048.706  9048.700  0.500  2.346071  117.708  165.491  15.8449
  9049.003  9049.000  0.500  2.347982  117.691  165.486  15.8141
  9049.306  9049.300  0.500  2.350146  117.683  165.479  15.7793
  9049.595  9049.600  0.500  2.352168  117.685  165.513  15.7507
  9049.888  9049.900  0.500  2.354327  117.675  165.51  15.7164
  9050.202  9050.200  0.500  2.356618  117.681  165.526  15.682
  9050.491  9050.500  0.500  2.358710  117.667  165.521  15.6487
  9050.791  9050.800  0.500  2.360905  117.662  165.497  15.6121
  9051.094  9051.100  0.500  2.363133  117.653  165.475  15.5753
  9051.394  9051.400  0.500  2.365330  117.635  165.464  15.5401
  9051.705  9051.700  0.500  2.367578  117.635  165.492  15.5078
  9052.005  9052.000  0.500  2.369634  117.623  165.494  15.4762
  9052.308  9052.300  0.500  2.371621  117.624  165.447  15.441
  9052.605  9052.600  0.500  2.373701  117.623  165.462  15.4104
  9052.901  9052.900  0.500  2.375689  117.606  165.457  15.3793
  9053.201  9053.200  0.500  2.377776  117.589  165.452  15.3467
  9053.501  9053.500  0.500  2.379693  117.59  165.442  15.3165
  9053.805  9053.800  0.500  2.381709  117.599  165.44  15.2854
  9054.094  9054.100  0.500  2.383588  117.578  165.431  15.2559
  9054.394  9054.400  0.500  2.385567  117.562  165.437  15.2263
  9054.684  9054.700  0.500  2.387615  117.555  165.415  15.1931
  9054.988  9055.000  0.500  2.389607  117.553  165.426  15.1639
  9055.295  9055.300  0.500  2.391842  117.547  165.425  15.1299
  9055.602  9055.600  0.500  2.394103  117.543  165.414  15.0948
  9055.899  9055.900  0.500  2.396526  117.53  165.405  15.0574
  9056.196  9056.200  0.500  2.398781  117.531  165.407  15.0237
  9056.492  9056.500  0.500  2.401271  117.517  165.402  14.9859
  9056.810  9056.800  0.500  2.403824  117.504  165.385  14.9461
  9057.103  9057.100  0.500  2.406296  117.488  165.387  14.9094
  9057.407  9057.400  0.500  2.409033  117.493  165.39  14.8689
  9057.693  9057.700  0.500  2.411669  117.489  165.384  14.8292
  9057.987  9058.000  0.500  2.414272  117.489  165.395  14.7917
  9058.294  9058.300  0.500  2.417476  117.463  165.382  14.7432
  9058.591  9058.600  0.500  2.420446  117.467  165.38  14.6993
  9058.895  9058.900  0.500  2.423859  117.445  165.363  14.6477
  9059.192  9059.200  0.500  2.427301  117.437  165.32  14.5936
  9059.496  9059.500  0.500  2.430788  117.431  165.312  14.5421
  9059.800  9059.800  0.500  2.434655  117.426  165.303  14.4852
  9060.104  9060.100  0.500  2.438290  117.434  165.315  14.4337
  9060.412  9060.400  0.500  2.442276  117.409  165.293  14.3743
  9060.705  9060.700  0.500  2.445956  117.406  165.297  14.3219
  9060.999  9061.000  0.500  2.449494  117.381  165.267  14.2687
  9061.303  9061.300  0.500  2.453123  117.366  165.259  14.2163
  9061.600  9061.600  0.500  2.456401  117.377  165.268  14.1706
  9061.904  9061.900  0.500  2.459728  117.354  165.237  14.1209
  9062.190  9062.200  0.500  2.462710  117.318  165.192  14.075
  9062.491  9062.500  0.500  2.465442  117.283  165.148  14.0328
  9062.785  9062.800  0.500  2.467925  117.168  164.996  13.9851
  9063.092  9063.100  0.500  2.469971  116.884  164.6  13.9231
  9063.404  9063.400  0.500  2.471623  116.496  164.065  13.855
  9063.694  9063.700  0.500  2.472894  116.207  163.675  13.8044
  9064.002  9064.000  0.500  2.473513  116.064  163.492  13.7805
  9064.295  9064.300  0.500  2.473995  116.112  163.548  13.7785
  9064.600  9064.600  0.500  2.473961  116.357  163.893  13.808
  9064.911  9064.900  0.500  2.473748  116.735  164.432  13.8564
  9065.198  9065.200  0.500  2.473472  117.037  164.862  13.8965
  9065.499  9065.500  0.500  2.472949  117.161  165.046  13.9193
  9065.796  9065.800  0.500  2.472348  117.204  165.117  13.9336
  9066.094  9066.100  0.500  2.471616  117.223  165.174  13.9486
  9066.398  9066.400  0.500  2.470848  117.217  165.153  13.9576
  9066.688  9066.700  0.500  2.470287  117.243  165.178  13.9675
  9066.982  9067.000  0.500  2.469634  117.225  165.163  13.9754
  9067.287  9067.300  0.500  2.469111  117.287  165.283  13.9929
  9067.595  9067.600  0.500  2.468708  117.549  165.63  14.0279
  9067.910  9067.900  0.500  2.468370  117.559  165.662  14.0353
  9068.197  9068.200  0.500  2.468442  117.576  165.696  14.0372
  9068.494  9068.500  0.500  2.468229  117.572  165.695  14.0401
  9068.796  9068.800  0.500  2.468336  117.568  165.686  14.0379
  9069.104  9069.100  0.500  2.468295  117.567  165.702  14.0398
  9069.401  9069.400  0.500  2.468633  117.571  165.709  14.0356
  9069.692  9069.700  0.500  2.468933  117.56  165.695  14.0303
  9070.000  9070.000  0.500  2.469197  117.542  165.684  14.0256
  9070.305  9070.300  0.500  2.469475  117.547  165.689  14.0222
  9070.599  9070.600  0.500  2.469775  117.536  165.687  14.0177
  9070.790  9070.800  0.500  2.469837  117.54  165.693  14.0174
  9071.779  9071.790  0.500  2.470636  117.497  165.656  14.0031
  9072.783  9072.790  0.500  2.470700  117.486  165.65  14.0017
  9073.843  9073.810  0.500  2.470000  117.448  165.621  14.009
  9074.829  9074.860  0.500  2.468433  117.422  165.602  14.0294
  9076.095  9075.920  0.500  2.465195  117.391  165.548  14.0703
  9077.082  9077.000  0.500  2.461478  117.375  165.593  14.1265
  9078.125  9078.100  0.500  2.456770  117.323  165.505  14.1857
  9079.208  9079.220  0.500  2.451529  117.29  165.474  14.2576
  9080.345  9080.360  0.500  2.445921  117.221  165.397  14.331
  9081.492  9081.510  0.500  2.440440  116.324  164.146  14.3008
  9082.675  9082.690  0.500  2.435051  116.354  164.213  14.384
  9083.869  9083.880  0.500  2.430223  117.123  165.329  14.5518
  9085.096  9085.100  0.500  2.426183  117.143  165.396  14.6166
  9086.326  9086.330  0.500  2.422870  117.145  165.423  14.6676
  9087.571  9087.580  0.500  2.420498  117.112  165.401  14.7004
  9088.841  9088.850  0.500  2.418597  117.091  165.385  14.7269
  9090.140  9090.140  0.500  2.417526  117.065  165.369  14.7413
  9091.440  9091.450  0.500  2.416625  117.031  165.342  14.7522
  9092.779  9092.780  0.500  2.416015  117.005  165.334  14.7605
  9094.118  9094.130  0.500  2.415864  116.976  165.32  14.7614
  9095.483  9095.500  0.500  2.415970  116.943  165.296  14.7578
  9096.859  9096.880  0.500  2.416085  116.928  165.293  14.7558
  9098.288  9098.290  0.500  2.416460  116.908  165.298  14.7507
  9099.704  9099.710  0.500  2.416718  116.878  165.283  14.7456
  9101.139  9101.150  0.500  2.417006  116.848  165.275  14.7406
  9102.591  9102.610  0.500  2.417805  116.802  165.232  14.725
  9104.080  9104.090  0.500  2.418675  115.844  163.895  14.5932
  9105.576  9105.590  0.500  2.419716  116.291  164.549  14.6361
  9107.105  9107.110  0.500  2.421031  116.645  165.079  14.664
  9108.642  9108.650  0.500  2.422272  116.653  165.103  14.6479
  9110.201  9110.210  0.500  2.423835  116.626  165.075  14.6226
  9111.778  9111.780  0.500  2.425604  116.597  165.072  14.5965
  9113.373  9113.380  0.500  2.427436  116.573  165.077  14.5702
  9114.991  9114.990  0.500  2.429404  116.538  165.058  14.5399
  9116.616  9116.630  0.500  2.430689  116.508  165.052  14.5206
  9118.275  9118.280  0.500  2.431375  116.46  165.014  14.5074
  9119.955  9119.950  0.500  2.431486  116.43  165.007  14.5051
  9121.639  9121.640  0.500  2.430856  116.404  164.986  14.5124
  9123.335  9123.350  0.500  2.429622  116.363  164.952  14.5273
  9125.071  9125.080  0.500  2.427522  116.318  164.923  14.5553
  9126.837  9126.830  0.500  2.424647  116.286  164.924  14.5973
  9128.589  9128.590  0.500  2.421225  116.251  164.884  14.6438
  9130.370  9130.380  0.500  2.417628  116.214  164.866  14.6949
  9132.181  9132.180  0.500  2.414602  116.171  164.84  14.7371
  9134.021  9134.010  0.500  2.411912  116.137  164.838  14.7767
  9135.851  9135.850  0.500  2.409988  116.062  164.762  14.7983
  9137.714  9137.710  0.500  2.408571  116.026  164.738  14.8172
  9139.600  9139.590  0.500  2.407505  115.979  164.723  14.8316
  9141.501  9141.490  0.500  2.406679  115.869  164.595  14.8324
  9143.406  9143.410  0.500  2.406033  115.596  164.231  14.8091
  9145.355  9145.350  0.500  2.405601  112.694  160.141  14.4465
  9147.305  9147.310  0.500  2.404965  115.927  164.763  14.873
  9149.285  9149.280  0.500  2.403827  115.863  164.702  14.8844
  9151.270  9151.280  0.500  2.402246  115.791  164.624  14.9008
  9153.298  9153.290  0.500  2.400383  115.693  164.514  14.9186
  9155.320  9155.320  0.500  2.398368  115.543  164.327  14.9318
  9157.394  9157.380  0.500  2.396503  113.786  161.868  14.7358
  9159.455  9159.450  0.500  2.394258  115.494  164.356  14.9959
  9161.541  9161.540  0.500  2.392348  115.69  164.65  15.0515
  9163.658  9163.650  0.500  2.390269  115.603  164.577  15.0761
  9165.797  9165.780  0.500  2.388455  115.44  164.393  15.0866
  9167.926  9167.920  0.500  2.386909  114.664  163.324  15.0117
  9170.104  9170.090  0.500  2.385792  114.638  163.322  15.0283
  9172.293  9172.280  0.500  2.385231  115.546  164.652  15.1591
  9174.491  9174.480  0.500  2.384824  115.464  164.569  15.1577
  9176.711  9176.700  0.500  2.384553  115.376  164.476  15.1532
  9178.962  9178.950  0.500  2.384354  115.283  164.383  15.1477
  9181.214  9181.210  0.500  2.384793  114.975  164.001  15.1058
  9183.507  9183.490  0.500  2.385309  113.272  161.619  14.8788
  9185.794  9185.790  0.500  2.385700  115.296  164.548  15.1424
  9188.115  9188.110  0.500  2.385315  115.218  164.453  15.1396
  9190.466  9190.450  0.500  2.384243  115.136  164.369  15.148
  9192.807  9192.800  0.500  2.383124  115.076  164.332  15.1616
  9195.197  9195.180  0.500  2.382049  115.007  164.283  15.1734
  9197.578  9197.570  0.500  2.381008  114.926  164.217  15.1831
  9199.992  9199.990  0.500  2.379985  114.871  164.172  15.1944
  9202.444  9202.420  0.500  2.378594  114.799  164.121  15.2109
  9204.876  9204.870  0.500  2.376930  114.739  164.068  15.2312
  9207.367  9207.350  0.500  2.374714  114.686  164  15.2587
  9209.853  9209.840  0.500  2.372174  114.65  163.99  15.2966
  9212.351  9212.350  0.500  2.369667  114.59  163.971  15.3333
  9214.887  9214.870  0.500  2.367023  114.544  163.942  15.3711
  9217.424  9217.420  0.500  2.364753  114.484  163.897  15.4018
  9220.003  9219.990  0.500  2.363034  114.441  163.859  15.4248
  9222.587  9222.570  0.500  2.361965  114.375  163.804  15.4361
  9225.180  9225.180  0.500  2.361311  114.311  163.776  15.4435
  9227.815  9227.800  0.500  2.360627  114.256  163.763  15.4529
  9230.459  9230.450  0.500  2.359893  114.215  163.752  15.4631
  9233.134  9233.110  0.500  2.359245  114.151  163.661  15.4645
  9235.788  9235.790  0.500  2.358059  114.105  163.627  15.4798
  9238.514  9238.490  0.500  2.356616  114.036  163.581  15.4977
  9241.226  9241.210  0.500  2.355175  113.989  163.559  15.5179
  9243.970  9243.950  0.500  2.353484  113.935  163.566  15.5449
  9246.719  9246.700  0.500  2.351853  113.883  163.537  15.5675
  9249.485  9249.480  0.500  2.350145  113.826  163.492  15.5899
  9252.282  9252.270  0.500  2.348322  113.753  163.464  15.6156
  9255.099  9255.090  0.500  2.346327  113.695  163.406  15.6413
  9257.939  9257.920  0.500  2.344376  113.638  163.371  15.6684
  9260.786  9260.770  0.500  2.342473  113.576  163.322  15.6936
  9263.667  9263.650  0.500  2.340744  113.52  163.294  15.718
  9266.558  9266.540  0.500  2.339692  113.456  163.226  15.728
  9269.462  9269.450  0.500  2.338418  113.397  163.189  15.7445
  9272.382  9272.370  0.500  2.337211  113.334  163.169  15.7616
  9275.334  9275.320  0.500  2.336231  113.206  162.993  15.7601
  9278.306  9278.290  0.500  2.335507  113.251  163.098  15.7816
  9281.284  9281.270  0.500  2.334554  113.18  163.041  15.7912
  9284.290  9284.280  0.500  2.333588  113.106  162.996  15.802
  9287.313  9287.300  0.500  2.332466  113.029  162.946  15.8149
  9290.364  9290.350  0.500  2.331099  112.949  162.87  15.8292
  9293.429  9293.410  0.500  2.329574  112.027  161.589  15.7286
  9296.502  9296.490  0.500  2.328002  112.807  162.761  15.8677
  9299.604  9299.590  0.500  2.326751  111.306  160.648  15.6812
  9302.731  9302.710  0.500  2.325243  112.779  162.82  15.9172
  9305.867  9305.850  0.500  2.323457  112.599  162.61  15.9251
  9309.013  9309.000  0.500  2.321365  112.674  162.78  15.9752
  9312.194  9312.180  0.500  2.319425  112.581  162.688  15.9971
  9315.385  9315.370  0.500  2.317421  112.495  162.619  16.0224
  9318.601  9318.590  0.500  2.315267  112.417  162.557  16.0508
  9321.838  9321.820  0.500  2.313342  112.328  162.494  16.0756
  9325.089  9325.070  0.500  2.311417  111.719  161.67  16.0248
  9328.368  9328.350  0.500  2.309590  112.224  162.452  16.1318
  9331.664  9331.640  0.500  2.307738  112.155  162.41  16.1576
  9334.971  9334.950  0.500  2.305865  112.083  162.362  16.1831
  9338.295  9338.270  0.500  2.304456  112.007  162.304  16.2001
  9341.632  9341.620  0.500  2.303103  111.943  162.245  16.2161
  9345.006  9344.990  0.500  2.301597  111.859  162.167  16.2327
  9348.379  9348.370  0.500  2.300021  111.893  162.276  16.2693
  9351.799  9351.780  0.500  2.298264  112.036  162.548  16.3252
  9355.230  9355.200  0.500  2.296414  111.99  162.533  16.3539
  9358.667  9358.650  0.500  2.294728  111.912  162.487  16.3769
  9362.133  9362.110  0.500  2.292828  111.842  162.435  16.4028
  9365.612  9365.590  0.500  2.290822  111.765  162.389  16.431
  9369.118  9369.090  0.500  2.288892  111.686  162.331  16.4569
  9372.626  9372.610  0.500  2.287226  111.61  162.267  16.4778
  9376.171  9376.150  0.500  2.285690  111.536  162.209  16.4973
  9379.710  9379.700  0.500  2.284374  111.466  162.152  16.5132
  9383.303  9383.280  0.500  2.282745  111.384  162.093  16.5341
  9386.901  9386.880  0.500  2.281251  111.311  162.04  16.5534
  9390.507  9390.490  0.500  2.279672  111.241  161.989  16.5743
  9394.134  9394.120  0.500  2.278107  111.165  161.934  16.5947
  9397.821  9397.780  0.500  2.276377  111.091  161.894  16.6193
  9401.450  9401.450  0.500  2.274526  111.006  161.821  16.6426
  9405.143  9405.140  0.500  2.272804  110.932  161.782  16.6673
  9408.851  9408.850  0.500  2.270987  110.845  161.714  16.6905
  9412.603  9412.580  0.500  2.269380  110.763  161.641  16.7098
  9416.336  9416.320  0.500  2.267598  110.683  161.589  16.7342
  9420.106  9420.090  0.500  2.265808  110.594  161.519  16.757
  9423.910  9423.880  0.500  2.264014  110.514  161.446  16.7795
  9427.690  9427.680  0.500  2.262072  110.429  161.379  16.8051
  9431.531  9431.510  0.500  2.259933  110.353  161.331  16.836
  9435.360  9435.350  0.500  2.257640  110.263  161.248  16.8661
  9439.222  9439.210  0.500  2.255533  110.134  161.12  16.8883
  9443.104  9443.090  0.500  2.253389  110.091  161.116  16.9241
  9447.008  9446.990  0.500  2.251383  110.007  161.053  16.9514
  9450.922  9450.910  0.500  2.249212  109.934  160.998  16.9824
  9454.875  9454.850  0.500  2.247169  109.847  160.931  17.0101
  9458.824  9458.810  0.500  2.245174  109.757  160.872  17.0378
  9462.791  9462.780  0.500  2.243217  109.662  160.791  17.0626
  9466.797  9466.780  0.500  2.241293  109.574  160.714  17.0873
  9470.798  9470.790  0.500  2.239330  109.495  160.648  17.1138
  9474.857  9474.830  0.500  2.237351  109.403  160.572  17.1396
  9478.896  9478.880  0.500  2.235443  109.309  160.494  17.164
  9482.962  9482.950  0.500  2.233776  109.219  160.437  17.1866
  9487.071  9487.040  0.500  2.232009  109.122  160.363  17.209
  9491.172  9491.150  0.500  2.230526  109.046  160.298  17.2275
  9495.299  9495.280  0.500  2.228764  108.954  160.203  17.2477
  9499.450  9499.430  0.500  2.227143  108.864  160.138  17.2687
  9503.608  9503.590  0.500  2.225280  108.763  160.049  17.2913
  9507.797  9507.780  0.500  2.223243  108.671  159.975  17.3185
  9511.998  9511.980  0.500  2.221095  108.583  159.886  17.3461
  9516.234  9516.210  0.500  2.218945  108.495  159.821  17.3763
  9520.470  9520.450  0.500  2.216869  108.404  159.763  17.4062
  9524.729  9524.710  0.500  2.214751  108.307  159.679  17.4339
  9529.008  9528.990  0.500  2.212591  108.212  159.615  17.4645
  9533.307  9533.290  0.500  2.210407  108.11  159.493  17.4894
  9537.633  9537.610  0.500  2.208034  108.012  159.419  17.5228
  9541.967  9541.950  0.500  2.205974  107.92  159.358  17.5522
  9546.329  9546.310  0.500  2.203793  107.824  159.275  17.5813
  9550.718  9550.690  0.500  2.201690  107.721  159.175  17.6073
  9555.108  9555.080  0.500  2.199684  107.621  159.111  17.6355
  9559.525  9559.500  0.500  2.197422  107.519  159.039  17.6675
  9563.939  9563.930  0.500  2.195516  107.418  158.949  17.6912
  9568.396  9568.380  0.500  2.193666  107.315  158.822  17.7098
  9572.870  9572.850  0.500  2.191756  107.216  158.725  17.7328
  9577.343  9577.340  0.500  2.189813  107.119  158.649  17.7588
  9581.857  9581.850  0.500  2.188032  107.015  158.591  17.7839
  9586.395  9586.380  0.500  2.186031  106.904  158.491  17.8083
  9590.937  9590.930  0.500  2.183829  106.805  158.396  17.8369
  9595.508  9595.500  0.500  2.181481  106.699  158.291  17.867
  9600.099  9600.080  0.500  2.178976  106.601  158.222  17.904
  9604.706  9604.690  0.500  2.176660  106.49  158.119  17.9338
  9609.314  9609.310  0.500  2.174280  106.391  158.052  17.9689
  9613.971  9613.960  0.500  2.171795  106.286  157.938  18.0006
  9618.636  9618.620  0.500  2.169523  106.012  157.598  18.0028
  9623.305  9623.300  0.500  2.167489  106.054  157.726  18.054
  9628.016  9628.000  0.500  2.165218  105.947  157.628  18.0839
  9632.731  9632.720  0.500  2.163145  105.839  157.521  18.1091
  9637.471  9637.460  0.500  2.161122  105.712  157.384  18.13
  9642.223  9642.210  0.500  2.159060  105.604  157.289  18.1564
  9647.001  9646.990  0.500  2.157069  105.499  157.192  18.1814
  9651.807  9651.790  0.500  2.155073  105.369  157.066  18.2031
  9656.611  9656.600  0.500  2.153158  105.278  156.99  18.2292
  9661.443  9661.430  0.500  2.151033  105.171  156.902  18.2577
  9666.305  9666.290  0.500  2.149029  105.017  156.742  18.2757
  9671.171  9671.160  0.500  2.146763  104.915  156.658  18.3073
  9676.071  9676.050  0.500  2.144521  104.797  156.543  18.335
  9680.980  9680.960  0.500  2.142256  104.686  156.424  18.3625
  9685.910  9685.890  0.500  2.139916  104.571  156.314  18.3926
  9690.858  9690.830  0.500  2.137355  104.462  156.21  18.4276
  9695.823  9695.800  0.500  2.134704  104.333  156.092  18.4625
  9700.818  9700.790  0.500  2.132121  104.219  155.98  18.497
  9705.801  9705.790  0.500  2.129840  104.1  155.867  18.5258
  9710.843  9710.820  0.500  2.127536  102.557  153.617  18.3005
  9715.894  9715.860  0.500  2.125255  103.907  155.697  18.5906
  9720.939  9720.920  0.500  2.122950  103.776  155.589  18.6206
  9726.021  9726.000  0.500  2.120761  103.656  155.479  18.6482
  9731.129  9731.100  0.500  2.118574  103.544  155.365  18.6753
  9736.251  9736.220  0.500  2.116321  103.43  155.268  18.7058
  9741.379  9741.360  0.500  2.114201  103.305  155.162  18.7327
  9746.536  9746.520  0.500  2.112072  103.192  155.044  18.7583
  9751.728  9751.700  0.500  2.109984  103.076  154.936  18.7844
  9756.909  9756.890  0.500  2.107792  102.952  154.802  18.8093
  9762.141  9762.110  0.500  2.105607  102.82  154.679  18.8355
  9767.375  9767.340  0.500  2.103429  102.679  154.536  18.8592
  9772.619  9772.590  0.500  2.100992  102.434  154.236  18.8684
  9777.880  9777.860  0.500  2.098472  102.476  154.36  18.9313
  9783.173  9783.150  0.500  2.095944  102.091  153.846  18.916
  9788.479  9788.460  0.500  2.093240  102.223  154.114  19.0002
  9793.821  9793.790  0.500  2.090792  101.573  153.184  18.9319
  9799.172  9799.140  0.500  2.088344  101.976  153.864  19.0625
  9804.546  9804.510  0.500  2.085896  101.628  153.399  19.0515
  9809.930  9809.890  0.500  2.083451  101.767  153.677  19.1328
  9815.329  9815.300  0.500  2.081136  101.626  153.524  19.158
  9820.763  9820.720  0.500  2.078718  101.163  152.915  19.1283
  9826.228  9826.170  0.500  2.076415  101.368  153.284  19.2186
  9831.662  9831.630  0.500  2.074119  101.209  153.11  19.2409
  9837.143  9837.110  0.500  2.071706  100.95  152.78  19.2458
  9842.648  9842.610  0.500  2.069454  100.925  152.824  19.2948
  9848.180  9848.130  0.500  2.067165  100.83  152.737  19.3279
  9853.706  9853.670  0.500  2.064940  100.729  152.64  19.3587
  9859.242  9859.220  0.500  2.062679  100.604  152.504  19.3852
  9864.835  9864.800  0.500  2.060196  100.455  152.368  19.416
  9870.439  9870.400  0.500  2.057592  100.333  152.239  19.4503
  9876.045  9876.010  0.500  2.055135  100.191  152.085  19.4784
  9881.683  9881.650  0.500  2.052749  99.1074  150.516  19.3234
  9887.335  9887.300  0.500  2.050159  99.882  151.735  19.5305
  9893.003  9892.970  0.500  2.047814  99.7914  151.67  19.568
  9898.699  9898.660  0.500  2.045193  99.6488  151.524  19.6005