File: xdidata/Dy/Dy-L3-Dy2TiO5.xdi
# XDI/1.0 BlueSky/1.10.0 BMM/2023-1.0-py310-tiled
# Beamline.name: BMM (06BM) -- Beamline for Materials Measurement (NIST)
# Beamline.xray_source: NSLS-II three-pole wiggler
# Beamline.collimation: paraboloid mirror, 5 nm Rh on 30 nm Pt
# Beamline.focusing: not in use
# Beamline.harmonic_rejection: flat mirror, Si stripe, pitch = 7.0 mrad relative to beam
# Beamline.software: Bluesky 1.10.0, Ophyd 1.7.0, DataBroker 2.0.0b13, Python 3.10.8, 2023-1.0-py310-tiled
# Detector.I0: 10 cm N2
# Detector.I1: 25 cm N2
# Detector.I2: 25 cm N2
# Element.symbol: Dy
# Element.edge: L3
# Element.reference: Dy
# Element.reference_material: Dy2O3
# Facility.name: NSLS-II
# Facility.energy: 3.0
# Facility.current: 398.4
# Facility.mode: top-off
# Facility.GUP: 123456
# Facility.SAF: 301027
# Facility.cycle: 2023-2
# Mono.name: Si(111)
# Mono.d_spacing: 3.13519
# Mono.encoder_resolution: 0.0000050 deg/ct
# Mono.angle_offset: 16.0754 deg
# Mono.scan_mode: pseudo channel cut
# Mono.scan_type: step
# Mono.direction: forward in energy
# Sample.name: Dy2TiO5
# Sample.prep: Powder in PEG pellet
# Sample.x: 149.848 mm
# Sample.y: 114.690 mm
# Sample.SDD_position: 205.000 mm
# Scan.experimenters: Bruce Ravel
# Scan.edge_energy: 7790.1
# Scan.start_time: 2023-05-08T18:34:25
# Scan.end_time: 2023-05-08T18:40:22
# Scan.transient_id: 75497
# Scan.uid: 38159fd1-9415-4979-a2f4-ceec8697364b
# Scan.plot_hint: ln(I0/It)  --  ln($5/$6)
# Column.1: energy eV
# Column.2: requested_energy eV
# Column.3: measurement_time seconds
# Column.4: xmu
# Column.5: I0 nA
# Column.6: It nA
# Column.7: Ir nA
# ///////////
# sample courtesy Martin Stennett, University of Sheffield
# -----------
# energy  requested_energy  measurement_time  xmu  I0  It  Ir
  7590.105  7590.100  0.500  1.428831  142.932  34.2448  5.081482
  7600.119  7600.100  0.500  1.421444  142.603  34.4193  5.141895
  7610.119  7610.100  0.500  1.414697  142.502  34.6278  5.208468
  7620.139  7620.100  0.500  1.407258  142.697  34.9343  5.290000
  7630.121  7630.100  0.500  1.399879  142.894  35.2414  5.371805
  7640.121  7640.100  0.500  1.392706  142.801  35.472  5.443680
  7650.125  7650.100  0.500  1.385501  142.683  35.6991  5.514966
  7660.122  7660.100  0.500  1.378545  142.564  35.9183  5.583956
  7670.123  7670.100  0.500  1.371523  142.41  36.1323  5.654736
  7680.116  7680.100  0.500  1.364634  142.211  36.3312  5.723120
  7690.076  7690.100  0.500  1.357741  141.966  36.5194  5.788500
  7700.069  7700.100  0.500  1.350999  141.586  36.6681  5.848273
  7710.075  7710.100  0.500  1.344436  141.494  36.8857  5.921016
  7720.085  7720.100  0.500  1.337940  140.59  36.8887  5.956211
  7730.080  7730.100  0.500  1.331622  141.112  37.2605  6.049216
  7740.085  7740.100  0.500  1.325863  137.48  36.511  5.955557
  7750.081  7750.100  0.500  1.321068  140.783  37.5679  6.148994
  7760.093  7760.100  0.500  1.318526  140.589  37.6117  6.161230
  7762.085  7762.100  0.500  1.318628  140.547  37.5967  6.155242
  7764.084  7764.100  0.500  1.318919  140.494  37.5715  6.145709
  7766.083  7766.100  0.500  1.319336  140.442  37.542  6.132032
  7768.079  7768.100  0.500  1.320335  140.42  37.4986  6.112331
  7770.080  7770.100  0.500  1.322074  140.348  37.4141  6.083337
  7772.080  7772.100  0.500  1.324544  140.323  37.3153  6.044070
  7774.079  7774.100  0.500  1.327939  140.244  37.168  5.988919
  7776.081  7776.100  0.500  1.332883  140.219  36.9781  5.913223
  7778.080  7778.100  0.500  1.340513  140.186  36.6884  5.804476
  7780.081  7780.100  0.500  1.351926  140.151  36.263  5.645251
  7780.578  7780.600  0.500  1.355552  140.11  36.121  5.592914
  7781.079  7781.100  0.500  1.360190  140.109  35.9537  5.533338
  7781.575  7781.600  0.500  1.365113  140.102  35.7753  5.467394
  7782.079  7782.100  0.500  1.370846  140.092  35.5682  5.393322
  7782.573  7782.600  0.500  1.377671  140.073  35.3214  5.305760
  7783.077  7783.100  0.500  1.385783  140.048  35.0299  5.203805
  7783.579  7783.600  0.500  1.394976  140.053  34.7106  5.088658
  7784.083  7784.100  0.500  1.406089  140.045  34.3249  4.956063
  7784.575  7784.600  0.500  1.418141  140.029  33.91  4.815891
  7785.084  7785.100  0.500  1.431025  140.037  33.4777  4.670576
  7785.586  7785.600  0.500  1.444718  140  33.0139  4.521780
  7786.086  7786.100  0.500  1.458200  139.993  32.5701  4.378561
  7786.585  7786.600  0.500  1.472477  139.984  32.1063  4.229337
  7787.085  7787.100  0.500  1.488915  139.969  31.5794  4.067269
  7787.584  7787.600  0.500  1.508287  139.94  30.9671  3.882281
  7788.081  7788.100  0.500  1.532177  139.926  30.2332  3.667399
  7788.578  7788.600  0.500  1.561560  139.907  29.3536  3.419145
  7789.091  7789.100  0.500  1.598631  139.898  28.2836  3.130325
  7789.594  7789.600  0.500  1.643991  139.908  27.0313  2.809875
  7790.091  7790.100  0.500  1.699177  139.907  25.5798  2.465455
  7790.594  7790.600  0.500  1.768935  139.876  23.8508  2.090563
  7791.091  7791.100  0.500  1.854618  139.87  21.8915  1.710074
  7791.586  7791.600  0.500  1.953637  139.835  19.8226  1.358531
  7792.086  7792.100  0.500  2.061820  139.859  17.7932  1.060586
  7792.592  7792.600  0.500  2.171883  139.822  15.9345  0.826524
  7793.092  7793.100  0.500  2.276517  139.821  14.3514  0.654111
  7793.593  7793.600  0.500  2.368811  139.806  13.0847  0.534043
  7794.096  7794.100  0.500  2.442606  139.787  12.1523  0.455500
  7794.591  7794.600  0.500  2.494173  139.782  11.5411  0.408085
  7795.099  7795.100  0.500  2.527535  139.757  11.1604  0.379334
  7795.592  7795.600  0.500  2.544249  139.741  10.9741  0.363694
  7796.090  7796.100  0.500  2.543615  139.735  10.9806  0.361089
  7796.591  7796.600  0.500  2.523901  139.724  11.1984  0.373216
  7797.092  7797.100  0.500  2.487619  139.712  11.6111  0.400707
  7797.593  7797.600  0.500  2.437127  139.691  12.2107  0.445691
  7798.102  7798.100  0.500  2.376004  139.68  12.9792  0.509914
  7798.598  7798.600  0.500  2.308830  139.675  13.8805  0.593601
  7799.102  7799.100  0.500  2.237399  139.651  14.9058  0.698439
  7799.598  7799.600  0.500  2.169420  139.62  15.9508  0.815575
  7800.088  7800.100  0.500  2.107916  139.632  16.964  0.939008
  7800.600  7800.600  0.500  2.051616  139.612  17.944  1.069706
  7801.102  7801.100  0.500  2.002853  139.574  18.8354  1.197261
  7801.601  7801.600  0.500  1.961743  139.58  19.6268  1.317033
  7802.107  7802.100  0.500  1.928583  139.592  20.2903  1.422576
  7802.601  7802.600  0.500  1.903102  139.584  20.8128  1.510681
  7803.100  7803.100  0.500  1.882708  139.562  21.2382  1.584860
  7803.599  7803.600  0.500  1.865357  139.555  21.6088  1.651136
  7804.096  7804.100  0.500  1.851646  139.537  21.9043  1.706557
  7804.595  7804.600  0.500  1.839902  139.543  22.1641  1.756990
  7805.100  7805.100  0.500  1.830200  139.511  22.3749  1.798784
  7805.602  7805.600  0.500  1.822411  139.511  22.55  1.835280
  7806.101  7806.100  0.500  1.815902  139.484  22.6929  1.866239
  7806.603  7806.600  0.500  1.810260  139.474  22.8196  1.892434
  7807.108  7807.100  0.500  1.805688  139.457  22.9213  1.914295
  7807.597  7807.600  0.500  1.802526  139.432  22.9898  1.928716
  7808.097  7808.100  0.500  1.800284  139.41  23.0378  1.938613
  7808.592  7808.600  0.500  1.798695  139.427  23.0773  1.944899
  7809.097  7809.100  0.500  1.797642  139.409  23.0985  1.946649
  7809.597  7809.600  0.500  1.797525  139.382  23.0967  1.943924
  7810.105  7810.100  0.500  1.797975  139.365  23.0835  1.937562
  7810.602  7810.600  0.500  1.799071  139.36  23.0575  1.929101
  7811.100  7811.100  0.500  1.800423  139.349  23.0244  1.919203
  7811.602  7811.600  0.500  1.801359  139.331  23  1.911093
  7812.095  7812.100  0.500  1.802591  139.344  22.9738  1.903414
  7812.593  7812.600  0.500  1.803679  139.32  22.9449  1.898521
  7813.101  7813.100  0.500  1.804463  139.293  22.9224  1.896023
  7813.599  7813.600  0.500  1.804954  139.286  22.91  1.896307
  7814.104  7814.100  0.500  1.805235  139.281  22.9028  1.898875
  7814.602  7814.600  0.500  1.805417  139.263  22.8957  1.903540
  7815.101  7815.100  0.500  1.805462  139.254  22.8931  1.910123
  7816.092  7816.090  0.500  1.805309  139.231  22.8929  1.925410
  7817.096  7817.090  0.500  1.804544  139.22  22.9086  1.942538
  7818.114  7818.110  0.500  1.804714  139.207  22.9025  1.952738
  7819.174  7819.160  0.500  1.806944  139.177  22.8465  1.949331
  7820.231  7820.220  0.500  1.812162  139.155  22.7241  1.927206
  7821.315  7821.300  0.500  1.820106  139.123  22.5391  1.890252
  7822.417  7822.400  0.500  1.830244  139.108  22.3093  1.844490
  7823.536  7823.520  0.500  1.841556  139.078  22.0536  1.792891
  7824.668  7824.660  0.500  1.853727  139.051  21.7827  1.739616
  7825.813  7825.810  0.500  1.866007  139.047  21.5161  1.685220
  7827.000  7826.990  0.500  1.877918  139.001  21.2544  1.628728
  7828.188  7828.180  0.500  1.889335  138.983  21.0104  1.574731
  7829.403  7829.400  0.500  1.899001  138.953  20.8038  1.529563
  7830.638  7830.630  0.500  1.905754  138.778  20.6377  1.495464
  7831.883  7831.880  0.500  1.908542  137.77  20.4307  1.471227
  7833.153  7833.150  0.500  1.906563  138.774  20.6205  1.487983
  7834.448  7834.440  0.500  1.900006  138.795  20.7592  1.510975
  7835.756  7835.750  0.500  1.889880  138.8  20.9713  1.547524
  7837.088  7837.080  0.500  1.877799  138.783  21.2236  1.590617
  7838.437  7838.430  0.500  1.864327  138.718  21.5014  1.637736
  7839.809  7839.800  0.500  1.851622  137.648  21.6083  1.670931
  7841.185  7841.180  0.500  1.840638  138.597  21.9975  1.722386
  7842.601  7842.590  0.500  1.831505  138.612  22.2018  1.756523
  7844.019  7844.010  0.500  1.824291  138.585  22.3581  1.783542
  7845.454  7845.450  0.500  1.818871  137.862  22.3624  1.798272
  7846.922  7846.910  0.500  1.814888  138.295  22.5222  1.823810
  7848.400  7848.390  0.500  1.812284  138.451  22.6064  1.842815
  7849.894  7849.890  0.500  1.810777  138.438  22.6383  1.855467
  7851.419  7851.410  0.500  1.809105  138.422  22.6736  1.866734
  7852.957  7852.950  0.500  1.808142  138.356  22.6846  1.875205
  7854.519  7854.510  0.500  1.807352  137.302  22.5296  1.869611
  7856.095  7856.080  0.500  1.807073  138.215  22.6857  1.889142
  7857.690  7857.680  0.500  1.807273  138.231  22.6839  1.893479
  7859.305  7859.290  0.500  1.807658  138.209  22.6714  1.894850
  7860.938  7860.930  0.500  1.808574  138.177  22.6455  1.893489
  7862.591  7862.580  0.500  1.810113  138.116  22.6006  1.887972
  7864.260  7864.250  0.500  1.811727  138.115  22.5642  1.879886
  7865.946  7865.940  0.500  1.813717  138.063  22.5108  1.866973
  7867.664  7867.650  0.500  1.815796  138.023  22.4575  1.852119
  7869.391  7869.380  0.500  1.817395  137.976  22.4139  1.837826
  7871.140  7871.130  0.500  1.818855  137.951  22.3772  1.823618
  7872.904  7872.890  0.500  1.819688  137.896  22.3496  1.811114
  7874.689  7874.680  0.500  1.819718  137.861  22.3433  1.801889
  7876.496  7876.480  0.500  1.819798  137.816  22.3342  1.794952
  7878.320  7878.310  0.500  1.819857  137.779  22.3269  1.790810
  7880.158  7880.150  0.500  1.820028  137.738  22.3165  1.788374
  7882.020  7882.010  0.500  1.820418  137.689  22.2999  1.788779
  7883.911  7883.890  0.500  1.820611  137.622  22.2848  1.790112
  7885.794  7885.790  0.500  1.820382  137.587  22.2842  1.792763
  7887.723  7887.710  0.500  1.820103  137.547  22.2839  1.796051
  7889.664  7889.650  0.500  1.819584  137.499  22.2876  1.798507
  7891.622  7891.610  0.500  1.818605  137.442  22.3002  1.801966
  7893.594  7893.580  0.500  1.817191  137.398  22.3246  1.806693
  7895.592  7895.580  0.500  1.815843  137.353  22.3474  1.812281
  7897.603  7897.590  0.500  1.814102  137.292  22.3765  1.817912
  7899.632  7899.620  0.500  1.812033  136.053  22.2204  1.808018
  7901.699  7901.680  0.500  1.809878  137.149  22.4477  1.827983
  7903.756  7903.750  0.500  1.807314  137.124  22.5013  1.833836
  7905.863  7905.840  0.500  1.804406  137.086  22.5606  1.840408
  7907.958  7907.950  0.500  1.800786  137.041  22.6349  1.848690
  7910.101  7910.080  0.500  1.796386  136.984  22.7253  1.861344
  7912.225  7912.220  0.500  1.792021  136.923  22.8145  1.877156
  7914.422  7914.390  0.500  1.787853  136.872  22.9013  1.895898
  7916.559  7916.580  0.500  1.784010  137.354  23.0703  1.922712
  7918.774  7918.780  0.500  1.780987  137.304  23.1318  1.942300
  7920.994  7921.000  0.500  1.778870  137.248  23.1715  1.960730
  7923.242  7923.250  0.500  1.777613  137.212  23.1945  1.975654
  7925.509  7925.510  0.500  1.776426  137.154  23.2123  1.985796
  7927.778  7927.790  0.500  1.775983  136.262  23.0714  1.976346
  7930.095  7930.090  0.500  1.775734  136.918  23.1882  1.983943
  7932.415  7932.410  0.500  1.776091  136.912  23.1789  1.977668
  7934.758  7934.750  0.500  1.776451  136.82  23.1551  1.971919
  7937.113  7937.100  0.500  1.776994  136.603  23.1059  1.964238
  7939.492  7939.480  0.500  1.777685  131.763  22.2718  1.889531
  7941.888  7941.870  0.500  1.778489  136.829  23.1094  1.958369
  7944.299  7944.290  0.500  1.779219  136.731  23.0761  1.951151
  7946.730  7946.720  0.500  1.779618  136.654  23.0539  1.942282
  7949.179  7949.170  0.500  1.778885  136.531  23.0501  1.933362
  7951.665  7951.650  0.500  1.777724  136.186  23.0185  1.923445
  7954.147  7954.140  0.500  1.775729  136.404  23.1013  1.925803
  7956.672  7956.650  0.500  1.773066  136.338  23.1518  1.930791
  7959.184  7959.170  0.500  1.770570  136.256  23.1957  1.940006
  7961.733  7961.720  0.500  1.767963  136.195  23.2458  1.953633
  7964.298  7964.290  0.500  1.765887  136.106  23.2789  1.969510
  7966.880  7966.870  0.500  1.763804  136.009  23.3109  1.984504
  7969.492  7969.480  0.500  1.761702  135.914  23.3435  1.997672
  7972.110  7972.100  0.500  1.759797  135.78  23.365  2.007453
  7974.763  7974.750  0.500  1.758195  135.634  23.3773  2.014806
  7977.418  7977.410  0.500  1.756559  135.463  23.3861  2.019272
  7980.107  7980.090  0.500  1.755011  134.428  23.2433  2.009031
  7982.798  7982.790  0.500  1.753738  135.241  23.4138  2.024143
  7985.511  7985.510  0.500  1.752278  135.153  23.4326  2.025699
  7988.260  7988.250  0.500  1.751010  135.111  23.4551  2.027725
  7991.014  7991.000  0.500  1.749537  135.046  23.4784  2.029402
  7993.790  7993.780  0.500  1.747861  134.985  23.5072  2.031970
  7996.589  7996.570  0.500  1.745790  134.877  23.537  2.034181
  7999.406  7999.390  0.500  1.743538  134.814  23.5791  2.040489
  8002.231  8002.220  0.500  1.740993  134.754  23.6287  2.049670
  8005.086  8005.070  0.500  1.738481  134.705  23.6795  2.062088
  8007.959  8007.950  0.500  1.736236  134.726  23.7363  2.076623
  8010.859  8010.840  0.500  1.734391  134.758  23.7858  2.090779
  8013.764  8013.750  0.500  1.732509  134.731  23.8258  2.103120
  8016.677  8016.670  0.500  1.730536  134.685  23.8647  2.114095
  8019.635  8019.620  0.500  1.728894  134.609  23.8904  2.121668
  8022.605  8022.590  0.500  1.727207  134.529  23.9166  2.127324
  8025.576  8025.570  0.500  1.725511  134.463  23.9455  2.131547
  8028.597  8028.580  0.500  1.724128  134.385  23.9646  2.133584
  8031.609  8031.600  0.500  1.722758  134.296  23.9817  2.135371
  8034.656  8034.650  0.500  1.721449  134.218  23.9991  2.136934
  8037.717  8037.710  0.500  1.720067  134.125  24.0156  2.138802
  8040.803  8040.790  0.500  1.718574  134.017  24.0322  2.140696
  8043.896  8043.890  0.500  1.717141  133.936  24.052  2.142814
  8047.020  8047.010  0.500  1.715583  133.85  24.074  2.145171
  8050.157  8050.150  0.500  1.713534  133.749  24.1053  2.150180
  8053.311  8053.300  0.500  1.711612  133.596  24.124  2.154927
  8056.492  8056.480  0.500  1.709399  133.181  24.1024  2.157759
  8059.678  8059.670  0.500  1.707171  133.403  24.1965  2.171507
  8062.901  8062.890  0.500  1.704933  133.48  24.2647  2.183084
  8066.129  8066.120  0.500  1.702407  133.251  24.2842  2.190431
  8069.387  8069.370  0.500  1.700310  130.347  23.8049  2.154572
  8072.671  8072.650  0.500  1.698201  133.193  24.3759  2.212837
  8075.949  8075.940  0.500  1.696189  132.974  24.3849  2.221174
  8079.263  8079.250  0.500  1.694250  127.369  23.4024  2.140018
  8082.591  8082.570  0.500  1.692224  132.951  24.4775  2.246234
  8085.933  8085.920  0.500  1.690008  132.778  24.5  2.252588
  8089.306  8089.290  0.500  1.687776  132.367  24.4787  2.254402
  8092.688  8092.670  0.500  1.685644  132.589  24.5722  2.266438
  8096.100  8096.080  0.500  1.683797  132.634  24.6258  2.273284
  8099.510  8099.500  0.500  1.681549  132.485  24.6536  2.278061
  8102.965  8102.950  0.500  1.679274  132.383  24.6908  2.284421
  8106.429  8106.410  0.500  1.676904  132.26  24.7263  2.291983
  8109.901  8109.890  0.500  1.674362  132.137  24.7661  2.300764
  8113.405  8113.390  0.500  1.672198  132.042  24.802  2.310568
  8116.931  8116.910  0.500  1.669747  131.922  24.8403  2.321943
  8120.461  8120.450  0.500  1.667387  131.822  24.88  2.332694
  8124.016  8124.000  0.500  1.665042  131.701  24.9155  2.341772
  8127.597  8127.580  0.500  1.662794  131.573  24.9474  2.350824
  8131.201  8131.180  0.500  1.660808  131.475  24.9783  2.359102
  8134.806  8134.790  0.500  1.658882  131.337  25.0003  2.365447
  8138.434  8138.420  0.500  1.657014  131.218  25.0242  2.371577
  8142.102  8142.080  0.500  1.654728  131.083  25.0557  2.378366
  8145.765  8145.750  0.500  1.652932  130.976  25.0804  2.386200
  8149.449  8149.440  0.500  1.651057  130.883  25.1094  2.395694
  8153.164  8153.150  0.500  1.648886  130.743  25.1372  2.404397
  8156.897  8156.880  0.500  1.646766  130.611  25.165  2.411492
  8160.637  8160.620  0.500  1.644424  130.47  25.1968  2.418592
  8164.405  8164.390  0.500  1.642015  130.361  25.2365  2.426319
  8168.198  8168.180  0.500  1.639667  130.211  25.2668  2.432533
  8171.996  8171.980  0.500  1.637297  130.084  25.3021  2.440477
  8175.836  8175.810  0.500  1.634894  129.972  25.3411  2.447324
  8179.662  8179.650  0.500  1.632267  129.797  25.3735  2.456223
  8183.530  8183.510  0.500  1.629328  129.683  25.4259  2.466801
  8187.415  8187.390  0.500  1.626795  129.535  25.4612  2.477331
  8191.310  8191.290  0.500  1.624245  129.409  25.5014  2.487683
  8195.220  8195.210  0.500  1.621806  129.252  25.5326  2.498116
  8199.163  8199.150  0.500  1.619360  129.147  25.5743  2.510093
  8203.132  8203.110  0.500  1.617090  128.99  25.6013  2.520486
  8207.095  8207.080  0.500  1.614805  128.847  25.6315  2.531186
  8211.101  8211.080  0.500  1.612329  128.711  25.668  2.541659
  8215.115  8215.090  0.500  1.609869  128.554  25.6998  2.551540
  8219.156  8219.130  0.500  1.607510  128.395  25.7286  2.563615
  8223.203  8223.180  0.500  1.605231  128.25  25.7581  2.574032
  8227.264  8227.250  0.500  1.602646  128.109  25.7963  2.586178
  8231.352  8231.340  0.500  1.600141  127.945  25.8279  2.596652
  8235.496  8235.450  0.500  1.597642  127.793  25.862  2.605260
  8239.639  8239.580  0.500  1.594964  127.643  25.9007  2.613049
  8243.780  8243.730  0.500  1.592403  127.507  25.9395  2.621422
  8247.905  8247.890  0.500  1.589824  127.33  25.9703  2.628117
  8252.082  8252.080  0.500  1.587209  127.181  26.0079  2.635710
  8256.341  8256.280  0.500  1.584463  127.018  26.0461  2.644470
  8260.500  8260.510  0.500  1.581865  126.891  26.0876  2.656741
  8264.742  8264.750  0.500  1.579288  126.712  26.118  2.666681
  8268.988  8269.010  0.500  1.576626  126.537  26.1517  2.677763
  8273.316  8273.290  0.500  1.574221  126.372  26.1804  2.689154
  8277.603  8277.590  0.500  1.571704  125.826  26.133  2.693232
  8281.899  8281.910  0.500  1.569169  125.989  26.2332  2.711082
  8286.305  8286.250  0.500  1.566529  125.842  26.2718  2.723964
  8290.586  8290.610  0.500  1.564078  125.663  26.299  2.733845
  8295.046  8294.990  0.500  1.561484  125.465  26.3255  2.744538
  8299.369  8299.380  0.500  1.559035  125.309  26.3575  2.756119
  8303.782  8303.800  0.500  1.556452  125.116  26.3848  2.768066
  8308.215  8308.230  0.500  1.553857  124.905  26.4088  2.779548
  8312.656  8312.680  0.500  1.551115  124.526  26.401  2.786920
  8317.128  8317.150  0.500  1.548298  124.305  26.4285  2.796185
  8321.626  8321.640  0.500  1.545554  122.791  26.1783  2.775526
  8326.135  8326.150  0.500  1.542801  124.14  26.5387  2.819520
  8330.732  8330.680  0.500  1.540015  123.96  26.5742  2.826486
  8335.261  8335.230  0.500  1.537310  123.597  26.5681  2.829891