File: xdidata/Data/V/V-V2O5.xdi
# XDI/1.0 BlueSky/1.10.0 BMM/2023-1.0-py310-tiled
# Beamline.name: BMM (06BM) -- Beamline for Materials Measurement (NIST)
# Beamline.xray_source: NSLS-II three-pole wiggler
# Beamline.collimation: paraboloid mirror, 5 nm Rh on 30 nm Pt
# Beamline.focusing: not in use
# Beamline.harmonic_rejection: flat mirror, Si stripe, pitch = 7.0 mrad relative to beam
# Beamline.software: Bluesky 1.10.0, Ophyd 1.7.0, DataBroker 2.0.0b13, Python 3.10.8, 2023-1.0-py310-tiled
# Detector.I0: 10 cm N2
# Detector.I1: 25 cm N2
# Detector.I2: 25 cm N2
# Element.symbol: V
# Element.edge: K
# Element.reference: V
# Element.reference_material: V foil
# Facility.name: NSLS-II
# Facility.energy: 3.0
# Facility.current: 399.7
# Facility.mode: top-off
# Facility.GUP: 123456
# Facility.SAF: 301027
# Facility.cycle: 2023-2
# Mono.name: Si(111)
# Mono.d_spacing: 3.13519
# Mono.encoder_resolution: 0.0000050 deg/ct
# Mono.angle_offset: 16.0754 deg
# Mono.scan_mode: pseudo channel cut
# Mono.scan_type: step
# Mono.direction: forward in energy
# Sample.name: V2O5
# Sample.prep: Powder in PEG pellet
# Sample.x: 116.329 mm
# Sample.y: 114.126 mm
# Sample.SDD_position: 205.000 mm
# Scan.experimenters: Bruce Ravel
# Scan.edge_energy: 5465.1
# Scan.start_time: 2023-05-06T09:35:39
# Scan.end_time: 2023-05-06T09:43:05
# Scan.transient_id: 74689
# Scan.uid: 1ee5456a-5ea3-4b1a-a4d8-e2e82b685cae
# Scan.plot_hint: ln(I0/It)  --  ln($5/$6)
# Column.1: energy eV
# Column.2: requested_energy eV
# Column.3: measurement_time seconds
# Column.4: xmu
# Column.5: I0 nA
# Column.6: It nA
# Column.7: Ir nA
# ///////////
# Alfa Aesar; Vanadium (V) oxide (99.2%); 11093; Lot H03Q11
# -----------
# energy  requested_energy  measurement_time  xmu  I0  It  Ir
  5265.105  5265.100  0.500  3.908149  98.6344  1.980344  0.305996
  5275.109  5275.100  0.500  3.882058  99.3706  2.047866  0.320044
  5285.102  5285.100  0.500  3.857115  99.7675  2.107975  0.332763
  5295.117  5295.100  0.500  3.831572  100.446  2.177225  0.347371
  5305.111  5305.100  0.500  3.806062  101.008  2.245966  0.361896
  5315.113  5315.100  0.500  3.780787  101.577  2.316427  0.377542
  5325.109  5325.100  0.500  3.755834  102.125  2.387774  0.392928
  5335.102  5335.100  0.500  3.731365  102.644  2.459365  0.408750
  5345.110  5345.100  0.500  3.706497  103.171  2.534241  0.425374
  5355.240  5355.100  0.500  3.681891  103.7  2.610670  0.442790
  5365.088  5365.100  0.500  3.658113  104.199  2.686355  0.460148
  5375.090  5375.100  0.500  3.633680  104.734  2.766945  0.478606
  5385.096  5385.100  0.500  3.610799  105.224  2.844225  0.496934
  5395.097  5395.100  0.500  3.586920  105.781  2.928387  0.516718
  5405.095  5405.100  0.500  3.564048  103.473  2.930757  0.522075
  5415.090  5415.100  0.500  3.541080  106.543  3.087825  0.555065
  5425.094  5425.100  0.500  3.518602  106.863  3.167513  0.574896
  5435.095  5435.100  0.500  3.496667  107.288  3.250646  0.595142
  5437.094  5437.100  0.500  3.492458  107.345  3.266075  0.599135
  5439.090  5439.100  0.500  3.487769  107.428  3.283977  0.603063
  5441.091  5441.100  0.500  3.483604  107.632  3.303926  0.608061
  5443.096  5443.100  0.500  3.479363  107.838  3.324324  0.612436
  5445.098  5445.100  0.500  3.475367  107.887  3.339160  0.616143
  5447.095  5447.100  0.500  3.471336  107.971  3.355252  0.619935
  5449.092  5449.100  0.500  3.467964  108.045  3.368895  0.623305
  5451.095  5451.100  0.500  3.465055  108.125  3.381214  0.626482
  5453.094  5453.100  0.500  3.461291  108.187  3.395916  0.629847
  5455.094  5455.100  0.500  3.457454  108.269  3.411547  0.632625
  5455.390  5455.400  0.500  3.458133  108.289  3.409862  0.632587
  5455.691  5455.700  0.500  3.457794  108.294  3.411164  0.632978
  5455.991  5456.000  0.500  3.456952  108.291  3.413943  0.633665
  5456.290  5456.300  0.500  3.456853  108.255  3.413165  0.633529
  5456.593  5456.600  0.500  3.455406  108.286  3.419083  0.634225
  5456.894  5456.900  0.500  3.455059  108.285  3.420217  0.634508
  5457.192  5457.200  0.500  3.454710  108.257  3.420540  0.634667
  5457.491  5457.500  0.500  3.455307  108.283  3.419305  0.634333
  5457.791  5457.800  0.500  3.454424  108.281  3.422277  0.634731
  5458.089  5458.100  0.500  3.454180  108.295  3.423558  0.634873
  5458.390  5458.400  0.500  3.453840  108.292  3.424624  0.635010
  5458.692  5458.700  0.500  3.453421  108.289  3.425963  0.634657
  5458.992  5459.000  0.500  3.453221  108.307  3.427221  0.634855
  5459.295  5459.300  0.500  3.452501  108.297  3.429359  0.635062
  5459.594  5459.600  0.500  3.452234  108.287  3.429984  0.634662
  5459.893  5459.900  0.500  3.452905  108.31  3.428406  0.634105
  5460.192  5460.200  0.500  3.452375  108.329  3.430800  0.633791
  5460.492  5460.500  0.500  3.452661  108.322  3.429622  0.633134
  5460.793  5460.800  0.500  3.452453  108.338  3.430830  0.632629
  5461.094  5461.100  0.500  3.453248  108.333  3.427934  0.631269
  5461.393  5461.400  0.500  3.453467  108.325  3.426936  0.630290
  5461.698  5461.700  0.500  3.453493  108.336  3.427208  0.629140
  5461.995  5462.000  0.500  3.453950  108.348  3.426018  0.627047
  5462.298  5462.300  0.500  3.454608  108.357  3.424063  0.624684
  5462.596  5462.600  0.500  3.455086  108.364  3.422627  0.621237
  5462.893  5462.900  0.500  3.455664  108.366  3.420732  0.616769
  5463.194  5463.200  0.500  3.456619  108.355  3.417100  0.609922
  5463.497  5463.500  0.500  3.457629  108.397  3.414990  0.599624
  5463.797  5463.800  0.500  3.458596  108.394  3.411584  0.581418
  5464.101  5464.100  0.500  3.460311  108.401  3.405964  0.551509
  5464.395  5464.400  0.500  3.462033  108.401  3.400082  0.512478
  5464.695  5464.700  0.500  3.465299  108.395  3.388815  0.475695
  5464.995  5465.000  0.500  3.469211  108.421  3.376389  0.457758
  5465.296  5465.300  0.500  3.473403  108.426  3.362435  0.459643
  5465.598  5465.600  0.500  3.480366  108.444  3.339655  0.466542
  5465.901  5465.900  0.500  3.491003  108.437  3.304103  0.470140
  5466.199  5466.200  0.500  3.507779  108.438  3.249178  0.466138
  5466.496  5466.500  0.500  3.531245  108.446  3.174044  0.454316
  5466.797  5466.800  0.500  3.556485  108.461  3.095373  0.438597
  5467.097  5467.100  0.500  3.577663  108.454  3.030305  0.423154
  5467.396  5467.400  0.500  3.598196  108.455  2.968750  0.407375
  5467.699  5467.700  0.500  3.634299  108.465  2.863748  0.386282
  5468.002  5468.000  0.500  3.693651  108.466  2.698738  0.357731
  5468.303  5468.300  0.500  3.781946  108.476  2.470905  0.322028
  5468.598  5468.600  0.500  3.909822  108.483  2.174439  0.278620
  5468.896  5468.900  0.500  4.082982  108.494  1.828901  0.230932
  5469.200  5469.200  0.500  4.280579  108.499  1.501039  0.187241
  5469.501  5469.500  0.500  4.447460  108.521  1.270590  0.156841
  5469.799  5469.800  0.500  4.477056  108.522  1.233548  0.150926
  5470.101  5470.100  0.500  4.363310  108.533  1.382291  0.168144
  5470.399  5470.400  0.500  4.224117  108.515  1.588472  0.192433
  5470.698  5470.700  0.500  4.111382  108.52  1.778107  0.215116
  5470.999  5471.000  0.500  4.018642  108.527  1.951034  0.235606
  5471.299  5471.300  0.500  3.935721  108.545  2.120063  0.255212
  5471.602  5471.600  0.500  3.866468  108.516  2.271485  0.272471
  5471.902  5471.900  0.500  3.811667  108.547  2.400108  0.285907
  5472.199  5472.200  0.500  3.769008  108.558  2.504966  0.294945
  5472.498  5472.500  0.500  3.735762  108.572  2.589990  0.300214
  5472.800  5472.800  0.500  3.709356  108.568  2.659192  0.301937
  5473.100  5473.100  0.500  3.685217  108.582  2.724510  0.302091
  5473.399  5473.400  0.500  3.663714  108.608  2.784403  0.301172
  5473.698  5473.700  0.500  3.644786  108.613  2.837741  0.299298
  5473.996  5474.000  0.500  3.631195  108.606  2.876385  0.296671
  5474.303  5474.300  0.500  3.622779  108.621  2.901076  0.292843
  5474.603  5474.600  0.500  3.620432  108.624  2.907982  0.287415
  5474.901  5474.900  0.500  3.623391  108.624  2.899387  0.281215
  5475.202  5475.200  0.500  3.629963  108.625  2.880435  0.274472
  5475.505  5475.500  0.500  3.639615  108.639  2.853122  0.267704
  5475.802  5475.800  0.500  3.651291  108.643  2.820114  0.260607
  5476.097  5476.100  0.500  3.664807  108.655  2.782548  0.253128
  5476.403  5476.400  0.500  3.680813  108.667  2.738685  0.245342
  5476.702  5476.700  0.500  3.699290  108.677  2.688792  0.237667
  5477.004  5477.000  0.500  3.722071  108.681  2.628316  0.228651
  5477.305  5477.300  0.500  3.751885  108.669  2.550847  0.218747
  5477.604  5477.600  0.500  3.788448  108.681  2.459524  0.207962
  5477.898  5477.900  0.500  3.829580  108.709  2.361016  0.197143
  5478.201  5478.200  0.500  3.875496  108.695  2.254771  0.185769
  5478.499  5478.500  0.500  3.920820  108.722  2.155386  0.175110
  5478.800  5478.800  0.500  3.965011  108.719  2.062154  0.165446
  5479.104  5479.100  0.500  4.007961  108.713  1.975358  0.156495
  5479.400  5479.400  0.500  4.052483  108.723  1.889516  0.147909
  5479.703  5479.700  0.500  4.102445  108.742  1.797748  0.139222
  5480.001  5480.000  0.500  4.154404  108.739  1.706670  0.130483
  5480.302  5480.300  0.500  4.206571  108.743  1.619980  0.122369
  5480.599  5480.600  0.500  4.260298  108.775  1.535696  0.114785
  5480.899  5480.900  0.500  4.313589  108.76  1.455805  0.107791
  5481.200  5481.200  0.500  4.363871  108.792  1.384813  0.101480
  5481.503  5481.500  0.500  4.406369  108.792  1.327200  0.096497
  5481.804  5481.800  0.500  4.441326  108.8  1.281702  0.092270
  5482.102  5482.100  0.500  4.469903  108.815  1.245757  0.088719
  5482.400  5482.400  0.500  4.495660  108.824  1.214188  0.085684
  5482.702  5482.700  0.500  4.524583  108.784  1.179133  0.082575
  5483.000  5483.000  0.500  4.560544  108.825  1.137919  0.079005
  5483.297  5483.300  0.500  4.605677  108.815  1.087598  0.075200
  5483.599  5483.600  0.500  4.656417  108.831  1.033941  0.071536
  5483.899  5483.900  0.500  4.706905  108.839  0.983110  0.068327
  5484.202  5484.200  0.500  4.755559  108.872  0.936703  0.065458
  5484.501  5484.500  0.500  4.800572  108.883  0.895571  0.063328
  5484.800  5484.800  0.500  4.840519  108.876  0.860443  0.061390
  5485.100  5485.100  0.500  4.874106  108.893  0.832151  0.060368
  5485.397  5485.400  0.500  4.900638  108.894  0.810368  0.059617
  5485.698  5485.700  0.500  4.922184  108.895  0.793106  0.059109
  5485.999  5486.000  0.500  4.936235  108.915  0.782182  0.059275
  5486.298  5486.300  0.500  4.943087  108.912  0.776818  0.059456
  5486.600  5486.600  0.500  4.944278  108.906  0.775856  0.060116
  5486.900  5486.900  0.500  4.942298  108.914  0.777449  0.060764
  5487.200  5487.200  0.500  4.936134  108.939  0.782431  0.061611
  5487.499  5487.500  0.500  4.926645  108.95  0.789972  0.062575
  5487.800  5487.800  0.500  4.916318  108.941  0.798108  0.063444
  5488.099  5488.100  0.500  4.906486  108.943  0.806006  0.064192
  5488.401  5488.400  0.500  4.900516  108.965  0.811000  0.064724
  5488.701  5488.700  0.500  4.899018  108.936  0.812000  0.064435
  5489.001  5489.000  0.500  4.904007  108.976  0.808252  0.064041
  5489.301  5489.300  0.500  4.915557  108.957  0.798830  0.063139
  5489.601  5489.600  0.500  4.933252  108.991  0.785064  0.061753
  5489.900  5489.900  0.500  4.952334  108.991  0.770231  0.060256
  5490.100  5490.100  0.500  4.966439  109.001  0.759511  0.059194
  5491.099  5491.090  0.500  5.015768  109.022  0.723092  0.055002
  5492.101  5492.090  0.500  5.053620  109.027  0.696263  0.052237
  5493.124  5493.110  0.500  5.089866  109.065  0.671716  0.050123
  5494.154  5494.160  0.500  5.099130  109.283  0.666853  0.050190
  5495.216  5495.220  0.500  5.073084  109.432  0.685381  0.052197
  5496.296  5496.300  0.500  5.040065  109.403  0.708201  0.054432
  5497.401  5497.400  0.500  5.016096  109.48  0.725893  0.055638
  5498.519  5498.520  0.500  4.993998  109.5  0.742249  0.056113
  5499.661  5499.660  0.500  4.969971  109.508  0.760349  0.056803
  5500.814  5500.810  0.500  4.953141  109.549  0.773550  0.057177
  5501.994  5501.990  0.500  4.953878  109.577  0.773174  0.056592
  5503.179  5503.180  0.500  4.972233  109.597  0.759253  0.055444
  5504.404  5504.400  0.500  5.003545  109.586  0.735773  0.053691
  5505.630  5505.630  0.500  5.028337  109.633  0.718066  0.052132
  5506.879  5506.880  0.500  5.032816  109.64  0.714901  0.051868
  5508.152  5508.150  0.500  5.011847  109.653  0.730136  0.052304
  5509.437  5509.440  0.500  4.979581  109.674  0.754222  0.053591
  5510.753  5510.750  0.500  4.949739  109.696  0.777225  0.054907
  5512.081  5512.080  0.500  4.921226  109.728  0.799936  0.056845
  5513.436  5513.430  0.500  4.884662  109.712  0.829607  0.059389
  5514.803  5514.800  0.500  4.846865  109.717  0.861600  0.062275
  5516.182  5516.180  0.500  4.813320  109.742  0.891198  0.064859
  5517.595  5517.590  0.500  4.788830  109.762  0.913458  0.066946
  5519.010  5519.010  0.500  4.774154  109.787  0.927175  0.068641
  5520.451  5520.450  0.500  4.769681  109.812  0.931547  0.070308
  5521.916  5521.910  0.500  4.772798  109.817  0.928687  0.071260
  5523.394  5523.390  0.500  4.775257  109.83  0.926520  0.072453
  5524.893  5524.890  0.500  4.772096  109.841  0.929546  0.073807
  5526.419  5526.410  0.500  4.763830  109.882  0.937605  0.075561
  5527.958  5527.950  0.500  4.752013  109.886  0.948785  0.077258
  5529.516  5529.510  0.500  4.737662  109.884  0.962484  0.079064
  5531.090  5531.080  0.500  4.721907  109.904  0.977944  0.080515
  5532.689  5532.680  0.500  4.708553  109.935  0.991376  0.081180
  5534.299  5534.290  0.500  4.699418  109.953  1.000634  0.081030
  5535.934  5535.930  0.500  4.693663  109.977  1.006627  0.080158
  5537.590  5537.580  0.500  4.690248  109.978  1.010086  0.078724
  5539.258  5539.250  0.500  4.689672  110.012  1.010976  0.077648
  5540.952  5540.940  0.500  4.689319  110.017  1.011377  0.077602
  5542.660  5542.650  0.500  4.690051  110.06  1.011033  0.078414
  5544.388  5544.380  0.500  4.692324  110.08  1.008922  0.079831
  5546.139  5546.130  0.500  4.695873  110.088  1.005418  0.081188
  5547.900  5547.890  0.500  4.697186  110.092  1.004138  0.082825
  5549.690  5549.680  0.500  4.695164  110.121  1.006435  0.084639
  5551.489  5551.480  0.500  4.692514  110.15  1.009371  0.086264
  5553.319  5553.310  0.500  4.691941  110.16  1.010040  0.086183
  5555.159  5555.150  0.500  4.691660  110.161  1.010335  0.084868
  5557.015  5557.010  0.500  4.689350  110.186  1.012906  0.082649
  5558.896  5558.890  0.500  4.685597  110.192  1.016768  0.080521
  5560.799  5560.790  0.500  4.683083  110.201  1.019412  0.078225
  5562.721  5562.710  0.500  4.682400  110.24  1.020470  0.076216
  5564.670  5564.650  0.500  4.682831  110.245  1.020072  0.075120
  5566.620  5566.610  0.500  4.681456  110.256  1.021576  0.075013
  5568.587  5568.580  0.500  4.680946  110.255  1.022088  0.076074
  5570.601  5570.580  0.500  4.679988  110.265  1.023159  0.078192
  5572.611  5572.590  0.500  4.675833  110.298  1.027733  0.080961
  5574.637  5574.620  0.500  4.669124  110.316  1.034820  0.084417
  5576.699  5576.680  0.500  4.661927  110.343  1.042546  0.087271
  5578.769  5578.750  0.500  4.655567  110.34  1.049172  0.089449
  5580.848  5580.840  0.500  4.652010  110.369  1.053185  0.090860
  5582.964  5582.950  0.500  4.646985  110.332  1.058140  0.091333
  5585.097  5585.080  0.500  4.639044  110.397  1.067199  0.091960
  5587.231  5587.220  0.500  4.627240  110.433  1.080223  0.092993
  5589.389  5589.390  0.500  4.613733  110.447  1.095057  0.094504
  5591.589  5591.580  0.500  4.599407  110.473  1.111119  0.096837
  5593.792  5593.780  0.500  4.587214  110.477  1.124787  0.099020
  5595.999  5596.000  0.500  4.577003  110.463  1.136189  0.100994
  5598.259  5598.250  0.500  4.570861  110.494  1.143505  0.101781
  5600.521  5600.510  0.500  4.565395  110.531  1.150154  0.102674
  5602.788  5602.790  0.500  4.558269  110.533  1.158410  0.103118
  5605.100  5605.090  0.500  4.548966  110.514  1.169034  0.103833
  5607.423  5607.410  0.500  4.538936  110.547  1.181169  0.104175
  5609.758  5609.750  0.500  4.528313  110.555  1.193867  0.104725
  5612.112  5612.100  0.500  4.521342  110.587  1.202569  0.104845
  5614.489  5614.480  0.500  4.518713  110.614  1.206026  0.104824
  5616.882  5616.870  0.500  4.519205  110.632  1.205628  0.104338
  5619.308  5619.290  0.500  4.520718  110.645  1.203952  0.103424
  5621.733  5621.720  0.500  4.521204  110.65  1.203422  0.101855
  5624.181  5624.170  0.500  4.519377  110.674  1.205878  0.101034
  5626.659  5626.650  0.500  4.514926  110.677  1.211296  0.101238
  5629.139  5629.140  0.500  4.508633  110.7  1.219197  0.102855
  5631.643  5631.650  0.500  4.501109  110.693  1.228330  0.105270
  5634.183  5634.170  0.500  4.492617  110.702  1.238899  0.108146
  5636.732  5636.720  0.500  4.484954  110.693  1.248330  0.110849
  5639.298  5639.290  0.500  4.476081  110.719  1.259750  0.113551
  5641.877  5641.870  0.500  4.466416  110.723  1.272033  0.116155
  5644.487  5644.480  0.500  4.455187  110.725  1.286414  0.118324
  5647.104  5647.100  0.500  4.443551  110.729  1.301518  0.120304
  5649.750  5649.750  0.500  4.431855  110.694  1.316414  0.122396
  5652.411  5652.410  0.500  4.421481  110.681  1.329988  0.124689
  5655.091  5655.090  0.500  4.413093  110.662  1.340959  0.126406
  5657.792  5657.790  0.500  4.407402  110.64  1.348351  0.127723
  5660.514  5660.510  0.500  4.402901  110.592  1.353843  0.129138
  5663.254  5663.250  0.500  4.396171  110.545  1.362410  0.130701
  5666.005  5666.000  0.500  4.391356  110.546  1.368997  0.132560
  5668.782  5668.780  0.500  4.387029  110.468  1.373965  0.134291
  5671.576  5671.570  0.500  4.382589  110.448  1.379819  0.135618
  5674.396  5674.390  0.500  4.378923  110.39  1.384168  0.136000
  5677.226  5677.220  0.500  4.372556  110.29  1.391743  0.136009
  5680.076  5680.070  0.500  4.364267  110.272  1.403098  0.136226
  5682.959  5682.950  0.500  4.354136  110.218  1.416686  0.136734
  5685.847  5685.840  0.500  4.344495  110.1  1.428889  0.137115
  5688.763  5688.750  0.500  4.333816  110.002  1.442946  0.137252
  5691.678  5691.670  0.500  4.323177  109.907  1.457111  0.137831
  5694.630  5694.620  0.500  4.313466  109.817  1.470128  0.138585
  5697.599  5697.590  0.500  4.304143  109.701  1.482335  0.139581
  5700.579  5700.570  0.500  4.295827  109.599  1.493321  0.141568
  5703.589  5703.580  0.500  4.287193  109.489  1.504755  0.144329
  5706.610  5706.600  0.500  4.279353  109.371  1.514960  0.147658
  5709.661  5709.650  0.500  4.270563  109.235  1.526440  0.151174
  5712.717  5712.710  0.500  4.261764  109.108  1.538143  0.154344
  5715.800  5715.790  0.500  4.253448  108.931  1.548465  0.156567
  5718.900  5718.890  0.500  4.245300  108.777  1.558930  0.158206
  5722.020  5722.010  0.500  4.236609  108.6  1.569980  0.160011
  5725.144  5725.150  0.500  4.228039  108.46  1.581453  0.162135
  5728.290  5728.300  0.500  4.219827  108.279  1.591834  0.164249
  5731.475  5731.480  0.500  4.212332  108.09  1.601000  0.165661
  5734.682  5734.670  0.500  4.206041  107.881  1.607992  0.167199
  5737.881  5737.890  0.500  4.200408  107.659  1.613756  0.168199
  5741.130  5741.120  0.500  4.194004  107.425  1.620581  0.169450
  5744.363  5744.370  0.500  4.188449  107.208  1.626331  0.171195
  5747.677  5747.650  0.500  4.182944  106.937  1.631166  0.172638
  5750.934  5750.940  0.500  4.176967  106.736  1.637860  0.174479
  5754.277  5754.250  0.500  4.169595  106.48  1.646027  0.175896
  5757.590  5757.570  0.500  4.161980  106.239  1.654846  0.177511
  5760.920  5760.920  0.500  4.154466  105.965  1.663027  0.178542
  5764.274  5764.290  0.500  4.145878  105.65  1.672390  0.179413
  5767.659  5767.670  0.500  4.137426  105.411  1.682776  0.180251
  5771.069  5771.080  0.500  4.128689  105.142  1.693201  0.181283
  5774.485  5774.500  0.500  4.118468  104.863  1.706053  0.182839
  5777.962  5777.950  0.500  4.108746  104.517  1.717040  0.184268
  5781.410  5781.410  0.500  4.099561  104.251  1.728484  0.185866
  5784.879  5784.890  0.500  4.091013  103.949  1.738271  0.187679
  5788.380  5788.390  0.500  4.082762  103.646  1.747563  0.189579
  5791.899  5791.910  0.500  4.075280  103.354  1.755729  0.191713
  5795.442  5795.450  0.500  4.066938  103.047  1.765164  0.193891
  5798.988  5799.000  0.500  4.058125  102.729  1.775303  0.196043
  5802.569  5802.580  0.500  4.049280  102.402  1.785374  0.198780
  5806.168  5806.180  0.500  4.039846  102.091  1.796827  0.201746
  5809.775  5809.790  0.500  4.030969  101.775  1.807239  0.204426
  5813.409  5813.420  0.500  4.022116  101.445  1.817382  0.206788
  5817.067  5817.080  0.500  4.012939  101.096  1.827840  0.208725
  5820.738  5820.750  0.500  4.004635  100.818  1.838000  0.210629
  5824.421  5824.440  0.500  3.996639  100.827  1.852919  0.213340
  5828.137  5828.150  0.500  3.988250  100.507  1.862601  0.215275
  5831.866  5831.880  0.500  3.981171  100.205  1.870207  0.217299
  5835.599  5835.620  0.500  3.972338  99.9097  1.881235  0.219155
  5839.378  5839.390  0.500  3.963993  99.5764  1.890672  0.220908
  5843.183  5843.180  0.500  3.955286  99.2203  1.900384  0.222853
  5846.969  5846.980  0.500  3.945503  98.8873  1.912627  0.225026
  5850.801  5850.810  0.500  3.936415  98.5538  1.923579  0.227217
  5854.640  5854.650  0.500  3.928593  98.1945  1.931618  0.229351
  5858.504  5858.510  0.500  3.919284  97.8132  1.942112  0.231582
  5862.415  5862.390  0.500  3.909783  97.3981  1.952331  0.233407
  5866.304  5866.290  0.500  3.900253  96.8  1.958920  0.234631
  5870.194  5870.210  0.500  3.891456  95.118  1.941891  0.233240
  5874.139  5874.150  0.500  3.885084  88.9173  1.826905  0.219809
  5878.100  5878.110  0.500  3.874394  97.5166  2.025119  0.244745
  5882.071  5882.080  0.500  3.866003  96.9477  2.030271  0.246584
  5886.074  5886.080  0.500  3.857209  96.5316  2.039412  0.248923
  5890.078  5890.090  0.500  3.847942  96.1411  2.050073  0.251690
  5894.121  5894.130  0.500  3.839141  95.7453  2.059680  0.254002
  5898.167  5898.180  0.500  3.831193  95.4097  2.068839  0.256315
  5902.246  5902.250  0.500  3.823156  95.0277  2.077182  0.258638
  5906.325  5906.340  0.500  3.815657  94.5979  2.083351  0.260488
  5910.444  5910.450  0.500  3.807616  93.946  2.085701  0.262173
  5914.572  5914.580  0.500  3.799768  91.5832  2.049262  0.258726
  5918.716  5918.730  0.500  3.791902  93.7698  2.114759  0.268386
  5922.879  5922.890  0.500  3.783591  94.2193  2.142630  0.273026
  5927.079  5927.080  0.500  3.774912  93.1996  2.137914  0.273346
  5931.265  5931.280  0.500  3.765581  78.0064  1.806173  0.232142
  5935.500  5935.510  0.500  3.759177  93.3218  2.174670  0.280227
  5939.738  5939.750  0.500  3.750493  92.3546  2.170901  0.280961
  5943.997  5944.010  0.500  3.741084  87.7648  2.082515  0.271032
  5948.280  5948.290  0.500  3.732624  93.1589  2.229290  0.291538
  5952.575  5952.590  0.500  3.723874  92.5617  2.234464  0.293553
  5956.897  5956.910  0.500  3.714969  92.0523  2.242043  0.295939
  5961.236  5961.250  0.500  3.705435  91.605  2.252524  0.298611
  5965.600  5965.610  0.500  3.696259  91.2083  2.263442  0.301174
  5969.979  5969.990  0.500  3.686819  90.8281  2.275386  0.303787
  5974.365  5974.380  0.500  3.677061  90.3909  2.286638  0.306605
  5978.787  5978.800  0.500  3.667582  89.8889  2.295594  0.308751
  5983.215  5983.230  0.500  3.658171  89.1531  2.298335  0.310389
  5987.667  5987.680  0.500  3.649422  87.0298  2.263309  0.306724
  5992.134  5992.150  0.500  3.640468  90.037  2.362576  0.321431
  5996.626  5996.640  0.500  3.631470  89.6472  2.373611  0.324329
  6001.138  6001.150  0.500  3.622779  89.0386  2.378075  0.326588
  6005.669  6005.680  0.500  3.614315  88.5431  2.384941  0.328818
  6010.218  6010.230  0.500  3.605528  88.116  2.394382  0.331982
  6014.789  6014.800  0.500  3.596612  87.6969  2.404336  0.334702
  6019.371  6019.380  0.500  3.587684  87.2977  2.414858  0.337637
  6023.980  6023.990  0.500  3.578645  86.9034  2.425779  0.340831
  6028.594  6028.610  0.500  3.569800  86.516  2.436418  0.343720
  6033.252  6033.260  0.500  3.560163  86.0773  2.447537  0.346811
  6037.906  6037.920  0.500  3.551178  85.6745  2.458070  0.349989
  6042.584  6042.600  0.500  3.542228  85.2897  2.469031  0.352829
  6047.286  6047.300  0.500  3.532707  84.8697  2.480377  0.356033
  6052.012  6052.020  0.500  3.523672  84.424  2.489743  0.358729
  6056.745  6056.760  0.500  3.514178  83.8303  2.495818  0.361701
  6061.494  6061.510  0.500  3.503897  83.2482  2.504100  0.364183
  6066.280  6066.290  0.500  3.495424  82.746  2.510173  0.366750
  6071.072  6071.090  0.500  3.486256  82.3288  2.520518  0.369752
  6075.885  6075.900  0.500  3.477030  81.867  2.529612  0.373074
  6080.713  6080.730  0.500  3.468139  81.3675  2.536629  0.375465
  6085.575  6085.590  0.500  3.459352  80.8766  2.543580  0.378168
  6090.445  6090.460  0.500  3.450582  80.3764  2.550118  0.380527
  6095.339  6095.350  0.500  3.442062  79.8727  2.555819  0.382920
  6100.251  6100.260  0.500  3.433402  79.3682  2.561765  0.385673
  6105.179  6105.190  0.500  3.424637  78.8082  2.566083  0.387935