File: xdidata/Eu/Eu-L3-EuropiumOxide.xdi
# XDI/1.0 BlueSky/1.10.0 BMM/2023-1.0-py310-tiled
# Beamline.name: BMM (06BM) -- Beamline for Materials Measurement (NIST)
# Beamline.xray_source: NSLS-II three-pole wiggler
# Beamline.collimation: paraboloid mirror, 5 nm Rh on 30 nm Pt
# Beamline.focusing: not in use
# Beamline.harmonic_rejection: flat mirror, Si stripe, pitch = 7.0 mrad relative to beam
# Beamline.software: Bluesky 1.10.0, Ophyd 1.7.0, DataBroker 2.0.0b13, Python 3.10.8, 2023-1.0-py310-tiled
# Detector.I0: 10 cm N2
# Detector.I1: 25 cm N2
# Detector.I2: 25 cm N2
# Element.symbol: Eu
# Element.edge: L3
# Element.reference: Eu
# Element.reference_material: Eu2O3
# Facility.name: NSLS-II
# Facility.energy: 3.0
# Facility.current: 400.1
# Facility.mode: top-off
# Facility.GUP: 301027
# Facility.SAF: 310583
# Facility.cycle: 2023-2
# Mono.name: Si(111)
# Mono.d_spacing: 3.13519
# Mono.encoder_resolution: 0.0000050 deg/ct
# Mono.angle_offset: 16.0754 deg
# Mono.scan_mode: pseudo channel cut
# Mono.scan_type: step
# Mono.direction: forward in energy
# Sample.name: Eu2O3
# Sample.prep: PEG pellet
# Sample.x: 109.138 mm
# Sample.y: 153.150 mm
# Sample.SDD_position: 205.000 mm
# Scan.experimenters: Bruce Ravel
# Scan.edge_energy: 6976.9
# Scan.start_time: 2023-05-28T13:07:35
# Scan.end_time: 2023-05-28T13:14:58
# Scan.transient_id: 78707
# Scan.uid: a7f3b61d-40ed-4e18-b3bd-ca526332a12d
# Scan.plot_hint: ln(It/Ir)  --  ln($6/$7)
# Column.1: energy eV
# Column.2: requested_energy eV
# Column.3: measurement_time seconds
# Column.4: xmu
# Column.5: I0 nA
# Column.6: It nA
# Column.7: Ir nA
# ///////////
# sample courtesy Martin Stennett, University of Sheffield
# -----------
# energy  requested_energy  measurement_time  xmu  I0  It  Ir
  6776.912  6776.900  0.500  1.737802  153.403  135.839  23.8951
  6786.913  6786.900  0.500  1.730258  153.552  136.435  24.1816
  6796.917  6796.900  0.500  1.722716  152.299  135.773  24.2464
  6806.899  6806.900  0.500  1.715214  153.381  137.198  24.6854
  6816.974  6816.900  0.500  1.707714  153.43  137.708  24.9636
  6826.901  6826.900  0.500  1.700265  153.342  138.098  25.2215
  6836.904  6836.900  0.500  1.693047  153.661  138.873  25.5468
  6846.914  6846.900  0.500  1.685773  153.24  138.967  25.7508
  6856.920  6856.900  0.500  1.678525  153.525  139.702  26.0752
  6866.916  6866.900  0.500  1.671240  153.707  140.334  26.3848
  6876.914  6876.900  0.500  1.664013  153.904  141.038  26.7094
  6886.912  6886.900  0.500  1.656876  154.021  141.624  27.0124
  6896.911  6896.900  0.500  1.649900  154.1  142.175  27.3075
  6906.916  6906.900  0.500  1.643025  154.128  142.66  27.5896
  6916.909  6916.900  0.500  1.636218  154.046  143.003  27.8448
  6926.911  6926.900  0.500  1.629643  154  143.401  28.1065
  6936.914  6936.900  0.500  1.623584  154.02  143.905  28.3768
  6946.883  6946.900  0.500  1.617618  154.131  144.494  28.6634
  6948.878  6948.900  0.500  1.616672  154.114  144.591  28.7098
  6950.889  6950.900  0.500  1.615947  154.111  144.681  28.7484
  6952.881  6952.900  0.500  1.615300  154.108  144.769  28.7845
  6954.886  6954.900  0.500  1.614966  154.132  144.881  28.8165
  6957.351  6956.900  0.500  1.614719  154.114  144.977  28.8426
  6958.882  6958.900  0.500  1.614810  154.102  145.03  28.8507
  6961.124  6960.900  0.500  1.615433  154.096  145.08  28.8426
  6962.995  6962.900  0.500  1.616629  154.101  145.18  28.828
  6964.901  6964.900  0.500  1.618811  154.078  145.316  28.792
  6966.897  6966.900  0.500  1.622660  154.091  145.424  28.7027
  6967.185  6967.200  0.500  1.623422  154.096  145.437  28.6835
  6967.485  6967.500  0.500  1.624411  154.094  145.426  28.6529
  6967.783  6967.800  0.500  1.625306  154.071  145.387  28.6196
  6968.083  6968.100  0.500  1.626408  154.073  145.412  28.5931
  6968.383  6968.400  0.500  1.627624  154.076  145.447  28.5651
  6968.681  6968.700  0.500  1.628989  154.078  145.443  28.5254
  6968.985  6969.000  0.500  1.630425  154.048  145.42  28.4799
  6969.279  6969.300  0.500  1.632031  154.053  145.492  28.4484
  6969.583  6969.600  0.500  1.633815  154.041  145.493  28.3978
  6969.887  6969.900  0.500  1.635646  154.044  145.516  28.3503
  6970.187  6970.200  0.500  1.637435  154.043  145.558  28.3079
  6970.486  6970.500  0.500  1.639153  154.041  145.56  28.2597
  6970.786  6970.800  0.500  1.640844  154.038  145.527  28.2056
  6971.090  6971.100  0.500  1.642551  154.03  145.493  28.1508
  6971.390  6971.400  0.500  1.644425  154.025  145.523  28.1039
  6971.693  6971.700  0.500  1.646697  154.014  145.513  28.0382
  6971.995  6972.000  0.500  1.649053  154.017  145.512  27.972
  6972.292  6972.300  0.500  1.651793  154.02  145.513  27.8958
  6972.590  6972.600  0.500  1.654903  154.02  145.562  27.8184
  6972.888  6972.900  0.500  1.658546  154.006  145.594  27.7233
  6973.189  6973.200  0.500  1.662783  154  145.634  27.6138
  6973.489  6973.500  0.500  1.667726  154.01  145.624  27.4757
  6973.792  6973.800  0.500  1.673232  153.992  145.587  27.318
  6974.084  6974.100  0.500  1.679106  153.983  145.598  27.16
  6974.387  6974.400  0.500  1.685393  153.992  145.632  26.9961
  6974.693  6974.700  0.500  1.692284  153.984  145.64  26.8121
  6974.998  6975.000  0.500  1.699464  153.992  145.638  26.6199
  6975.297  6975.300  0.500  1.707464  154.046  145.697  26.4185
  6975.597  6975.600  0.500  1.716122  154.444  146.075  26.2587
  6975.894  6975.900  0.500  1.725709  154.456  146.161  26.0235
  6976.197  6976.200  0.500  1.736679  154.475  146.2  25.7464
  6976.497  6976.500  0.500  1.748441  154.474  146.2  25.4455
  6976.800  6976.800  0.500  1.762218  154.486  146.217  25.1002
  6977.095  6977.100  0.500  1.777756  154.487  146.218  24.7134
  6977.394  6977.400  0.500  1.795992  154.494  146.238  24.2701
  6977.692  6977.700  0.500  1.817070  154.468  146.245  23.7649
  6977.993  6978.000  0.500  1.840995  154.466  146.273  23.2075
  6978.298  6978.300  0.500  1.868897  154.478  146.288  22.5714
  6978.595  6978.600  0.500  1.899094  154.466  146.271  21.8974
  6978.894  6978.900  0.500  1.933993  154.449  146.243  21.1424
  6979.201  6979.200  0.500  1.974186  154.459  146.237  20.3085
  6979.496  6979.500  0.500  2.017838  154.448  146.273  19.4459
  6979.801  6979.800  0.500  2.066268  154.459  146.313  18.5316
  6980.100  6980.100  0.500  2.115120  154.462  146.317  17.6486
  6980.401  6980.400  0.500  2.163190  154.442  146.296  16.8179
  6980.694  6980.700  0.500  2.208579  154.451  146.327  16.075
  6980.995  6981.000  0.500  2.252806  154.446  146.364  15.3834
  6981.297  6981.300  0.500  2.293694  154.427  146.318  14.7625
  6981.596  6981.600  0.500  2.331358  154.439  146.362  14.2211
  6981.897  6981.900  0.500  2.363989  154.423  146.398  13.7679
  6982.194  6982.200  0.500  2.391212  154.414  146.421  13.4003
  6982.491  6982.500  0.500  2.412414  154.416  146.402  13.1175
  6982.797  6982.800  0.500  2.427531  154.415  146.374  12.9182
  6983.098  6983.100  0.500  2.435286  154.407  146.383  12.8191
  6983.399  6983.400  0.500  2.435332  154.408  146.45  12.8244
  6983.703  6983.700  0.500  2.427389  154.391  146.447  12.9264
  6983.996  6984.000  0.500  2.411958  154.394  146.486  13.1309
  6984.297  6984.300  0.500  2.389966  154.391  146.461  13.4206
  6984.599  6984.600  0.500  2.362984  154.4  146.491  13.7905
  6984.902  6984.900  0.500  2.332605  154.373  146.482  14.215
  6985.196  6985.200  0.500  2.299957  154.386  146.55  14.6935
  6985.499  6985.500  0.500  2.264809  154.382  146.552  15.2194
  6985.795  6985.800  0.500  2.229404  154.379  146.559  15.7686
  6986.092  6986.100  0.500  2.194378  154.378  146.562  16.331
  6986.400  6986.400  0.500  2.160392  154.381  146.52  16.8908
  6986.700  6986.700  0.500  2.129545  154.376  146.539  17.4223
  6986.999  6987.000  0.500  2.100683  154.357  146.556  17.9344
  6987.301  6987.300  0.500  2.073849  154.354  146.597  18.4274
  6987.599  6987.600  0.500  2.049512  154.364  146.623  18.8847
  6987.900  6987.900  0.500  2.026981  154.354  146.604  19.3126
  6988.204  6988.200  0.500  2.006859  154.351  146.62  19.7073
  6988.504  6988.500  0.500  1.989282  154.344  146.641  20.0596
  6988.802  6988.800  0.500  1.974041  154.338  146.631  20.3663
  6989.095  6989.100  0.500  1.960975  154.347  146.631  20.634
  6989.395  6989.400  0.500  1.948959  154.346  146.644  20.8854
  6989.693  6989.700  0.500  1.938366  154.327  146.648  21.1084
  6990.001  6990.000  0.500  1.928831  154.331  146.689  21.3166
  6990.297  6990.300  0.500  1.920974  154.326  146.672  21.4823
  6990.597  6990.600  0.500  1.913974  154.336  146.687  21.6353
  6990.899  6990.900  0.500  1.908004  154.33  146.727  21.7707
  6991.201  6991.200  0.500  1.902418  154.336  146.749  21.896
  6991.505  6991.500  0.500  1.898009  154.329  146.748  21.9927
  6991.807  6991.800  0.500  1.893784  154.318  146.76  22.0875
  6992.099  6992.100  0.500  1.890096  154.329  146.789  22.1736
  6992.405  6992.400  0.500  1.886847  154.318  146.79  22.2458
  6992.697  6992.700  0.500  1.883961  154.308  146.789  22.31
  6992.999  6993.000  0.500  1.881367  154.311  146.819  22.3725
  6993.302  6993.300  0.500  1.878991  154.301  146.816  22.4252
  6993.600  6993.600  0.500  1.876837  154.296  146.805  22.472
  6993.898  6993.900  0.500  1.874802  154.301  146.81  22.5185
  6994.192  6994.200  0.500  1.873000  154.293  146.804  22.5582
  6994.499  6994.500  0.500  1.871352  154.265  146.778  22.5914
  6994.803  6994.800  0.500  1.869973  154.275  146.816  22.6285
  6995.108  6995.100  0.500  1.868894  154.282  146.859  22.6595
  6995.400  6995.400  0.500  1.867964  154.273  146.865  22.6815
  6995.698  6995.700  0.500  1.867302  154.272  146.836  22.692
  6996.003  6996.000  0.500  1.866495  154.248  146.835  22.7102
  6996.301  6996.300  0.500  1.866074  154.231  146.829  22.7189
  6996.603  6996.600  0.500  1.865888  154.242  146.857  22.7274
  6996.902  6996.900  0.500  1.865651  154.233  146.897  22.7389
  6997.200  6997.200  0.500  1.865421  154.235  146.915  22.7469
  6997.495  6997.500  0.500  1.865173  154.238  146.926  22.7543
  6997.791  6997.800  0.500  1.865141  154.217  146.97  22.762
  6998.098  6998.100  0.500  1.864968  154.208  146.923  22.7585
  6998.401  6998.400  0.500  1.864770  154.218  146.965  22.7695
  6998.697  6998.700  0.500  1.864523  154.217  146.911  22.7669
  6998.998  6999.000  0.500  1.864221  154.208  146.945  22.779
  6999.301  6999.300  0.500  1.863945  154.216  146.961  22.7878
  6999.602  6999.600  0.500  1.863577  154.199  146.958  22.7956
  6999.904  6999.900  0.500  1.863125  154.204  147.008  22.8137
  7000.203  7000.200  0.500  1.862588  154.186  147.005  22.8255
  7000.502  7000.500  0.500  1.861958  154.183  147.011  22.8409
  7000.803  7000.800  0.500  1.861380  154.175  147.004  22.853
  7001.102  7001.100  0.500  1.860813  154.181  147.04  22.8715
  7001.400  7001.400  0.500  1.860298  154.185  147.07  22.8879
  7001.701  7001.700  0.500  1.859740  154.176  147.082  22.9026
  7001.896  7001.900  0.500  1.859367  154.179  147.099  22.9138
  7002.897  7002.890  0.500  1.857747  154.167  147.07  22.9465
  7003.904  7003.890  0.500  1.856802  154.162  147.122  22.9763
  7004.922  7004.910  0.500  1.857287  154.171  147.225  22.9811
  7005.967  7005.960  0.500  1.859516  154.155  147.19  22.9246
  7007.034  7007.020  0.500  1.864206  154.146  147.216  22.8213
  7008.113  7008.100  0.500  1.870496  154.125  147.274  22.6871
  7009.209  7009.200  0.500  1.878514  154.118  147.357  22.5187
  7010.328  7010.320  0.500  1.887102  154.109  147.397  22.3322
  7011.471  7011.460  0.500  1.896143  154.11  147.46  22.1406
  7012.607  7012.610  0.500  1.904609  154.099  147.493  21.9588
  7013.801  7013.790  0.500  1.912604  154.106  147.576  21.7963
  7014.988  7014.980  0.500  1.919149  154.103  147.608  21.6588
  7016.203  7016.200  0.500  1.924107  154.077  147.649  21.5577
  7017.440  7017.430  0.500  1.926789  154.087  147.713  21.5092
  7018.691  7018.680  0.500  1.926609  154.081  147.743  21.5175
  7019.960  7019.950  0.500  1.923971  154.062  147.789  21.5811
  7021.252  7021.240  0.500  1.919104  154.082  147.882  21.7
  7022.563  7022.550  0.500  1.912864  154.08  147.85  21.831
  7023.887  7023.880  0.500  1.905548  154.061  147.875  21.9951
  7025.242  7025.230  0.500  1.897989  154.055  147.947  22.1727
  7026.605  7026.600  0.500  1.890547  154.061  148.039  22.3522
  7027.991  7027.980  0.500  1.883599  154.045  148.113  22.5194
  7029.397  7029.390  0.500  1.877534  154.046  148.161  22.6638
  7030.816  7030.810  0.500  1.872306  154.042  148.222  22.7918
  7032.265  7032.250  0.500  1.867905  154.019  148.309  22.9058
  7033.713  7033.710  0.500  1.864240  154.016  148.372  22.9998
  7035.201  7035.190  0.500  1.861101  153.982  148.421  23.0797
  7036.698  7036.690  0.500  1.858583  153.97  148.491  23.1488
  7038.217  7038.210  0.500  1.856409  153.956  148.494  23.1996
  7039.762  7039.750  0.500  1.854894  153.956  148.545  23.2427
  7041.315  7041.310  0.500  1.853573  153.955  148.626  23.2862
  7042.895  7042.880  0.500  1.852744  153.928  148.696  23.3165
  7044.488  7044.480  0.500  1.852290  153.935  148.776  23.3396
  7046.105  7046.090  0.500  1.852289  153.916  148.83  23.3481
  7047.742  7047.730  0.500  1.852774  153.928  148.919  23.3507
  7049.385  7049.380  0.500  1.853544  153.907  148.989  23.3437
  7051.063  7051.050  0.500  1.854697  153.895  149.068  23.3292
  7052.747  7052.740  0.500  1.856126  153.899  149.097  23.3004
  7054.462  7054.450  0.500  1.857511  153.885  149.141  23.2751
  7056.192  7056.180  0.500  1.859044  153.88  149.235  23.254
  7057.945  7057.930  0.500  1.860512  153.899  149.309  23.2314
  7059.699  7059.690  0.500  1.861381  153.899  149.387  23.2234
  7061.499  7061.480  0.500  1.861978  153.908  149.496  23.2265
  7063.293  7063.280  0.500  1.862190  152.546  148.26  23.0295
  7065.118  7065.110  0.500  1.861915  153.788  149.532  23.2335
  7066.969  7066.950  0.500  1.861100  153.808  149.616  23.2656
  7068.819  7068.810  0.500  1.859927  153.798  149.725  23.3098
  7070.708  7070.690  0.500  1.858459  152.932  148.977  23.2274
  7072.602  7072.590  0.500  1.856624  153.742  149.85  23.4064
  7074.523  7074.510  0.500  1.854672  153.743  149.909  23.4615
  7076.473  7076.450  0.500  1.852772  153.477  149.728  23.4776
  7078.398  7078.410  0.500  1.850877  153.722  150.084  23.5781
  7080.378  7080.380  0.500  1.849065  153.745  150.189  23.6373
  7082.371  7082.380  0.500  1.847246  153.693  150.21  23.6838
  7084.391  7084.390  0.500  1.845400  153.508  150.11  23.7117
  7086.425  7086.420  0.500  1.843530  153.639  150.361  23.7958
  7088.488  7088.480  0.500  1.841632  153.641  150.47  23.8583
  7090.563  7090.550  0.500  1.839541  153.635  150.551  23.9211
  7092.650  7092.640  0.500  1.837373  153.608  150.624  23.9846
  7094.761  7094.750  0.500  1.834893  153.598  150.714  24.0586
  7096.885  7096.880  0.500  1.832286  153.569  150.777  24.1315
  7099.029  7099.020  0.500  1.829580  153.571  150.871  24.2119
  7101.195  7101.190  0.500  1.826854  153.565  150.965  24.2931
  7103.391  7103.380  0.500  1.823945  153.533  151.023  24.3732
  7105.584  7105.580  0.500  1.821085  153.515  151.076  24.4516
  7107.807  7107.800  0.500  1.818606  153.488  151.163  24.5264
  7110.067  7110.050  0.500  1.816689  153.453  151.246  24.587
  7112.316  7112.310  0.500  1.815663  153.289  151.228  24.6094
  7114.596  7114.590  0.500  1.815218  153.168  151.189  24.6139
  7116.904  7116.890  0.500  1.815553  153.554  151.654  24.6814
  7119.220  7119.210  0.500  1.815854  153.506  151.702  24.6818
  7121.558  7121.550  0.500  1.815915  153.438  151.754  24.6887
  7123.909  7123.900  0.500  1.816182  153.357  151.759  24.6829
  7126.286  7126.280  0.500  1.816532  153.223  151.727  24.669
  7128.679  7128.670  0.500  1.816416  153.092  151.689  24.6658
  7131.098  7131.090  0.500  1.816211  152.908  151.563  24.6503
  7133.524  7133.520  0.500  1.815722  152.811  151.569  24.6634
  7135.981  7135.970  0.500  1.814512  152.821  151.7  24.7145
  7138.461  7138.450  0.500  1.812704  152.802  151.803  24.776
  7140.949  7140.940  0.500  1.810421  152.799  151.921  24.852
  7143.461  7143.450  0.500  1.807799  152.81  152.013  24.9324
  7145.980  7145.970  0.500  1.804701  152.821  152.153  25.0328
  7148.526  7148.520  0.500  1.801572  152.826  152.267  25.1301
  7151.100  7151.090  0.500  1.798791  152.813  152.36  25.2155
  7153.682  7153.670  0.500  1.796459  152.807  152.475  25.2934
  7156.290  7156.280  0.500  1.794342  152.781  152.6  25.3678
  7158.906  7158.900  0.500  1.792633  152.763  152.699  25.4276
  7161.568  7161.550  0.500  1.790991  152.712  152.752  25.4782
  7164.221  7164.210  0.500  1.789631  152.659  152.774  25.5166
  7166.896  7166.890  0.500  1.788291  152.58  152.79  25.5535
  7169.601  7169.590  0.500  1.786858  152.519  152.845  25.5994
  7172.321  7172.310  0.500  1.785457  152.485  152.954  25.6535
  7175.065  7175.050  0.500  1.783807  152.426  153.027  25.7082
  7177.807  7177.800  0.500  1.782154  152.393  153.131  25.7681
  7180.593  7180.580  0.500  1.780276  152.358  153.206  25.8292
  7183.386  7183.370  0.500  1.778258  152.321  153.308  25.8987
  7186.205  7186.190  0.500  1.775959  152.267  153.368  25.9684
  7189.030  7189.020  0.500  1.773560  152.238  153.446  26.044
  7191.885  7191.870  0.500  1.771117  150.789  152.122  25.8824
  7194.768  7194.750  0.500  1.768554  151.986  153.431  26.1721
  7197.655  7197.640  0.500  1.766256  151.988  153.528  26.249
  7200.565  7200.550  0.500  1.764116  151.932  153.592  26.3162
  7203.482  7203.470  0.500  1.762198  151.872  153.641  26.3751
  7206.434  7206.420  0.500  1.760532  151.796  153.691  26.4278
  7209.408  7209.390  0.500  1.759073  151.734  153.81  26.4867
  7212.385  7212.370  0.500  1.757864  151.651  153.827  26.5218
  7215.396  7215.380  0.500  1.756604  151.593  153.933  26.5735
  7218.409  7218.400  0.500  1.755409  151.519  153.956  26.6092
  7221.458  7221.450  0.500  1.753998  151.452  153.995  26.6535
  7224.521  7224.510  0.500  1.752637  151.367  154.063  26.7016
  7227.606  7227.590  0.500  1.750870  150.484  153.308  26.6178
  7230.703  7230.690  0.500  1.748908  151.383  154.342  26.8499
  7233.823  7233.810  0.500  1.746893  151.297  154.391  26.9126
  7236.964  7236.950  0.500  1.744608  151.236  154.479  26.9896
  7240.111  7240.100  0.500  1.742272  151.183  154.51  27.0582
  7243.293  7243.280  0.500  1.739757  151.106  154.589  27.1402
  7246.478  7246.470  0.500  1.737434  150.759  154.377  27.1659
  7249.699  7249.690  0.500  1.735104  150.929  154.681  27.2829
  7252.934  7252.920  0.500  1.732526  150.762  154.667  27.3509
  7256.188  7256.170  0.500  1.730115  151.013  155.062  27.4869
  7259.465  7259.450  0.500  1.727692  150.774  154.94  27.5319
  7262.754  7262.740  0.500  1.725533  149.619  153.908  27.4077
  7266.066  7266.050  0.500  1.723497  149.098  153.48  27.3872
  7269.382  7269.370  0.500  1.721358  151.138  155.681  27.8394
  7272.732  7272.720  0.500  1.719589  150.986  155.635  27.8805
  7276.103  7276.090  0.500  1.717700  151.175  155.957  27.991
  7279.480  7279.470  0.500  1.715793  151.064  155.986  28.0495
  7282.887  7282.880  0.500  1.713814  150.986  156.044  28.1156
  7286.304  7286.300  0.500  1.711767  150.657  155.865  28.141
  7289.761  7289.750  0.500  1.709460  150.801  156.212  28.2686
  7293.218  7293.210  0.500  1.706952  150.76  156.296  28.3548
  7296.700  7296.690  0.500  1.704560  150.687  156.346  28.4319
  7300.198  7300.190  0.500  1.701969  150.479  156.281  28.4939
  7303.716  7303.710  0.500  1.699509  150.711  156.684  28.6376
  7307.261  7307.250  0.500  1.697120  150.62  156.762  28.7204
  7310.813  7310.800  0.500  1.694877  150.546  156.838  28.7988
  7314.394  7314.380  0.500  1.692566  150.462  156.849  28.8674
  7317.992  7317.980  0.500  1.690435  150.405  156.907  28.9398
  7321.600  7321.590  0.500  1.688211  150.334  157.011  29.0234
  7325.227  7325.220  0.500  1.686025  150.244  157.082  29.1002
  7328.888  7328.880  0.500  1.683974  150.18  157.158  29.174
  7332.558  7332.550  0.500  1.681824  150.095  157.255  29.2549
  7336.244  7336.240  0.500  1.679752  150.041  157.375  29.3378
  7339.956  7339.950  0.500  1.677646  148.129  155.507  29.0508
  7343.683  7343.680  0.500  1.675510  149.797  157.348  29.4575
  7347.424  7347.420  0.500  1.673287  149.766  157.484  29.5486
  7351.199  7351.190  0.500  1.670978  149.711  157.579  29.6347
  7354.993  7354.980  0.500  1.668423  149.631  157.651  29.7242
  7358.789  7358.780  0.500  1.666091  149.569  157.719  29.8063
  7362.624  7362.610  0.500  1.663587  149.493  157.799  29.8963
  7366.457  7366.450  0.500  1.661030  149.407  157.847  29.982
  7370.321  7370.310  0.500  1.658426  149.335  157.94  30.0778
  7374.205  7374.190  0.500  1.655801  149.254  158.019  30.172
  7378.106  7378.090  0.500  1.653096  149.168  158.075  30.2645
  7382.026  7382.010  0.500  1.650524  149.082  158.136  30.3541
  7385.958  7385.950  0.500  1.647937  148.989  158.197  30.4445
  7389.930  7389.910  0.500  1.645376  148.912  158.262  30.5351
  7393.894  7393.880  0.500  1.642862  148.845  158.351  30.6291
  7397.900  7397.880  0.500  1.640294  148.749  158.43  30.7232
  7401.903  7401.890  0.500  1.637796  148.653  158.478  30.8094
  7405.950  7405.930  0.500  1.635425  148.551  158.514  30.8895
  7409.998  7409.980  0.500  1.633089  148.471  158.589  30.9764
  7414.068  7414.050  0.500  1.630703  148.369  158.654  31.0633
  7418.155  7418.140  0.500  1.628415  148.257  158.696  31.1426
  7422.266  7422.250  0.500  1.626092  148.139  158.741  31.2238
  7426.400  7426.380  0.500  1.623569  148.033  158.756  31.3057
  7430.546  7430.530  0.500  1.621124  147.924  158.83  31.3969
  7434.708  7434.690  0.500  1.618479  147.818  158.798  31.4737
  7438.894  7438.880  0.500  1.615778  147.684  158.817  31.5628
  7443.101  7443.080  0.500  1.613168  147.518  158.8  31.6418
  7447.328  7447.310  0.500  1.610441  147.05  158.466  31.6613
  7451.578  7451.550  0.500  1.607861  147.311  158.917  31.8335
  7455.817  7455.810  0.500  1.605126  147.344  159.126  31.9628
  7460.108  7460.090  0.500  1.602553  143.367  154.994  31.2129
  7464.410  7464.390  0.500  1.599772  147.053  159.168  32.1428
  7468.728  7468.710  0.500  1.597049  145.76  157.871  31.9678
  7473.068  7473.050  0.500  1.594255  146.943  159.344  32.3564
  7477.432  7477.410  0.500  1.591585  146.806  159.377  32.4495
  7481.821  7481.790  0.500  1.588967  146.69  159.403  32.5399
  7486.205  7486.180  0.500  1.586330  146.55  159.428  32.631
  7490.619  7490.600  0.500  1.583834  146.427  159.483  32.7239
  7495.069  7495.030  0.500  1.581362  146.312  159.529  32.8143
  7499.510  7499.480  0.500  1.578821  146.177  159.501  32.8919
  7503.962  7503.950  0.500  1.576325  146.039  159.543  32.9828
  7508.455  7508.440  0.500  1.573660  145.928  159.592  33.081
  7512.970  7512.950  0.500  1.570924  145.785  159.624  33.1782
  7517.498  7517.480  0.500  1.568139  145.643  159.641  33.2744
  7522.049  7522.030  0.500  1.565258  145.497  159.647  33.3717
  7526.594  7526.600  0.500  1.562314  145.351  159.639  33.4684
  7531.192  7531.180  0.500  1.559341  145.233  159.689  33.5786
  7535.787  7535.790  0.500  1.556325  145.068  159.693  33.6809
  7540.431  7540.410  0.500  1.553379  144.913  159.652  33.7715
  7545.047  7545.060  0.500  1.550480  144.763  159.668  33.8729
  7549.741  7549.720  0.500  1.547482  144.618  159.719  33.9855
  7554.420  7554.400  0.500  1.544639  144.446  159.678  34.0736
  7559.134  7559.100  0.500  1.541864  144.303  159.681  34.1689
  7563.840  7563.820  0.500  1.539119  144.129  159.679  34.2623
  7568.574  7568.560  0.500  1.536456  143.984  159.658  34.3492
  7573.321  7573.310  0.500  1.533840  143.819  159.652  34.4378
  7578.086  7578.090  0.500  1.531192  143.652  159.627  34.5236
  7582.890  7582.890  0.500  1.528543  143.469  159.591  34.6074
  7587.705  7587.700  0.500  1.526107  143.258  159.543  34.6816
  7592.536  7592.530  0.500  1.523556  143.047  159.491  34.7587