File: xdidata/Eu/Eu-L3-Eu2O3-m.xdi
# XDI/1.0 BlueSky/1.10.0 BMM/2023-1.0-py310-tiled
# Beamline.name: BMM (06BM) -- Beamline for Materials Measurement (NIST)
# Beamline.xray_source: NSLS-II three-pole wiggler
# Beamline.collimation: paraboloid mirror, 5 nm Rh on 30 nm Pt
# Beamline.focusing: not in use
# Beamline.harmonic_rejection: flat mirror, Si stripe, pitch = 7.0 mrad relative to beam
# Beamline.software: Bluesky 1.10.0, Ophyd 1.7.0, DataBroker 2.0.0b13, Python 3.10.8, 2023-1.0-py310-tiled
# Detector.I0: 10 cm N2
# Detector.I1: 25 cm N2
# Detector.I2: 25 cm N2
# Element.symbol: Eu
# Element.edge: L3
# Element.reference: Eu
# Element.reference_material: Eu2O3
# Facility.name: NSLS-II
# Facility.energy: 3.0
# Facility.current: 400.6
# Facility.mode: top-off
# Facility.GUP: 123456
# Facility.SAF: 301027
# Facility.cycle: 2023-2
# Mono.name: Si(111)
# Mono.d_spacing: 3.13519
# Mono.encoder_resolution: 0.0000050 deg/ct
# Mono.angle_offset: 16.0754 deg
# Mono.scan_mode: pseudo channel cut
# Mono.scan_type: step
# Mono.direction: forward in energy
# Sample.name: monoclinic Eu2O3
# Sample.prep: Powder in PEG pellet
# Sample.x: 123.848 mm
# Sample.y: 114.690 mm
# Sample.SDD_position: 205.000 mm
# Scan.experimenters: Bruce Ravel
# Scan.edge_energy: 6976.9
# Scan.start_time: 2023-05-08T17:27:10
# Scan.end_time: 2023-05-08T17:33:22
# Scan.transient_id: 75446
# Scan.uid: 143901b7-55d4-48b3-8fb7-0874baeea466
# Scan.plot_hint: ln(I0/It)  --  ln($5/$6)
# Column.1: energy eV
# Column.2: requested_energy eV
# Column.3: measurement_time seconds
# Column.4: xmu
# Column.5: I0 nA
# Column.6: It nA
# Column.7: Ir nA
# ///////////
# sample courtesy Martin Stennett, University of Sheffield
# -----------
# energy  requested_energy  measurement_time  xmu  I0  It  Ir
  6776.898  6776.900  0.500  1.708306  151.879  27.5162  6.796956
  6786.939  6786.900  0.500  1.698206  152.058  27.8283  6.916501
  6796.974  6796.900  0.500  1.687846  151.111  27.9431  6.987618
  6806.932  6806.900  0.500  1.677781  151.969  28.3859  7.142048
  6816.919  6816.900  0.500  1.667675  152.019  28.6837  7.260974
  6826.915  6826.900  0.500  1.658028  151.935  28.9457  7.372618
  6836.914  6836.900  0.500  1.647937  152.236  29.2972  7.506606
  6846.916  6846.900  0.500  1.637781  151.855  29.5223  7.608353
  6856.908  6856.900  0.500  1.628008  152.097  29.8598  7.741501
  6866.916  6866.900  0.500  1.618270  152.287  30.1897  7.873473
  6876.894  6876.900  0.500  1.608848  152.438  30.5055  8.002290
  6886.894  6886.900  0.500  1.599469  152.472  30.7999  8.122390
  6896.889  6896.900  0.500  1.590601  152.576  31.0955  8.249252
  6906.902  6906.900  0.500  1.581301  152.615  31.394  8.374880
  6916.896  6916.900  0.500  1.572487  152.53  31.6543  8.490150
  6926.903  6926.900  0.500  1.563796  152.477  31.9194  8.606138
  6936.899  6936.900  0.500  1.556200  152.489  32.1654  8.714869
  6946.905  6946.900  0.500  1.551116  152.503  32.3324  8.794861
  6948.893  6948.900  0.500  1.550671  152.499  32.346  8.805073
  6950.885  6950.900  0.500  1.550556  152.503  32.3504  8.808845
  6952.887  6952.900  0.500  1.550844  152.513  32.3433  8.810920
  6954.892  6954.900  0.500  1.551107  152.513  32.3348  8.809113
  6956.888  6956.900  0.500  1.552494  152.508  32.2889  8.796173
  6958.892  6958.900  0.500  1.554544  152.52  32.2253  8.775414
  6960.886  6960.900  0.500  1.557255  152.518  32.1377  8.744201
  6962.890  6962.900  0.500  1.561905  152.52  31.9889  8.690351
  6964.891  6964.900  0.500  1.569273  152.537  31.7576  8.605764
  6966.891  6966.900  0.500  1.581615  152.539  31.3685  8.462324
  6967.382  6967.400  0.500  1.585745  152.533  31.238  8.411956
  6967.881  6967.900  0.500  1.590754  152.534  31.0821  8.355266
  6968.383  6968.400  0.500  1.596369  152.527  30.9067  8.289366
  6968.882  6968.900  0.500  1.603047  152.516  30.6988  8.212622
  6969.384  6969.400  0.500  1.610579  152.505  30.4662  8.126733
  6969.881  6969.900  0.500  1.618388  152.508  30.2298  8.038180
  6970.383  6970.400  0.500  1.625902  152.519  30.0056  7.956358
  6970.887  6970.900  0.500  1.633343  152.513  29.7822  7.873082
  6971.382  6971.400  0.500  1.642487  152.514  29.5113  7.775361
  6971.886  6971.900  0.500  1.653407  152.484  29.1849  7.654734
  6972.386  6972.400  0.500  1.667066  152.504  28.7929  7.514464
  6972.888  6972.900  0.500  1.684095  152.495  28.3049  7.337493
  6973.388  6973.400  0.500  1.705424  152.495  27.7076  7.122479
  6973.890  6973.900  0.500  1.731077  152.496  27.0061  6.873552
  6974.389  6974.400  0.500  1.759033  152.49  26.2606  6.610527
  6974.891  6974.900  0.500  1.790557  152.486  25.445  6.325990
  6975.387  6975.400  0.500  1.827079  152.49  24.5331  6.013660
  6975.886  6975.900  0.500  1.871818  152.483  23.4586  5.651624
  6976.392  6976.400  0.500  1.924736  152.479  22.2489  5.247725
  6976.891  6976.900  0.500  1.987392  152.477  20.8973  4.805069
  6977.398  6977.400  0.500  2.067346  152.472  19.2909  4.291070
  6977.894  6977.900  0.500  2.165381  152.476  17.4899  3.733052
  6978.389  6978.400  0.500  2.280747  152.474  15.5841  3.164111
  6978.888  6978.900  0.500  2.415971  152.478  13.6134  2.600014
  6979.397  6979.400  0.500  2.569088  152.469  11.6799  2.071635
  6979.894  6979.900  0.500  2.726246  152.467  9.981172  1.629546
  6980.399  6980.400  0.500  2.868078  152.455  8.660679  1.304906
  6980.900  6980.900  0.500  2.988429  152.46  7.678902  1.076231
  6981.398  6981.400  0.500  3.086333  152.454  6.962430  0.916277
  6981.895  6981.900  0.500  3.158960  152.446  6.474371  0.810650
  6982.394  6982.400  0.500  3.203125  152.438  6.194313  0.749896
  6982.900  6982.900  0.500  3.217745  152.435  6.104313  0.729493
  6983.401  6983.400  0.500  3.202583  152.441  6.197802  0.746694
  6983.899  6983.900  0.500  3.160229  152.432  6.465573  0.802605
  6984.399  6984.400  0.500  3.094929  152.424  6.901470  0.896979
  6984.898  6984.900  0.500  3.015929  152.406  7.467959  1.023960
  6985.394  6985.400  0.500  2.924707  152.412  8.181528  1.188440
  6985.898  6985.900  0.500  2.825627  152.392  9.032530  1.391359
  6986.400  6986.400  0.500  2.727678  152.428  9.964359  1.619399
  6986.902  6986.900  0.500  2.638041  152.414  10.8978  1.854710
  6987.398  6987.400  0.500  2.555236  152.399  11.8374  2.097023
  6987.898  6987.900  0.500  2.481608  152.382  12.7405  2.335440
  6988.394  6988.400  0.500  2.418580  152.389  13.5699  2.557861
  6988.899  6988.900  0.500  2.367424  152.38  14.2813  2.752434
  6989.401  6989.400  0.500  2.325417  152.385  14.8945  2.924043
  6989.900  6989.900  0.500  2.291080  152.383  15.4146  3.070724
  6990.404  6990.400  0.500  2.264248  152.382  15.8337  3.190499
  6990.905  6990.900  0.500  2.244681  152.382  16.1466  3.283353
  6991.402  6991.400  0.500  2.230070  152.371  16.383  3.355673
  6991.900  6991.900  0.500  2.218814  152.374  16.5689  3.415035
  6992.403  6992.400  0.500  2.210245  152.368  16.7108  3.460787
  6992.910  6992.900  0.500  2.203819  152.374  16.8191  3.498633
  6993.403  6993.400  0.500  2.198759  152.365  16.9035  3.528517
  6993.904  6993.900  0.500  2.194381  152.356  16.9766  3.554950
  6994.405  6994.400  0.500  2.190706  152.351  17.0386  3.576059
  6994.898  6994.900  0.500  2.187925  152.343  17.0851  3.593351
  6995.404  6995.400  0.500  2.185448  152.338  17.127  3.606849
  6995.895  6995.900  0.500  2.183310  152.342  17.1641  3.617370
  6996.402  6996.400  0.500  2.181568  152.337  17.1935  3.625095
  6996.900  6996.900  0.500  2.180361  152.335  17.214  3.630756
  6997.406  6997.400  0.500  2.179381  152.322  17.2294  3.635164
  6997.901  6997.900  0.500  2.178575  152.313  17.2423  3.637731
  6998.405  6998.400  0.500  2.178173  152.307  17.2485  3.639423
  6998.894  6998.900  0.500  2.177871  152.303  17.2533  3.642903
  6999.400  6999.400  0.500  2.177697  152.314  17.2575  3.645700
  6999.900  6999.900  0.500  2.177571  152.319  17.2603  3.649823
  7000.400  7000.400  0.500  2.177421  152.314  17.2623  3.652436
  7000.906  7000.900  0.500  2.177020  152.306  17.2683  3.657772
  7001.409  7001.400  0.500  2.176719  152.305  17.2734  3.661990
  7001.899  7001.900  0.500  2.175619  152.296  17.2914  3.669163
  7002.893  7002.890  0.500  2.172493  152.278  17.3434  3.684537
  7003.898  7003.890  0.500  2.169451  152.295  17.3983  3.697212
  7004.920  7004.910  0.500  2.168307  152.287  17.4173  3.698341
  7005.969  7005.960  0.500  2.170436  152.301  17.3817  3.679729
  7007.036  7007.020  0.500  2.176646  152.301  17.2742  3.637558
  7008.111  7008.100  0.500  2.186124  152.266  17.1073  3.577940
  7009.213  7009.200  0.500  2.198620  152.254  16.8936  3.503389
  7010.334  7010.320  0.500  2.213311  152.261  16.6479  3.422602
  7011.475  7011.460  0.500  2.230282  152.249  16.3665  3.334238
  7012.622  7012.610  0.500  2.247806  152.234  16.0806  3.248314
  7013.811  7013.790  0.500  2.265562  152.222  15.7964  3.165679
  7014.965  7014.980  0.500  2.281246  152.206  15.5489  3.097400
  7016.189  7016.200  0.500  2.294458  152.193  15.3435  3.042597
  7017.425  7017.430  0.500  2.302681  152.191  15.2176  3.010771
  7018.670  7018.680  0.500  2.304790  152.188  15.1852  3.005958
  7019.943  7019.950  0.500  2.300538  152.179  15.2491  3.027809
  7021.231  7021.240  0.500  2.290819  152.167  15.3968  3.072467
  7022.542  7022.550  0.500  2.276921  152.164  15.6119  3.134690
  7023.877  7023.880  0.500  2.260672  152.137  15.8649  3.208875
  7025.229  7025.230  0.500  2.243884  152.138  16.1336  3.286901
  7026.600  7026.600  0.500  2.228299  152.128  16.386  3.362506
  7027.981  7027.980  0.500  2.215337  152.126  16.5995  3.429248
  7029.399  7029.390  0.500  2.205107  152.121  16.7696  3.484938
  7030.823  7030.810  0.500  2.197309  152.108  16.8994  3.528487
  7032.259  7032.250  0.500  2.191999  152.084  16.9868  3.561220
  7033.719  7033.710  0.500  2.188134  152.062  17.05  3.586098
  7035.195  7035.190  0.500  2.186196  152.054  17.0823  3.603413
  7036.694  7036.690  0.500  2.185556  152.051  17.0928  3.614420
  7038.223  7038.210  0.500  2.185597  152.653  17.1598  3.634729
  7039.753  7039.750  0.500  2.185330  152.666  17.1659  3.640510
  7041.320  7041.310  0.500  2.184502  152.649  17.1781  3.647508
  7042.884  7042.880  0.500  2.183559  152.635  17.1928  3.652193
  7044.484  7044.480  0.500  2.182399  152.629  17.2121  3.657224
  7046.096  7046.090  0.500  2.181053  152.616  17.2338  3.660723
  7047.739  7047.730  0.500  2.179991  152.588  17.249  3.661412
  7049.385  7049.380  0.500  2.178946  152.574  17.2653  3.660839
  7051.055  7051.050  0.500  2.177923  152.561  17.2816  3.658790
  7052.753  7052.740  0.500  2.177399  152.561  17.2906  3.655381
  7054.452  7054.450  0.500  2.177672  152.563  17.2862  3.647912
  7056.190  7056.180  0.500  2.179046  152.562  17.2623  3.637508
  7057.939  7057.930  0.500  2.181220  152.556  17.2241  3.623291
  7059.704  7059.690  0.500  2.183545  152.567  17.1854  3.611457
  7061.488  7061.480  0.500  2.184704  152.574  17.1663  3.604209
  7063.289  7063.280  0.500  2.184504  151.904  17.0943  3.588373
  7065.116  7065.110  0.500  2.183548  152.453  17.1725  3.605162
  7066.956  7066.950  0.500  2.182904  152.466  17.185  3.610369
  7068.821  7068.810  0.500  2.182893  152.423  17.1803  3.612791
  7070.699  7070.690  0.500  2.183694  152.114  17.1317  3.607973
  7072.605  7072.590  0.500  2.184403  152.397  17.1515  3.617663
  7074.525  7074.510  0.500  2.184485  152.188  17.1266  3.618766
  7076.467  7076.450  0.500  2.183961  152.239  17.1413  3.627646
  7078.417  7078.410  0.500  2.183025  152.342  17.1689  3.639899
  7080.390  7080.380  0.500  2.181756  152.358  17.1926  3.650351
  7082.394  7082.380  0.500  2.179644  151.928  17.1803  3.653594
  7084.397  7084.390  0.500  2.176768  152.163  17.2564  3.676319
  7086.434  7086.420  0.500  2.173435  152.245  17.3234  3.695852
  7088.488  7088.480  0.500  2.169743  152.248  17.3877  3.716369
  7090.561  7090.550  0.500  2.165853  152.219  17.4522  3.736732
  7092.647  7092.640  0.500  2.161489  152.188  17.525  3.759177
  7094.763  7094.750  0.500  2.156905  152.173  17.6038  3.785069
  7096.893  7096.880  0.500  2.151438  152.153  17.698  3.814203
  7099.024  7099.020  0.500  2.145643  152.149  17.8003  3.845536
  7101.206  7101.190  0.500  2.139765  152.123  17.9022  3.877956
  7103.389  7103.380  0.500  2.134680  152.115  17.9925  3.906886
  7105.587  7105.580  0.500  2.130759  152.105  18.0621  3.932601
  7107.813  7107.800  0.500  2.128547  152.066  18.0973  3.949567
  7110.061  7110.050  0.500  2.127226  152.01  18.1147  3.958303
  7112.318  7112.310  0.500  2.127325  151.823  18.0906  3.956285
  7114.603  7114.590  0.500  2.128173  151.729  18.0641  3.950790
  7116.902  7116.890  0.500  2.129978  151.687  18.0265  3.940303
  7119.222  7119.210  0.500  2.131230  151.583  17.9916  3.930444
  7121.563  7121.550  0.500  2.131621  151.487  17.9732  3.924419
  7123.912  7123.900  0.500  2.132981  151.407  17.9392  3.914629
  7126.290  7126.280  0.500  2.133604  151.289  17.9141  3.907413
  7128.688  7128.670  0.500  2.132409  151.134  17.9171  3.906912
  7131.100  7131.090  0.500  2.130743  150.942  17.9243  3.908595
  7133.531  7133.520  0.500  2.127309  150.872  17.9776  3.921390
  7135.981  7135.970  0.500  2.122739  150.866  18.0592  3.943063
  7138.465  7138.450  0.500  2.118227  150.859  18.14  3.968074
  7140.945  7140.940  0.500  2.114318  150.862  18.2114  3.990969
  7143.465  7143.450  0.500  2.111024  150.873  18.2728  4.014878
  7145.985  7145.970  0.500  2.107853  150.879  18.3315  4.039146
  7148.528  7148.520  0.500  2.105045  150.869  18.3819  4.061677
  7151.100  7151.090  0.500  2.103126  150.855  18.4156  4.079463
  7153.675  7153.670  0.500  2.102229  150.834  18.4295  4.090095
  7156.294  7156.280  0.500  2.100978  150.819  18.4507  4.102242
  7158.910  7158.900  0.500  2.100292  150.797  18.4607  4.110494
  7161.559  7161.550  0.500  2.099304  150.753  18.4736  4.118141
  7164.219  7164.210  0.500  2.097921  150.69  18.4913  4.126881
  7166.900  7166.890  0.500  2.096759  150.625  18.5049  4.134257
  7169.605  7169.590  0.500  2.094879  150.568  18.5326  4.145514
  7172.321  7172.310  0.500  2.092313  150.506  18.5727  4.158649
  7175.063  7175.050  0.500  2.088975  150.446  18.6273  4.176722
  7177.805  7177.800  0.500  2.085226  150.42  18.6941  4.196810
  7180.587  7180.580  0.500  2.081020  150.373  18.7669  4.220089
  7183.375  7183.370  0.500  2.076483  150.338  18.8479  4.245666
  7186.200  7186.190  0.500  2.072406  150.298  18.9199  4.270547
  7189.028  7189.020  0.500  2.068808  150.286  18.9866  4.294597
  7191.876  7191.870  0.500  2.064937  147.96  18.7652  4.253441
  7194.754  7194.750  0.500  2.061108  150.051  19.1034  4.340067
  7197.651  7197.640  0.500  2.057745  150.043  19.1667  4.362546
  7200.556  7200.550  0.500  2.055902  150.001  19.1968  4.377828
  7203.477  7203.470  0.500  2.054073  149.943  19.2245  4.390733
  7206.427  7206.420  0.500  2.052310  149.871  19.2492  4.402211
  7209.399  7209.390  0.500  2.050596  149.784  19.271  4.412332
  7212.379  7212.370  0.500  2.048987  149.714  19.293  4.420226
  7215.387  7215.380  0.500  2.047267  149.664  19.3197  4.430461
  7218.405  7218.400  0.500  2.045440  149.581  19.3443  4.440258
  7221.456  7221.450  0.500  2.043112  149.525  19.3821  4.452587
  7224.514  7224.510  0.500  2.040538  149.436  19.4205  4.467917
  7227.602  7227.590  0.500  2.037523  147.21  19.189  4.420400
  7230.701  7230.690  0.500  2.034451  149.464  19.5428  4.509166
  7233.821  7233.810  0.500  2.031442  149.389  19.5918  4.528007
  7236.961  7236.950  0.500  2.028435  149.324  19.6423  4.548971
  7240.107  7240.100  0.500  2.024913  149.269  19.7043  4.571737
  7243.291  7243.280  0.500  2.021038  149.19  19.7703  4.597993
  7246.482  7246.470  0.500  2.017315  148.954  19.8126  4.616519
  7249.705  7249.690  0.500  2.014388  149.029  19.8807  4.642183
  7252.934  7252.920  0.500  2.011725  148.782  19.9008  4.656731
  7256.183  7256.170  0.500  2.009797  149.086  19.9798  4.685378
  7259.458  7259.450  0.500  2.007885  148.847  19.9861  4.696783
  7262.747  7262.740  0.500  2.005975  147.19  19.8013  4.661100
  7266.057  7266.050  0.500  2.003563  148.45  20.019  4.720881
  7269.377  7269.370  0.500  2.000902  149.247  20.1802  4.766655
  7272.734  7272.720  0.500  1.997692  149.002  20.2118  4.781122
  7276.103  7276.090  0.500  1.994107  149.254  20.3187  4.812946
  7279.489  7279.470  0.500  1.990503  149.167  20.3802  4.834685
  7282.894  7282.880  0.500  1.986722  149.056  20.4421  4.856997
  7286.320  7286.300  0.500  1.983369  148.837  20.4808  4.875545
  7289.758  7289.750  0.500  1.980120  148.906  20.5569  4.902230
  7293.241  7293.210  0.500  1.976787  148.849  20.6176  4.928021
  7296.702  7296.690  0.500  1.973532  148.776  20.6747  4.953014
  7300.223  7300.190  0.500  1.969723  148.476  20.7117  4.971196
  7303.741  7303.710  0.500  1.965650  148.787  20.8398  5.014142
  7307.267  7307.250  0.500  1.961551  148.686  20.9113  5.040751
  7310.817  7310.800  0.500  1.958084  148.619  20.9743  5.065045
  7314.394  7314.380  0.500  1.954670  148.524  21.0327  5.088038
  7317.992  7317.980  0.500  1.951707  148.452  21.0848  5.110200
  7321.610  7321.590  0.500  1.948686  148.374  21.1375  5.131523
  7325.256  7325.220  0.500  1.945946  148.301  21.1851  5.152867
  7328.895  7328.880  0.500  1.943383  148.221  21.228  5.173430
  7332.565  7332.550  0.500  1.940460  148.142  21.2788  5.192768
  7336.271  7336.240  0.500  1.938101  148.089  21.3214  5.212000
  7339.970  7339.950  0.500  1.935260  147.264  21.2629  5.207876
  7343.711  7343.680  0.500  1.931956  147.848  21.4179  5.254967
  7347.454  7347.420  0.500  1.928529  147.797  21.4841  5.281375
  7351.222  7351.190  0.500  1.925165  147.73  21.5467  5.307133
  7354.984  7354.980  0.500  1.921848  147.655  21.6073  5.332271
  7358.803  7358.780  0.500  1.918439  147.572  21.6689  5.358381
  7362.618  7362.610  0.500  1.914664  147.499  21.74  5.387494
  7366.473  7366.450  0.500  1.910778  147.406  21.811  5.416693
  7370.325  7370.310  0.500  1.906704  147.338  21.8898  5.448053
  7374.208  7374.190  0.500  1.902700  147.243  21.9635  5.479628
  7378.117  7378.090  0.500  1.898985  147.129  22.0282  5.508434
  7382.012  7382.010  0.500  1.895321  147.051  22.0974  5.536938
  7385.970  7385.950  0.500  1.892224  146.952  22.1509  5.562888
  7389.913  7389.910  0.500  1.888724  146.879  22.2176  5.591056
  7393.896  7393.880  0.500  1.885275  146.799  22.2823  5.619319
  7397.904  7397.880  0.500  1.881663  146.707  22.3488  5.647401
  7401.908  7401.890  0.500  1.878076  146.602  22.4131  5.675279
  7405.927  7405.930  0.500  1.874452  146.506  22.4797  5.703491
  7409.970  7409.980  0.500  1.871209  146.407  22.5376  5.730635
  7414.038  7414.050  0.500  1.867854  146.303  22.5972  5.757229
  7418.172  7418.140  0.500  1.864109  146.186  22.6638  5.784101
  7422.261  7422.250  0.500  1.860262  146.082  22.7351  5.813908
  7426.397  7426.380  0.500  1.856528  145.981  22.8043  5.842576
  7430.536  7430.530  0.500  1.852828  145.866  22.8707  5.872541
  7434.696  7434.690  0.500  1.849485  145.764  22.9313  5.901135
  7438.887  7438.880  0.500  1.845451  145.628  23.0026  5.932950
  7443.085  7443.080  0.500  1.841279  145.429  23.0672  5.962587
  7447.316  7447.310  0.500  1.836934  145.494  23.1779  6.004576
  7451.557  7451.550  0.500  1.832931  145.187  23.2218  6.028730
  7455.824  7455.810  0.500  1.828873  145.223  23.322  6.067989
  7460.106  7460.090  0.500  1.824858  143.197  23.0892  6.021053
  7464.398  7464.390  0.500  1.821133  144.951  23.4593  6.132126
  7468.716  7468.710  0.500  1.817254  144.898  23.5417  6.168329
  7473.065  7473.050  0.500  1.813707  144.816  23.6121  6.201159
  7477.425  7477.410  0.500  1.809918  144.655  23.6754  6.231446
  7481.809  7481.790  0.500  1.806219  144.531  23.7427  6.263325
  7486.193  7486.180  0.500  1.802771  144.376  23.7992  6.291190
  7490.614  7490.600  0.500  1.799468  144.227  23.8533  6.318802
  7495.043  7495.030  0.500  1.796024  144.119  23.9176  6.349121
  7499.493  7499.480  0.500  1.792231  143.977  23.9849  6.379816
  7503.966  7503.950  0.500  1.788366  143.835  24.0539  6.410804
  7508.464  7508.440  0.500  1.784312  143.672  24.1243  6.444279
  7512.968  7512.950  0.500  1.780107  143.516  24.1997  6.480231
  7517.477  7517.480  0.500  1.775736  143.379  24.2824  6.516587
  7522.044  7522.030  0.500  1.771313  143.239  24.3664  6.555598
  7526.618  7526.600  0.500  1.766897  143.092  24.449  6.594217
  7531.197  7531.180  0.500  1.762633  142.945  24.5283  6.631026
  7535.779  7535.790  0.500  1.758273  142.772  24.6057  6.670279
  7540.418  7540.410  0.500  1.754314  142.624  24.6776  6.705435
  7545.047  7545.060  0.500  1.750027  142.447  24.7529  6.743049
  7549.736  7549.720  0.500  1.746074  142.303  24.8258  6.779663
  7554.379  7554.400  0.500  1.742018  142.133  24.897  6.815668
  7559.125  7559.100  0.500  1.737589  141.974  24.9795  6.853399
  7563.838  7563.820  0.500  1.733257  141.822  25.061  6.891614
  7568.537  7568.560  0.500  1.729003  141.676  25.142  6.929039
  7573.284  7573.310  0.500  1.725142  141.505  25.2088  6.962023
  7578.069  7578.090  0.500  1.721375  141.318  25.2705  6.997010
  7582.868  7582.890  0.500  1.717584  141.147  25.3358  7.027204
  7587.680  7587.700  0.500  1.713960  140.933  25.3893  7.056309
  7592.509  7592.530  0.500  1.710820  140.839  25.452  7.089581