File: xdidata/Eu/Eu-L1-EuTiO3.xdi
# XDI/1.0 BlueSky/1.10.0 BMM/2023-1.0-py310-tiled
# Beamline.name: BMM (06BM) -- Beamline for Materials Measurement (NIST)
# Beamline.xray_source: NSLS-II three-pole wiggler
# Beamline.collimation: paraboloid mirror, 5 nm Rh on 30 nm Pt
# Beamline.focusing: not in use
# Beamline.harmonic_rejection: flat mirror, Pt stripe, pitch = 7.0 mrad relative to beam
# Beamline.software: Bluesky 1.10.0, Ophyd 1.7.0, DataBroker 2.0.0b13, Python 3.10.8, 2023-1.0-py310-tiled
# Detector.I0: 10 cm N2
# Detector.I1: 25 cm N2
# Detector.I2: 25 cm N2
# Element.symbol: Eu
# Element.edge: L1
# Element.reference: Eu
# Element.reference_material: Eu2O3
# Facility.name: NSLS-II
# Facility.energy: 3.0
# Facility.current: 399.7
# Facility.mode: top-off
# Facility.GUP: 123456
# Facility.SAF: 301027
# Facility.cycle: 2023-2
# Mono.name: Si(111)
# Mono.d_spacing: 3.13519
# Mono.encoder_resolution: 0.0000050 deg/ct
# Mono.angle_offset: 16.0754 deg
# Mono.scan_mode: pseudo channel cut
# Mono.scan_type: step
# Mono.direction: forward in energy
# Sample.name: EuTiO3
# Sample.prep: powder on tape
# Sample.x: 123.848 mm
# Sample.y: 114.690 mm
# Sample.SDD_position: 205.000 mm
# Scan.experimenters: Bruce Ravel
# Scan.edge_energy: 8052.0
# Scan.start_time: 2023-05-08T21:16:24
# Scan.end_time: 2023-05-08T21:22:07
# Scan.transient_id: 75620
# Scan.uid: 0175248d-1dd9-40d1-bf32-ab81e7edd67c
# Scan.plot_hint: ln(I0/It)  --  ln($5/$6)
# Column.1: energy eV
# Column.2: requested_energy eV
# Column.3: measurement_time seconds
# Column.4: xmu
# Column.5: I0 nA
# Column.6: It nA
# Column.7: Ir nA
# ///////////
# material made by Fatih Dogan
# -----------
# energy  requested_energy  measurement_time  xmu  I0  It  Ir
  7852.003  7852.000  0.500  0.478305  135.768  84.1535  22.7053
  7862.010  7862.000  0.500  0.473595  135.557  84.4195  22.8459
  7872.022  7872.000  0.500  0.469511  135.36  84.6414  22.9934
  7882.060  7882.000  0.500  0.465963  135.179  84.8291  23.1484
  7892.101  7892.000  0.500  0.462166  134.937  84.9992  23.3049
  7902.040  7902.000  0.500  0.458026  134.766  85.2439  23.4784
  7912.065  7912.000  0.500  0.453668  134.572  85.4927  23.6401
  7922.016  7922.000  0.500  0.449351  134.369  85.7329  23.794
  7932.014  7932.000  0.500  0.445387  134.078  85.8869  23.9384
  7942.036  7942.000  0.500  0.441776  134.062  86.1874  24.1296
  7952.019  7952.000  0.500  0.437794  133.552  86.2023  24.2323
  7962.018  7962.000  0.500  0.434047  133.526  86.509  24.4164
  7972.021  7972.000  0.500  0.430219  133.285  86.6841  24.5518
  7982.025  7982.000  0.500  0.426410  133.051  86.8623  24.6917
  7992.014  7992.000  0.500  0.422453  132.845  87.0714  24.846
  8002.015  8002.000  0.500  0.418375  132.586  87.2571  24.9972
  8011.987  8012.000  0.500  0.415007  132.43  87.4483  25.1527
  8022.010  8022.000  0.500  0.411599  132.388  87.7192  25.3282
  8024.009  8024.000  0.500  0.411055  132.306  87.7126  25.3414
  8026.001  8026.000  0.500  0.410189  132.248  87.7497  25.372
  8028.001  8028.000  0.500  0.409490  132.191  87.7733  25.3961
  8030.001  8030.000  0.500  0.408773  132.152  87.8107  25.4236
  8031.995  8032.000  0.500  0.408099  132.092  87.8297  25.4439
  8033.999  8034.000  0.500  0.407496  132.025  87.838  25.4622
  8035.996  8036.000  0.500  0.407122  131.968  87.8329  25.4745
  8037.994  8038.000  0.500  0.406697  131.911  87.8327  25.4901
  8040.001  8040.000  0.500  0.406397  131.881  87.8387  25.5058
  8041.998  8042.000  0.500  0.406438  131.818  87.7934  25.4997
  8042.479  8042.500  0.500  0.406382  131.757  87.7578  25.4907
  8042.977  8043.000  0.500  0.406707  131.769  87.7371  25.4878
  8043.481  8043.500  0.500  0.406669  131.743  87.7229  25.4838
  8043.979  8044.000  0.500  0.406776  131.75  87.7183  25.4871
  8044.483  8044.500  0.500  0.406971  131.75  87.7013  25.482
  8044.981  8045.000  0.500  0.407275  131.699  87.6407  25.4635
  8045.483  8045.500  0.500  0.407644  131.679  87.5951  25.4512
  8045.984  8046.000  0.500  0.408113  131.667  87.5457  25.4354
  8046.485  8046.500  0.500  0.408814  131.638  87.4656  25.4121
  8046.987  8047.000  0.500  0.409641  131.6  87.3676  25.3836
  8047.480  8047.500  0.500  0.410492  131.567  87.2712  25.3544
  8047.979  8048.000  0.500  0.411289  131.57  87.2039  25.332
  8048.480  8048.500  0.500  0.412388  131.537  87.0866  25.2931
  8048.982  8049.000  0.500  0.413368  131.523  86.9921  25.2573
  8049.483  8049.500  0.500  0.414703  131.493  86.8556  25.2143
  8049.993  8050.000  0.500  0.416051  131.439  86.7034  25.1638
  8050.487  8050.500  0.500  0.417814  131.424  86.5406  25.1092
  8050.992  8051.000  0.500  0.419677  131.384  86.3533  25.042
  8051.488  8051.500  0.500  0.421770  131.387  86.175  24.9788
  8051.993  8052.000  0.500  0.423824  131.399  86.006  24.9138
  8052.487  8052.500  0.500  0.425690  131.359  85.8195  24.8393
  8052.986  8053.000  0.500  0.427484  131.326  85.6443  24.7662
  8053.485  8053.500  0.500  0.429241  131.29  85.4701  24.6862
  8053.985  8054.000  0.500  0.431575  131.472  85.3892  24.627
  8054.485  8054.500  0.500  0.434017  131.73  85.3478  24.5718
  8054.990  8055.000  0.500  0.436937  131.685  85.07  24.4514
  8055.492  8055.500  0.500  0.440089  131.574  84.7306  24.3123
  8055.995  8056.000  0.500  0.443483  131.523  84.4114  24.178
  8056.489  8056.500  0.500  0.446936  131.38  84.0288  24.0325
  8056.992  8057.000  0.500  0.449739  131.112  83.6226  23.8818
  8057.489  8057.500  0.500  0.451651  130.397  83.0074  23.6742
  8057.992  8058.000  0.500  0.452606  127.667  81.1922  23.1263
  8058.492  8058.500  0.500  0.452637  125.927  80.0829  22.7791
  8058.989  8059.000  0.500  0.451591  127.796  81.3567  23.1038
  8059.489  8059.500  0.500  0.449906  130.971  83.5184  23.6805
  8059.992  8060.000  0.500  0.447731  131.858  84.2672  23.8541
  8060.487  8060.500  0.500  0.444991  131.88  84.5126  23.8838
  8060.996  8061.000  0.500  0.442124  131.84  84.7296  23.8992
  8061.499  8061.500  0.500  0.439079  131.847  84.9927  23.9242
  8061.997  8062.000  0.500  0.436001  131.807  85.2287  23.9335
  8062.495  8062.500  0.500  0.433080  131.791  85.4673  23.9398
  8062.993  8063.000  0.500  0.430785  131.74  85.6306  23.9181
  8063.493  8063.500  0.500  0.428766  131.725  85.7944  23.8931
  8063.989  8064.000  0.500  0.427223  131.7  85.9104  23.8555
  8064.495  8064.500  0.500  0.425847  131.68  86.0157  23.8067
  8064.990  8065.000  0.500  0.424866  131.614  86.0567  23.7405
  8065.494  8065.500  0.500  0.424062  131.572  86.0985  23.6767
  8065.998  8066.000  0.500  0.423659  131.556  86.1228  23.6124
  8066.499  8066.500  0.500  0.423331  131.5  86.1142  23.5472
  8067.003  8067.000  0.500  0.423274  131.469  86.099  23.486
  8067.496  8067.500  0.500  0.423497  131.413  86.0429  23.4239
  8068.000  8068.000  0.500  0.423649  131.347  85.9866  23.3692
  8068.501  8068.500  0.500  0.424155  131.205  85.8504  23.3041
  8069.003  8069.000  0.500  0.424654  130.798  85.5413  23.2013
  8069.496  8069.500  0.500  0.425085  128.992  84.3237  22.856
  8069.995  8070.000  0.500  0.425360  126.002  82.3466  22.3154
  8070.496  8070.500  0.500  0.425471  127.026  83.0066  22.4921
  8071.001  8071.000  0.500  0.425698  130.072  84.9775  23.0275
  8071.500  8071.500  0.500  0.425746  131.32  85.789  23.2528
  8072.007  8072.000  0.500  0.425663  131.441  85.8749  23.2851
  8072.503  8072.500  0.500  0.425530  131.43  85.8792  23.2979
  8073.005  8073.000  0.500  0.425199  131.429  85.907  23.3138
  8073.507  8073.500  0.500  0.424993  131.414  85.9151  23.329
  8074.001  8074.000  0.500  0.424805  131.362  85.8969  23.3376
  8074.500  8074.500  0.500  0.424493  131.339  85.9087  23.3544
  8074.994  8075.000  0.500  0.424268  131.32  85.9157  23.3668
  8075.494  8075.500  0.500  0.424043  131.25  85.8897  23.3741
  8075.999  8076.000  0.500  0.423748  131.215  85.8921  23.3868
  8076.498  8076.500  0.500  0.423280  131.19  85.9157  23.4064
  8077.004  8077.000  0.500  0.422943  131.098  85.8847  23.4138
  8077.998  8077.990  0.500  0.422220  130.719  85.6978  23.3905
  8079.006  8078.990  0.500  0.421595  126.612  83.0572  22.7014
  8080.017  8080.010  0.500  0.421319  128.785  84.5059  23.134
  8081.059  8081.060  0.500  0.421258  131.14  86.057  23.6006
  8082.124  8082.120  0.500  0.421477  131.198  86.0763  23.6536
  8083.209  8083.200  0.500  0.421671  131.169  86.0402  23.6994
  8084.302  8084.300  0.500  0.422011  131.111  85.9731  23.7348
  8085.429  8085.420  0.500  0.422576  131.044  85.8808  23.7704
  8086.574  8086.560  0.500  0.423034  130.94  85.7731  23.7979
  8087.724  8087.710  0.500  0.423689  130.916  85.7013  23.8319
  8088.897  8088.890  0.500  0.424112  130.748  85.5547  23.8359
  8090.087  8090.080  0.500  0.424223  130.291  85.2463  23.7889
  8091.314  8091.300  0.500  0.423970  125.336  82.0253  22.9263
  8092.536  8092.530  0.500  0.423301  130.19  85.259  23.8574
  8093.786  8093.780  0.500  0.422000  131.06  85.9403  24.0787
  8095.057  8095.050  0.500  0.420660  131.013  86.0248  24.1244
  8096.350  8096.340  0.500  0.419178  130.914  86.0875  24.1576
  8097.655  8097.650  0.500  0.418159  130.936  86.1896  24.198
  8098.988  8098.980  0.500  0.417376  130.828  86.1863  24.1994
  8100.347  8100.330  0.500  0.417259  130.812  86.1856  24.2007
  8101.715  8101.700  0.500  0.417654  130.777  86.1284  24.1739
  8103.089  8103.080  0.500  0.418042  130.717  86.0555  24.1444
  8104.502  8104.490  0.500  0.418057  130.672  86.0249  24.1268
  8105.931  8105.910  0.500  0.417904  130.627  86.008  24.1094
  8107.354  8107.350  0.500  0.417043  130.561  86.0389  24.1038
  8108.820  8108.810  0.500  0.415658  130.554  86.1536  24.1245
  8110.304  8110.290  0.500  0.414105  130.525  86.268  24.1422
  8111.799  8111.790  0.500  0.412766  130.48  86.3537  24.1581
  8113.317  8113.310  0.500  0.411017  130.414  86.4611  24.1789
  8114.864  8114.850  0.500  0.409559  130.42  86.5915  24.2054
  8116.423  8116.410  0.500  0.408269  130.345  86.6531  24.22
  8117.986  8117.980  0.500  0.407237  130.344  86.7421  24.2431
  8119.600  8119.580  0.500  0.406338  130.293  86.7863  24.2603
  8121.197  8121.190  0.500  0.406133  130.248  86.7743  24.2672
  8122.841  8122.830  0.500  0.405653  130.223  86.799  24.2894
  8124.488  8124.480  0.500  0.405337  130.163  86.7864  24.3073
  8126.161  8126.150  0.500  0.405355  130.1  86.7429  24.3195
  8127.846  8127.840  0.500  0.405403  130.063  86.7139  24.3431
  8129.569  8129.550  0.500  0.405488  130.013  86.6733  24.3682
  8131.286  8131.280  0.500  0.405855  129.993  86.6281  24.3909
  8133.042  8133.030  0.500  0.406073  129.925  86.5638  24.4102
  8134.806  8134.790  0.500  0.406031  129.894  86.5473  24.4407
  8136.594  8136.580  0.500  0.405504  129.841  86.5572  24.4743
  8138.397  8138.380  0.500  0.404660  129.78  86.5899  24.5104
  8140.218  8140.210  0.500  0.403874  129.728  86.623  24.5469
  8142.062  8142.050  0.500  0.403128  129.681  86.6559  24.5796
  8143.925  8143.910  0.500  0.402214  129.621  86.6954  24.6104
  8145.794  8145.790  0.500  0.401314  129.587  86.7507  24.6453
  8147.706  8147.690  0.500  0.400244  129.56  86.8253  24.6832
  8149.622  8149.610  0.500  0.398983  129.454  86.8639  24.7083
  8151.562  8151.550  0.500  0.397885  129.375  86.9061  24.7421
  8153.523  8153.510  0.500  0.397181  129.363  86.9593  24.7766
  8155.484  8155.480  0.500  0.396583  129.321  86.9828  24.8072
  8157.501  8157.480  0.500  0.395969  129.262  86.9971  24.8354
  8159.496  8159.490  0.500  0.395116  129.219  87.0423  24.8694
  8161.535  8161.520  0.500  0.394091  129.177  87.1033  24.9148
  8163.581  8163.580  0.500  0.392888  129.124  87.1722  24.9578
  8165.667  8165.650  0.500  0.391520  129.088  87.2669  25.0091
  8167.749  8167.740  0.500  0.390298  129.043  87.3434  25.0534
  8169.861  8169.850  0.500  0.389473  128.971  87.3666  25.0792
  8171.991  8171.980  0.500  0.388660  128.941  87.4176  25.1133
  8174.130  8174.120  0.500  0.387804  128.855  87.4342  25.1356
  8176.309  8176.290  0.500  0.386841  128.815  87.491  25.169
  8178.493  8178.480  0.500  0.386033  128.745  87.5145  25.192
  8180.697  8180.680  0.500  0.385552  128.693  87.5206  25.2098
  8182.907  8182.900  0.500  0.385323  128.602  87.4788  25.2075
  8185.170  8185.150  0.500  0.384987  128.572  87.4884  25.2201
  8187.423  8187.410  0.500  0.384594  128.481  87.4604  25.2266
  8189.706  8189.690  0.500  0.384142  128.472  87.4942  25.2528
  8191.994  8191.990  0.500  0.383665  128.417  87.4981  25.2745
  8194.322  8194.310  0.500  0.383208  128.332  87.48  25.2943
  8196.658  8196.650  0.500  0.382371  128.279  87.5171  25.3303
  8199.022  8199.000  0.500  0.381347  128.223  87.5686  25.3722
  8201.389  8201.380  0.500  0.380208  128.137  87.6097  25.4126
  8203.787  8203.770  0.500  0.378881  128.137  87.726  25.4763
  8206.203  8206.190  0.500  0.377714  128.07  87.7823  25.5244
  8208.636  8208.620  0.500  0.376494  127.983  87.8301  25.5664
  8211.087  8211.070  0.500  0.375550  127.927  87.8747  25.6108
  8213.563  8213.550  0.500  0.374516  127.867  87.9241  25.6599
  8216.052  8216.040  0.500  0.373500  127.794  87.9634  25.6999
  8218.562  8218.550  0.500  0.372537  127.708  87.9888  25.7317
  8221.095  8221.070  0.500  0.371546  127.651  88.0366  25.771
  8223.632  8223.620  0.500  0.370386  127.615  88.114  25.814
  8226.211  8226.190  0.500  0.369640  127.529  88.12  25.8382
  8228.784  8228.770  0.500  0.368451  127.475  88.1879  25.8763
  8231.395  8231.380  0.500  0.367450  127.414  88.2336  25.9129
  8234.023  8234.000  0.500  0.366707  127.332  88.2425  25.9368
  8236.664  8236.650  0.500  0.365787  127.292  88.2959  25.9762
  8239.331  8239.310  0.500  0.365110  127.212  88.3004  26.0049
  8242.004  8241.990  0.500  0.364598  127.133  88.2905  26.0269
  8244.712  8244.690  0.500  0.364095  127.044  88.273  26.0502
  8247.427  8247.410  0.500  0.363172  126.937  88.2808  26.0823
  8250.165  8250.150  0.500  0.361980  126.862  88.3339  26.1256
  8252.916  8252.900  0.500  0.360816  126.791  88.3867  26.1728
  8255.696  8255.680  0.500  0.359911  126.735  88.4278  26.2145
  8258.486  8258.470  0.500  0.358837  126.683  88.4867  26.2642
  8261.313  8261.290  0.500  0.357940  126.623  88.5239  26.3044
  8264.130  8264.120  0.500  0.356882  126.545  88.5634  26.3462
  8267.002  8266.970  0.500  0.355536  126.411  88.5887  26.3847
  8269.850  8269.850  0.500  0.354483  126.359  88.6452  26.4251
  8272.749  8272.740  0.500  0.353173  126.323  88.736  26.4784
  8275.666  8275.650  0.500  0.352032  126.242  88.7809  26.5155
  8278.573  8278.570  0.500  0.350946  124.697  87.7896  26.2451
  8281.534  8281.520  0.500  0.349836  125.988  88.7966  26.5718
  8284.507  8284.490  0.500  0.348772  125.938  88.8563  26.6156
  8287.479  8287.470  0.500  0.347901  125.868  88.8838  26.6527
  8290.492  8290.480  0.500  0.346971  125.775  88.9014  26.6908
  8293.512  8293.500  0.500  0.345923  125.686  88.9313  26.7296
  8296.559  8296.550  0.500  0.345041  125.622  88.9643  26.7731
  8299.625  8299.610  0.500  0.344026  125.517  88.98  26.8113
  8302.703  8302.690  0.500  0.343020  125.429  89.0078  26.8525
  8305.795  8305.790  0.500  0.341817  125.331  89.0448  26.8971
  8308.928  8308.910  0.500  0.340838  125.247  89.0726  26.9377
  8312.069  8312.050  0.500  0.339925  125.152  89.086  26.9773
  8315.210  8315.200  0.500  0.338806  125.051  89.1142  27.0201
  8318.391  8318.380  0.500  0.337610  124.965  89.1591  27.0638
  8321.587  8321.570  0.500  0.336419  124.88  89.205  27.1114
  8324.798  8324.790  0.500  0.335240  124.782  89.24  27.1568
  8328.032  8328.020  0.500  0.333993  124.691  89.286  27.2013
  8331.280  8331.270  0.500  0.333039  124.614  89.316  27.2445
  8334.549  8334.550  0.500  0.331784  124.391  89.2683  27.2591
  8337.844  8337.840  0.500  0.330746  124.24  89.2525  27.2883
  8341.157  8341.150  0.500  0.329528  124.085  89.2496  27.319
  8344.472  8344.470  0.500  0.328227  123.961  89.2769  27.3566
  8347.830  8347.820  0.500  0.326931  123.809  89.2828  27.391
  8351.207  8351.190  0.500  0.325869  123.543  89.1856  27.3985
  8354.585  8354.570  0.500  0.324708  123.357  89.1546  27.4221
  8357.993  8357.980  0.500  0.323737  123.22  89.1422  27.4481
  8361.412  8361.400  0.500  0.322642  123.145  89.186  27.4948
  8364.864  8364.850  0.500  0.321528  123.243  89.3558  27.5848
  8368.307  8368.310  0.500  0.320461  123.677  89.7663  27.7555
  8371.801  8371.790  0.500  0.319128  123.591  89.8241  27.8084
  8375.299  8375.290  0.500  0.317925  123.485  89.8546  27.8526
  8378.820  8378.810  0.500  0.316746  123.367  89.8746  27.8964
  8382.362  8382.350  0.500  0.315443  123.255  89.9102  27.9398
  8385.911  8385.900  0.500  0.314264  123.134  89.9283  27.9746
  8389.495  8389.480  0.500  0.312997  122.978  89.9278  28.0128
  8393.089  8393.080  0.500  0.312015  122.861  89.9303  28.0474
  8396.702  8396.690  0.500  0.311074  122.725  89.9156  28.0771
  8400.338  8400.320  0.500  0.309756  122.649  89.9785  28.1317
  8403.990  8403.980  0.500  0.308512  122.539  90.0097  28.1772
  8407.667  8407.650  0.500  0.307184  122.439  90.0554  28.2271
  8411.353  8411.340  0.500  0.305825  122.325  90.0941  28.2756
  8415.066  8415.050  0.500  0.304716  122.196  90.0993  28.3174
  8418.786  8418.780  0.500  0.303340  122.114  90.1626  28.3736
  8422.531  8422.520  0.500  0.301984  121.995  90.197  28.4239
  8426.312  8426.290  0.500  0.300624  121.884  90.2377  28.4765
  8430.097  8430.080  0.500  0.299427  121.783  90.2709  28.5283
  8433.886  8433.880  0.500  0.298246  121.595  90.2377  28.5581
  8437.733  8437.710  0.500  0.296901  121.547  90.3235  28.6256
  8441.568  8441.550  0.500  0.295592  121.424  90.3507  28.6761
  8445.426  8445.410  0.500  0.294436  121.329  90.384  28.7269
  8449.302  8449.290  0.500  0.293469  121.176  90.3575  28.7598
  8453.210  8453.190  0.500  0.292103  121.068  90.4002  28.8098
  8457.133  8457.110  0.500  0.290806  120.961  90.4379  28.8655
  8461.073  8461.050  0.500  0.289304  120.804  90.4559  28.9085
  8465.025  8465.010  0.500  0.288172  120.73  90.5028  28.9639
  8468.991  8468.980  0.500  0.286941  120.517  90.4546  28.9882
  8473.000  8472.980  0.500  0.285735  120.432  90.4999  29.0455
  8477.020  8476.990  0.500  0.284371  120.286  90.5136  29.0889
  8481.053  8481.030  0.500  0.282922  120.156  90.5471  29.1392
  8485.092  8485.080  0.500  0.281681  120.011  90.5498  29.181
  8489.167  8489.150  0.500  0.280349  119.891  90.5801  29.2305
  8493.261  8493.240  0.500  0.279050  119.743  90.5859  29.2722
  8497.375  8497.350  0.500  0.277709  119.584  90.5868  29.315
  8501.518  8501.480  0.500  0.276466  119.479  90.62  29.3696
  8505.646  8505.630  0.500  0.275054  119.325  90.6309  29.4128
  8509.797  8509.790  0.500  0.273610  119.148  90.6276  29.4569
  8514.002  8513.980  0.500  0.272365  118.938  90.5802  29.4811
  8518.192  8518.180  0.500  0.270976  118.882  90.6637  29.5553
  8522.449  8522.410  0.500  0.269565  118.607  90.5818  29.5708
  8526.670  8526.650  0.500  0.268307  118.012  90.2409  29.4995
  8530.927  8530.910  0.500  0.267090  102.747  78.6632  25.7558
  8535.219  8535.190  0.500  0.265712  118.608  90.9323  29.8139
  8539.506  8539.490  0.500  0.264253  118.493  90.9766  29.8751
  8543.829  8543.810  0.500  0.262955  118.278  90.9293  29.9025
  8548.169  8548.150  0.500  0.261561  118.143  90.9526  29.9553
  8552.529  8552.510  0.500  0.260257  117.977  90.9429  29.9917
  8556.900  8556.890  0.500  0.258903  117.812  90.9385  30.0355
  8561.301  8561.280  0.500  0.257619  117.659  90.9378  30.0782
  8565.719  8565.700  0.500  0.256193  117.522  90.9615  30.1284
  8570.155  8570.130  0.500  0.254789  117.372  90.9726  30.1811
  8574.595  8574.580  0.500  0.253346  117.22  90.9864  30.2269
  8579.075  8579.050  0.500  0.251968  116.994  90.9363  30.2567
  8583.559  8583.540  0.500  0.250555  116.864  90.9634  30.313
  8588.067  8588.050  0.500  0.249144  116.685  90.9524  30.3558
  8592.596  8592.580  0.500  0.247648  105.282  82.1867  27.4734
  8597.149  8597.130  0.500  0.246382  115.613  90.3662  30.2567