File: xdidata/Eu/Eu-L3-EuTiO3.xdi
# XDI/1.0 BlueSky/1.10.0 BMM/2023-1.0-py310-tiled
# Beamline.name: BMM (06BM) -- Beamline for Materials Measurement (NIST)
# Beamline.xray_source: NSLS-II three-pole wiggler
# Beamline.collimation: paraboloid mirror, 5 nm Rh on 30 nm Pt
# Beamline.focusing: not in use
# Beamline.harmonic_rejection: flat mirror, Si stripe, pitch = 7.0 mrad relative to beam
# Beamline.software: Bluesky 1.10.0, Ophyd 1.7.0, DataBroker 2.0.0b13, Python 3.10.8, 2023-1.0-py310-tiled
# Detector.I0: 10 cm N2
# Detector.I1: 25 cm N2
# Detector.I2: 25 cm N2
# Element.symbol: Eu
# Element.edge: L3
# Element.reference: Eu
# Element.reference_material: Eu2O3
# Facility.name: NSLS-II
# Facility.energy: 3.0
# Facility.current: 400.6
# Facility.mode: top-off
# Facility.GUP: 123456
# Facility.SAF: 301027
# Facility.cycle: 2023-2
# Mono.name: Si(111)
# Mono.d_spacing: 3.13519
# Mono.encoder_resolution: 0.0000050 deg/ct
# Mono.angle_offset: 16.0754 deg
# Mono.scan_mode: pseudo channel cut
# Mono.scan_type: step
# Mono.direction: forward in energy
# Sample.name: EuTiO3
# Sample.prep: powder on tape
# Sample.x: 123.848 mm
# Sample.y: 114.690 mm
# Sample.SDD_position: 205.000 mm
# Scan.experimenters: Bruce Ravel
# Scan.edge_energy: 6976.9
# Scan.start_time: 2023-05-08T17:40:50
# Scan.end_time: 2023-05-08T17:47:00
# Scan.transient_id: 75456
# Scan.uid: fdb6714c-37bf-4ddf-aa4d-784a61bb3ba9
# Scan.plot_hint: ln(I0/It)  --  ln($5/$6)
# Column.1: energy eV
# Column.2: requested_energy eV
# Column.3: measurement_time seconds
# Column.4: xmu
# Column.5: I0 nA
# Column.6: It nA
# Column.7: Ir nA
# ///////////
# material made by Fatih Dogan
# -----------
# energy  requested_energy  measurement_time  xmu  I0  It  Ir
  6776.910  6776.900  0.500  0.805569  151.786  67.8232  16.7636
  6786.913  6786.900  0.500  0.799102  151.95  68.3368  16.9946
  6796.913  6796.900  0.500  0.792643  151.028  68.3625  17.1066
  6806.901  6806.900  0.500  0.786100  151.872  69.1956  17.4196
  6816.962  6816.900  0.500  0.779731  151.913  69.6564  17.6415
  6826.909  6826.900  0.500  0.773561  151.798  70.0344  17.8452
  6836.923  6836.900  0.500  0.767051  152.102  70.6333  18.1035
  6846.912  6846.900  0.500  0.760902  151.758  70.9082  18.2852
  6856.918  6856.900  0.500  0.754561  152.001  71.4733  18.5383
  6866.916  6866.900  0.500  0.748270  152.19  72.0137  18.7889
  6876.916  6876.900  0.500  0.742099  152.37  72.5452  19.0388
  6886.918  6886.900  0.500  0.735990  152.453  73.0297  19.2762
  6896.915  6896.900  0.500  0.729871  152.556  73.5275  19.5186
  6906.910  6906.900  0.500  0.724520  152.587  73.9369  19.7359
  6916.911  6916.900  0.500  0.718358  152.502  74.3527  19.9552
  6926.909  6926.900  0.500  0.712799  152.45  74.7416  20.1647
  6937.714  6936.900  0.500  0.707254  152.395  75.1301  20.3729
  6946.887  6946.900  0.500  0.702715  152.494  75.5207  20.5565
  6948.880  6948.900  0.500  0.701767  152.477  75.5841  20.5843
  6950.887  6950.900  0.500  0.700984  152.472  75.6407  20.6095
  6952.881  6952.900  0.500  0.700336  152.491  75.6996  20.6326
  6954.890  6954.900  0.500  0.699987  152.48  75.7203  20.6408
  6956.884  6956.900  0.500  0.699945  152.461  75.7141  20.6368
  6958.890  6958.900  0.500  0.700399  152.479  75.6884  20.6238
  6960.890  6960.900  0.500  0.701389  152.489  75.6186  20.5846
  6962.896  6962.900  0.500  0.703714  152.492  75.4446  20.507
  6964.891  6964.900  0.500  0.707999  152.491  75.1214  20.3644
  6966.897  6966.900  0.500  0.716914  152.497  74.4577  20.0937
  6967.384  6967.400  0.500  0.720564  152.494  74.1848  19.9902
  6967.883  6967.900  0.500  0.725032  152.493  73.8538  19.863
  6968.381  6968.400  0.500  0.730230  152.48  73.4648  19.7151
  6968.880  6968.900  0.500  0.737205  152.47  72.9491  19.5257
  6969.382  6969.400  0.500  0.745449  152.471  72.3507  19.3078
  6969.885  6969.900  0.500  0.756949  152.468  71.522  19.027
  6970.385  6970.400  0.500  0.771683  152.461  70.4726  18.6943
  6970.885  6970.900  0.500  0.791141  152.452  69.1107  18.2789
  6971.386  6971.400  0.500  0.816878  152.44  67.3495  17.7498
  6971.884  6971.900  0.500  0.850587  152.447  65.12  17.0914
  6972.386  6972.400  0.500  0.891491  152.444  62.5088  16.3203
  6972.886  6972.900  0.500  0.942179  152.445  59.4195  15.4104
  6973.388  6973.400  0.500  1.002908  152.447  55.9192  14.3817
  6973.890  6973.900  0.500  1.067324  152.433  52.426  13.3474
  6974.389  6974.400  0.500  1.120734  152.434  49.6996  12.5148
  6974.889  6974.900  0.500  1.150560  152.428  48.2374  11.9954
  6975.393  6975.400  0.500  1.147807  152.421  48.368  11.8517
  6975.886  6975.900  0.500  1.115146  152.409  49.9701  12.0293
  6976.390  6976.400  0.500  1.066438  152.419  52.4676  12.3654
  6976.893  6976.900  0.500  1.015446  152.413  55.2101  12.6782
  6977.392  6977.400  0.500  0.968802  152.406  57.8439  12.8524
  6977.896  6977.900  0.500  0.929682  152.398  60.1482  12.8103
  6978.395  6978.400  0.500  0.899532  152.391  61.9866  12.5396
  6978.892  6978.900  0.500  0.876138  152.393  63.4547  12.0643
  6979.393  6979.400  0.500  0.857321  152.388  64.6579  11.4126
  6979.888  6979.900  0.500  0.842346  152.393  65.6356  10.6756
  6980.389  6980.400  0.500  0.831532  152.384  66.3451  9.965077
  6980.892  6980.900  0.500  0.823853  152.399  66.8631  9.349229
  6981.389  6981.400  0.500  0.818834  152.392  67.1964  8.833839
  6981.895  6981.900  0.500  0.816222  152.382  67.3679  8.423590
  6982.398  6982.400  0.500  0.815217  152.378  67.4341  8.155013
  6982.896  6982.900  0.500  0.815804  152.385  67.3975  8.040457
  6983.397  6983.400  0.500  0.817322  152.381  67.2934  8.087608
  6983.893  6983.900  0.500  0.819658  152.37  67.1315  8.299448
  6984.392  6984.400  0.500  0.822434  152.357  66.9395  8.651528
  6984.896  6984.900  0.500  0.825674  152.363  66.7256  9.098454
  6985.394  6985.400  0.500  0.829351  152.364  66.4816  9.602718
  6985.898  6985.900  0.500  0.833006  152.355  66.2351  10.1481
  6986.400  6986.400  0.500  0.835835  152.348  66.0446  10.6801
  6986.898  6986.900  0.500  0.837883  152.35  65.9105  11.1696
  6987.398  6987.400  0.500  0.838206  152.348  65.8885  11.6328
  6987.894  6987.900  0.500  0.837148  152.334  65.952  12.0563
  6988.394  6988.400  0.500  0.835348  152.331  66.0693  12.43
  6988.897  6988.900  0.500  0.833230  152.329  66.2089  12.7423
  6989.397  6989.400  0.500  0.831645  152.324  66.3116  12.9971
  6989.896  6989.900  0.500  0.830167  152.324  66.4097  13.2143
  6990.404  6990.400  0.500  0.828714  152.322  66.5056  13.3926
  6990.903  6990.900  0.500  0.828235  152.317  66.5351  13.5202
  6991.400  6991.400  0.500  0.827981  152.323  66.5544  13.6249
  6991.896  6991.900  0.500  0.828523  152.319  66.517  13.7013
  6992.397  6992.400  0.500  0.830071  152.319  66.414  13.7499
  6992.902  6992.900  0.500  0.832276  152.305  66.2616  13.7785
  6993.399  6993.400  0.500  0.835279  152.297  66.0592  13.7854
  6993.902  6993.900  0.500  0.839066  152.299  65.8104  13.7768
  6994.403  6994.400  0.500  0.842470  152.281  65.579  13.7627
  6994.900  6994.900  0.500  0.845240  152.297  65.4046  13.7523
  6995.402  6995.400  0.500  0.847211  152.294  65.2746  13.7402
  6995.899  6995.900  0.500  0.847965  152.282  65.2202  13.7408
  6996.396  6996.400  0.500  0.848049  152.293  65.2194  13.7476
  6996.896  6996.900  0.500  0.847402  152.286  65.2586  13.7595
  6997.397  6997.400  0.500  0.846254  152.277  65.3297  13.7767
  6997.899  6997.900  0.500  0.845026  152.271  65.4075  13.7968
  6998.403  6998.400  0.500  0.844300  152.269  65.4542  13.8095
  6998.894  6998.900  0.500  0.843955  152.264  65.4747  13.8206
  6999.392  6999.400  0.500  0.844488  152.261  65.4383  13.8214
  6999.894  6999.900  0.500  0.845150  152.256  65.3928  13.8217
  7000.398  7000.400  0.500  0.845762  152.25  65.3502  13.8255
  7000.906  7000.900  0.500  0.846345  152.245  65.3101  13.8297
  7001.400  7001.400  0.500  0.846429  152.246  65.3051  13.8399
  7001.892  7001.900  0.500  0.846204  152.239  65.3166  13.8547
  7002.897  7002.890  0.500  0.843471  152.235  65.4939  13.9113
  7003.896  7003.890  0.500  0.838810  152.241  65.8022  13.9834
  7004.922  7004.910  0.500  0.834167  152.242  66.109  14.033
  7005.963  7005.960  0.500  0.830567  152.237  66.3453  14.043
  7007.025  7007.020  0.500  0.827090  152.223  66.5703  14.0158
  7008.113  7008.100  0.500  0.822925  152.206  66.8407  13.9754
  7009.209  7009.200  0.500  0.817626  152.194  67.1905  13.9336
  7010.328  7010.320  0.500  0.812488  152.177  67.5289  13.8817
  7011.473  7011.460  0.500  0.808460  152.169  67.798  13.8092
  7012.616  7012.610  0.500  0.806525  152.163  67.9266  13.7195
  7013.803  7013.790  0.500  0.805794  152.156  67.9731  13.6203
  7014.990  7014.980  0.500  0.805748  152.148  67.9725  13.5335
  7016.210  7016.200  0.500  0.805753  152.697  68.2175  13.5203
  7017.438  7017.430  0.500  0.805702  152.684  68.2151  13.4903
  7018.689  7018.680  0.500  0.806634  152.681  68.1505  13.4848
  7019.962  7019.950  0.500  0.807606  152.679  68.0832  13.5125
  7021.250  7021.240  0.500  0.808437  152.675  68.0251  13.5695
  7022.561  7022.550  0.500  0.808358  152.666  68.0262  13.6548
  7023.889  7023.880  0.500  0.807086  152.655  68.1079  13.7718
  7025.237  7025.230  0.500  0.805140  152.646  68.2368  13.8993
  7026.613  7026.600  0.500  0.803553  152.641  68.3427  14.0211
  7027.987  7027.980  0.500  0.802771  152.631  68.3916  14.1264
  7029.403  7029.390  0.500  0.802910  152.627  68.3806  14.2054
  7030.823  7030.810  0.500  0.804299  152.618  68.2814  14.2538
  7032.257  7032.250  0.500  0.806644  152.591  68.1094  14.2748
  7033.717  7033.710  0.500  0.809307  152.578  67.9225  14.2854
  7035.195  7035.190  0.500  0.811778  152.574  67.7533  14.2895
  7036.704  7036.690  0.500  0.813420  152.562  67.6369  14.2973
  7038.217  7038.210  0.500  0.814833  152.563  67.5419  14.3008
  7039.757  7039.750  0.500  0.815517  152.562  67.4949  14.3111
  7041.320  7041.310  0.500  0.816112  152.55  67.4494  14.3176
  7042.887  7042.880  0.500  0.815413  152.533  67.4891  14.3361
  7044.490  7044.480  0.500  0.813524  152.511  67.6072  14.3612
  7046.096  7046.090  0.500  0.809681  152.494  67.8597  14.4107
  7047.746  7047.730  0.500  0.804589  152.485  68.2021  14.4737
  7049.398  7049.380  0.500  0.798546  152.472  68.6097  14.5449
  7051.057  7051.050  0.500  0.793283  152.461  68.9667  14.5992
  7052.759  7052.740  0.500  0.789435  152.472  69.2375  14.6323
  7054.460  7054.450  0.500  0.786782  152.466  69.419  14.6483
  7056.198  7056.180  0.500  0.785032  152.459  69.5372  14.6487
  7057.941  7057.930  0.500  0.784142  152.442  69.5916  14.6371
  7059.708  7059.690  0.500  0.784323  152.449  69.5819  14.6189
  7061.490  7061.480  0.500  0.784443  152.456  69.5768  14.6063
  7063.299  7063.280  0.500  0.784315  151.767  69.2713  14.5363
  7065.122  7065.110  0.500  0.784172  152.324  69.5357  14.5954
  7066.965  7066.950  0.500  0.784082  152.334  69.5464  14.6057
  7068.815  7068.810  0.500  0.783259  152.324  69.5991  14.6305
  7070.710  7070.690  0.500  0.782417  151.986  69.5029  14.632
  7072.598  7072.590  0.500  0.782038  152.274  69.6612  14.6893
  7074.534  7074.510  0.500  0.782308  152.091  69.5585  14.6935
  7076.452  7076.450  0.500  0.782053  152.105  69.5829  14.7244
  7078.419  7078.410  0.500  0.781208  152.214  69.6918  14.7708
  7080.386  7080.380  0.500  0.780166  152.223  69.7684  14.8124
  7082.388  7082.380  0.500  0.779606  151.845  69.6342  14.8056
  7084.400  7084.390  0.500  0.780142  152.032  69.6824  14.8402
  7086.434  7086.420  0.500  0.780686  152.106  69.6787  14.8611
  7088.494  7088.480  0.500  0.780877  152.111  69.6675  14.8855
  7090.563  7090.550  0.500  0.780215  152.093  69.7051  14.9211
  7092.647  7092.640  0.500  0.778769  152.057  69.7896  14.9685
  7094.757  7094.750  0.500  0.777020  152.037  69.9025  15.0259
  7096.893  7096.880  0.500  0.775211  152.028  70.025  15.0901
  7099.029  7099.020  0.500  0.773113  152.034  70.175  15.1592
  7101.202  7101.190  0.500  0.770091  152.011  70.3769  15.2405
  7103.389  7103.380  0.500  0.766680  151.993  70.6088  15.3315
  7105.593  7105.580  0.500  0.763398  151.974  70.8321  15.4179
  7107.813  7107.800  0.500  0.760365  151.929  71.0263  15.4961
  7110.058  7110.050  0.500  0.757654  151.877  71.1947  15.5559
  7112.324  7112.310  0.500  0.755500  151.696  71.263  15.5818
  7114.600  7114.590  0.500  0.754104  151.594  71.3146  15.5937
  7116.895  7116.890  0.500  0.752984  151.54  71.3689  15.5958
  7119.224  7119.210  0.500  0.753212  151.458  71.3144  15.5764
  7121.558  7121.550  0.500  0.753776  151.376  71.2353  15.5558
  7123.912  7123.900  0.500  0.754361  151.283  71.1502  15.5254
  7126.299  7126.280  0.500  0.754994  151.155  71.045  15.4939
  7128.677  7128.670  0.500  0.755267  151.024  70.9641  15.4747
  7131.106  7131.090  0.500  0.754768  150.831  70.9088  15.4607
  7133.533  7133.520  0.500  0.753569  150.752  70.9564  15.4764
  7135.981  7135.970  0.500  0.751791  150.719  71.0671  15.5144
  7138.461  7138.450  0.500  0.749655  150.751  71.2342  15.5769
  7140.955  7140.940  0.500  0.747684  150.74  71.3696  15.6393
  7143.454  7143.450  0.500  0.746380  150.76  71.4723  15.7005
  7145.983  7145.970  0.500  0.745693  150.767  71.5249  15.7574
  7148.537  7148.520  0.500  0.744870  150.773  71.5862  15.8159
  7151.102  7151.090  0.500  0.743256  150.75  71.6911  15.8772
  7153.682  7153.670  0.500  0.741238  150.728  71.8256  15.9384
  7156.294  7156.280  0.500  0.739076  150.718  71.9759  15.9975
  7158.912  7158.900  0.500  0.736133  150.699  72.1791  16.0671
  7161.561  7161.550  0.500  0.733255  150.654  72.3655  16.1298
  7164.219  7164.210  0.500  0.730567  150.597  72.5329  16.1847
  7166.906  7166.890  0.500  0.729110  150.523  72.6029  16.2179
  7169.605  7169.590  0.500  0.727641  150.458  72.6781  16.252
  7172.321  7172.310  0.500  0.726404  150.407  72.7438  16.2865
  7175.059  7175.050  0.500  0.725566  150.349  72.7764  16.315
  7177.812  7177.800  0.500  0.724764  150.315  72.8186  16.3481
  7180.596  7180.580  0.500  0.724056  150.285  72.8557  16.3809
  7183.384  7183.370  0.500  0.723624  150.259  72.8741  16.4154
  7186.198  7186.190  0.500  0.722913  150.198  72.8966  16.4527
  7189.033  7189.020  0.500  0.721743  150.181  72.9734  16.503
  7191.885  7191.870  0.500  0.719880  147.881  71.9898  16.3164
  7194.768  7194.750  0.500  0.717887  149.951  73.1433  16.6132
  7197.655  7197.640  0.500  0.716040  149.944  73.2751  16.6774
  7200.561  7200.550  0.500  0.714314  149.893  73.3769  16.7305
  7203.479  7203.470  0.500  0.712416  149.843  73.4919  16.783
  7206.436  7206.420  0.500  0.710412  149.773  73.6047  16.8315
  7209.406  7209.390  0.500  0.708937  149.685  73.6702  16.8637
  7212.383  7212.370  0.500  0.707200  149.62  73.7659  16.901
  7215.394  7215.380  0.500  0.705323  149.565  73.8775  16.9416
  7218.409  7218.400  0.500  0.703374  149.485  73.9822  16.9817
  7221.463  7221.450  0.500  0.701405  149.413  74.0919  17.0221
  7224.525  7224.510  0.500  0.699620  149.324  74.1804  17.0624
  7227.602  7227.590  0.500  0.697897  147.205  73.2539  16.873
  7230.710  7230.690  0.500  0.696153  149.363  74.4572  17.1781
  7233.823  7233.810  0.500  0.694607  149.281  74.5318  17.226
  7236.966  7236.950  0.500  0.693158  149.218  74.6082  17.2775
  7240.109  7240.100  0.500  0.692042  149.159  74.6618  17.3247
  7243.289  7243.280  0.500  0.690941  149.1  74.7145  17.3733
  7246.480  7246.470  0.500  0.689461  148.859  74.7045  17.4059
  7249.703  7249.690  0.500  0.687766  148.941  74.8724  17.4819
  7252.934  7252.920  0.500  0.686068  148.72  74.8884  17.523
  7256.185  7256.170  0.500  0.684047  149.002  75.1822  17.6284
  7259.465  7259.450  0.500  0.682174  148.773  75.207  17.6698
  7262.752  7262.740  0.500  0.680746  147.187  74.5119  17.5398
  7266.057  7266.050  0.500  0.678886  148.292  75.2108  17.7323
  7269.382  7269.370  0.500  0.676922  149.169  75.8047  17.9006
  7272.729  7272.720  0.500  0.674546  148.946  75.8711  17.9459
  7276.094  7276.090  0.500  0.672580  149.187  76.1435  18.035
  7279.475  7279.470  0.500  0.670309  149.101  76.2726  18.0932
  7282.880  7282.880  0.500  0.668402  148.992  76.3625  18.1472
  7286.306  7286.300  0.500  0.666471  148.765  76.3934  18.1845
  7289.763  7289.750  0.500  0.664616  148.839  76.5736  18.262
  7293.221  7293.210  0.500  0.662924  148.794  76.6799  18.3238
  7296.700  7296.690  0.500  0.661436  148.719  76.7553  18.3825
  7300.201  7300.190  0.500  0.659857  148.441  76.733  18.418
  7303.716  7303.710  0.500  0.657999  148.735  77.0276  18.5255
  7307.256  7307.250  0.500  0.656052  148.636  77.1267  18.5875
  7310.811  7310.800  0.500  0.654033  148.555  77.2405  18.6509
  7314.387  7314.380  0.500  0.652156  148.466  77.3389  18.7084
  7317.994  7317.980  0.500  0.650291  148.395  77.4465  18.7702
  7321.594  7321.590  0.500  0.648422  148.31  77.5471  18.8267
  7325.227  7325.220  0.500  0.646620  148.22  77.6394  18.8818
  7328.886  7328.880  0.500  0.644939  148.162  77.74  18.9401
  7332.561  7332.550  0.500  0.643108  148.092  77.8453  18.9999
  7336.248  7336.240  0.500  0.641556  148.03  77.9335  19.0496
  7339.958  7339.950  0.500  0.639519  147.056  77.5787  18.9984
  7343.695  7343.680  0.500  0.637645  147.776  78.105  19.1618
  7347.431  7347.420  0.500  0.635592  147.738  78.2454  19.2311
  7351.203  7351.190  0.500  0.633358  147.672  78.3853  19.3039
  7354.991  7354.980  0.500  0.631504  147.592  78.4883  19.3662
  7358.792  7358.780  0.500  0.629376  147.505  78.609  19.4386
  7362.622  7362.610  0.500  0.626997  147.434  78.7585  19.5167
  7366.461  7366.450  0.500  0.624838  147.338  78.8771  19.5894
  7370.321  7370.310  0.500  0.623035  147.271  78.9833  19.6584
  7374.203  7374.190  0.500  0.621295  147.183  79.0739  19.7246
  7378.096  7378.090  0.500  0.619454  147.079  79.1633  19.7919
  7382.024  7382.010  0.500  0.617555  146.988  79.2648  19.8604
  7385.970  7385.950  0.500  0.615537  146.904  79.3799  19.9339
  7389.930  7389.910  0.500  0.613095  146.817  79.5266  20.0114
  7393.896  7393.880  0.500  0.610965  146.736  79.6524  20.0861
  7397.900  7397.880  0.500  0.609080  146.651  79.7562  20.1565
  7401.905  7401.890  0.500  0.606976  146.548  79.8679  20.228
  7405.960  7405.930  0.500  0.605162  146.455  79.9622  20.2911
  7410.009  7409.980  0.500  0.603147  146.336  80.0584  20.3549
  7414.068  7414.050  0.500  0.601147  146.231  80.1614  20.4191
  7418.172  7418.140  0.500  0.599110  146.096  80.2508  20.4808
  7422.271  7422.250  0.500  0.597156  146.001  80.3549  20.5464
  7426.402  7426.380  0.500  0.595248  145.905  80.4559  20.6165
  7430.564  7430.530  0.500  0.592997  145.783  80.5696  20.6861
  7434.713  7434.690  0.500  0.590716  145.677  80.695  20.7629
  7438.915  7438.880  0.500  0.588574  145.547  80.7959  20.8382
  7443.094  7443.080  0.500  0.586301  145.344  80.867  20.9048
  7447.328  7447.310  0.500  0.584164  145.417  81.0802  21.005
  7451.545  7451.550  0.500  0.581798  145.116  81.1043  21.0557
  7455.810  7455.810  0.500  0.579915  145.164  81.2838  21.1502
  7460.082  7460.090  0.500  0.577745  142.911  80.196  20.9164
  7464.379  7464.390  0.500  0.575485  144.891  81.4914  21.3036
  7468.728  7468.710  0.500  0.573339  144.789  81.6091  21.3832
  7473.051  7473.050  0.500  0.571245  144.751  81.7588  21.4715
  7477.389  7477.410  0.500  0.569253  144.598  81.8347  21.5407
  7481.773  7481.790  0.500  0.567285  144.452  81.9135  21.6081
  7486.203  7486.180  0.500  0.565224  144.312  82.0028  21.6776
  7490.609  7490.600  0.500  0.563314  144.169  82.078  21.7418
  7495.021  7495.030  0.500  0.560843  144.051  82.2141  21.8225
  7499.469  7499.480  0.500  0.558621  143.915  82.3192  21.8957
  7503.940  7503.950  0.500  0.556454  143.767  82.4126  21.9688
  7508.447  7508.440  0.500  0.554310  143.61  82.4992  22.0369
  7512.944  7512.950  0.500  0.551909  143.458  82.6102  22.1173
  7517.469  7517.480  0.500  0.549768  143.876  83.0284  22.2817
  7522.049  7522.030  0.500  0.547665  143.727  83.1169  22.362
  7526.579  7526.600  0.500  0.545120  143.572  83.2393  22.4491
  7531.168  7531.180  0.500  0.542926  143.434  83.3418  22.5336
  7535.779  7535.790  0.500  0.540792  143.251  83.413  22.6107
  7540.392  7540.410  0.500  0.538569  143.075  83.4963  22.6899
  7545.034  7545.060  0.500  0.536227  142.933  83.6087  22.7783
  7549.698  7549.720  0.500  0.534015  142.786  83.708  22.8598
  7554.381  7554.400  0.500  0.531723  142.632  83.8097  22.941
  7559.081  7559.100  0.500  0.529550  142.47  83.8961  23.0205
  7563.850  7563.820  0.500  0.527329  142.279  83.9699  23.0919
  7568.581  7568.560  0.500  0.525208  142.162  84.0791  23.1743
  7573.338  7573.310  0.500  0.523261  141.99  84.1413  23.2405
  7578.084  7578.090  0.500  0.521129  141.826  84.2234  23.3128
  7582.878  7582.890  0.500  0.518912  141.634  84.2961  23.3835
  7587.732  7587.700  0.500  0.516825  141.429  84.3496  23.4479
  7592.553  7592.530  0.500  0.514973  141.195  84.3664  23.4993