File: xdidata/Eu/Eu-L1-Eu2TiO5.xdi
# XDI/1.0 BlueSky/1.10.0 BMM/2023-1.0-py310-tiled
# Beamline.name: BMM (06BM) -- Beamline for Materials Measurement (NIST)
# Beamline.xray_source: NSLS-II three-pole wiggler
# Beamline.collimation: paraboloid mirror, 5 nm Rh on 30 nm Pt
# Beamline.focusing: not in use
# Beamline.harmonic_rejection: flat mirror, Pt stripe, pitch = 7.0 mrad relative to beam
# Beamline.software: Bluesky 1.10.0, Ophyd 1.7.0, DataBroker 2.0.0b13, Python 3.10.8, 2023-1.0-py310-tiled
# Detector.I0: 10 cm N2
# Detector.I1: 25 cm N2
# Detector.I2: 25 cm N2
# Element.symbol: Eu
# Element.edge: L1
# Element.reference: Eu
# Element.reference_material: Eu2O3
# Facility.name: NSLS-II
# Facility.energy: 3.0
# Facility.current: 400.4
# Facility.mode: top-off
# Facility.GUP: 123456
# Facility.SAF: 301027
# Facility.cycle: 2023-2
# Mono.name: Si(111)
# Mono.d_spacing: 3.13519
# Mono.encoder_resolution: 0.0000050 deg/ct
# Mono.angle_offset: 16.0754 deg
# Mono.scan_mode: pseudo channel cut
# Mono.scan_type: step
# Mono.direction: forward in energy
# Sample.name: Eu2TiO5
# Sample.prep: Powder in PEG pellet
# Sample.x: 149.848 mm
# Sample.y: 114.690 mm
# Sample.SDD_position: 205.000 mm
# Scan.experimenters: Bruce Ravel
# Scan.edge_energy: 8052.0
# Scan.start_time: 2023-05-08T21:29:21
# Scan.end_time: 2023-05-08T21:35:01
# Scan.transient_id: 75630
# Scan.uid: c1c7b99c-46d2-41bf-b604-c7d463b6f27a
# Scan.plot_hint: ln(I0/It)  --  ln($5/$6)
# Column.1: energy eV
# Column.2: requested_energy eV
# Column.3: measurement_time seconds
# Column.4: xmu
# Column.5: I0 nA
# Column.6: It nA
# Column.7: Ir nA
# ///////////
# sample courtesy Martin Stennett, University of Sheffield
# -----------
# energy  requested_energy  measurement_time  xmu  I0  It  Ir
  7852.008  7852.000  0.500  0.841773  136.214  58.7008  15.8318
  7862.007  7862.000  0.500  0.837021  136.057  58.9125  15.9376
  7872.077  7872.000  0.500  0.831951  135.869  59.1301  16.0571
  7882.055  7882.000  0.500  0.827124  135.7  59.3423  16.1885
  7892.090  7892.000  0.500  0.822479  135.554  59.5544  16.3229
  7902.080  7902.000  0.500  0.817923  135.302  59.7154  16.4404
  7912.016  7912.000  0.500  0.813659  135.132  59.895  16.5553
  7922.042  7922.000  0.500  0.808904  134.936  60.0931  16.6731
  7932.033  7932.000  0.500  0.804221  134.616  60.232  16.7807
  7942.025  7942.000  0.500  0.799416  134.607  60.5183  16.9378
  7952.028  7952.000  0.500  0.794903  134.058  60.5438  17.0127
  7962.021  7962.000  0.500  0.790474  134.031  60.8006  17.1522
  7972.012  7972.000  0.500  0.786034  133.897  61.01  17.2721
  7982.014  7982.000  0.500  0.781471  133.614  61.1593  17.379
  7992.011  7992.000  0.500  0.776875  133.433  61.3581  17.5014
  8002.007  8002.000  0.500  0.772434  133.23  61.5373  17.6202
  8012.012  8012.000  0.500  0.768181  132.999  61.6923  17.736
  8021.994  8022.000  0.500  0.763934  132.857  61.8886  17.8632
  8024.003  8024.000  0.500  0.763326  132.695  61.8509  17.8602
  8026.001  8026.000  0.500  0.762406  132.674  61.8981  17.887
  8027.999  8028.000  0.500  0.761385  132.612  61.9323  17.9109
  8029.998  8030.000  0.500  0.760421  132.566  61.9706  17.9331
  8032.001  8032.000  0.500  0.759637  132.515  61.9954  17.953
  8034.008  8034.000  0.500  0.758863  132.454  62.0146  17.9678
  8036.496  8036.000  0.500  0.757963  132.371  62.0319  17.9861
  8038.024  8038.000  0.500  0.757229  132.295  62.0417  17.9939
  8040.026  8040.000  0.500  0.756417  132.284  62.0869  18.0184
  8042.017  8042.000  0.500  0.755601  132.277  62.1345  18.041
  8042.485  8042.500  0.500  0.755313  132.24  62.135  18.0397
  8042.994  8043.000  0.500  0.755237  132.23  62.1349  18.041
  8043.484  8043.500  0.500  0.754977  132.188  62.1312  18.0414
  8043.985  8044.000  0.500  0.754815  132.182  62.1384  18.0436
  8044.489  8044.500  0.500  0.754677  132.189  62.1503  18.0478
  8044.990  8045.000  0.500  0.754505  132.176  62.155  18.0508
  8045.488  8045.500  0.500  0.754285  132.122  62.1432  18.0455
  8045.992  8046.000  0.500  0.754022  132.103  62.1507  18.0502
  8046.488  8046.500  0.500  0.753798  132.112  62.1688  18.0555
  8046.992  8047.000  0.500  0.753652  132.09  62.1674  18.0543
  8047.488  8047.500  0.500  0.753533  132.069  62.1651  18.0518
  8047.987  8048.000  0.500  0.753503  132.068  62.1665  18.0484
  8048.486  8048.500  0.500  0.753428  132.054  62.1642  18.0475
  8048.984  8049.000  0.500  0.753078  132.028  62.1741  18.0442
  8049.486  8049.500  0.500  0.753042  132.031  62.1778  18.0438
  8049.988  8050.000  0.500  0.752986  131.969  62.1519  18.032
  8050.487  8050.500  0.500  0.752768  132.031  62.1948  18.0345
  8050.989  8051.000  0.500  0.752669  131.994  62.1836  18.0257
  8051.494  8051.500  0.500  0.752571  131.945  62.1665  18.0114
  8051.993  8052.000  0.500  0.752674  131.925  62.1507  17.9946
  8052.489  8052.500  0.500  0.752653  131.909  62.1442  17.9793
  8052.989  8053.000  0.500  0.752530  131.873  62.1348  17.9589
  8053.485  8053.500  0.500  0.752483  131.847  62.1259  17.9351
  8053.988  8054.000  0.500  0.752470  131.81  62.1091  17.9049
  8054.485  8054.500  0.500  0.752565  131.758  62.0789  17.865
  8054.976  8055.000  0.500  0.752703  131.72  62.0521  17.8272
  8055.492  8055.500  0.500  0.752859  131.667  62.0174  17.7874
  8055.992  8056.000  0.500  0.753134  131.576  61.9578  17.7414
  8056.495  8056.500  0.500  0.753135  131.427  61.8873  17.6925
  8056.994  8057.000  0.500  0.753445  131.153  61.739  17.6226
  8057.494  8057.500  0.500  0.753356  130.424  61.4015  17.5027
  8057.994  8058.000  0.500  0.753179  127.755  60.1556  17.1263
  8058.489  8058.500  0.500  0.753462  126.005  59.3147  16.8641
  8058.995  8059.000  0.500  0.753857  127.827  60.1487  17.0746
  8059.487  8059.500  0.500  0.753821  130.952  61.6212  17.4651
  8059.995  8060.000  0.500  0.753722  131.891  62.0693  17.5633
  8060.496  8060.500  0.500  0.754082  131.945  62.0724  17.5332
  8060.996  8061.000  0.500  0.754422  131.891  62.026  17.4883
  8061.496  8061.500  0.500  0.754519  131.874  62.0119  17.4479
  8062.000  8062.000  0.500  0.754835  131.839  61.9761  17.3965
  8062.503  8062.500  0.500  0.754995  131.805  61.95  17.3442
  8063.001  8063.000  0.500  0.755147  131.771  61.9248  17.2886
  8063.496  8063.500  0.500  0.755393  132.245  62.1321  17.2972
  8064.000  8064.000  0.500  0.755608  132.194  62.0947  17.2351
  8064.498  8064.500  0.500  0.755795  132.188  62.0803  17.1744
  8064.999  8065.000  0.500  0.756446  132.173  62.0329  17.1065
  8065.491  8065.500  0.500  0.756891  132.123  61.9816  17.0365
  8065.998  8066.000  0.500  0.757231  132.051  61.9272  16.9711
  8066.496  8066.500  0.500  0.757518  132.044  61.9061  16.9197
  8067.006  8067.000  0.500  0.757795  132.008  61.872  16.8691
  8067.501  8067.500  0.500  0.758028  131.885  61.7998  16.8176
  8068.011  8068.000  0.500  0.758168  131.884  61.7908  16.7873
  8068.501  8068.500  0.500  0.758078  131.715  61.7173  16.7448
  8069.006  8069.000  0.500  0.758029  131.343  61.546  16.6847
  8069.501  8069.500  0.500  0.757638  129.571  60.7394  16.4566
  8069.997  8070.000  0.500  0.757519  126.517  59.3145  16.0671
  8070.494  8070.500  0.500  0.757529  127.483  59.7671  16.186
  8070.998  8071.000  0.500  0.757373  130.593  61.2345  16.5834
  8071.497  8071.500  0.500  0.756995  131.866  61.8551  16.7576
  8072.002  8072.000  0.500  0.756658  131.949  61.9146  16.7797
  8072.503  8072.500  0.500  0.756544  131.951  61.9226  16.7892
  8073.003  8073.000  0.500  0.756385  131.926  61.9209  16.7956
  8073.502  8073.500  0.500  0.756196  131.943  61.9407  16.8093
  8074.001  8074.000  0.500  0.755881  131.92  61.949  16.8206
  8074.495  8074.500  0.500  0.755651  131.875  61.9421  16.8286
  8074.997  8075.000  0.500  0.755546  131.837  61.931  16.835
  8075.491  8075.500  0.500  0.755522  131.81  61.9197  16.8416
  8075.999  8076.000  0.500  0.755238  131.763  61.9151  16.8481
  8076.490  8076.500  0.500  0.754970  131.71  61.9071  16.8567
  8076.995  8077.000  0.500  0.754741  131.605  61.8718  16.8584
  8077.992  8077.990  0.500  0.754128  131.273  61.7537  16.8463
  8078.995  8078.990  0.500  0.753417  127.177  59.8691  16.3546
  8080.017  8080.010  0.500  0.753146  129.244  60.859  16.6513
  8081.056  8081.060  0.500  0.752296  131.655  62.0468  17.0055
  8082.127  8082.120  0.500  0.751323  131.677  62.1174  17.0605
  8083.206  8083.200  0.500  0.750358  131.661  62.1702  17.1146
  8084.311  8084.300  0.500  0.749253  131.597  62.2085  17.1673
  8085.424  8085.420  0.500  0.748281  131.532  62.2383  17.219
  8086.563  8086.560  0.500  0.747379  131.501  62.2796  17.2702
  8087.719  8087.710  0.500  0.746496  131.375  62.275  17.3053
  8088.897  8088.890  0.500  0.745681  131.245  62.2643  17.3383
  8090.093  8090.080  0.500  0.744901  130.776  62.0902  17.319
  8091.300  8091.300  0.500  0.744210  125.857  59.7959  16.7027
  8092.533  8092.530  0.500  0.743780  130.643  62.0962  17.3651
  8093.784  8093.780  0.500  0.743228  131.59  62.581  17.5227
  8095.057  8095.050  0.500  0.742742  131.538  62.5869  17.5422
  8096.341  8096.340  0.500  0.742299  131.46  62.5773  17.5507
  8097.657  8097.650  0.500  0.741906  131.378  62.5629  17.5553
  8098.991  8098.980  0.500  0.741567  131.356  62.5736  17.56
  8100.330  8100.330  0.500  0.741231  131.33  62.5825  17.5626
  8101.715  8101.700  0.500  0.740802  131.299  62.5945  17.5604
  8103.089  8103.080  0.500  0.740221  131.221  62.5934  17.5521
  8104.497  8104.490  0.500  0.740081  131.16  62.5731  17.5387
  8105.920  8105.910  0.500  0.739344  131.101  62.5913  17.5355
  8107.365  8107.350  0.500  0.738955  131.108  62.6189  17.5333
  8108.820  8108.810  0.500  0.738613  131.086  62.6298  17.529
  8110.304  8110.290  0.500  0.738015  131.012  62.632  17.5196
  8111.804  8111.790  0.500  0.737413  130.974  62.6516  17.5185
  8113.320  8113.310  0.500  0.736968  130.956  62.6706  17.5159
  8114.861  8114.850  0.500  0.736736  130.91  62.6633  17.511
  8116.426  8116.410  0.500  0.736232  130.861  62.6715  17.508
  8117.989  8117.980  0.500  0.735577  130.801  62.6837  17.5082
  8119.586  8119.580  0.500  0.735043  130.772  62.7031  17.5189
  8121.206  8121.190  0.500  0.734390  130.752  62.7344  17.5348
  8122.844  8122.830  0.500  0.733637  130.651  62.7335  17.5469
  8124.485  8124.480  0.500  0.732803  130.625  62.7732  17.5708
  8126.167  8126.150  0.500  0.731986  130.591  62.8081  17.6
  8127.846  8127.840  0.500  0.731116  130.557  62.8465  17.6327
  8129.560  8129.550  0.500  0.730436  130.471  62.8476  17.6579
  8131.292  8131.280  0.500  0.729810  130.466  62.8849  17.6953
  8133.039  8133.030  0.500  0.728935  130.433  62.9238  17.7345
  8134.798  8134.790  0.500  0.727991  130.387  62.9611  17.7711
  8136.597  8136.580  0.500  0.727043  130.307  62.9822  17.7986
  8138.386  8138.380  0.500  0.726197  130.296  63.0299  17.8335
  8140.227  8140.210  0.500  0.725325  130.227  63.0515  17.8575
  8142.062  8142.050  0.500  0.724290  130.158  63.0836  17.8813
  8143.916  8143.910  0.500  0.723276  130.085  63.112  17.9061
  8145.813  8145.790  0.500  0.722519  130.062  63.1486  17.9293
  8147.692  8147.690  0.500  0.721768  130.023  63.1772  17.9505
  8149.622  8149.610  0.500  0.721076  129.951  63.1859  17.9652
  8151.559  8151.550  0.500  0.720477  129.885  63.1916  17.978
  8153.526  8153.510  0.500  0.719596  129.866  63.2379  18.0066
  8155.490  8155.480  0.500  0.718810  129.791  63.2514  18.0296
  8157.493  8157.480  0.500  0.717868  129.766  63.2988  18.0586
  8159.508  8159.490  0.500  0.717322  129.699  63.3007  18.0763
  8161.532  8161.520  0.500  0.716386  129.654  63.3377  18.1053
  8163.598  8163.580  0.500  0.715350  129.593  63.3734  18.1337
  8165.664  8165.650  0.500  0.714435  129.525  63.3987  18.1607
  8167.752  8167.740  0.500  0.713676  129.507  63.4378  18.1838
  8169.864  8169.850  0.500  0.712824  129.453  63.4655  18.2083
  8171.988  8171.980  0.500  0.712096  129.399  63.4852  18.2258
  8174.133  8174.120  0.500  0.711261  129.337  63.5076  18.2465
  8176.300  8176.290  0.500  0.710468  129.281  63.5304  18.2661
  8178.502  8178.480  0.500  0.709667  129.26  63.5711  18.2882
  8180.688  8180.680  0.500  0.709109  129.193  63.5738  18.2997
  8182.922  8182.900  0.500  0.708157  129.13  63.6029  18.3146
  8185.162  8185.150  0.500  0.707355  129.093  63.636  18.3347
  8187.429  8187.410  0.500  0.706435  129.051  63.6739  18.354
  8189.698  8189.690  0.500  0.705611  129.011  63.7063  18.3752
  8192.008  8191.990  0.500  0.704600  128.94  63.736  18.4013
  8194.331  8194.310  0.500  0.703641  128.886  63.7705  18.4272
  8196.661  8196.650  0.500  0.702597  128.791  63.7898  18.4523
  8199.016  8199.000  0.500  0.701511  128.729  63.8283  18.484
  8201.389  8201.380  0.500  0.700504  128.659  63.8581  18.5103
  8203.781  8203.770  0.500  0.699561  128.617  63.8972  18.5443
  8206.203  8206.190  0.500  0.698521  128.596  63.9532  18.5845
  8208.636  8208.620  0.500  0.697403  128.51  63.9823  18.6133
  8211.087  8211.070  0.500  0.696273  128.436  64.0177  18.648
  8213.574  8213.550  0.500  0.695593  128.331  64.0086  18.669
  8216.054  8216.040  0.500  0.694619  128.315  64.0634  18.7075
  8218.562  8218.550  0.500  0.693472  128.247  64.1026  18.7373
  8221.086  8221.070  0.500  0.692376  128.215  64.157  18.7686
  8223.623  8223.620  0.500  0.691279  128.131  64.1853  18.7936
  8226.206  8226.190  0.500  0.690139  128.049  64.2176  18.8182
  8228.778  8228.770  0.500  0.689140  127.995  64.2546  18.8411
  8231.401  8231.380  0.500  0.688094  127.944  64.2961  18.8713
  8234.014  8234.000  0.500  0.686981  127.867  64.3287  18.8979
  8236.667  8236.650  0.500  0.686208  127.822  64.3562  18.922
  8239.328  8239.310  0.500  0.685275  127.753  64.3812  18.9498
  8241.999  8241.990  0.500  0.684134  127.682  64.4193  18.9788
  8244.712  8244.690  0.500  0.682879  127.615  64.4659  19.0123
  8247.422  8247.410  0.500  0.681847  127.513  64.4813  19.0389
  8250.165  8250.150  0.500  0.680932  127.481  64.5237  19.0724
  8252.913  8252.900  0.500  0.679636  127.372  64.5521  19.1016
  8255.690  8255.680  0.500  0.678517  127.322  64.5992  19.1402
  8258.489  8258.470  0.500  0.677449  127.229  64.6209  19.169
  8261.310  8261.290  0.500  0.676477  127.175  64.6562  19.2019
  8264.124  8264.120  0.500  0.675621  127.132  64.6897  19.2332
  8266.990  8266.970  0.500  0.674525  127.021  64.7045  19.2581
  8269.862  8269.850  0.500  0.673309  126.972  64.7579  19.295
  8272.758  8272.740  0.500  0.672174  126.862  64.7756  19.3172
  8275.669  8275.650  0.500  0.671110  126.793  64.8089  19.3451
  8278.587  8278.570  0.500  0.669911  125.244  64.0939  19.1521
  8281.534  8281.520  0.500  0.668659  126.583  64.8606  19.3981
  8284.510  8284.490  0.500  0.667352  126.536  64.9211  19.4368
  8287.479  8287.470  0.500  0.666160  126.467  64.9633  19.4705
  8290.500  8290.480  0.500  0.664851  126.411  65.0198  19.5071
  8293.521  8293.500  0.500  0.663685  126.259  65.0168  19.531
  8296.565  8296.550  0.500  0.662464  126.197  65.0645  19.5682
  8299.628  8299.610  0.500  0.661243  126.139  65.114  19.6073
  8302.709  8302.690  0.500  0.659941  126.046  65.1508  19.644
  8305.807  8305.790  0.500  0.658731  125.956  65.1834  19.6781
  8308.931  8308.910  0.500  0.657528  125.879  65.2216  19.7135
  8312.069  8312.050  0.500  0.656372  125.754  65.2324  19.7399
  8315.219  8315.200  0.500  0.655269  125.708  65.2804  19.7812
  8318.394  8318.380  0.500  0.654019  125.591  65.3013  19.81
  8321.590  8321.570  0.500  0.652864  125.533  65.3466  19.8496
  8324.810  8324.790  0.500  0.651555  125.383  65.3538  19.8754
  8328.032  8328.020  0.500  0.650209  125.346  65.4228  19.9205
  8331.289  8331.270  0.500  0.649021  125.245  65.4479  19.9509
  8334.564  8334.550  0.500  0.647832  124.994  65.3944  19.9568
  8337.856  8337.840  0.500  0.646483  124.9  65.4332  19.9912
  8341.163  8341.150  0.500  0.645221  124.735  65.4294  20.0113
  8344.484  8344.470  0.500  0.643918  124.545  65.4146  20.0322
  8347.833  8347.820  0.500  0.642766  124.425  65.4269  20.0625
  8351.205  8351.190  0.500  0.641384  124.153  65.3742  20.0684
  8354.579  8354.570  0.500  0.640062  123.956  65.3568  20.0884
  8357.990  8357.980  0.500  0.638803  123.872  65.3948  20.1242
  8361.409  8361.400  0.500  0.637446  123.823  65.4577  20.1655
  8364.870  8364.850  0.500  0.636268  123.746  65.4944  20.2054
  8368.319  8368.310  0.500  0.634990  123.684  65.5452  20.2522
  8371.792  8371.790  0.500  0.633654  123.572  65.5736  20.2866
  8375.305  8375.290  0.500  0.632556  123.458  65.5851  20.3177
  8378.826  8378.810  0.500  0.631317  123.38  65.6246  20.3553
  8382.359  8382.350  0.500  0.629994  123.278  65.6572  20.3897
  8385.905  8385.900  0.500  0.628557  123.107  65.6602  20.4151
  8389.495  8389.480  0.500  0.627156  122.923  65.6541  20.436
  8393.092  8393.080  0.500  0.625836  122.777  65.663  20.4657
  8396.696  8396.690  0.500  0.624435  122.683  65.7046  20.5038
  8400.332  8400.320  0.500  0.623052  122.546  65.7222  20.5345
  8404.002  8403.980  0.500  0.621514  122.446  65.7693  20.573
  8407.664  8407.650  0.500  0.620151  122.315  65.7887  20.6063
  8411.344  8411.340  0.500  0.618890  122.234  65.8281  20.6497
  8415.060  8415.050  0.500  0.617478  122.078  65.837  20.6765
  8418.798  8418.780  0.500  0.616139  121.957  65.8601  20.7131
  8422.531  8422.520  0.500  0.614859  121.874  65.8992  20.7525
  8426.300  8426.290  0.500  0.613389  121.743  65.9253  20.7905
  8430.100  8430.080  0.500  0.611914  121.618  65.9548  20.8291
  8433.904  8433.880  0.500  0.610631  121.452  65.9492  20.8564
  8437.718  8437.710  0.500  0.609239  121.336  65.9785  20.898
  8441.565  8441.550  0.500  0.607762  121.223  66.0143  20.9363
  8445.429  8445.410  0.500  0.606432  121.511  66.2591  21.0445
  8449.311  8449.290  0.500  0.605279  121.373  66.2601  21.0733
  8453.200  8453.190  0.500  0.603957  121.215  66.2616  21.1067
  8457.127  8457.110  0.500  0.602563  121.116  66.3  21.1456
  8461.079  8461.050  0.500  0.600826  120.929  66.3125  21.1784
  8465.031  8465.010  0.500  0.599405  120.801  66.3364  21.2136
  8468.988  8468.980  0.500  0.597927  120.665  66.3595  21.25
  8473.000  8472.980  0.500  0.596477  120.535  66.3844  21.2902
  8477.011  8476.990  0.500  0.594997  120.389  66.4022  21.3263
  8481.056  8481.030  0.500  0.593510  120.24  66.4189  21.3591
  8485.102  8485.080  0.500  0.592155  120.093  66.4274  21.3912
  8489.164  8489.150  0.500  0.590580  119.925  66.4393  21.4253
  8493.258  8493.240  0.500  0.589170  119.828  66.4791  21.4664
  8497.378  8497.350  0.500  0.587853  119.624  66.4534  21.489
  8501.505  8501.480  0.500  0.586508  119.454  66.4481  21.5188
  8505.649  8505.630  0.500  0.584960  119.312  66.472  21.5564
  8509.812  8509.790  0.500  0.583242  119.189  66.5179  21.6049
  8513.999  8513.980  0.500  0.581780  118.999  66.509  21.6328
  8518.195  8518.180  0.500  0.580333  118.802  66.495  21.659
  8522.437  8522.410  0.500  0.578924  118.531  66.4369  21.671
  8526.680  8526.650  0.500  0.577368  117.955  66.2171  21.6323
  8530.933  8530.910  0.500  0.575833  102.707  57.7455  18.8932
  8535.216  8535.190  0.500  0.574420  118.541  66.7423  21.8669
  8539.503  8539.490  0.500  0.572783  118.4  66.772  21.9074
  8543.835  8543.810  0.500  0.571340  118.25  66.7838  21.9432
  8548.172  8548.150  0.500  0.569937  118.03  66.7534  21.9657
  8552.532  8552.510  0.500  0.568230  117.788  66.73  21.9922
  8556.907  8556.890  0.500  0.566747  117.653  66.7526  22.0286
  8561.301  8561.280  0.500  0.565495  117.577  66.793  22.0747
  8565.722  8565.700  0.500  0.563975  117.404  66.7961  22.1074
  8570.148  8570.130  0.500  0.562352  117.246  66.8147  22.1461
  8574.598  8574.580  0.500  0.560710  117.108  66.8455  22.1895
  8579.078  8579.050  0.500  0.559306  116.91  66.8262  22.2169
  8583.562  8583.540  0.500  0.557871  116.754  66.8331  22.253
  8588.070  8588.050  0.500  0.556247  116.538  66.8176  22.2823
  8592.593  8592.580  0.500  0.553834  105.324  60.534  20.2198
  8597.149  8597.130  0.500  0.553004  115.368  66.3621  22.1998