File: xdidata/Eu/Eu-L3-Eu2Ti2O7.xdi
# XDI/1.0 BlueSky/1.10.0 BMM/2023-1.0-py310-tiled
# Beamline.name: BMM (06BM) -- Beamline for Materials Measurement (NIST)
# Beamline.xray_source: NSLS-II three-pole wiggler
# Beamline.collimation: paraboloid mirror, 5 nm Rh on 30 nm Pt
# Beamline.focusing: not in use
# Beamline.harmonic_rejection: flat mirror, Si stripe, pitch = 7.0 mrad relative to beam
# Beamline.software: Bluesky 1.10.0, Ophyd 1.7.0, DataBroker 2.0.0b13, Python 3.10.8, 2023-1.0-py310-tiled
# Detector.I0: 10 cm N2
# Detector.I1: 25 cm N2
# Detector.I2: 25 cm N2
# Element.symbol: Eu
# Element.edge: L3
# Element.reference: Eu
# Element.reference_material: Eu2O3
# Facility.name: NSLS-II
# Facility.energy: 3.0
# Facility.current: 400.6
# Facility.mode: top-off
# Facility.GUP: 123456
# Facility.SAF: 301027
# Facility.cycle: 2023-2
# Mono.name: Si(111)
# Mono.d_spacing: 3.13519
# Mono.encoder_resolution: 0.0000050 deg/ct
# Mono.angle_offset: 16.0754 deg
# Mono.scan_mode: pseudo channel cut
# Mono.scan_type: step
# Mono.direction: forward in energy
# Sample.name: Eu2Ti2O7
# Sample.prep: powder on tape
# Sample.x: 123.848 mm
# Sample.y: 114.690 mm
# Sample.SDD_position: 205.000 mm
# Scan.experimenters: Bruce Ravel
# Scan.edge_energy: 6976.9
# Scan.start_time: 2023-05-08T17:34:06
# Scan.end_time: 2023-05-08T17:40:12
# Scan.transient_id: 75451
# Scan.uid: fa181008-7ffb-4c29-aee5-fc1453098621
# Scan.plot_hint: ln(I0/It)  --  ln($5/$6)
# Column.1: energy eV
# Column.2: requested_energy eV
# Column.3: measurement_time seconds
# Column.4: xmu
# Column.5: I0 nA
# Column.6: It nA
# Column.7: Ir nA
# ///////////
# material made by Fatih Dogan
# -----------
# energy  requested_energy  measurement_time  xmu  I0  It  Ir
  6776.904  6776.900  0.500  1.025868  151.811  54.4218  13.3987
  6786.910  6786.900  0.500  1.018298  151.995  54.9021  13.6022
  6796.915  6796.900  0.500  1.010812  151.053  54.9716  13.7026
  6806.904  6806.900  0.500  1.003474  151.904  55.6884  13.9681
  6816.982  6816.900  0.500  0.996072  151.951  56.1196  14.161
  6826.930  6826.900  0.500  0.988850  151.848  56.4881  14.3419
  6836.906  6836.900  0.500  0.981688  152.134  57.0013  14.5575
  6846.918  6846.900  0.500  0.974442  151.785  57.2841  14.7186
  6856.912  6856.900  0.500  0.967509  152.011  57.7685  14.9299
  6866.912  6866.900  0.500  0.960447  152.195  58.2483  15.143
  6876.916  6876.900  0.500  0.953360  152.383  58.7352  15.3605
  6886.914  6886.900  0.500  0.946318  152.474  59.1855  15.5678
  6896.911  6896.900  0.500  0.939338  152.589  59.645  15.7786
  6906.910  6906.900  0.500  0.932723  152.621  60.0536  15.9782
  6916.913  6916.900  0.500  0.925880  152.526  60.4282  16.1652
  6926.903  6926.900  0.500  0.919352  152.471  60.8019  16.3528
  6936.914  6936.900  0.500  0.913040  152.448  61.1776  16.5351
  6946.909  6946.900  0.500  0.907536  152.476  61.5267  16.6932
  6948.899  6948.900  0.500  0.906566  152.472  61.5846  16.7215
  6950.906  6950.900  0.500  0.905649  152.483  61.6456  16.7464
  6952.899  6952.900  0.500  0.904781  152.487  61.7008  16.7674
  6954.898  6954.900  0.500  0.904191  152.487  61.7371  16.779
  6956.901  6956.900  0.500  0.903841  152.485  61.758  16.7828
  6958.898  6958.900  0.500  0.903727  152.484  61.7647  16.7786
  6960.897  6960.900  0.500  0.903665  152.508  61.7783  16.7693
  6962.898  6962.900  0.500  0.904536  152.495  61.7192  16.7267
  6964.899  6964.900  0.500  0.906054  152.483  61.6207  16.6569
  6966.899  6966.900  0.500  0.908850  152.491  61.4518  16.5379
  6967.386  6967.400  0.500  0.910044  152.495  61.3804  16.4924
  6967.883  6967.900  0.500  0.911127  152.488  61.311  16.4428
  6968.383  6968.400  0.500  0.912463  152.492  61.2307  16.3872
  6968.882  6968.900  0.500  0.914497  152.485  61.1033  16.3105
  6969.388  6969.400  0.500  0.916647  152.496  60.9766  16.2297
  6969.887  6969.900  0.500  0.918903  152.499  60.8406  16.1436
  6970.387  6970.400  0.500  0.920889  152.488  60.7152  16.064
  6970.885  6970.900  0.500  0.923211  152.476  60.5696  15.9782
  6971.386  6971.400  0.500  0.925946  152.472  60.403  15.8801
  6971.886  6971.900  0.500  0.928737  152.476  60.2359  15.7679
  6972.390  6972.400  0.500  0.932799  152.482  59.9942  15.6222
  6972.884  6972.900  0.500  0.937824  152.483  59.6938  15.4405
  6973.390  6973.400  0.500  0.944482  152.474  59.2941  15.2105
  6973.888  6973.900  0.500  0.952251  152.481  58.838  14.9431
  6974.389  6974.400  0.500  0.960828  152.473  58.3326  14.6528
  6974.893  6974.900  0.500  0.970716  152.473  57.7586  14.3325
  6975.389  6975.400  0.500  0.982460  152.47  57.083  13.964
  6975.890  6975.900  0.500  0.996993  152.468  56.2588  13.526
  6976.392  6976.400  0.500  1.014717  152.456  55.2659  13.0119
  6976.889  6976.900  0.500  1.036224  152.449  54.0876  12.4146
  6977.396  6977.400  0.500  1.064921  152.443  52.5556  11.6675
  6977.888  6977.900  0.500  1.100529  152.429  50.7124  10.8038
  6978.397  6978.400  0.500  1.145352  152.419  48.4864  9.814190
  6978.898  6978.900  0.500  1.200672  152.419  45.8767  8.726415
  6979.389  6979.400  0.500  1.266461  152.428  42.9584  7.603248
  6979.890  6979.900  0.500  1.343057  152.424  39.7897  6.487543
  6980.391  6980.400  0.500  1.419932  152.406  36.8412  5.544285
  6980.888  6980.900  0.500  1.490642  152.417  34.3285  4.813185
  6981.396  6981.400  0.500  1.553821  152.407  32.2248  4.242420
  6981.895  6981.900  0.500  1.604309  152.401  30.637  3.834031
  6982.398  6982.400  0.500  1.636730  152.397  29.6588  3.588971
  6982.900  6982.900  0.500  1.649067  152.403  29.2963  3.495562
  6983.395  6983.400  0.500  1.640848  152.4  29.5376  3.550886
  6983.891  6983.900  0.500  1.613778  152.399  30.3478  3.754920
  6984.392  6984.400  0.500  1.572221  152.386  31.6329  4.092657
  6984.894  6984.900  0.500  1.522634  152.386  33.241  4.534692
  6985.396  6985.400  0.500  1.466148  152.387  35.1728  5.086134
  6985.896  6985.900  0.500  1.408534  152.379  37.257  5.707460
  6986.400  6986.400  0.500  1.353682  152.391  39.3608  6.362418
  6986.900  6986.900  0.500  1.305255  152.4  41.3162  6.998492
  6987.394  6987.400  0.500  1.264187  152.391  43.0458  7.587706
  6987.896  6987.900  0.500  1.228903  152.4  44.5944  8.138116
  6988.396  6988.400  0.500  1.200549  152.404  45.8779  8.614209
  6988.895  6988.900  0.500  1.178865  152.389  46.879  9.002547
  6989.391  6989.400  0.500  1.161905  152.396  47.6832  9.324489
  6989.896  6989.900  0.500  1.148682  152.396  48.3178  9.590553
  6990.400  6990.400  0.500  1.138251  152.382  48.8201  9.806634
  6990.897  6990.900  0.500  1.130120  152.385  49.2196  9.975965
  6991.395  6991.400  0.500  1.122823  152.381  49.5786  10.1244
  6991.898  6991.900  0.500  1.116089  152.368  49.9094  10.2538
  6992.399  6992.400  0.500  1.110217  152.371  50.2042  10.3691
  6992.900  6992.900  0.500  1.105038  152.368  50.464  10.4664
  6993.405  6993.400  0.500  1.100231  152.371  50.7083  10.5557
  6993.898  6993.900  0.500  1.096094  152.359  50.9144  10.6313
  6994.395  6994.400  0.500  1.092405  152.356  51.1016  10.6973
  6994.900  6994.900  0.500  1.089658  152.361  51.2438  10.7469
  6995.404  6995.400  0.500  1.087659  152.355  51.3444  10.7825
  6995.903  6995.900  0.500  1.086155  152.35  51.4197  10.8059
  6996.407  6996.400  0.500  1.085302  152.356  51.4659  10.8226
  6996.900  6996.900  0.500  1.084926  152.349  51.4827  10.8295
  6997.401  6997.400  0.500  1.085156  152.345  51.4697  10.8276
  6997.905  6997.900  0.500  1.086136  152.336  51.4161  10.8184
  6998.399  6998.400  0.500  1.087652  152.336  51.3381  10.8046
  6998.900  6998.900  0.500  1.089771  152.328  51.2268  10.7879
  6999.402  6999.400  0.500  1.092064  152.328  51.1095  10.7691
  6999.902  6999.900  0.500  1.094847  152.326  50.9668  10.7463
  7000.404  7000.400  0.500  1.097767  152.32  50.8163  10.7245
  7000.900  7000.900  0.500  1.100604  152.314  50.6704  10.7043
  7001.402  7001.400  0.500  1.103419  152.32  50.5299  10.6841
  7001.903  7001.900  0.500  1.105625  152.318  50.4177  10.6699
  7002.889  7002.890  0.500  1.109248  152.309  50.2324  10.6454
  7003.902  7003.890  0.500  1.110302  152.305  50.1784  10.6393
  7004.912  7004.910  0.500  1.110158  152.31  50.1871  10.6299
  7005.967  7005.960  0.500  1.109612  152.287  50.2072  10.6023
  7007.023  7007.020  0.500  1.110303  152.286  50.1721  10.5394
  7008.111  7008.100  0.500  1.112389  152.274  50.0634  10.4456
  7009.205  7009.200  0.500  1.116053  152.263  49.8768  10.3196
  7010.332  7010.320  0.500  1.120188  152.247  49.6657  10.1856
  7011.469  7011.460  0.500  1.124894  152.241  49.4307  10.0458
  7012.612  7012.610  0.500  1.129810  152.236  49.1866  9.912331
  7013.807  7013.790  0.500  1.134974  152.229  48.9309  9.783994
  7014.986  7014.980  0.500  1.139099  152.222  48.7273  9.680085
  7016.208  7016.200  0.500  1.142006  152.203  48.5799  9.608290
  7017.438  7017.430  0.500  1.143563  152.199  48.5029  9.571604
  7018.691  7018.680  0.500  1.143436  152.194  48.5077  9.577467
  7019.951  7019.950  0.500  1.141070  152.184  48.6192  9.627156
  7021.245  7021.240  0.500  1.137571  152.191  48.7921  9.710953
  7022.557  7022.550  0.500  1.132449  152.18  49.0389  9.820962
  7023.885  7023.880  0.500  1.126365  152.15  49.3283  9.949259
  7025.244  7025.230  0.500  1.119911  152.146  49.6467  10.0899
  7026.613  7026.600  0.500  1.113098  152.137  49.9831  10.2313
  7027.987  7027.980  0.500  1.106500  152.136  50.3134  10.3669
  7029.399  7029.390  0.500  1.100545  152.7  50.8016  10.5291
  7030.821  7030.810  0.500  1.095636  152.664  51.0397  10.6272
  7032.261  7032.250  0.500  1.091798  152.667  51.2368  10.7126
  7033.719  7033.710  0.500  1.088833  152.658  51.3862  10.78
  7035.205  7035.190  0.500  1.086816  152.643  51.4848  10.8329
  7036.704  7036.690  0.500  1.085555  152.648  51.5515  10.8714
  7038.219  7038.210  0.500  1.085100  152.648  51.575  10.8956
  7039.755  7039.750  0.500  1.085527  152.64  51.55  10.9048
  7041.322  7041.310  0.500  1.086516  152.628  51.4951  10.9029
  7042.891  7042.880  0.500  1.087778  152.611  51.4244  10.8957
  7044.492  7044.480  0.500  1.089864  152.611  51.3173  10.8756
  7046.099  7046.090  0.500  1.092192  152.582  51.1881  10.8452
  7047.737  7047.730  0.500  1.095097  152.563  51.0333  10.8043
  7049.389  7049.380  0.500  1.097154  152.56  50.9277  10.7697
  7051.063  7051.050  0.500  1.097585  152.564  50.9068  10.7518
  7052.749  7052.740  0.500  1.096844  152.559  50.9431  10.742
  7054.460  7054.450  0.500  1.095120  152.557  51.0302  10.742
  7056.192  7056.180  0.500  1.093245  152.561  51.1274  10.7438
  7057.943  7057.930  0.500  1.091340  152.546  51.2197  10.7468
  7059.708  7059.690  0.500  1.089070  152.544  51.3354  10.7593
  7061.493  7061.480  0.500  1.086431  152.541  51.4702  10.7798
  7063.293  7063.280  0.500  1.083457  151.866  51.3951  10.7597
  7065.120  7065.110  0.500  1.080427  152.415  51.7374  10.834
  7066.973  7066.950  0.500  1.077931  152.43  51.8717  10.8678
  7068.802  7068.810  0.500  1.076679  152.379  51.9194  10.8898
  7070.689  7070.690  0.500  1.076211  152.035  51.8263  10.8868
  7072.588  7072.590  0.500  1.076889  152.34  51.895  10.9172
  7074.513  7074.510  0.500  1.077920  152.164  51.7817  10.9133
  7076.458  7076.450  0.500  1.078491  152.17  51.7544  10.9249
  7078.417  7078.410  0.500  1.079013  152.292  51.7686  10.9474
  7080.395  7080.380  0.500  1.078913  152.298  51.7761  10.9664
  7082.388  7082.380  0.500  1.077614  151.91  51.7113  10.9708
  7084.408  7084.390  0.500  1.075532  152.11  51.8872  11.0254
  7086.429  7086.420  0.500  1.072770  152.182  52.0553  11.0779
  7088.488  7088.480  0.500  1.070160  152.186  52.1928  11.1253
  7090.556  7090.550  0.500  1.067797  152.165  52.3091  11.1706
  7092.650  7092.640  0.500  1.065540  152.134  52.4166  11.2171
  7094.759  7094.750  0.500  1.063149  152.117  52.5361  11.2676
  7096.889  7096.880  0.500  1.060407  152.097  52.6736  11.3244
  7099.031  7099.020  0.500  1.057172  152.085  52.8398  11.386
  7101.191  7101.190  0.500  1.054054  152.075  53.0013  11.452
  7103.389  7103.380  0.500  1.051588  152.051  53.1239  11.5086
  7105.584  7105.580  0.500  1.049805  152.025  53.2095  11.5564
  7107.809  7107.800  0.500  1.049224  151.996  53.2304  11.5863
  7110.061  7110.050  0.500  1.049437  151.936  53.1982  11.5974
  7112.314  7112.310  0.500  1.049775  151.752  53.1158  11.5879
  7114.598  7114.590  0.500  1.049914  151.65  53.0728  11.5781
  7116.900  7116.890  0.500  1.050283  151.62  53.0424  11.5652
  7119.215  7119.210  0.500  1.049901  151.512  53.0249  11.5547
  7121.563  7121.550  0.500  1.049060  151.415  53.0357  11.5543
  7123.912  7123.900  0.500  1.048068  151.332  53.0591  11.552
  7126.288  7126.280  0.500  1.046535  151.205  53.0958  11.5532
  7128.685  7128.670  0.500  1.044731  151.059  53.1406  11.5602
  7131.100  7131.090  0.500  1.043132  150.865  53.1571  11.5646
  7133.531  7133.520  0.500  1.041127  150.791  53.2378  11.585
  7135.981  7135.970  0.500  1.038942  150.789  53.3536  11.6229
  7138.456  7138.450  0.500  1.036499  150.779  53.4803  11.6678
  7140.955  7140.940  0.500  1.034244  150.785  53.6032  11.7182
  7143.461  7143.450  0.500  1.030985  150.782  53.7771  11.7859
  7145.980  7145.970  0.500  1.028643  150.785  53.9046  11.8484
  7148.528  7148.520  0.500  1.026475  150.781  54.0198  11.9077
  7151.102  7151.090  0.500  1.024563  150.762  54.1166  11.9571
  7153.682  7153.670  0.500  1.023021  150.748  54.1949  11.9989
  7156.290  7156.280  0.500  1.021665  150.729  54.2616  12.0345
  7158.912  7158.900  0.500  1.020609  150.714  54.3135  12.0633
  7161.563  7161.550  0.500  1.019509  150.663  54.355  12.0872
  7164.221  7164.210  0.500  1.018697  150.6  54.3762  12.1044
  7166.900  7166.890  0.500  1.017925  150.535  54.395  12.1229
  7169.598  7169.590  0.500  1.017299  150.472  54.4063  12.1378
  7172.321  7172.310  0.500  1.015608  150.42  54.4794  12.1688
  7175.065  7175.050  0.500  1.013636  150.365  54.567  12.2036
  7177.812  7177.800  0.500  1.011599  150.34  54.6692  12.2444
  7180.591  7180.580  0.500  1.009624  150.308  54.7655  12.2852
  7183.382  7183.370  0.500  1.008005  150.262  54.8377  12.3226
  7186.205  7186.190  0.500  1.006070  150.219  54.9281  12.3706
  7189.030  7189.020  0.500  1.003779  150.2  55.0471  12.4208
  7191.880  7191.870  0.500  1.001501  147.87  54.3167  12.2827
  7194.761  7194.750  0.500  0.999333  149.955  55.2022  12.5094
  7197.653  7197.640  0.500  0.996872  149.951  55.3368  12.5665
  7200.563  7200.550  0.500  0.994373  149.895  55.4543  12.6152
  7203.484  7203.470  0.500  0.992146  149.839  55.5574  12.6578
  7206.429  7206.420  0.500  0.990219  149.763  55.6363  12.6923
  7209.399  7209.390  0.500  0.988835  149.686  55.6848  12.7168
  7212.379  7212.370  0.500  0.987067  149.613  55.756  12.7445
  7215.396  7215.380  0.500  0.985441  149.535  55.8175  12.7709
  7218.409  7218.400  0.500  0.983717  149.471  55.8899  12.7979
  7221.463  7221.450  0.500  0.982091  149.391  55.951  12.8271
  7224.521  7224.510  0.500  0.980475  149.315  56.0129  12.8557
  7227.600  7227.590  0.500  0.979029  147.161  55.2847  12.7064
  7230.701  7230.690  0.500  0.977435  149.343  56.1941  12.9356
  7233.823  7233.810  0.500  0.975677  149.271  56.2656  12.9755
  7236.961  7236.950  0.500  0.973272  149.198  56.3736  13.0255
  7240.116  7240.100  0.500  0.970940  149.151  56.4874  13.0785
  7243.295  7243.280  0.500  0.968412  149.075  56.6015  13.1321
  7246.484  7246.470  0.500  0.965771  148.831  56.6583  13.172
  7249.701  7249.690  0.500  0.963304  148.913  56.8296  13.239
  7252.927  7252.920  0.500  0.961050  148.681  56.8693  13.2763
  7256.177  7256.170  0.500  0.958741  148.967  57.1103  13.3615
  7259.456  7259.450  0.500  0.956833  148.727  57.1271  13.3916
  7262.747  7262.740  0.500  0.954907  147.13  56.6226  13.2996
  7266.059  7266.050  0.500  0.952876  148.274  57.179  13.4519
  7269.382  7269.370  0.500  0.951031  149.131  57.6157  13.5764
  7272.734  7272.720  0.500  0.949551  148.892  57.6084  13.5953
  7276.101  7276.090  0.500  0.947983  149.136  57.7935  13.6597
  7279.482  7279.470  0.500  0.946175  149.046  57.863  13.6974
  7282.889  7282.880  0.500  0.944046  148.931  57.9417  13.7371
  7286.308  7286.300  0.500  0.942222  148.716  57.9637  13.7686
  7289.754  7289.750  0.500  0.940338  148.774  58.0957  13.8254
  7293.214  7293.210  0.500  0.938218  148.731  58.202  13.8797
  7296.695  7296.690  0.500  0.935959  148.645  58.3  13.9314
  7300.194  7300.190  0.500  0.933536  148.367  58.3322  13.9703
  7303.719  7303.710  0.500  0.931057  148.672  58.597  14.0651
  7307.256  7307.250  0.500  0.928485  148.567  58.7065  14.1164
  7310.813  7310.800  0.500  0.925565  148.484  58.8453  14.1786
  7314.391  7314.380  0.500  0.922824  148.386  58.9679  14.2347
  7317.990  7317.980  0.500  0.920606  148.311  59.0689  14.2859
  7321.598  7321.590  0.500  0.918138  148.232  59.1835  14.3377
  7325.229  7325.220  0.500  0.915733  148.172  59.3018  14.3914
  7328.884  7328.880  0.500  0.913567  148.096  59.3998  14.4409
  7332.556  7332.550  0.500  0.911449  148.016  59.4939  14.4879
  7336.244  7336.240  0.500  0.909354  147.954  59.5934  14.5372
  7339.956  7339.950  0.500  0.907189  147.024  59.3475  14.5003
  7343.686  7343.680  0.500  0.905025  147.719  59.7571  14.6275
  7347.426  7347.420  0.500  0.902983  147.665  59.8573  14.6812
  7351.199  7351.190  0.500  0.900760  147.598  59.9634  14.7343
  7354.986  7354.980  0.500  0.898709  147.535  60.0607  14.79
  7358.785  7358.780  0.500  0.896491  147.455  60.1616  14.8456
  7362.622  7362.610  0.500  0.894380  147.383  60.259  14.901
  7366.464  7366.450  0.500  0.892004  147.287  60.3634  14.9593
  7370.323  7370.310  0.500  0.889451  147.217  60.4885  15.024
  7374.205  7374.190  0.500  0.886930  147.134  60.6074  15.0866
  7378.103  7378.090  0.500  0.884554  147.032  60.7094  15.1461
  7382.024  7382.010  0.500  0.881860  146.947  60.8377  15.2114
  7385.963  7385.950  0.500  0.879466  146.853  60.9448  15.2712
  7389.932  7389.910  0.500  0.876876  146.781  61.0729  15.3365
  7393.901  7393.880  0.500  0.874159  146.713  61.2107  15.4052
  7397.895  7397.880  0.500  0.871571  146.62  61.3301  15.4674
  7401.924  7401.890  0.500  0.869215  146.519  61.4324  15.525
  7405.962  7405.930  0.500  0.866756  146.418  61.5416  15.5836
  7410.002  7409.980  0.500  0.864649  146.317  61.6287  15.6358
  7414.064  7414.050  0.500  0.862563  146.197  61.7065  15.6846
  7418.155  7418.140  0.500  0.860307  146.089  61.8005  15.7394
  7422.263  7422.250  0.500  0.857922  145.999  61.9099  15.7968
  7426.379  7426.380  0.500  0.855602  145.905  62.0135  15.8563
  7430.527  7430.530  0.500  0.853141  145.779  62.1129  15.9165
  7434.706  7434.690  0.500  0.850663  145.68  62.2245  15.978
  7438.910  7438.880  0.500  0.848306  145.55  62.3159  16.0375
  7443.111  7443.080  0.500  0.845597  145.351  62.3993  16.0968
  7447.342  7447.310  0.500  0.842482  145.396  62.6132  16.1881
  7451.545  7451.550  0.500  0.839678  145.091  62.6575  16.2352
  7455.836  7455.810  0.500  0.836986  145.127  62.842  16.3192
  7460.080  7460.090  0.500  0.834499  142.963  62.0592  16.1534
  7464.381  7464.390  0.500  0.831572  144.878  63.0746  16.4554
  7468.704  7468.710  0.500  0.829225  144.785  63.1825  16.5193
  7473.053  7473.050  0.500  0.826676  144.741  63.3243  16.5963
  7477.399  7477.410  0.500  0.824027  144.577  63.4205  16.6587
  7481.825  7481.790  0.500  0.821510  144.44  63.5198  16.7232
  7486.167  7486.180  0.500  0.819471  144.295  63.5856  16.776
  7490.592  7490.600  0.500  0.816934  144.137  63.6777  16.8347
  7495.019  7495.030  0.500  0.814228  144.03  63.8027  16.9025
  7499.474  7499.480  0.500  0.811837  143.884  63.8906  16.9601
  7503.935  7503.950  0.500  0.809622  143.746  63.9706  17.0178
  7508.421  7508.440  0.500  0.806940  143.572  64.0648  17.0782
  7512.944  7512.950  0.500  0.804415  143.422  64.1598  17.144
  7517.467  7517.480  0.500  0.801613  143.282  64.2772  17.2156
  7522.006  7522.030  0.500  0.798776  143.124  64.3884  17.2898
  7526.581  7526.600  0.500  0.795993  142.992  64.5086  17.363
  7531.165  7531.180  0.500  0.793231  142.828  64.6127  17.4368
  7535.782  7535.790  0.500  0.790432  142.662  64.7185  17.5096
  7540.389  7540.410  0.500  0.787520  142.513  64.8396  17.5868
  7545.098  7545.060  0.500  0.784873  142.352  64.9379  17.6577
  7549.741  7549.720  0.500  0.782231  142.285  65.079  17.7381
  7554.413  7554.400  0.500  0.779625  142.546  65.3683  17.8599
  7559.117  7559.100  0.500  0.777004  142.402  65.474  17.9311
  7563.833  7563.820  0.500  0.774345  142.234  65.5706  17.9982
  7568.571  7568.560  0.500  0.771368  142.063  65.6872  18.0721
  7573.335  7573.310  0.500  0.768688  141.915  65.7948  18.1389
  7578.106  7578.090  0.500  0.766021  141.738  65.8882  18.204
  7582.909  7582.890  0.500  0.763440  141.558  65.9746  18.2677
  7587.717  7587.700  0.500  0.760966  141.348  66.04  18.3233
  7592.543  7592.530  0.500  0.758699  141.136  66.0906  18.3737