File: xdidata/Ge/Ge-K-GermaniumOxide.xdi
# XDI/1.0 BlueSky/1.10.0 BMM/2023-1.0-py310-tiled
# Beamline.name: BMM (06BM) -- Beamline for Materials Measurement (NIST)
# Beamline.xray_source: NSLS-II three-pole wiggler
# Beamline.collimation: paraboloid mirror, 5 nm Rh on 30 nm Pt
# Beamline.focusing: not in use
# Beamline.harmonic_rejection: flat mirror, Pt stripe, pitch = 7.0 mrad relative to beam
# Beamline.software: Bluesky 1.10.0, Ophyd 1.7.0, DataBroker 2.0.0b13, Python 3.10.8, 2023-1.0-py310-tiled
# Detector.I0: 10 cm N2
# Detector.I1: 25 cm N2
# Detector.I2: 25 cm N2
# Element.symbol: Ge
# Element.edge: K
# Element.reference: Ge
# Element.reference_material: GeO2
# Facility.name: NSLS-II
# Facility.energy: 3.0
# Facility.current: 399.3
# Facility.mode: top-off
# Facility.GUP: 301027
# Facility.SAF: 310583
# Facility.cycle: 2023-2
# Mono.name: Si(111)
# Mono.d_spacing: 3.13519
# Mono.encoder_resolution: 0.0000050 deg/ct
# Mono.angle_offset: 16.0754 deg
# Mono.scan_mode: pseudo channel cut
# Mono.scan_type: step
# Mono.direction: forward in energy
# Sample.name: GeO2
# Sample.prep: PEG pellet
# Sample.x: 109.138 mm
# Sample.y: 153.150 mm
# Sample.SDD_position: 205.000 mm
# Scan.experimenters: Bruce Ravel
# Scan.edge_energy: 11103.1
# Scan.start_time: 2023-05-28T18:35:44
# Scan.end_time: 2023-05-28T18:43:33
# Scan.transient_id: 78917
# Scan.uid: 8cf39e21-e6ac-4343-be0b-623baccc9895
# Scan.plot_hint: ln(It/Ir)  --  ln($6/$7)
# Column.1: energy eV
# Column.2: requested_energy eV
# Column.3: measurement_time seconds
# Column.4: xmu
# Column.5: I0 nA
# Column.6: It nA
# Column.7: Ir nA
# ///////////
# sample courtesy Martin Stennett, University of Sheffield
# -----------
# energy  requested_energy  measurement_time  xmu  I0  It  Ir
  10903.129  10903.100  0.500  0.667800  80.4427  130.359  66.8525
  10913.179  10913.100  0.500  0.665941  80.2647  130.137  66.8629
  10923.180  10923.100  0.500  0.664178  80.0806  129.897  66.8576
  10933.169  10933.100  0.500  0.662467  80.0646  129.936  66.9922
  10943.104  10943.100  0.500  0.660803  79.9098  129.77  67.0178
  10953.120  10953.100  0.500  0.659024  79.7166  129.499  66.9973
  10963.118  10963.100  0.500  0.657324  79.5495  129.291  67.0033
  10973.118  10973.100  0.500  0.655696  79.3696  129.064  66.9948
  10983.138  10983.100  0.500  0.653994  79.1868  128.832  66.9883
  10993.144  10993.100  0.500  0.652349  79.0157  128.626  66.9912
  11003.138  11003.100  0.500  0.650717  78.8334  128.394  66.9795
  11013.139  11013.100  0.500  0.649121  78.6636  128.168  66.9686
  11023.170  11023.100  0.500  0.647527  78.4807  127.943  66.9574
  11033.113  11033.100  0.500  0.645981  78.3009  127.715  66.9418
  11043.138  11043.100  0.500  0.644630  78.123  127.492  66.9148
  11053.177  11053.100  0.500  0.643266  77.9471  127.248  66.8781
  11063.127  11063.100  0.500  0.642158  77.7633  127.008  66.8258
  11073.112  11073.100  0.500  0.641436  77.587  126.795  66.7619
  11075.093  11075.100  0.500  0.641331  77.5355  126.721  66.7302
  11077.102  11077.100  0.500  0.641339  77.4608  126.616  66.6744
  11079.089  11079.100  0.500  0.641396  77.4713  126.646  66.6863
  11081.126  11081.100  0.500  0.641475  77.4377  126.602  66.6577
  11083.558  11083.100  0.500  0.641633  77.3934  126.541  66.6152
  11085.287  11085.100  0.500  0.641896  77.3631  126.488  66.5698
  11087.214  11087.100  0.500  0.642271  77.3216  126.445  66.5223
  11089.125  11089.100  0.500  0.642778  77.2619  126.362  66.4451
  11091.069  11091.100  0.500  0.643490  77.1912  126.243  66.3352
  11093.089  11093.100  0.500  0.644565  77.2105  126.3  66.2938
  11093.361  11093.400  0.500  0.644682  77.208  126.299  66.2853
  11093.661  11093.700  0.500  0.644844  77.1973  126.274  66.2614
  11093.965  11094.000  0.500  0.645110  77.1928  126.267  66.2402
  11094.265  11094.300  0.500  0.645346  77.1922  126.275  66.2291
  11094.564  11094.600  0.500  0.645591  77.1789  126.257  66.203
  11094.869  11094.900  0.500  0.645876  77.1697  126.253  66.1823
  11095.157  11095.200  0.500  0.646092  77.1593  126.226  66.154
  11095.467  11095.500  0.500  0.646301  77.1535  126.212  66.1328
  11095.788  11095.800  0.500  0.646623  77.1404  126.191  66.1003
  11096.072  11096.100  0.500  0.646911  77.1381  126.189  66.0804
  11096.371  11096.400  0.500  0.647188  77.1418  126.202  66.0686
  11096.676  11096.700  0.500  0.647585  77.1233  126.181  66.0317
  11096.975  11097.000  0.500  0.647849  77.1045  126.144  65.9946
  11097.275  11097.300  0.500  0.648258  77.0815  126.11  65.9501
  11097.590  11097.600  0.500  0.648675  77.0566  126.068  65.9006
  11097.879  11097.900  0.500  0.649037  77.0398  126.049  65.8668
  11098.173  11098.200  0.500  0.649477  77.0141  126.005  65.8147
  11098.473  11098.500  0.500  0.649969  77.0099  125.994  65.7765
  11098.773  11098.800  0.500  0.650450  77.0165  126.001  65.749
  11099.061  11099.100  0.500  0.650977  77.027  126.032  65.7304
  11099.377  11099.400  0.500  0.651631  77.0333  126.047  65.695
  11099.693  11099.700  0.500  0.652207  77.041  126.064  65.6663
  11099.971  11100.000  0.500  0.652832  77.0529  126.076  65.6313
  11100.276  11100.300  0.500  0.653517  77.0427  126.055  65.5754
  11100.570  11100.600  0.500  0.654305  77.0328  126.04  65.516
  11100.870  11100.900  0.500  0.655075  77.0284  126.033  65.4617
  11101.175  11101.200  0.500  0.655903  77.0247  126.048  65.4156
  11101.485  11101.500  0.500  0.656867  77.0192  126.025  65.3405
  11101.780  11101.800  0.500  0.657794  77.0126  126.023  65.279
  11102.080  11102.100  0.500  0.658887  76.9995  126.01  65.2008
  11102.390  11102.400  0.500  0.660053  76.9965  125.992  65.1156
  11102.690  11102.700  0.500  0.661281  76.9881  125.988  65.0339
  11102.984  11103.000  0.500  0.662594  76.9848  125.98  64.9442
  11103.300  11103.300  0.500  0.664162  76.975  125.976  64.8403
  11103.595  11103.600  0.500  0.665785  76.9652  125.956  64.7253
  11103.894  11103.900  0.500  0.667521  76.9482  125.93  64.5996
  11104.194  11104.200  0.500  0.669493  76.9264  125.9  64.4566
  11104.494  11104.500  0.500  0.671689  76.9078  125.874  64.3023
  11104.789  11104.800  0.500  0.674115  76.8842  125.84  64.1287
  11105.105  11105.100  0.500  0.676980  76.857  125.79  63.9199
  11105.399  11105.400  0.500  0.679900  76.8529  125.774  63.7259
  11105.694  11105.700  0.500  0.683214  76.8337  125.744  63.4995
  11105.994  11106.000  0.500  0.687035  76.8211  125.735  63.253
  11106.294  11106.300  0.500  0.691257  76.8154  125.737  62.9874
  11106.599  11106.600  0.500  0.695971  76.8146  125.742  62.6939
  11106.899  11106.900  0.500  0.701472  76.8123  125.739  62.3484
  11107.199  11107.200  0.500  0.707835  76.812  125.736  61.9514
  11107.494  11107.500  0.500  0.715108  76.8173  125.742  61.5056
  11107.794  11107.800  0.500  0.724066  76.8302  125.768  60.9694
  11108.110  11108.100  0.500  0.734849  76.8463  125.799  60.3306
  11108.389  11108.400  0.500  0.746620  76.8482  125.801  59.6253
  11108.684  11108.700  0.500  0.761140  76.8443  125.812  58.7708
  11109.000  11109.000  0.500  0.779198  76.8484  125.81  57.7185
  11109.295  11109.300  0.500  0.799190  76.8365  125.799  56.5708
  11109.589  11109.600  0.500  0.822433  76.8354  125.797  55.2703
  11109.890  11109.900  0.500  0.850784  76.8213  125.782  53.7189
  11110.190  11110.200  0.500  0.881857  76.8179  125.766  52.0687
  11110.479  11110.500  0.500  0.918760  76.7894  125.722  50.1649
  11110.796  11110.800  0.500  0.960900  76.7658  125.691  48.0827
  11111.090  11111.100  0.500  1.001216  76.7458  125.661  46.1719
  11111.391  11111.400  0.500  1.042944  76.7289  125.633  44.275
  11111.680  11111.700  0.500  1.082590  76.7115  125.615  42.5481
  11111.991  11112.000  0.500  1.116700  76.7183  125.617  41.1217
  11112.286  11112.300  0.500  1.144403  76.7231  125.623  40
  11112.597  11112.600  0.500  1.165048  76.7296  125.632  39.1855
  11112.903  11112.900  0.500  1.176890  76.7383  125.649  38.7295
  11113.187  11113.200  0.500  1.180638  76.7427  125.661  38.5882
  11113.493  11113.500  0.500  1.177020  76.7494  125.663  38.7288
  11113.809  11113.800  0.500  1.167027  76.7359  125.656  39.1156
  11114.094  11114.100  0.500  1.152558  76.7242  125.635  39.679
  11114.405  11114.400  0.500  1.134846  76.7297  125.642  40.3903
  11114.716  11114.700  0.500  1.115511  76.7195  125.635  41.1766
  11115.000  11115.000  0.500  1.097486  76.7179  125.621  41.9207
  11115.306  11115.300  0.500  1.080135  76.7054  125.612  42.6515
  11115.612  11115.600  0.500  1.064156  76.6992  125.603  43.3354
  11115.902  11115.900  0.500  1.050631  76.6897  125.591  43.9212
  11116.197  11116.200  0.500  1.038411  76.6886  125.587  44.4599
  11116.514  11116.500  0.500  1.026608  76.6781  125.57  44.9816
  11116.814  11116.800  0.500  1.016843  76.6699  125.573  45.4243
  11117.099  11117.100  0.500  1.007978  76.6676  125.567  45.8265
  11117.399  11117.400  0.500  1.000581  76.6558  125.54  46.1569
  11117.700  11117.700  0.500  0.994672  76.6456  125.522  46.4237
  11117.995  11118.000  0.500  0.990881  76.6261  125.488  46.5872
  11118.301  11118.300  0.500  0.989446  76.6061  125.45  46.6401
  11118.607  11118.600  0.500  0.990783  76.5817  125.431  46.571
  11118.897  11118.900  0.500  0.994402  76.5632  125.403  46.3921
  11119.193  11119.200  0.500  1.000285  76.5474  125.374  46.1093
  11119.504  11119.500  0.500  1.007810  76.5348  125.358  45.7578
  11119.778  11119.800  0.500  1.014909  76.5314  125.366  45.4372
  11120.089  11120.100  0.500  1.021492  76.5409  125.383  45.1449
  11120.395  11120.400  0.500  1.025889  76.5569  125.413  44.9576
  11120.686  11120.700  0.500  1.027675  76.5615  125.417  44.879
  11120.992  11121.000  0.500  1.027314  76.5655  125.419  44.896
  11121.282  11121.300  0.500  1.025276  76.5652  125.42  44.988
  11121.588  11121.600  0.500  1.022653  76.5556  125.409  45.102
  11121.889  11121.900  0.500  1.020075  76.5456  125.404  45.2167
  11122.195  11122.200  0.500  1.018065  76.5482  125.397  45.3051
  11122.496  11122.500  0.500  1.016897  76.5453  125.394  45.357
  11122.791  11122.800  0.500  1.016533  76.536  125.387  45.3709
  11123.092  11123.100  0.500  1.016423  76.5304  125.385  45.3752
  11123.399  11123.400  0.500  1.016170  76.5173  125.351  45.3745
  11123.710  11123.700  0.500  1.015228  76.5083  125.342  45.414
  11124.006  11124.000  0.500  1.013482  76.5007  125.34  45.4925
  11124.301  11124.300  0.500  1.010785  76.4921  125.332  45.6124
  11124.602  11124.600  0.500  1.007181  76.4879  125.321  45.7732
  11124.903  11124.900  0.500  1.003136  76.4849  125.316  45.9567
  11125.204  11125.200  0.500  0.998736  76.4757  125.296  46.1522
  11125.505  11125.500  0.500  0.994427  76.4731  125.285  46.3474
  11125.807  11125.800  0.500  0.990034  76.4629  125.27  46.546
  11126.113  11126.100  0.500  0.985771  76.4568  125.263  46.7422
  11126.409  11126.400  0.500  0.981677  76.4458  125.251  46.9292
  11126.704  11126.700  0.500  0.977988  76.4434  125.242  47.0994
  11127.011  11127.000  0.500  0.974474  76.4318  125.222  47.2577
  11127.307  11127.300  0.500  0.971858  76.4237  125.218  47.3798
  11127.597  11127.600  0.500  0.969616  76.6336  125.57  47.6197
  11127.914  11127.900  0.500  0.968064  76.7192  125.711  47.7473
  11128.103  11128.100  0.500  0.967397  76.7271  125.722  47.7834
  11129.103  11129.090  0.500  0.967284  76.7137  125.702  47.781
  11130.093  11130.090  0.500  0.970328  76.7029  125.688  47.6304
  11131.105  11131.110  0.500  0.974317  76.6863  125.656  47.4287
  11132.159  11132.160  0.500  0.975627  76.6677  125.644  47.3622
  11133.220  11133.220  0.500  0.972711  76.6447  125.622  47.4924
  11134.313  11134.300  0.500  0.966755  76.6244  125.607  47.7702
  11135.427  11135.400  0.500  0.959256  76.5931  125.55  48.1078
  11136.553  11136.520  0.500  0.951576  76.576  125.52  48.4672
  11137.684  11137.660  0.500  0.944322  76.545  125.492  48.8094
  11138.821  11138.810  0.500  0.936902  76.5314  125.466  49.1627
  11139.991  11139.990  0.500  0.927871  76.504  125.438  49.5975
  11141.193  11141.180  0.500  0.918460  76.4844  125.411  50.0555
  11142.401  11142.400  0.500  0.910390  76.461  125.388  50.452
  11143.625  11143.630  0.500  0.904424  76.4437  125.352  50.7393
  11144.898  11144.880  0.500  0.900688  76.4155  125.315  50.9142
  11146.166  11146.150  0.500  0.898110  76.3987  125.297  51.0383
  11147.461  11147.440  0.500  0.896057  76.3702  125.255  51.1262
  11148.773  11148.750  0.500  0.894846  76.3392  125.211  51.17
  11150.085  11150.080  0.500  0.893907  76.3154  125.185  51.2077
  11151.435  11151.430  0.500  0.893077  76.2933  125.15  51.2357
  11152.802  11152.800  0.500  0.892824  76.2656  125.123  51.2376
  11154.180  11154.180  0.500  0.893286  76.2464  125.091  51.201
  11155.601  11155.590  0.500  0.894173  76.2195  125.056  51.1409
  11157.028  11157.010  0.500  0.895692  76.1894  125.022  51.0496
  11158.461  11158.450  0.500  0.898767  76.1587  124.979  50.8755
  11159.933  11159.910  0.500  0.903152  76.1363  124.939  50.6365
  11161.388  11161.390  0.500  0.907139  76.1021  124.9  50.4194
  11162.876  11162.890  0.500  0.909689  76.0781  124.867  50.2775
  11164.419  11164.410  0.500  0.912360  76.0441  124.823  50.126
  11165.957  11165.950  0.500  0.916433  76.0241  124.795  49.911
  11167.528  11167.510  0.500  0.921931  75.9923  124.74  49.6153
  11169.088  11169.080  0.500  0.928337  75.9705  124.71  49.2866
  11170.687  11170.680  0.500  0.934995  75.934  124.671  48.9441
  11172.308  11172.290  0.500  0.940542  75.9113  124.639  48.6611
  11173.945  11173.930  0.500  0.944897  75.884  124.603  48.4356
  11175.594  11175.580  0.500  0.947629  75.8584  124.562  48.2875
  11177.249  11177.250  0.500  0.948566  75.8209  124.526  48.2282
  11178.943  11178.940  0.500  0.948230  75.7879  124.48  48.2267
  11180.675  11180.650  0.500  0.947417  75.7538  124.44  48.2506
  11182.418  11182.380  0.500  0.946341  75.7208  124.407  48.2897
  11184.151  11184.130  0.500  0.945204  75.6919  124.365  48.3284
  11185.895  11185.890  0.500  0.944137  75.6549  124.312  48.3593
  11187.684  11187.680  0.500  0.943767  75.6257  124.273  48.3621
  11189.495  11189.480  0.500  0.944102  75.5908  124.229  48.3285
  11191.328  11191.310  0.500  0.944830  75.5607  124.175  48.2726
  11193.167  11193.150  0.500  0.945169  75.5275  124.124  48.2361
  11195.018  11195.010  0.500  0.944973  75.4913  124.077  48.2277
  11196.896  11196.890  0.500  0.944147  75.4528  124.038  48.2521
  11198.798  11198.790  0.500  0.942918  75.4226  123.994  48.2944
  11200.743  11200.710  0.500  0.941260  75.3865  123.954  48.3591
  11202.651  11202.650  0.500  0.939018  75.3548  123.899  48.4458
  11204.625  11204.610  0.500  0.936828  75.3158  123.856  48.5353
  11206.583  11206.580  0.500  0.934931  75.2773  123.799  48.6051
  11208.596  11208.580  0.500  0.933510  75.2419  123.745  48.6531
  11210.594  11210.590  0.500  0.932360  75.2018  123.693  48.6885
  11212.637  11212.620  0.500  0.930923  75.1636  123.649  48.7413
  11214.685  11214.680  0.500  0.929247  75.1298  123.602  48.8045
  11216.762  11216.750  0.500  0.927394  75.0883  123.554  48.876
  11218.866  11218.840  0.500  0.925498  75.0464  123.5  48.9473
  11220.956  11220.950  0.500  0.923758  75.0113  123.435  49.0068
  11223.078  11223.080  0.500  0.922102  74.9705  123.398  49.0732
  11225.246  11225.220  0.500  0.920076  74.9265  123.341  49.1498
  11227.403  11227.390  0.500  0.917789  74.8787  123.27  49.2342
  11229.599  11229.580  0.500  0.915526  74.8333  123.209  49.3213
  11231.791  11231.780  0.500  0.914012  74.7887  123.14  49.3682
  11234.022  11234.000  0.500  0.912735  74.7291  123.062  49.4003
  11236.271  11236.250  0.500  0.911737  74.6629  122.955  49.4067
  11238.509  11238.510  0.500  0.910739  74.5389  122.77  49.3815
  11240.787  11240.790  0.500  0.909616  72.6936  119.746  48.2193
  11243.098  11243.090  0.500  0.909440  74.4865  122.706  49.42
  11245.422  11245.410  0.500  0.909268  74.6524  122.994  49.5444
  11247.763  11247.750  0.500  0.909416  74.5719  122.893  49.4962
  11250.105  11250.100  0.500  0.909652  74.5219  122.815  49.4531
  11252.503  11252.480  0.500  0.910039  74.4702  122.729  49.3996
  11254.891  11254.870  0.500  0.910520  74.4217  122.672  49.3528
  11257.297  11257.290  0.500  0.911027  74.3711  122.601  49.2992
  11259.731  11259.720  0.500  0.911412  74.3272  122.53  49.2517
  11262.194  11262.170  0.500  0.911354  74.2775  122.461  49.2269
  11264.647  11264.650  0.500  0.911757  74.2259  122.391  49.1787
  11267.145  11267.140  0.500  0.912494  74.1767  122.328  49.1173
  11269.672  11269.650  0.500  0.913733  74.1273  122.26  49.0293
  11272.189  11272.170  0.500  0.915141  74.0812  122.188  48.9314
  11274.723  11274.720  0.500  0.916630  74.0341  122.124  48.8329
  11277.303  11277.290  0.500  0.917902  73.9847  122.057  48.744
  11279.873  11279.870  0.500  0.918790  73.9354  122.001  48.6786
  11282.494  11282.480  0.500  0.919227  73.8875  121.932  48.6297
  11285.100  11285.100  0.500  0.918981  73.8288  121.85  48.609
  11287.785  11287.750  0.500  0.918441  73.7777  121.787  48.6103
  11290.410  11290.410  0.500  0.917569  73.7143  121.704  48.6195
  11293.108  11293.090  0.500  0.916164  73.654  121.604  48.6479
  11295.813  11295.790  0.500  0.914806  73.5525  121.461  48.6565
  11298.519  11298.510  0.500  0.913318  72.808  120.249  48.2427
  11301.249  11301.250  0.500  0.911913  73.3946  121.235  48.7067
  11304.035  11304.000  0.500  0.910287  73.5215  121.461  48.8769
  11306.779  11306.780  0.500  0.908859  73.4519  121.35  48.9021
  11309.591  11309.570  0.500  0.907955  73.3793  121.251  48.9064
  11312.404  11312.390  0.500  0.907537  73.3097  121.151  48.8866
  11315.241  11315.220  0.500  0.907110  73.2296  121.021  48.855
  11318.085  11318.070  0.500  0.906715  73.0526  120.757  48.7674
  11320.974  11320.950  0.500  0.906189  72.5532  119.94  48.4629
  11323.849  11323.840  0.500  0.905902  72.8366  120.428  48.6744
  11326.764  11326.750  0.500  0.905279  73.0926  120.857  48.8781
  11329.686  11329.670  0.500  0.904445  72.7666  120.341  48.71
  11332.632  11332.620  0.500  0.903329  72.9321  120.632  48.8823
  11335.580  11335.590  0.500  0.902409  72.8184  120.458  48.8569
  11338.579  11338.570  0.500  0.901690  72.4636  119.889  48.6609
  11341.580  11341.580  0.500  0.901067  72.3909  119.782  48.6479
  11344.605  11344.600  0.500  0.900313  72.6211  120.181  48.8465
  11347.666  11347.650  0.500  0.899672  72.4212  119.861  48.7479
  11350.717  11350.710  0.500  0.899033  72.2639  119.62  48.681
  11353.803  11353.790  0.500  0.898190  71.8133  118.893  48.4258
  11356.918  11356.890  0.500  0.896279  67.1742  111.227  45.3899
  11360.019  11360.010  0.500  0.896148  70.7805  117.207  47.8367
  11363.166  11363.150  0.500  0.894385  72.8756  120.694  49.347
  11366.315  11366.300  0.500  0.893097  72.4912  120.072  49.156
  11369.494  11369.480  0.500  0.891993  72.4154  119.963  49.1654
  11372.681  11372.670  0.500  0.890732  72.4241  120.002  49.2433
  11375.919  11375.890  0.500  0.889651  70.7455  117.222  48.1547
  11379.138  11379.120  0.500  0.888952  72.382  119.957  49.3128
  11382.380  11382.370  0.500  0.888176  72.2839  119.806  49.2888
  11385.670  11385.650  0.500  0.887544  72.1674  119.639  49.2511
  11388.967  11388.940  0.500  0.887214  71.852  119.127  49.0567
  11392.277  11392.250  0.500  0.887247  71.7758  119.025  49.0129
  11395.589  11395.570  0.500  0.887783  71.3505  118.326  48.699
  11398.937  11398.920  0.500  0.888053  71.8776  119.238  49.0611
  11402.315  11402.290  0.500  0.888320  71.9393  119.343  49.0911
  11405.679  11405.670  0.500  0.888464  71.851  119.219  49.0331
  11409.101  11409.080  0.500  0.888540  71.7649  119.098  48.9797
  11412.519  11412.500  0.500  0.888401  71.6738  118.966  48.9323
  11415.957  11415.950  0.500  0.888214  71.4517  118.607  48.7938
  11419.442  11419.410  0.500  0.887844  71.3375  118.439  48.7426
  11422.889  11422.890  0.500  0.887257  71.5771  118.849  48.9399
  11426.429  11426.390  0.500  0.886611  71.4859  118.727  48.9216
  11429.915  11429.910  0.500  0.885664  71.4113  118.614  48.9213
  11433.477  11433.450  0.500  0.884647  71.3443  118.521  48.9328
  11437.001  11437.000  0.500  0.883427  71.2705  118.418  48.9498
  11440.596  11440.580  0.500  0.882098  71.1953  118.317  48.9728
  11444.204  11444.180  0.500  0.880852  71.127  118.217  48.9927
  11447.804  11447.790  0.500  0.879754  71.0537  118.118  49.0053
  11451.457  11451.420  0.500  0.878589  70.9866  118.012  49.0183
  11455.106  11455.080  0.500  0.877568  70.9088  117.907  49.0249
  11458.787  11458.750  0.500  0.876637  70.8409  117.809  49.0297
  11462.458  11462.440  0.500  0.875884  70.7677  117.704  49.0228
  11466.183  11466.150  0.500  0.875298  70.6943  117.602  49.0092
  11469.900  11469.880  0.500  0.874655  70.6099  117.476  48.9882
  11473.636  11473.620  0.500  0.874080  70.4834  117.284  48.9362
  11477.414  11477.390  0.500  0.873199  68.8345  114.563  47.8429
  11481.201  11481.180  0.500  0.872887  70.5629  117.451  49.0645
  11485.019  11484.980  0.500  0.872533  70.4377  117.269  49.0059
  11488.839  11488.810  0.500  0.872040  70.3489  117.134  48.9735
  11492.685  11492.650  0.500  0.871416  70.2632  117.012  48.953
  11496.523  11496.510  0.500  0.870581  70.189  116.904  48.9485
  11500.426  11500.390  0.500  0.869599  70.1146  116.804  48.9547
  11504.303  11504.290  0.500  0.868473  70.0389  116.698  48.9656
  11508.234  11508.210  0.500  0.867329  69.9652  116.589  48.9758
  11512.157  11512.150  0.500  0.866242  69.8851  116.484  48.985
  11516.151  11516.110  0.500  0.865082  69.8072  116.37  48.9939
  11520.103  11520.080  0.500  0.863996  69.7313  116.256  48.999
  11524.120  11524.080  0.500  0.862707  69.6477  116.132  49.0096
  11528.112  11528.090  0.500  0.861759  69.5703  116.032  49.0142
  11532.158  11532.130  0.500  0.860721  69.4858  115.903  49.0105
  11536.219  11536.180  0.500  0.859771  69.4013  115.787  49.0079
  11540.282  11540.250  0.500  0.858999  69.5165  115.996  49.1342
  11544.372  11544.340  0.500  0.858226  69.4367  115.885  49.1251
  11548.465  11548.450  0.500  0.857585  69.3334  115.732  49.0916
  11552.601  11552.580  0.500  0.857009  69.2111  115.533  49.0356
  11556.729  11556.730  0.500  0.856457  69.0249  115.251  48.943
  11560.906  11560.890  0.500  0.856003  68.6167  114.599  48.6881
  11565.086  11565.080  0.500  0.855755  67.4589  112.68  47.8848
  11569.299  11569.280  0.500  0.855410  67.5306  112.81  47.9563
  11573.508  11573.510  0.500  0.855162  67.7054  113.123  48.1016
  11577.762  11577.750  0.500  0.854715  67.6479  113.039  48.0874
  11582.019  11582.010  0.500  0.854251  67.5534  112.916  48.0572
  11586.314  11586.290  0.500  0.853740  67.5485  112.93  48.0877
  11590.600  11590.590  0.500  0.852991  67.457  112.784  48.0617
  11594.937  11594.910  0.500  0.852275  67.3127  112.571  48.0051
  11599.253  11599.250  0.500  0.851276  67.3181  112.592  48.0623
  11603.625  11603.610  0.500  0.850171  67.2834  112.552  48.098
  11608.001  11607.990  0.500  0.849036  67.2289  112.485  48.1242
  11612.380  11612.380  0.500  0.847827  67.1306  112.34  48.1202
  11616.815  11616.800  0.500  0.846722  67.012  112.165  48.0986
  11621.237  11621.230  0.500  0.845629  66.9279  112.044  48.099
  11625.720  11625.680  0.500  0.844655  66.8795  111.973  48.1155
  11630.165  11630.150  0.500  0.843666  66.8316  111.917  48.1391
  11634.662  11634.640  0.500  0.842809  66.7717  111.84  48.1472
  11639.167  11639.150  0.500  0.841912  66.7206  111.769  48.1595
  11643.706  11643.680  0.500  0.841164  66.6715  111.701  48.1663
  11648.260  11648.230  0.500  0.840416  66.6069  111.62  48.1673
  11652.841  11652.800  0.500  0.839676  66.4443  111.374  48.0967
  11657.414  11657.380  0.500  0.838968  66.4112  111.34  48.1162
  11662.003  11661.990  0.500  0.838290  66.2428  111.078  48.0354
  11666.648  11666.610  0.500  0.837535  66.2312  111.075  48.0704
  11671.279  11671.260  0.500  0.836833  66.145  110.947  48.049
  11675.968  11675.920  0.500  0.835958  66.0882  110.878  48.0612
  11680.619  11680.600  0.500  0.835158  66.0074  110.756  48.0464
  11685.345  11685.300  0.500  0.834181  65.9347  110.659  48.0514
  11690.051  11690.020  0.500  0.833191  65.8523  110.539  48.0467
  11694.784  11694.760  0.500  0.832177  65.7698  110.42  48.044
  11699.534  11699.510  0.500  0.831202  65.706  110.336  48.0541
  11704.317  11704.290  0.500  0.830146  65.4464  109.92  47.9237
  11709.098  11709.090  0.500  0.829103  65.565  110.14  48.0698
  11713.919  11713.900  0.500  0.828009  65.4887  110.026  48.0724
  11718.756  11718.730  0.500  0.826967  65.3928  109.891  48.0633
  11723.597  11723.590  0.500  0.825961  65.3066  109.755  48.0524
  11728.508  11728.460  0.500  0.824988  65.2145  109.623  48.0413
  11733.357  11733.350  0.500  0.824139  65.092  109.439  48.0014
  11738.306  11738.260  0.500  0.823409  65.0382  109.369  48.0055
  11743.212  11743.190  0.500  0.822643  64.9714  109.275  48.0013
  11748.169  11748.130  0.500  0.821939  64.7729  108.967  47.8995
  11753.131  11753.100  0.500  0.821295  64.7879  109.024  47.9556
  11758.109  11758.090  0.500  0.820537  64.4829  108.524  47.7716
  11763.103  11763.090  0.500  0.819812  64.6385  108.8  47.9279
  11768.156  11768.120  0.500  0.819196  64.5441  108.665  47.8979
  11773.184  11773.160  0.500  0.818470  64.4783  108.573  47.8922
  11778.251  11778.220  0.500  0.817746  64.1841  108.102  47.7191
  11783.342  11783.300  0.500  0.816941  64.3297  108.365  47.8734
  11788.424  11788.400  0.500  0.816147  64.2377  108.239  47.8557
  11793.548  11793.520  0.500  0.815347  64.1731  108.15  47.8549
  11798.682  11798.660  0.500  0.814449  64.0904  108.016  47.8386
  11803.845  11803.820  0.500  0.813402  63.9112  107.738  47.7656
  11809.036  11809.000  0.500  0.812493  63.8972  107.735  47.8073
  11814.233  11814.190  0.500  0.811448  63.8196  107.627  47.8096
  11819.422  11819.410  0.500  0.810346  63.7346  107.506  47.8083
  11824.676  11824.640  0.500  0.809358  63.6637  107.417  47.8159
  11829.917  11829.890  0.500  0.808200  63.328  106.855  47.6208
  11835.192  11835.160  0.500  0.807245  63.5112  107.19  47.8159
  11840.461  11840.450  0.500  0.806345  63.4517  107.114  47.825
  11845.795  11845.760  0.500  0.805273  63.3708  106.989  47.8203
  11851.141  11851.090  0.500  0.804474  63.2938  106.896  47.8169
  11856.466  11856.440  0.500  0.803437  63.0729  106.516  47.6966
  11861.834  11861.810  0.500  0.802630  62.989  106.407  47.6863
  11867.218  11867.190  0.500  0.801827  63.0281  106.505  47.7683
  11872.632  11872.600  0.500  0.800957  62.9507  106.376  47.7519
  11878.057  11878.020  0.500  0.800127  62.8445  106.222  47.7228
  11883.518  11883.470  0.500  0.799247  62.6335  105.888  47.6144
  11888.966  11888.930  0.500  0.798324  62.6743  105.986  47.7024
  11894.449  11894.410  0.500  0.797534  62.5994  105.877  47.6913
  11899.944  11899.910  0.500  0.796541  62.4655  105.672  47.6461
  11905.475  11905.430  0.500  0.795529  62.4128  105.609  47.6659
  11910.998  11910.970  0.500  0.794600  62.3371  105.502  47.662
  11916.558  11916.520  0.500  0.793590  61.7678  104.559  47.2835
  11922.148  11922.100  0.500  0.792615  62.1723  105.26  47.6469
  11927.749  11927.700  0.500  0.791662  62.0905  105.147  47.6412
  11933.362  11933.310  0.500  0.790635  61.8196  104.707  47.4904
  11938.992  11938.950  0.500  0.789727  61.9283  104.92  47.6303
  11944.647  11944.600  0.500  0.788608  61.8348  104.769  47.6152
  11950.307  11950.270  0.500  0.787661  61.7473  104.649  47.6058
  11955.997  11955.960  0.500  0.786840  61.6571  104.515  47.5839