File: xdidata/Sr/Sr-K-SrCe2Ti4O12.xdi
# XDI/1.0 BlueSky/1.10.0 BMM/2023-1.0-py310-tiled
# Beamline.name: BMM (06BM) -- Beamline for Materials Measurement (NIST)
# Beamline.xray_source: NSLS-II three-pole wiggler
# Beamline.collimation: paraboloid mirror, 5 nm Rh on 30 nm Pt
# Beamline.focusing: not in use
# Beamline.harmonic_rejection: flat mirror, Pt stripe, pitch = 7.0 mrad relative to beam
# Beamline.software: Bluesky 1.10.0, Ophyd 1.7.0, DataBroker 2.0.0b13, Python 3.10.8, 2023-1.0-py310-tiled
# Detector.I0: 10 cm N2
# Detector.I1: 25 cm N2
# Detector.I2: 25 cm N2
# Element.symbol: Sr
# Element.edge: K
# Element.reference: Sr
# Element.reference_material: SrTiO3
# Facility.name: NSLS-II
# Facility.energy: 3.0
# Facility.current: 399.4
# Facility.mode: top-off
# Facility.GUP: 301027
# Facility.SAF: 310583
# Facility.cycle: 2023-2
# Mono.name: Si(111)
# Mono.d_spacing: 3.13519
# Mono.encoder_resolution: 0.0000050 deg/ct
# Mono.angle_offset: 16.0754 deg
# Mono.scan_mode: pseudo channel cut
# Mono.scan_type: step
# Mono.direction: forward in energy
# Sample.name: SrCe2Ti4O12
# Sample.prep: Powder in PEG pellet
# Sample.x: 145.711 mm
# Sample.y: 114.376 mm
# Sample.SDD_position: 205.000 mm
# Scan.experimenters: Bruce Ravel
# Scan.edge_energy: 16104.6
# Scan.start_time: 2023-06-27T13:59:49
# Scan.end_time: 2023-06-27T14:06:28
# Scan.transient_id: 85139
# Scan.uid: ebefdba6-0575-4e3d-9217-dc587bf6cc1d
# Scan.plot_hint: ln(I0/It)  --  ln($5/$6)
# Column.1: energy eV
# Column.2: requested_energy eV
# Column.3: measurement_time seconds
# Column.4: xmu
# Column.5: I0 nA
# Column.6: It nA
# Column.7: Ir nA
# ///////////
# sample courtesy Martin Stennett, University of Sheffield
# -----------
# energy  requested_energy  measurement_time  xmu  I0  It  Ir
  15904.571  15904.600  0.500  -0.301082  22.6522  30.6104  25.2013
  15914.602  15914.600  0.500  -0.301735  22.5526  30.4957  25.1141
  15924.602  15924.600  0.500  -0.302235  22.5876  30.5583  25.1741
  15934.603  15934.600  0.500  -0.302757  22.5371  30.5059  25.1417
  15944.617  15944.600  0.500  -0.303456  22.4777  30.4468  25.097
  15954.699  15954.600  0.500  -0.304042  22.4943  30.4871  25.1427
  15964.616  15964.600  0.500  -0.304734  22.4441  30.4401  25.1088
  15974.634  15974.600  0.500  -0.305252  22.3926  30.3861  25.0719
  15984.621  15984.600  0.500  -0.305887  22.2655  30.2328  24.9508
  15994.631  15994.600  0.500  -0.306470  22.3204  30.3249  25.0319
  16004.643  16004.600  0.500  -0.307102  22.2612  30.2637  24.9906
  16014.633  16014.600  0.500  -0.307501  22.2046  30.1987  24.9417
  16024.603  16024.600  0.500  -0.308065  22.02  29.9646  24.7562
  16034.641  16034.600  0.500  -0.308760  22.1026  30.0979  24.8683
  16044.624  16044.600  0.500  -0.309183  22.0632  30.0569  24.841
  16054.608  16054.600  0.500  -0.309768  22.0159  30.0101  24.8035
  16064.662  16064.600  0.500  -0.310326  21.9553  29.9441  24.7489
  16074.626  16074.600  0.500  -0.310557  21.9061  29.884  24.6921
  16076.562  16076.600  0.500  -0.310726  21.8548  29.8191  24.6395
  16078.554  16078.600  0.500  -0.310664  21.8513  29.8124  24.6353
  16080.570  16080.600  0.500  -0.310734  21.8853  29.8609  24.6685
  16082.575  16082.600  0.500  -0.310848  21.8788  29.8555  24.6601
  16084.581  16084.600  0.500  -0.310820  21.8673  29.8388  24.6418
  16086.564  16086.600  0.500  -0.310925  21.8587  29.8303  24.63
  16088.559  16088.600  0.500  -0.310769  21.8517  29.8161  24.6106
  16090.543  16090.600  0.500  -0.310742  21.8524  29.8162  24.6027
  16092.539  16092.600  0.500  -0.310760  21.8325  29.7895  24.57
  16094.558  16094.600  0.500  -0.310616  21.8251  29.7752  24.5464
  16094.831  16094.900  0.500  -0.310580  21.8153  29.7608  24.5329
  16095.137  16095.200  0.500  -0.310626  21.8113  29.7567  24.5252
  16095.432  16095.500  0.500  -0.310613  21.8106  29.7554  24.5186
  16095.727  16095.800  0.500  -0.310551  21.8138  29.7579  24.5203
  16096.034  16096.100  0.500  -0.310454  21.8065  29.745  24.5077
  16096.351  16096.400  0.500  -0.310624  21.801  29.7426  24.5013
  16096.646  16096.700  0.500  -0.310410  21.8036  29.7397  24.4988
  16096.941  16097.000  0.500  -0.310346  21.8052  29.74  24.4971
  16097.248  16097.300  0.500  -0.310335  21.8033  29.7372  24.4914
  16097.554  16097.600  0.500  -0.310259  21.7959  29.7248  24.4746
  16097.861  16097.900  0.500  -0.310363  21.7956  29.7275  24.4716
  16098.179  16098.200  0.500  -0.310295  21.7935  29.7226  24.465
  16098.474  16098.500  0.500  -0.310131  21.7915  29.7149  24.458
  16098.769  16098.800  0.500  -0.310101  21.7839  29.7038  24.4455
  16099.064  16099.100  0.500  -0.309993  21.783  29.6992  24.4351
  16099.382  16099.400  0.500  -0.310123  21.7759  29.6935  24.4256
  16099.677  16099.700  0.500  -0.310048  21.772  29.6859  24.4142
  16099.995  16100.000  0.500  -0.309861  21.7693  29.6767  24.4048
  16100.290  16100.300  0.500  -0.309802  21.7813  29.6914  24.4088
  16100.563  16100.600  0.500  -0.309810  21.7649  29.6692  24.3838
  16100.858  16100.900  0.500  -0.309729  21.7594  29.6592  24.3738
  16101.176  16101.200  0.500  -0.309550  21.7575  29.6513  24.3616
  16101.494  16101.500  0.500  -0.309591  21.7565  29.6512  24.3543
  16101.812  16101.800  0.500  -0.309253  21.7632  29.6503  24.3468
  16102.084  16102.100  0.500  -0.309282  21.761  29.6482  24.3342
  16102.379  16102.400  0.500  -0.309298  21.7588  29.6457  24.3255
  16102.686  16102.700  0.500  -0.309033  21.7649  29.6462  24.3181
  16102.981  16103.000  0.500  -0.308936  21.764  29.642  24.3076
  16103.288  16103.300  0.500  -0.308841  21.7639  29.6391  24.2961
  16103.583  16103.600  0.500  -0.308558  21.762  29.6281  24.2748
  16103.879  16103.900  0.500  -0.308347  21.7634  29.6238  24.2642
  16104.174  16104.200  0.500  -0.308193  21.7629  29.6185  24.2422
  16104.469  16104.500  0.500  -0.307938  21.7608  29.6081  24.2231
  16104.799  16104.800  0.500  -0.307772  21.7612  29.6037  24.2038
  16105.106  16105.100  0.500  -0.307497  21.7526  29.5839  24.1707
  16105.390  16105.400  0.500  -0.307343  21.7513  29.5776  24.1427
  16105.674  16105.700  0.500  -0.306889  21.7515  29.5645  24.1187
  16105.980  16106.000  0.500  -0.306677  21.7491  29.555  24.0858
  16106.276  16106.300  0.500  -0.306172  21.7435  29.5323  24.0472
  16106.594  16106.600  0.500  -0.305520  21.7549  29.5286  24.0169
  16106.878  16106.900  0.500  -0.305013  21.7451  29.5004  23.9621
  16107.162  16107.200  0.500  -0.304508  21.7478  29.4891  23.917
  16107.492  16107.500  0.500  -0.303839  21.7347  29.4517  23.8476
  16107.776  16107.800  0.500  -0.303262  21.7332  29.4326  23.7858
  16108.083  16108.100  0.500  -0.302041  21.7426  29.4094  23.7218
  16108.389  16108.400  0.500  -0.301172  21.7413  29.3821  23.6445
  16108.685  16108.700  0.500  -0.300183  21.7307  29.3388  23.554
  16108.958  16109.000  0.500  -0.299126  21.7318  29.3093  23.4758
  16109.276  16109.300  0.500  -0.297780  21.7318  29.2698  23.3759
  16109.560  16109.600  0.500  -0.296521  21.7327  29.2342  23.2781
  16109.901  16109.900  0.500  -0.295191  21.7259  29.1862  23.1579
  16110.174  16110.200  0.500  -0.293784  21.7177  29.1342  23.0373
  16110.458  16110.500  0.500  -0.292191  21.7239  29.0961  22.923
  16110.765  16110.800  0.500  -0.290666  21.7218  29.049  22.7889
  16111.061  16111.100  0.500  -0.288804  21.7166  28.9879  22.6367
  16111.379  16111.400  0.500  -0.286978  21.716  28.9343  22.4752
  16111.686  16111.700  0.500  -0.284834  21.7087  28.8626  22.2921
  16111.993  16112.000  0.500  -0.282588  21.7155  28.8069  22.1157
  16112.289  16112.300  0.500  -0.280647  21.7104  28.7443  21.9208
  16112.607  16112.600  0.500  -0.278159  21.7095  28.6716  21.7021
  16112.891  16112.900  0.500  -0.275396  21.7104  28.5937  21.4746
  16113.198  16113.200  0.500  -0.272523  21.7147  28.5173  21.2379
  16113.494  16113.500  0.500  -0.269663  21.7054  28.4237  20.9959
  16113.778  16113.800  0.500  -0.266312  21.7125  28.3379  20.7579
  16114.074  16114.100  0.500  -0.262943  21.7053  28.2332  20.4987
  16114.404  16114.400  0.500  -0.259211  21.7083  28.1319  20.2481
  16114.711  16114.700  0.500  -0.255155  21.6929  27.9982  19.9736
  16115.007  16115.000  0.500  -0.251027  21.6963  27.8872  19.7367
  16115.291  16115.300  0.500  -0.246922  21.6927  27.7684  19.4953
  16115.598  16115.600  0.500  -0.242233  21.7021  27.6505  19.2486
  16115.905  16115.900  0.500  -0.237243  21.6875  27.4944  18.9721
  16116.201  16116.200  0.500  -0.232481  21.6896  27.3663  18.7179
  16116.508  16116.500  0.500  -0.227891  21.694  27.2466  18.4702
  16116.793  16116.800  0.500  -0.222999  21.6856  27.1031  18.2079
  16117.089  16117.100  0.500  -0.218615  21.6848  26.9835  17.9558
  16117.407  16117.400  0.500  -0.214275  21.679  26.8595  17.6857
  16117.737  16117.700  0.500  -0.210434  21.6769  26.754  17.4439
  16118.022  16118.000  0.500  -0.207240  21.6816  26.6744  17.2356
  16118.295  16118.300  0.500  -0.204755  21.6793  26.6054  17.0593
  16118.602  16118.600  0.500  -0.203075  21.6766  26.5575  16.9034
  16118.909  16118.900  0.500  -0.202041  21.6802  26.5343  16.7892
  16119.217  16119.200  0.500  -0.201742  21.6771  26.5226  16.7194
  16119.501  16119.500  0.500  -0.202171  21.6683  26.5232  16.6902
  16119.797  16119.800  0.500  -0.203281  21.6714  26.5565  16.7099
  16120.104  16120.100  0.500  -0.204832  21.6635  26.588  16.7558
  16120.400  16120.400  0.500  -0.207139  21.6574  26.6419  16.8515
  16120.708  16120.700  0.500  -0.209844  21.6504  26.7054  16.972
  16121.015  16121.000  0.500  -0.212591  21.649  26.7772  17.1151
  16121.288  16121.300  0.500  -0.215212  21.6434  26.8405  17.2703
  16121.595  16121.600  0.500  -0.218409  21.6366  26.918  17.4469
  16121.903  16121.900  0.500  -0.221536  21.6303  26.9945  17.6374
  16122.199  16122.200  0.500  -0.224759  21.6223  27.0716  17.8324
  16122.495  16122.500  0.500  -0.227784  21.6192  27.1497  18.0264
  16122.791  16122.800  0.500  -0.230525  21.6063  27.208  18.204
  16123.087  16123.100  0.500  -0.233306  21.5942  27.2685  18.3935
  16123.394  16123.400  0.500  -0.236369  21.5904  27.3473  18.5888
  16123.702  16123.700  0.500  -0.238903  21.5844  27.4091  18.7688
  16123.987  16124.000  0.500  -0.241485  21.5703  27.462  18.9368
  16124.271  16124.300  0.500  -0.243697  21.572  27.525  19.098
  16124.556  16124.600  0.500  -0.245838  21.5741  27.5866  19.2482
  16124.875  16124.900  0.500  -0.247635  21.5794  27.643  19.3945
  16125.182  16125.200  0.500  -0.249466  21.5901  27.7074  19.5358
  16125.490  16125.500  0.500  -0.251131  21.6042  27.7717  19.6593
  16125.775  16125.800  0.500  -0.252262  21.6044  27.8035  19.7547
  16126.059  16126.100  0.500  -0.253650  21.6083  27.8471  19.8448
  16126.378  16126.400  0.500  -0.254475  21.6133  27.8765  19.9242
  16126.686  16126.700  0.500  -0.255259  21.6205  27.9077  19.9921
  16126.993  16127.000  0.500  -0.256030  21.6328  27.9451  20.0576
  16127.290  16127.300  0.500  -0.256430  21.6204  27.9403  20.0812
  16127.563  16127.600  0.500  -0.256690  21.6217  27.9492  20.1071
  16127.871  16127.900  0.500  -0.256906  21.6286  27.9641  20.1314
  16128.190  16128.200  0.500  -0.256877  21.6187  27.9505  20.1276
  16128.486  16128.500  0.500  -0.256678  21.6182  27.9443  20.124
  16128.782  16128.800  0.500  -0.256340  21.6316  27.9522  20.1197
  16129.101  16129.100  0.500  -0.255959  21.6231  27.9306  20.0935
  16129.386  16129.400  0.500  -0.255462  21.6094  27.899  20.0539
  16129.603  16129.600  0.500  -0.255019  21.6101  27.8875  20.031
  16130.605  16130.590  0.500  -0.253065  21.6028  27.8237  19.9018
  16131.597  16131.590  0.500  -0.250988  21.6009  27.7635  19.7726
  16132.657  16132.610  0.500  -0.249933  21.5947  27.7263  19.7016
  16133.683  16133.660  0.500  -0.249447  21.5902  27.7071  19.6886
  16134.755  16134.720  0.500  -0.249828  21.5863  27.7126  19.7254
  16135.838  16135.800  0.500  -0.250583  21.5815  27.7274  19.7737
  16136.945  16136.900  0.500  -0.251281  21.5761  27.7398  19.8106
  16138.028  16138.020  0.500  -0.252222  21.5676  27.755  19.8323
  16139.192  16139.160  0.500  -0.252678  21.5626  27.7612  19.8326
  16140.310  16140.310  0.500  -0.252895  21.5571  27.7601  19.8013
  16141.508  16141.490  0.500  -0.252438  21.5433  27.7297  19.7207
  16142.684  16142.680  0.500  -0.251785  21.5362  27.7025  19.6154
  16143.894  16143.900  0.500  -0.251071  21.5218  27.6641  19.5002
  16145.127  16145.130  0.500  -0.250457  21.5077  27.629  19.3896
  16146.383  16146.380  0.500  -0.249560  21.4952  27.5883  19.2674
  16147.673  16147.650  0.500  -0.248541  21.4929  27.5572  19.1399
  16148.964  16148.940  0.500  -0.246999  21.516  27.5444  19.0286
  16150.289  16150.250  0.500  -0.245331  21.5055  27.4849  18.9114
  16151.615  16151.580  0.500  -0.244227  21.502  27.4502  18.8698
  16152.963  16152.930  0.500  -0.243679  21.4877  27.4169  18.9039
  16154.335  16154.300  0.500  -0.243905  21.4885  27.4242  19.0288
  16155.695  16155.680  0.500  -0.245079  21.4844  27.4511  19.1887
  16157.090  16157.090  0.500  -0.246520  21.4746  27.4782  19.3154
  16158.531  16158.510  0.500  -0.248008  21.4651  27.5069  19.3884
  16159.961  16159.950  0.500  -0.248586  21.4693  27.5282  19.3952
  16161.413  16161.410  0.500  -0.248712  21.4513  27.5086  19.3148
  16162.912  16162.890  0.500  -0.247988  21.4381  27.4718  19.1858
  16164.412  16164.390  0.500  -0.246910  21.4349  27.4381  19.0676
  16165.945  16165.910  0.500  -0.245643  21.4281  27.3945  19.0025
  16167.479  16167.450  0.500  -0.245061  21.4216  27.3704  19.0248
  16169.037  16169.010  0.500  -0.245474  21.4138  27.3717  19.123
  16170.606  16170.580  0.500  -0.246720  21.4171  27.41  19.2735
  16172.152  16172.180  0.500  -0.248498  21.4001  27.437  19.4054
  16173.779  16173.790  0.500  -0.250959  21.3506  27.441  19.4924
  16175.418  16175.430  0.500  -0.253276  21.3316  27.4802  19.5759
  16177.091  16177.080  0.500  -0.254967  21.3643  27.5689  19.6668
  16178.777  16178.750  0.500  -0.256421  21.3602  27.6037  19.7161
  16180.474  16180.440  0.500  -0.257040  21.361  27.6219  19.7535
  16182.183  16182.150  0.500  -0.257386  21.3509  27.6183  19.7615
  16183.915  16183.880  0.500  -0.257259  21.3524  27.6168  19.7496
  16185.647  16185.630  0.500  -0.256810  21.4047  27.6719  19.7476
  16187.392  16187.390  0.500  -0.255938  21.3963  27.637  19.6467
  16189.194  16189.180  0.500  -0.255129  21.3863  27.6017  19.532
  16190.985  16190.980  0.500  -0.253910  21.3872  27.5692  19.436
  16192.800  16192.810  0.500  -0.252635  21.3699  27.5119  19.338
  16194.649  16194.650  0.500  -0.251777  21.3634  27.48  19.2808
  16196.545  16196.510  0.500  -0.250795  21.3544  27.4414  19.2372
  16198.418  16198.390  0.500  -0.250439  21.339  27.4119  19.2123
  16200.303  16200.290  0.500  -0.250467  21.3221  27.391  19.1856
  16202.235  16202.210  0.500  -0.250568  21.3237  27.3958  19.1714
  16204.156  16204.150  0.500  -0.251015  21.3142  27.3958  19.157
  16206.100  16206.110  0.500  -0.251234  21.3069  27.3924  19.1704
  16208.090  16208.080  0.500  -0.251779  21.2987  27.3968  19.222
  16210.081  16210.080  0.500  -0.252655  21.2861  27.4046  19.2968
  16212.107  16212.090  0.500  -0.253286  21.2768  27.4099  19.3628
  16214.157  16214.120  0.500  -0.253527  21.2682  27.4054  19.4048
  16216.207  16216.180  0.500  -0.253884  21.2535  27.3962  19.4325
  16218.269  16218.250  0.500  -0.254380  21.2512  27.4069  19.4679
  16220.355  16220.340  0.500  -0.255316  21.239  27.4168  19.4996
  16222.418  16222.450  0.500  -0.256060  21.2303  27.4259  19.5246
  16224.597  16224.580  0.500  -0.256848  21.2255  27.4414  19.5563
  16226.708  16226.720  0.500  -0.257492  21.2033  27.4303  19.5722
  16228.923  16228.890  0.500  -0.258251  21.1946  27.4399  19.5932
  16231.081  16231.080  0.500  -0.258552  21.1865  27.4376  19.5917
  16233.320  16233.280  0.500  -0.258867  21.1767  27.4336  19.5733
  16235.513  16235.500  0.500  -0.258943  21.1208  27.3633  19.5024
  16237.777  16237.750  0.500  -0.258754  21.1093  27.3432  19.4702
  16240.006  16240.010  0.500  -0.258455  21.1387  27.3732  19.4731
  16242.306  16242.290  0.500  -0.258157  21.1328  27.3573  19.4364
  16244.606  16244.590  0.500  -0.257453  21.1225  27.3247  19.3811
  16246.930  16246.910  0.500  -0.256893  21.1047  27.2864  19.3201
  16249.277  16249.250  0.500  -0.256423  21.1032  27.2716  19.2842
  16251.602  16251.600  0.500  -0.256242  21.079  27.2355  19.2445
  16253.952  16253.980  0.500  -0.256163  21.0528  27.1994  19.2117
  16256.371  16256.370  0.500  -0.256492  21.0368  27.1877  19.2115
  16258.791  16258.790  0.500  -0.257038  21.0495  27.219  19.2607
  16261.258  16261.220  0.500  -0.257673  21.0435  27.2285  19.3029
  16263.714  16263.670  0.500  -0.258526  21.0286  27.2324  19.3408
  16266.171  16266.150  0.500  -0.258956  21.0189  27.2316  19.3818
  16268.651  16268.640  0.500  -0.259552  21.0088  27.2347  19.4128
  16271.144  16271.150  0.500  -0.259712  21.0007  27.2286  19.4219
  16273.685  16273.670  0.500  -0.260145  20.9799  27.2134  19.4138
  16276.249  16276.220  0.500  -0.260230  20.9707  27.2038  19.403
  16278.826  16278.790  0.500  -0.260512  20.961  27.1988  19.3947
  16281.415  16281.370  0.500  -0.260700  20.9455  27.1839  19.3745
  16283.982  16283.980  0.500  -0.260767  20.9374  27.1752  19.3538
  16286.596  16286.600  0.500  -0.261067  20.9248  27.167  19.3361
  16289.258  16289.250  0.500  -0.261163  20.9185  27.1613  19.3265
  16291.920  16291.910  0.500  -0.261105  20.896  27.1306  19.3093
  16294.618  16294.590  0.500  -0.260939  20.8878  27.1154  19.3178
  16297.317  16297.290  0.500  -0.261027  20.88  27.1077  19.3273
  16300.005  16300.010  0.500  -0.260794  20.865  27.0819  19.3134
  16302.764  16302.750  0.500  -0.260569  20.8419  27.0459  19.2836
  16305.524  16305.500  0.500  -0.260645  20.7824  26.9707  19.2147
  16308.320  16308.280  0.500  -0.260661  20.8013  26.9956  19.2233
  16311.082  16311.070  0.500  -0.260902  20.8094  27.0127  19.2358
  16313.891  16313.890  0.500  -0.261473  20.7905  27.0036  19.2302
  16316.713  16316.720  0.500  -0.261951  20.781  27.0042  19.232
  16319.595  16319.570  0.500  -0.262337  20.7707  27.0012  19.2268
  16322.477  16322.450  0.500  -0.262565  20.7631  26.9975  19.221
  16325.384  16325.340  0.500  -0.263057  20.7384  26.9787  19.2113
  16328.280  16328.250  0.500  -0.263405  20.7318  26.9794  19.2316
  16331.154  16331.170  0.500  -0.263634  20.7147  26.9633  19.246
  16334.111  16334.120  0.500  -0.264161  20.701  26.9597  19.2675
  16337.115  16337.090  0.500  -0.264487  20.6937  26.959  19.2864
  16340.121  16340.070  0.500  -0.264667  20.6791  26.9447  19.2913
  16343.092  16343.080  0.500  -0.265063  20.6446  26.9105  19.2666
  16346.100  16346.100  0.500  -0.265143  20.6493  26.9188  19.2644
  16349.144  16349.150  0.500  -0.264999  20.6295  26.8892  19.2317
  16352.236  16352.210  0.500  -0.264875  20.6217  26.8756  19.2113
  16355.306  16355.290  0.500  -0.264856  20.5985  26.8449  19.1859
  16358.412  16358.390  0.500  -0.264931  20.5839  26.8279  19.1729
  16361.543  16361.510  0.500  -0.264861  20.5778  26.8181  19.1635
  16364.687  16364.650  0.500  -0.265097  20.5592  26.8  19.1452
  16367.820  16367.800  0.500  -0.265327  20.5451  26.7879  19.1347
  16371.001  16370.980  0.500  -0.265476  20.4984  26.7309  19.0951
  16374.172  16374.170  0.500  -0.265794  20.4254  26.6442  19.0458
  16377.391  16377.390  0.500  -0.266172  20.4894  26.7378  19.1266
  16380.612  16380.620  0.500  -0.266450  20.4838  26.738  19.1397
  16383.892  16383.870  0.500  -0.266934  20.4694  26.7321  19.1469
  16387.198  16387.150  0.500  -0.267291  20.4604  26.7299  19.1513
  16390.457  16390.440  0.500  -0.267440  20.4392  26.7062  19.1415
  16393.754  16393.750  0.500  -0.267710  20.4334  26.7057  19.1417
  16397.086  16397.070  0.500  -0.268098  20.4164  26.6939  19.1301
  16400.444  16400.420  0.500  -0.268558  20.3925  26.675  19.1256
  16403.839  16403.790  0.500  -0.268698  20.349  26.6218  19.099
  16407.176  16407.170  0.500  -0.269087  20.3601  26.6467  19.1272
  16410.585  16410.580  0.500  -0.269153  20.3453  26.629  19.1279
  16414.008  16414.000  0.500  -0.269459  20.3303  26.6176  19.1199
  16417.479  16417.450  0.500  -0.269346  20.3154  26.5951  19.1063
  16420.916  16420.910  0.500  -0.269677  20.284  26.5627  19.0771
  16424.437  16424.390  0.500  -0.269707  20.2817  26.5605  19.0718
  16427.913  16427.890  0.500  -0.269954  20.2734  26.5562  19.0598
  16431.425  16431.410  0.500  -0.269929  20.2517  26.5271  19.0291
  16434.987  16434.950  0.500  -0.270260  20.2318  26.5098  19.0047
  16438.550  16438.500  0.500  -0.270352  20.2021  26.4733  18.9809
  16442.102  16442.080  0.500  -0.270600  20.1792  26.4499  18.9757
  16445.656  16445.680  0.500  -0.270887  20.1452  26.4129  18.9628
  16449.331  16449.290  0.500  -0.270935  20.1669  26.4426  19.0008
  16452.959  16452.920  0.500  -0.271397  20.1487  26.431  19.0054
  16456.637  16456.580  0.500  -0.271685  20.1336  26.4188  19.0047
  16460.280  16460.250  0.500  -0.271788  20.1048  26.3837  18.9833
  16463.926  16463.940  0.500  -0.272084  20.1061  26.3932  18.9962
  16467.691  16467.650  0.500  -0.272423  20.0932  26.3852  18.9947
  16471.435  16471.380  0.500  -0.272801  20.0706  26.3655  18.9841
  16475.145  16475.120  0.500  -0.273268  20.054  26.356  18.9781
  16478.928  16478.890  0.500  -0.273404  20.041  26.3425  18.9709
  16482.664  16482.680  0.500  -0.273714  20.0168  26.3189  18.9572
  16486.522  16486.480  0.500  -0.273742  20.0027  26.301  18.9474
  16490.334  16490.310  0.500  -0.274178  19.9848  26.289  18.9376
  16494.183  16494.150  0.500  -0.274286  19.9687  26.2706  18.9324
  16497.999  16498.010  0.500  -0.274537  19.9522  26.2555  18.9262
  16501.923  16501.890  0.500  -0.274815  19.9336  26.2384  18.9131
  16505.838  16505.790  0.500  -0.275051  19.9046  26.2064  18.8899
  16509.742  16509.710  0.500  -0.275126  19.8973  26.1988  18.8863
  16513.637  16513.650  0.500  -0.275450  19.8783  26.1822  18.8749
  16517.641  16517.610  0.500  -0.275726  19.8634  26.1697  18.8715
  16521.599  16521.580  0.500  -0.275957  19.8472  26.1545  18.8636
  16525.642  16525.580  0.500  -0.276209  19.8209  26.1264  18.8515
  16529.604  16529.590  0.500  -0.276470  19.808  26.1162  18.8475
  16533.640  16533.630  0.500  -0.276697  19.7812  26.0867  18.8325
  16537.701  16537.680  0.500  -0.276964  19.7729  26.0828  18.8355
  16541.813  16541.750  0.500  -0.277176  19.7638  26.0763  18.84
  16545.854  16545.840  0.500  -0.277488  19.7216  26.0287  18.8105
  16549.970  16549.950  0.500  -0.277762  19.7051  26.0142  18.8067
  16554.099  16554.080  0.500  -0.278093  19.6943  26.0084  18.8104
  16558.267  16558.230  0.500  -0.278362  19.6806  25.9973  18.8059
  16562.437  16562.390  0.500  -0.278684  19.6547  25.9715  18.7899
  16566.609  16566.580  0.500  -0.278886  19.6463  25.9657  18.7868
  16570.819  16570.780  0.500  -0.279282  19.6316  25.9566  18.7836
  16575.044  16575.010  0.500  -0.279634  19.6043  25.9295  18.7638
  16579.331  16579.250  0.500  -0.279902  19.5857  25.9119  18.7546
  16583.523  16583.510  0.500  -0.279939  19.5679  25.8893  18.7447
  16587.839  16587.790  0.500  -0.280406  19.5497  25.8773  18.7373
  16592.132  16592.090  0.500  -0.280465  19.5206  25.8404  18.7131
  16596.476  16596.410  0.500  -0.280685  19.5143  25.8377  18.7189
  16600.774  16600.750  0.500  -0.280961  19.4906  25.8134  18.707
  16605.159  16605.110  0.500  -0.281227  19.4672  25.7892  18.6927
  16609.498  16609.490  0.500  -0.281592  19.449  25.7745  18.689
  16613.948  16613.880  0.500  -0.281878  19.4284  25.7546  18.681
  16618.364  16618.300  0.500  -0.282106  19.398  25.7202  18.6623
  16622.770  16622.730  0.500  -0.282400  19.3917  25.7194  18.6634
  16627.227  16627.180  0.500  -0.282802  19.3683  25.6986  18.65
  16631.699  16631.650  0.500  -0.283103  19.3537  25.687  18.6459
  16636.233  16636.140  0.500  -0.283222  19.3333  25.663  18.6338
  16640.758  16640.650  0.500  -0.283724  19.3098  25.6446  18.6247
  16645.286  16645.180  0.500  -0.283875  19.2943  25.6279  18.6186
  16649.828  16649.730  0.500  -0.284267  19.264  25.5978  18.6037
  16654.458  16654.300  0.500  -0.284474  19.2514  25.5864  18.5984
  16658.981  16658.880  0.500  -0.284910  19.2209  25.5569  18.5832
  16663.591  16663.490  0.500  -0.285083  19.2021  25.5364  18.5727
  16668.180  16668.110  0.500  -0.285407  19.175  25.5085  18.5592
  16672.856  16672.760  0.500  -0.285655  19.1558  25.4894  18.5465
  16677.487  16677.420  0.500  -0.286046  19.1351  25.4717  18.5359
  16682.181  16682.100  0.500  -0.286263  19.1093  25.443  18.5179
  16686.865  16686.800  0.500  -0.286420  19.0829  25.4118  18.5011
  16691.577  16691.520  0.500  -0.286696  19.0575  25.3849  18.4904
  16696.254  16696.260  0.500  -0.287151  19.027  25.3559  18.47
  16701.057  16701.010  0.500  -0.287305  18.9985  25.3218  18.4496
  16705.838  16705.790  0.500  -0.287690  18.947  25.2628  18.4126
  16710.634  16710.590  0.500  -0.287925  18.8393  25.1252  18.3175
  16715.444  16715.400  0.500  -0.288127  17.7276  23.6473  17.245
  16720.258  16720.230  0.500  -0.288848  18.1136  24.1796  17.6335
  16725.087  16725.090  0.500  -0.288897  18.9868  25.3465  18.4904
  16729.979  16729.960  0.500  -0.289286  18.9622  25.3235  18.4795
  16734.887  16734.850  0.500  -0.289474  18.9294  25.2845  18.4587
  16739.798  16739.760  0.500  -0.289746  18.9063  25.2604  18.4476
  16744.712  16744.690  0.500  -0.290105  18.8775  25.231  18.4284