File: xdidata/Sr/Sr-StrontiumSulfate.xdi
# XDI/1.0 BlueSky/1.10.0 BMM/2023-1.0-py310-tiled
# Beamline.name: BMM (06BM) -- Beamline for Materials Measurement (NIST)
# Beamline.xray_source: NSLS-II three-pole wiggler
# Beamline.collimation: paraboloid mirror, 5 nm Rh on 30 nm Pt
# Beamline.focusing: not in use
# Beamline.harmonic_rejection: flat mirror, Pt stripe, pitch = 7.0 mrad relative to beam
# Beamline.software: Bluesky 1.10.0, Ophyd 1.7.0, DataBroker 2.0.0b13, Python 3.10.8, 2023-1.0-py310-tiled
# Detector.I0: 10 cm N2
# Detector.I1: 25 cm N2
# Detector.I2: 25 cm N2
# Element.symbol: Sr
# Element.edge: K
# Element.reference: Sr
# Element.reference_material: SrTiO3
# Facility.name: NSLS-II
# Facility.energy: 3.0
# Facility.current: 399.8
# Facility.mode: top-off
# Facility.GUP: 301027
# Facility.SAF: 310583
# Facility.cycle: 2023-2
# Mono.name: Si(111)
# Mono.d_spacing: 3.13519
# Mono.encoder_resolution: 0.0000050 deg/ct
# Mono.angle_offset: 16.0754 deg
# Mono.scan_mode: pseudo channel cut
# Mono.scan_type: step
# Mono.direction: forward in energy
# Sample.name: SrSO4
# Sample.prep: Powder in PEG pellet
# Sample.x: 142.033 mm
# Sample.y: 113.475 mm
# Sample.SDD_position: 205.000 mm
# Scan.experimenters: Bruce Ravel
# Scan.edge_energy: 16104.6
# Scan.start_time: 2023-06-01T11:01:10
# Scan.end_time: 2023-06-01T11:07:51
# Scan.transient_id: 79103
# Scan.uid: 07367629-2d85-462d-846b-04482b5a18b1
# Scan.plot_hint: ln(I0/It)  --  ln($5/$6)
# Column.1: energy eV
# Column.2: requested_energy eV
# Column.3: measurement_time seconds
# Column.4: xmu
# Column.5: I0 nA
# Column.6: It nA
# Column.7: Ir nA
# ///////////
# Celestine; Yate; UK
# -----------
# energy  requested_energy  measurement_time  xmu  I0  It  Ir
  15904.537  15904.600  0.500  -0.214504  22.3114  27.6494  22.5797
  15914.558  15914.600  0.500  -0.215130  22.1906  27.5169  22.4821
  15924.557  15924.600  0.500  -0.215975  22.232  27.5915  22.5471
  15934.692  15934.600  0.500  -0.216729  22.1601  27.523  22.4972
  15944.617  15944.600  0.500  -0.217308  22.1154  27.4834  22.473
  15954.610  15954.600  0.500  -0.218118  22.0841  27.4668  22.467
  15964.605  15964.600  0.500  -0.218716  22.0215  27.4052  22.422
  15974.579  15974.600  0.500  -0.219217  21.9694  27.3541  22.3875
  15984.610  15984.600  0.500  -0.219802  21.8387  27.2072  22.2717
  15994.586  15994.600  0.500  -0.220298  21.8724  27.2628  22.3274
  16004.598  16004.600  0.500  -0.220703  21.8253  27.2151  22.293
  16014.622  16014.600  0.500  -0.221244  21.7651  27.1547  22.2481
  16024.569  16024.600  0.500  -0.221569  21.5685  26.9182  22.058
  16034.618  16034.600  0.500  -0.221547  21.6674  27.0411  22.1675
  16044.624  16044.600  0.500  -0.221561  21.6209  26.9834  22.1218
  16054.608  16054.600  0.500  -0.221199  21.5718  26.9124  22.0637
  16064.639  16064.600  0.500  -0.220001  21.5245  26.8212  21.9943
  16074.626  16074.600  0.500  -0.217980  21.4678  26.6966  21.8832
  16076.562  16076.600  0.500  -0.217430  21.4161  26.6177  21.82
  16078.566  16078.600  0.500  -0.216559  21.4099  26.5867  21.7927
  16080.559  16080.600  0.500  -0.215758  21.4407  26.6036  21.8006
  16082.552  16082.600  0.500  -0.214730  21.4351  26.5695  21.7708
  16084.547  16084.600  0.500  -0.213438  21.4226  26.5196  21.7273
  16086.530  16086.600  0.500  -0.212111  21.4147  26.4747  21.6866
  16088.525  16088.600  0.500  -0.210570  21.4025  26.4188  21.6314
  16090.543  16090.600  0.500  -0.208491  21.3953  26.3552  21.5755
  16092.528  16092.600  0.500  -0.206030  21.3814  26.2732  21.4993
  16094.558  16094.600  0.500  -0.202772  21.3667  26.1698  21.4044
  16095.035  16095.100  0.500  -0.201915  21.3655  26.1459  21.3836
  16095.534  16095.600  0.500  -0.200885  21.3664  26.1201  21.3566
  16096.045  16096.100  0.500  -0.199957  21.3593  26.0872  21.3243
  16096.556  16096.600  0.500  -0.198731  21.3588  26.0546  21.2963
  16097.021  16097.100  0.500  -0.197644  21.3584  26.0258  21.2665
  16097.543  16097.600  0.500  -0.196462  21.3557  25.9917  21.2305
  16098.065  16098.100  0.500  -0.195169  21.3487  25.9497  21.1905
  16098.564  16098.600  0.500  -0.193599  21.3472  25.9071  21.1518
  16099.064  16099.100  0.500  -0.192243  21.3394  25.8626  21.1111
  16099.575  16099.600  0.500  -0.190683  21.3295  25.8103  21.0596
  16100.086  16100.100  0.500  -0.188916  21.3237  25.7578  21.0106
  16100.563  16100.600  0.500  -0.187066  21.3182  25.7035  20.9613
  16101.062  16101.100  0.500  -0.185021  21.3129  25.6446  20.9013
  16101.562  16101.600  0.500  -0.182676  21.317  25.5895  20.8469
  16102.084  16102.100  0.500  -0.180274  21.3128  25.5231  20.7823
  16102.573  16102.600  0.500  -0.177612  21.3149  25.4577  20.7196
  16103.072  16103.100  0.500  -0.174512  21.3134  25.3771  20.6422
  16103.583  16103.600  0.500  -0.171185  21.3141  25.2936  20.558
  16104.072  16104.100  0.500  -0.167453  21.3146  25.2  20.4644
  16104.560  16104.600  0.500  -0.163339  21.3125  25.0941  20.362
  16105.060  16105.100  0.500  -0.158519  21.3156  24.977  20.2449
  16105.583  16105.600  0.500  -0.153065  21.3103  24.8351  20.1038
  16106.071  16106.100  0.500  -0.146993  21.3036  24.677  19.9462
  16106.571  16106.600  0.500  -0.139945  21.304  24.5041  19.766
  16107.071  16107.100  0.500  -0.131169  21.2989  24.2841  19.5458
  16107.560  16107.600  0.500  -0.121386  21.2975  24.0462  19.3008
  16108.049  16108.100  0.500  -0.109691  21.296  23.7649  19.0184
  16108.560  16108.600  0.500  -0.095854  21.2956  23.4378  18.6875
  16109.083  16109.100  0.500  -0.077716  21.2889  23.0094  18.2644
  16109.583  16109.600  0.500  -0.058383  21.2863  22.566  17.83
  16110.060  16110.100  0.500  -0.034948  21.2869  22.044  17.3221
  16110.572  16110.600  0.500  -0.006403  21.2844  21.4211  16.728
  16111.083  16111.100  0.500  0.027555  21.279  20.7006  16.047
  16111.561  16111.600  0.500  0.064899  21.2778  19.9407  15.3378
  16112.061  16112.100  0.500  0.111764  21.2734  19.0239  14.4909
  16112.584  16112.600  0.500  0.168095  21.2757  17.9838  13.5441
  16113.073  16113.100  0.500  0.230175  21.2735  16.8996  12.5736
  16113.574  16113.600  0.500  0.299094  21.2729  15.7736  11.5809
  16114.086  16114.100  0.500  0.378635  21.2671  14.5636  10.5343
  16114.575  16114.600  0.500  0.461383  21.2656  13.4061  9.555561
  16115.086  16115.100  0.500  0.545158  21.2647  12.3282  8.662434
  16115.598  16115.600  0.500  0.629195  21.2666  11.3356  7.850132
  16116.110  16116.100  0.500  0.714512  21.262  10.4063  7.098535
  16116.599  16116.600  0.500  0.790875  21.2608  9.640663  6.474157
  16117.100  16117.100  0.500  0.860929  21.254  8.985544  5.934113
  16117.601  16117.600  0.500  0.920197  21.2524  8.467824  5.494252
  16118.090  16118.100  0.500  0.962629  21.2514  8.115630  5.177365
  16118.591  16118.600  0.500  0.986461  21.2461  7.922536  4.984968
  16119.114  16119.100  0.500  0.991129  21.2458  7.885549  4.909807
  16119.615  16119.600  0.500  0.978311  21.2428  7.986122  4.956668
  16120.104  16120.100  0.500  0.952017  21.2362  8.196381  5.098802
  16120.605  16120.600  0.500  0.915955  21.2347  8.496751  5.322325
  16121.106  16121.100  0.500  0.873314  21.2241  8.862459  5.611251
  16121.607  16121.600  0.500  0.829401  21.2158  9.256668  5.931933
  16122.096  16122.100  0.500  0.784981  21.2039  9.671710  6.281965
  16122.609  16122.600  0.500  0.741965  21.1868  10.0887  6.644171
  16123.110  16123.100  0.500  0.704146  21.1742  10.4713  6.987470
  16123.599  16123.600  0.500  0.670182  21.1653  10.8285  7.313753
  16124.112  16124.100  0.500  0.639255  21.1557  11.1636  7.629090
  16124.601  16124.600  0.500  0.614841  21.1541  11.4386  7.895118
  16125.080  16125.100  0.500  0.595564  21.1606  11.6648  8.117221
  16125.592  16125.600  0.500  0.580539  21.1742  11.849  8.302721
  16126.093  16126.100  0.500  0.569039  21.1846  11.992  8.449916
  16126.572  16126.600  0.500  0.561352  21.1891  12.0871  8.550965
  16127.085  16127.100  0.500  0.555865  21.1926  12.1555  8.629275
  16127.586  16127.600  0.500  0.552054  21.1919  12.2015  8.677179
  16128.076  16128.100  0.500  0.549417  21.1911  12.2333  8.707940
  16128.577  16128.600  0.500  0.547259  21.1921  12.2603  8.727947
  16129.101  16129.100  0.500  0.544974  21.1895  12.2869  8.738221
  16129.568  16129.600  0.500  0.542595  21.1829  12.3123  8.743225
  16130.583  16130.590  0.500  0.536520  21.1749  12.3827  8.753950
  16131.563  16131.590  0.500  0.529914  21.1655  12.4592  8.773371
  16132.612  16132.610  0.500  0.524988  21.1614  12.5183  8.792604
  16133.683  16133.660  0.500  0.523280  21.1561  12.5365  8.806006
  16134.732  16134.720  0.500  0.524785  21.1557  12.5174  8.806691
  16135.804  16135.800  0.500  0.528196  21.1506  12.4719  8.790921
  16136.899  16136.900  0.500  0.533177  21.243  12.4641  8.799104
  16138.062  16138.020  0.500  0.539569  21.2316  12.378  8.743201
  16139.180  16139.160  0.500  0.548596  21.2297  12.2657  8.662564
  16140.321  16140.310  0.500  0.560966  21.2185  12.1085  8.538815
  16141.497  16141.490  0.500  0.574681  21.2106  11.9391  8.393227
  16142.684  16142.680  0.500  0.584282  21.2017  11.8201  8.275454
  16143.905  16143.900  0.500  0.585784  21.1852  11.7931  8.214750
  16145.104  16145.130  0.500  0.581924  21.1682  11.8293  8.201907
  16146.371  16146.380  0.500  0.577794  21.1541  11.8703  8.193198
  16147.639  16147.650  0.500  0.576837  21.162  11.8861  8.158821
  16148.941  16148.940  0.500  0.580312  21.1734  11.8513  8.090721
  16150.266  16150.250  0.500  0.587095  21.1683  11.7683  8.000841
  16151.592  16151.580  0.500  0.596447  21.1637  11.6563  7.913808
  16152.963  16152.930  0.500  0.607842  21.1522  11.5179  7.845699
  16154.312  16154.300  0.500  0.619430  21.1417  11.3795  7.800758
  16155.707  16155.680  0.500  0.630109  21.1375  11.2565  7.774299
  16157.101  16157.090  0.500  0.636959  21.1331  11.1773  7.764481
  16158.519  16158.510  0.500  0.637411  21.1271  11.1691  7.778461
  16159.949  16159.950  0.500  0.630917  21.1164  11.2361  7.822046
  16161.413  16161.410  0.500  0.618706  21.1144  11.3731  7.889913
  16162.867  16162.890  0.500  0.604694  21.1064  11.5292  7.956963
  16164.389  16164.390  0.500  0.591570  21.0984  11.6771  8.017921
  16165.911  16165.910  0.500  0.583465  21.0901  11.7674  8.064875
  16167.479  16167.450  0.500  0.579613  21.0795  11.807  8.108705
  16169.025  16169.010  0.500  0.578341  21.0716  11.8175  8.158057
  16170.606  16170.580  0.500  0.576694  21.0623  11.8318  8.221934
  16172.198  16172.180  0.500  0.573141  21.0512  11.8677  8.298089
  16173.813  16173.790  0.500  0.568165  21.0002  11.898  8.355137
  16175.441  16175.430  0.500  0.563680  20.9922  11.9469  8.414047
  16177.080  16177.080  0.500  0.560807  21.028  12.0017  8.462582
  16178.754  16178.750  0.500  0.559778  21.0251  12.0124  8.481143
  16180.462  16180.440  0.500  0.558811  21.0184  12.0202  8.495465
  16182.160  16182.150  0.500  0.557101  21.004  12.0325  8.511910
  16183.903  16183.880  0.500  0.554205  20.9967  12.0632  8.528939
  16185.647  16185.630  0.500  0.551232  20.9906  12.0956  8.534217
  16187.415  16187.390  0.500  0.548544  20.9817  12.1231  8.517278
  16189.194  16189.180  0.500  0.547486  20.9733  12.131  8.485351
  16190.985  16190.980  0.500  0.547908  20.9613  12.1189  8.441997
  16192.823  16192.810  0.500  0.549717  20.9551  12.0934  8.400486
  16194.638  16194.650  0.500  0.552325  20.9488  12.0583  8.361674
  16196.511  16196.510  0.500  0.555748  20.933  12.0081  8.319110
  16198.418  16198.390  0.500  0.560480  20.9219  11.9451  8.273528
  16200.303  16200.290  0.500  0.566742  20.9061  11.8615  8.210307
  16202.224  16202.210  0.500  0.573512  20.9077  11.7824  8.148724
  16204.167  16204.150  0.500  0.579509  20.9018  11.7086  8.090072
  16206.100  16206.110  0.500  0.583799  20.885  11.6492  8.057295
  16208.056  16208.080  0.500  0.585525  20.8758  11.6239  8.061459
  16210.093  16210.080  0.500  0.584021  20.8673  11.6367  8.097405
  16212.096  16212.090  0.500  0.580475  20.8577  11.6727  8.149718
  16214.157  16214.120  0.500  0.575039  20.8469  11.7302  8.210052
  16216.207  16216.180  0.500  0.568656  20.8357  11.7989  8.271069
  16218.281  16218.250  0.500  0.561439  20.828  11.8801  8.340532
  16220.367  16220.340  0.500  0.554310  20.8151  11.9576  8.405634
  16222.430  16222.450  0.500  0.548672  20.8051  12.0194  8.459261
  16224.586  16224.580  0.500  0.544400  20.7934  12.0641  8.500138
  16226.708  16226.720  0.500  0.542247  20.7871  12.0865  8.525073
  16228.911  16228.890  0.500  0.541289  20.7721  12.0893  8.532938
  16231.092  16231.080  0.500  0.541471  20.759  12.0795  8.527985
  16233.320  16233.280  0.500  0.541296  20.7491  12.0759  8.517284
  16235.502  16235.500  0.500  0.540477  20.6973  12.0556  8.495875
  16237.765  16237.750  0.500  0.539690  20.682  12.0561  8.488516
  16240.006  16240.010  0.500  0.539323  20.7122  12.0782  8.493775
  16242.294  16242.290  0.500  0.539379  20.7046  12.0731  8.479388
  16244.617  16244.590  0.500  0.539744  20.692  12.0613  8.455837
  16246.930  16246.910  0.500  0.540298  20.6852  12.0507  8.433054
  16249.266  16249.250  0.500  0.540656  20.6708  12.038  8.414213
  16251.626  16251.600  0.500  0.540899  20.6538  12.0251  8.399472
  16253.975  16253.980  0.500  0.541095  20.6262  12.0068  8.383198
  16256.348  16256.370  0.500  0.541739  20.6055  11.987  8.372836
  16258.825  16258.790  0.500  0.542609  20.6238  11.9872  8.384829
  16261.234  16261.220  0.500  0.543691  20.6132  11.9681  8.389220
  16263.679  16263.670  0.500  0.544101  20.605  11.9584  8.399672
  16266.171  16266.150  0.500  0.544473  20.5901  11.9453  8.404155
  16268.651  16268.640  0.500  0.544281  20.5766  11.9397  8.414397
  16271.156  16271.150  0.500  0.543715  20.5665  11.9407  8.420722
  16273.673  16273.670  0.500  0.543130  20.5498  11.9379  8.419926
  16276.261  16276.220  0.500  0.542671  20.5406  11.9381  8.417698
  16278.826  16278.790  0.500  0.543003  20.5244  11.9247  8.408582
  16281.392  16281.370  0.500  0.543394  20.5172  11.9159  8.396913
  16283.970  16283.980  0.500  0.542132  20.5023  11.9222  8.393462
  16286.596  16286.600  0.500  0.539339  20.4944  11.951  8.410688
  16289.246  16289.250  0.500  0.536704  20.4755  11.9715  8.422744
  16291.943  16291.910  0.500  0.534738  20.4573  11.9843  8.432900
  16294.618  16294.590  0.500  0.533689  20.4538  11.9949  8.449322
  16297.305  16297.290  0.500  0.532582  20.438  11.9989  8.460304
  16300.017  16300.010  0.500  0.532401  20.4243  11.993  8.458044
  16302.764  16302.750  0.500  0.532770  20.4084  11.9792  8.443940
  16305.547  16305.500  0.500  0.533750  20.3549  11.9362  8.405389
  16308.308  16308.280  0.500  0.534265  20.368  11.9377  8.405311
  16311.117  16311.070  0.500  0.533955  20.3748  11.9454  8.410458
  16313.903  16313.890  0.500  0.533261  20.3648  11.9478  8.415683
  16316.702  16316.720  0.500  0.532018  20.3506  11.9543  8.418159
  16319.583  16319.570  0.500  0.531217  20.3393  11.9572  8.420189
  16322.454  16322.450  0.500  0.530110  20.3255  11.9624  8.420018
  16325.372  16325.340  0.500  0.529525  20.3082  11.9592  8.421593
  16328.280  16328.250  0.500  0.528532  20.2949  11.9632  8.432623
  16331.177  16331.170  0.500  0.528043  20.2868  11.9643  8.443305
  16334.122  16334.120  0.500  0.527653  20.274  11.9614  8.452370
  16337.138  16337.090  0.500  0.527321  20.2575  11.9557  8.457945
  16340.109  16340.070  0.500  0.526920  20.2414  11.9509  8.459459
  16343.104  16343.080  0.500  0.526474  20.2212  11.9443  8.454827
  16346.088  16346.100  0.500  0.526243  20.2194  11.946  8.453663
  16349.156  16349.150  0.500  0.525990  20.2003  11.9378  8.444016
  16352.248  16352.210  0.500  0.525298  20.1914  11.9408  8.439569
  16355.330  16355.290  0.500  0.524255  20.1724  11.942  8.439183
  16358.401  16358.390  0.500  0.523814  20.1631  11.9417  8.442134
  16361.496  16361.510  0.500  0.523136  20.1462  11.9398  8.438634
  16364.663  16364.650  0.500  0.522471  20.1316  11.9391  8.433658
  16367.832  16367.800  0.500  0.521725  20.1162  11.9389  8.431049
  16371.013  16370.980  0.500  0.521367  20.069  11.9151  8.418425
  16374.184  16374.170  0.500  0.520675  20.0037  11.8846  8.400835
  16377.403  16377.390  0.500  0.519699  20.0641  11.9321  8.440667
  16380.635  16380.620  0.500  0.518689  20.0582  11.9406  8.453651
  16383.904  16383.870  0.500  0.517478  20.0423  11.9457  8.461493
  16387.198  16387.150  0.500  0.516744  20.0291  11.9465  8.465409
  16390.457  16390.440  0.500  0.516020  20.0144  11.9464  8.464894
  16393.754  16393.750  0.500  0.515417  19.9926  11.9406  8.462296
  16397.110  16397.070  0.500  0.515197  19.9788  11.935  8.458608
  16400.456  16400.420  0.500  0.514948  19.9584  11.9258  8.456860
  16403.827  16403.790  0.500  0.514009  19.919  11.9134  8.450160
  16407.176  16407.170  0.500  0.513229  19.9337  11.9315  8.471140
  16410.609  16410.580  0.500  0.512202  19.9157  11.933  8.477169
  16414.008  16414.000  0.500  0.511130  19.8991  11.9358  8.480189
  16417.467  16417.450  0.500  0.510283  19.8823  11.9359  8.480174
  16420.963  16420.910  0.500  0.509632  19.856  11.9278  8.472198
  16424.414  16424.390  0.500  0.509194  19.853  11.9313  8.471277
  16427.901  16427.890  0.500  0.508958  19.8385  11.9254  8.464527
  16431.461  16431.410  0.500  0.508658  19.8217  11.9189  8.455804
  16435.022  16434.950  0.500  0.508226  19.8008  11.9114  8.446775
  16438.550  16438.500  0.500  0.507829  19.7736  11.8997  8.438650
  16442.114  16442.080  0.500  0.507374  19.7449  11.8879  8.433232
  16445.692  16445.680  0.500  0.506863  19.7244  11.8816  8.437648
  16449.331  16449.290  0.500  0.506138  19.7336  11.8958  8.453206
  16452.959  16452.920  0.500  0.505559  19.7188  11.8938  8.457881
  16456.637  16456.580  0.500  0.505047  19.6997  11.8883  8.457617
  16460.257  16460.250  0.500  0.504671  19.6619  11.87  8.448113
  16463.973  16463.940  0.500  0.504231  19.6669  11.8782  8.456474
  16467.680  16467.650  0.500  0.503670  19.6524  11.8761  8.457076
  16471.435  16471.380  0.500  0.502949  19.6343  11.8737  8.456691
  16475.145  16475.120  0.500  0.501946  19.615  11.8739  8.457173
  16478.916  16478.890  0.500  0.501132  19.596  11.8721  8.456708
  16482.688  16482.680  0.500  0.500010  19.5756  11.8731  8.456841
  16486.522  16486.480  0.500  0.499187  19.5605  11.8737  8.458619
  16490.334  16490.310  0.500  0.498225  19.5429  11.8744  8.462479
  16494.160  16494.150  0.500  0.497475  19.5246  11.8722  8.464893
  16498.023  16498.010  0.500  0.496565  19.5049  11.871  8.463939
  16501.923  16501.890  0.500  0.495862  19.4856  11.8676  8.462609
  16505.850  16505.790  0.500  0.495182  19.4602  11.8602  8.457348
  16509.731  16509.710  0.500  0.494990  19.4493  11.8558  8.455835
  16513.649  16513.650  0.500  0.494391  19.4301  11.8512  8.449501
  16517.653  16517.610  0.500  0.493719  19.4141  11.8494  8.451683
  16521.623  16521.580  0.500  0.493170  19.3922  11.8426  8.450049
  16525.606  16525.580  0.500  0.492634  19.3714  11.8362  8.448447
  16529.580  16529.590  0.500  0.491868  19.3542  11.8347  8.448847
  16533.664  16533.630  0.500  0.491366  19.3285  11.825  8.444297
  16537.713  16537.680  0.500  0.490693  19.3149  11.8246  8.446185
  16541.801  16541.750  0.500  0.489988  19.2971  11.822  8.447668
  16545.830  16545.840  0.500  0.489199  19.2622  11.81  8.443370
  16549.994  16549.950  0.500  0.488402  19.2445  11.8086  8.446347
  16554.123  16554.080  0.500  0.487473  19.2351  11.8138  8.451384
  16558.267  16558.230  0.500  0.486666  19.2174  11.8124  8.455267
  16562.425  16562.390  0.500  0.485764  19.19  11.8062  8.450935
  16566.633  16566.580  0.500  0.485023  19.1795  11.8085  8.453430
  16570.843  16570.780  0.500  0.484174  19.1591  11.8059  8.452424
  16575.056  16575.010  0.500  0.483400  19.1398  11.8032  8.450342
  16579.282  16579.250  0.500  0.482740  19.1842  11.8384  8.477503
  16583.499  16583.510  0.500  0.482031  19.1588  11.8311  8.475093
  16587.814  16587.790  0.500  0.481217  19.1407  11.8296  8.475133
  16592.132  16592.090  0.500  0.480532  19.1136  11.8209  8.471054
  16596.428  16596.410  0.500  0.479810  19.1008  11.8215  8.472650
  16600.774  16600.750  0.500  0.478985  19.0799  11.8183  8.471923
  16605.123  16605.110  0.500  0.478404  19.0571  11.8111  8.468739
  16609.534  16609.490  0.500  0.477536  19.0408  11.8112  8.473371
  16613.923  16613.880  0.500  0.476577  19.0175  11.808  8.473869
  16618.327  16618.300  0.500  0.475894  18.9855  11.7963  8.466037
  16622.746  16622.730  0.500  0.474967  18.9769  11.8019  8.474306
  16627.239  16627.180  0.500  0.474095  18.9495  11.7951  8.469747
  16631.686  16631.650  0.500  0.473428  18.9339  11.7932  8.470436
  16636.148  16636.140  0.500  0.472485  18.9118  11.7905  8.470267
  16640.685  16640.650  0.500  0.471655  18.8888  11.786  8.467654
  16645.249  16645.180  0.500  0.470655  18.8653  11.7831  8.468925
  16649.767  16649.730  0.500  0.470221  18.8456  11.776  8.467749
  16654.312  16654.300  0.500  0.469471  18.8216  11.7698  8.468583
  16658.895  16658.880  0.500  0.468390  18.8006  11.7694  8.465792
  16663.542  16663.490  0.500  0.467716  18.7764  11.7621  8.464588
  16668.143  16668.110  0.500  0.466687  18.7512  11.7584  8.461906
  16672.795  16672.760  0.500  0.466090  18.7317  11.7532  8.460511
  16677.450  16677.420  0.500  0.465306  18.7057  11.7461  8.457062
  16682.144  16682.100  0.500  0.464441  18.6783  11.739  8.455574
  16686.841  16686.800  0.500  0.463721  18.6508  11.7302  8.452085
  16691.565  16691.520  0.500  0.462810  18.6211  11.7222  8.447024
  16696.303  16696.260  0.500  0.461866  18.5881  11.7125  8.442527
  16701.069  16701.010  0.500  0.461066  18.5457  11.6951  8.433572
  16705.862  16705.790  0.500  0.460149  18.4859  11.6681  8.414685
  16710.621  16710.590  0.500  0.459362  18.3471  11.5896  8.361706
  16715.457  16715.400  0.500  0.458157  17.0414  10.7778  7.777994
  16720.319  16720.230  0.500  0.457998  17.8424  11.2862  8.144151
  16725.160  16725.090  0.500  0.457017  18.5955  11.7741  8.499794
  16730.016  16729.960  0.500  0.456129  18.5533  11.7578  8.491301
  16734.924  16734.850  0.500  0.455286  18.5191  11.7461  8.485268
  16739.823  16739.760  0.500  0.454751  18.4884  11.7328  8.478866
  16744.773  16744.690  0.500  0.453668  18.4572  11.7258  8.475339
  16749.776  16749.630  0.500  0.452704  18.4285  11.7188  8.471903
  16754.646  16754.600  0.500  0.451786  18.3972  11.7097  8.467550
  16759.618  16759.590  0.500  0.451027  18.3717  11.7023  8.463813
  16764.605  16764.590  0.500  0.450268  18.3441  11.6936  8.463116
  16769.682  16769.620  0.500  0.449060  18.3161  11.6899  8.459509
  16774.699  16774.660  0.500  0.448416  18.289  11.6801  8.458748
  16779.745  16779.720  0.500  0.447253  18.2602  11.6753  8.453700
  16784.830  16784.800  0.500  0.446592  18.2349  11.6668  8.451899
  16789.919  16789.900  0.500  0.445771  18.2091  11.6599  8.448326
  16795.060  16795.020  0.500  0.444819  18.1763  11.6499  8.442506
  16800.205  16800.160  0.500  0.443947  18.1386  11.6359  8.435840
  16805.389  16805.320  0.500  0.443181  17.8673  11.4707  8.317427
  16810.528  16810.500  0.500  0.442259  18.0972  11.629  8.433456
  16815.706  16815.690  0.500  0.441378  18.0593  11.6148  8.426746
  16820.938  16820.910  0.500  0.440556  18.0111  11.5934  8.412654
  16826.160  16826.140  0.500  0.439721  17.934  11.5534  8.386067
  16831.423  16831.390  0.500  0.438834  17.6993  11.4123  8.287697
  16836.714  16836.660  0.500  0.438118  15.163  9.783931  7.106951
  16841.959  16841.950  0.500  0.436939  18.0255  11.6447  8.460511
  16847.307  16847.260  0.500  0.436074  18.0258  11.655  8.472209
  16852.620  16852.590  0.500  0.435227  17.9837  11.6376  8.458444
  16857.975  16857.940  0.500  0.434193  17.943  11.6232  8.453196
  16863.332  16863.310  0.500  0.433128  17.8244  11.5587  8.406095
  16868.718  16868.690  0.500  0.432669  17.8697  11.5934  8.435570
  16874.108  16874.100  0.500  0.431340  17.8329  11.5849  8.428442
  16879.526  16879.520  0.500  0.430622  17.8344  11.5942  8.441476
  16885.023  16884.970  0.500  0.429996  17.7984  11.5781  8.431523
  16890.448  16890.430  0.500  0.428938  17.7744  11.5747  8.428805
  16895.914  16895.910  0.500  0.428042  17.7392  11.5621  8.423916
  16901.434  16901.410  0.500  0.427225  17.7115  11.5535  8.420221
  16906.982  16906.930  0.500  0.426040  17.6825  11.5483  8.416539
  16912.484  16912.470  0.500  0.425348  17.6263  11.5195  8.399278
  16918.028  16918.020  0.500  0.424435  17.6117  11.5205  8.402249
  16923.625  16923.600  0.500  0.423443  17.3937  11.3892  8.308596
  16929.226  16929.200  0.500  0.422825  17.5642  11.508  8.399296
  16934.843  16934.810  0.500  0.421532  17.5075  11.4857  8.383775
  16940.464  16940.450  0.500  0.420829  17.4444  11.4523  8.363062
  16946.151  16946.100  0.500  0.419895  17.2205  11.3159  8.265116
  16951.805  16951.770  0.500  0.419093  14.8755  9.782749  7.146589
  16957.475  16957.460  0.500  0.418048  17.5177  11.5324  8.429539