File: xdidata/Sr/Sr-StrontiumHydroxide.xdi
# XDI/1.0 BlueSky/1.10.0 BMM/2023-1.0-py310-tiled
# Beamline.name: BMM (06BM) -- Beamline for Materials Measurement (NIST)
# Beamline.xray_source: NSLS-II three-pole wiggler
# Beamline.collimation: paraboloid mirror, 5 nm Rh on 30 nm Pt
# Beamline.focusing: not in use
# Beamline.harmonic_rejection: flat mirror, Pt stripe, pitch = 7.0 mrad relative to beam
# Beamline.software: Bluesky 1.10.0, Ophyd 1.7.0, DataBroker 2.0.0b13, Python 3.10.8, 2023-1.0-py310-tiled
# Detector.I0: 10 cm N2
# Detector.I1: 25 cm N2
# Detector.I2: 25 cm N2
# Element.symbol: Sr
# Element.edge: K
# Element.reference: Sr
# Element.reference_material: SrTiO3
# Facility.name: NSLS-II
# Facility.energy: 3.0
# Facility.current: 400.6
# Facility.mode: top-off
# Facility.GUP: 301027
# Facility.SAF: 310583
# Facility.cycle: 2023-2
# Mono.name: Si(111)
# Mono.d_spacing: 3.13519
# Mono.encoder_resolution: 0.0000050 deg/ct
# Mono.angle_offset: 16.0754 deg
# Mono.scan_mode: pseudo channel cut
# Mono.scan_type: step
# Mono.direction: forward in energy
# Sample.name: Sr(OH)2.8H2O
# Sample.prep: Powder in PEG pellet
# Sample.x: 142.033 mm
# Sample.y: 113.475 mm
# Sample.SDD_position: 205.000 mm
# Scan.experimenters: Bruce Ravel
# Scan.edge_energy: 16104.6
# Scan.start_time: 2023-06-01T11:15:59
# Scan.end_time: 2023-06-01T11:23:18
# Scan.transient_id: 79113
# Scan.uid: 890eabcf-edfb-48fc-87f2-88892370da46
# Scan.plot_hint: ln(I0/It)  --  ln($5/$6)
# Column.1: energy eV
# Column.2: requested_energy eV
# Column.3: measurement_time seconds
# Column.4: xmu
# Column.5: I0 nA
# Column.6: It nA
# Column.7: Ir nA
# ///////////
# Sigma Aldrich; 95%; 415219; Lot STBG0528V
# -----------
# energy  requested_energy  measurement_time  xmu  I0  It  Ir
  15904.537  15904.600  0.500  -0.224343  22.3718  27.9983  22.8618
  15914.591  15914.600  0.500  -0.224922  22.2466  27.8577  22.7596
  15924.557  15924.600  0.500  -0.225739  22.2881  27.9325  22.8223
  15934.636  15934.600  0.500  -0.226368  22.2396  27.8893  22.7972
  15944.662  15944.600  0.500  -0.227037  22.1798  27.8329  22.7541
  15954.699  15954.600  0.500  -0.227645  22.1429  27.8035  22.7421
  15964.739  15964.600  0.500  -0.228255  22.0864  27.7495  22.7034
  15974.679  15974.600  0.500  -0.228839  22.037  27.7035  22.6719
  15984.699  15984.600  0.500  -0.229323  21.9058  27.5519  22.5538
  15994.709  15994.600  0.500  -0.229709  21.9466  27.6139  22.6103
  16004.687  16004.600  0.500  -0.230093  21.8904  27.5538  22.5702
  16014.723  16014.600  0.500  -0.230390  21.8371  27.4948  22.5254
  16024.591  16024.600  0.500  -0.230514  21.6402  27.2503  22.3328
  16034.596  16034.600  0.500  -0.230369  21.7402  27.3723  22.4373
  16044.613  16044.600  0.500  -0.230045  21.6961  27.308  22.3876
  16054.608  16054.600  0.500  -0.229048  21.6404  27.2107  22.3102
  16064.639  16064.600  0.500  -0.227469  21.5879  27.1019  22.2221
  16074.638  16074.600  0.500  -0.224291  21.5329  26.947  22.0932
  16076.562  16076.600  0.500  -0.223503  21.4819  26.862  22.0187
  16078.566  16078.600  0.500  -0.222685  21.4746  26.831  21.9941
  16080.536  16080.600  0.500  -0.221475  21.5105  26.8433  21.9995
  16082.530  16082.600  0.500  -0.220032  21.5058  26.7987  21.9584
  16084.547  16084.600  0.500  -0.218340  21.4963  26.7416  21.908
  16086.552  16086.600  0.500  -0.216451  21.4831  26.6747  21.8474
  16088.570  16088.600  0.500  -0.214053  21.4787  26.6054  21.7868
  16090.543  16090.600  0.500  -0.211304  21.4611  26.5106  21.7052
  16092.573  16092.600  0.500  -0.207953  21.4499  26.4082  21.6081
  16094.536  16094.600  0.500  -0.203665  21.4422  26.2857  21.495
  16095.001  16095.100  0.500  -0.202517  21.4401  26.253  21.4673
  16095.523  16095.600  0.500  -0.201051  21.4365  26.2101  21.4261
  16096.011  16096.100  0.500  -0.199664  21.4382  26.1759  21.3971
  16096.522  16096.600  0.500  -0.198139  21.431  26.1273  21.3529
  16097.021  16097.100  0.500  -0.196601  21.4322  26.0885  21.3142
  16097.543  16097.600  0.500  -0.194690  21.4299  26.0359  21.2682
  16098.031  16098.100  0.500  -0.193057  21.4209  25.9825  21.221
  16098.553  16098.600  0.500  -0.191039  21.4165  25.9248  21.1657
  16099.041  16099.100  0.500  -0.188887  21.4108  25.8623  21.1108
  16099.563  16099.600  0.500  -0.186533  21.4059  25.7954  21.0526
  16100.063  16100.100  0.500  -0.184175  21.3992  25.7267  20.9882
  16100.563  16100.600  0.500  -0.181534  21.3922  25.6504  20.9138
  16101.062  16101.100  0.500  -0.178672  21.3886  25.5728  20.8468
  16101.573  16101.600  0.500  -0.175345  21.3881  25.4873  20.7668
  16102.084  16102.100  0.500  -0.171791  21.3871  25.3956  20.6807
  16102.573  16102.600  0.500  -0.168081  21.3874  25.302  20.5923
  16103.061  16103.100  0.500  -0.163626  21.3949  25.1984  20.496
  16103.583  16103.600  0.500  -0.158563  21.3959  25.0723  20.3775
  16104.095  16104.100  0.500  -0.152907  21.3954  24.9303  20.2519
  16104.583  16104.600  0.500  -0.146727  21.3922  24.7729  20.1025
  16105.060  16105.100  0.500  -0.139718  21.3948  24.6029  19.9466
  16105.571  16105.600  0.500  -0.131114  21.3904  24.3871  19.7426
  16106.049  16106.100  0.500  -0.121796  21.3859  24.1558  19.5292
  16106.571  16106.600  0.500  -0.109308  21.3856  23.8558  19.2518
  16107.060  16107.100  0.500  -0.095844  21.3818  23.5325  18.9531
  16107.571  16107.600  0.500  -0.078191  21.3781  23.1168  18.5691
  16108.049  16108.100  0.500  -0.057623  21.3717  22.6393  18.1314
  16108.549  16108.600  0.500  -0.031884  21.3715  22.0639  17.6077
  16109.071  16109.100  0.500  -0.000003  21.3723  21.3723  16.9859
  16109.572  16109.600  0.500  0.037913  21.3676  20.5727  16.2763
  16110.083  16110.100  0.500  0.084025  21.3659  19.644  15.4569
  16110.595  16110.600  0.500  0.136239  21.3614  18.6407  14.5827
  16111.106  16111.100  0.500  0.198250  21.3619  17.5203  13.6127
  16111.584  16111.600  0.500  0.262169  21.3582  16.4326  12.6716
  16112.107  16112.100  0.500  0.338003  21.3576  15.2321  11.6344
  16112.596  16112.600  0.500  0.411296  21.3567  14.155  10.6972
  16113.130  16113.100  0.500  0.494227  21.3539  13.0268  9.712076
  16113.585  16113.600  0.500  0.568961  21.3528  12.0881  8.893131
  16114.086  16114.100  0.500  0.645759  21.3501  11.1931  8.112111
  16114.597  16114.600  0.500  0.720704  21.345  10.3824  7.415480
  16115.086  16115.100  0.500  0.795005  21.34  9.636676  6.785629
  16115.587  16115.600  0.500  0.870522  21.3416  8.936437  6.209905
  16116.087  16116.100  0.500  0.952947  21.3388  8.228302  5.640281
  16116.588  16116.600  0.500  1.044402  21.3421  7.510321  5.077146
  16117.055  16117.100  0.500  1.136013  21.3384  6.851696  4.565988
  16117.578  16117.600  0.500  1.236324  21.3387  6.197833  4.060855
  16118.067  16118.100  0.500  1.328354  21.3332  5.651454  3.641599
  16118.602  16118.600  0.500  1.411561  21.3294  5.199297  3.298144
  16119.080  16119.100  0.500  1.470586  21.3268  4.900710  3.073505
  16119.592  16119.600  0.500  1.511641  21.3229  4.702711  2.929538
  16120.082  16120.100  0.500  1.533055  21.3196  4.602380  2.866380
  16120.594  16120.600  0.500  1.536360  21.311  4.585330  2.870908
  16121.106  16121.100  0.500  1.525633  21.308  4.634134  2.928355
  16121.595  16121.600  0.500  1.503346  21.2992  4.736622  3.030329
  16122.119  16122.100  0.500  1.472429  21.2882  4.882831  3.168180
  16122.620  16122.600  0.500  1.435772  21.2736  5.061653  3.329594
  16123.087  16123.100  0.500  1.395555  21.2557  5.264937  3.510563
  16123.599  16123.600  0.500  1.350385  21.2413  5.504478  3.717051
  16124.089  16124.100  0.500  1.304442  21.235  5.761564  3.937832
  16124.613  16124.600  0.500  1.255104  21.2354  6.053056  4.179129
  16125.103  16125.100  0.500  1.208024  21.2427  6.347036  4.420085
  16125.581  16125.600  0.500  1.160416  21.2528  6.659695  4.669791
  16126.093  16126.100  0.500  1.111095  21.2627  6.999633  4.934992
  16126.583  16126.600  0.500  1.064487  21.269  7.335797  5.194082
  16127.073  16127.100  0.500  1.022034  21.2759  7.656402  5.438650
  16127.574  16127.600  0.500  0.984004  21.2766  7.953441  5.659903
  16128.064  16128.100  0.500  0.951300  21.2758  8.217541  5.855231
  16128.566  16128.600  0.500  0.923917  21.2731  8.444588  6.018319
  16129.067  16129.100  0.500  0.902132  21.2685  8.628704  6.142989
  16129.546  16129.600  0.500  0.887082  21.2693  8.759890  6.227812
  16130.594  16130.590  0.500  0.866030  21.2591  8.941963  6.330815
  16131.597  16131.590  0.500  0.855542  21.2502  9.032477  6.367080
  16132.600  16132.610  0.500  0.847883  21.2443  9.099368  6.400025
  16133.649  16133.660  0.500  0.840020  21.2375  9.168260  6.447405
  16134.709  16134.720  0.500  0.832045  21.2391  9.242385  6.509025
  16135.827  16135.800  0.500  0.825911  21.2274  9.294107  6.557213
  16136.876  16136.900  0.500  0.823903  21.2254  9.311936  6.578721
  16137.983  16138.020  0.500  0.825761  21.2216  9.292978  6.572324
  16139.112  16139.160  0.500  0.833259  21.2123  9.219530  6.519663
  16140.287  16140.310  0.500  0.848159  21.2072  9.080981  6.411087
  16141.463  16141.490  0.500  0.868704  21.1998  8.893199  6.263145
  16142.661  16142.680  0.500  0.889042  21.1876  8.709150  6.106169
  16143.917  16143.900  0.500  0.905274  21.1755  8.564034  5.975353
  16145.127  16145.130  0.500  0.916714  21.1513  8.456923  5.872534
  16146.360  16146.380  0.500  0.929051  21.1363  8.347335  5.769442
  16147.616  16147.650  0.500  0.946542  21.1472  8.206800  5.643301
  16149.078  16148.940  0.500  0.971175  21.1526  8.009170  5.474212
  16150.118  16150.250  0.500  0.991624  21.2211  7.872472  5.362639
  16151.455  16151.580  0.500  1.015342  21.2024  7.681182  5.221608
  16152.929  16152.930  0.500  1.036553  21.1899  7.515513  5.123628
  16154.209  16154.300  0.500  1.049526  21.1825  7.416077  5.084258
  16155.638  16155.680  0.500  1.058061  21.1802  7.352242  5.079586
  16157.033  16157.090  0.500  1.060711  21.1731  7.330311  5.095532
  16158.462  16158.510  0.500  1.057324  21.1687  7.353679  5.127859
  16159.903  16159.950  0.500  1.049252  21.1574  7.409301  5.164500
  16161.402  16161.410  0.500  1.039363  21.1515  7.480865  5.199300
  16162.855  16162.890  0.500  1.028211  21.1425  7.561554  5.226798
  16164.366  16164.390  0.500  1.014527  21.1356  7.663215  5.269357
  16165.877  16165.910  0.500  0.998547  21.1288  7.784174  5.342119
  16167.422  16167.450  0.500  0.979811  21.1173  7.927044  5.448194
  16169.002  16169.010  0.500  0.961606  21.1098  8.069823  5.576445
  16170.560  16170.580  0.500  0.945513  21.1004  8.197085  5.699735
  16172.152  16172.180  0.500  0.932550  21.0884  8.299300  5.806580
  16173.745  16173.790  0.500  0.921193  21.042  8.375628  5.887418
  16175.383  16175.430  0.500  0.910437  21.0251  8.459418  5.960544
  16177.045  16177.080  0.500  0.900709  21.0603  8.556423  6.041180
  16178.742  16178.750  0.500  0.892988  21.0616  8.623265  6.097015
  16180.428  16180.440  0.500  0.888447  21.0516  8.658396  6.126440
  16182.137  16182.150  0.500  0.888088  21.0426  8.657793  6.129596
  16183.880  16183.880  0.500  0.892005  21.0334  8.620203  6.101876
  16185.624  16185.630  0.500  0.898976  21.0277  8.558000  6.046691
  16187.369  16187.390  0.500  0.907509  21.0187  8.481637  5.969020
  16189.194  16189.180  0.500  0.916625  21.0071  8.400026  5.883767
  16191.008  16190.980  0.500  0.924377  20.9992  8.332011  5.813684
  16192.823  16192.810  0.500  0.929905  20.9901  8.282490  5.760886
  16194.638  16194.650  0.500  0.933497  20.9799  8.248793  5.729117
  16196.488  16196.510  0.500  0.935219  20.9702  8.230810  5.708165
  16198.384  16198.390  0.500  0.936806  20.9602  8.213819  5.695804
  16200.280  16200.290  0.500  0.937608  20.9461  8.201729  5.683830
  16202.212  16202.210  0.500  0.938394  20.9439  8.194433  5.674459
  16204.121  16204.150  0.500  0.939158  20.9373  8.185593  5.663613
  16206.123  16206.110  0.500  0.940372  20.9286  8.172245  5.657437
  16208.079  16208.080  0.500  0.942663  20.9213  8.150695  5.659301
  16210.104  16210.080  0.500  0.945038  20.9127  8.128046  5.663704
  16212.096  16212.090  0.500  0.946073  20.9004  8.114829  5.671289
  16214.134  16214.120  0.500  0.945762  20.8885  8.112764  5.683849
  16216.173  16216.180  0.500  0.943765  20.8853  8.127721  5.703674
  16218.235  16218.250  0.500  0.939562  20.8739  8.157485  5.733998
  16220.321  16220.340  0.500  0.934368  20.8629  8.195655  5.770481
  16222.441  16222.450  0.500  0.927459  20.8553  8.249489  5.811695
  16224.574  16224.580  0.500  0.920022  20.8458  8.307251  5.858093
  16226.743  16226.720  0.500  0.912284  20.837  8.368270  5.909503
  16228.900  16228.890  0.500  0.904422  20.8259  8.429841  5.957959
  16231.092  16231.080  0.500  0.897406  20.812  8.483500  5.994494
  16233.297  16233.280  0.500  0.893104  20.8081  8.518488  6.016609
  16235.525  16235.500  0.500  0.889844  20.7635  8.528000  6.014999
  16237.754  16237.750  0.500  0.888579  20.743  8.530358  6.011186
  16240.006  16240.010  0.500  0.887766  20.7771  8.551325  6.021397
  16242.271  16242.290  0.500  0.887453  20.7722  8.551986  6.014020
  16244.583  16244.590  0.500  0.887590  20.7585  8.545158  5.998105
  16246.907  16246.910  0.500  0.888282  20.7487  8.535208  5.980107
  16249.277  16249.250  0.500  0.889181  20.7422  8.524884  5.964250
  16251.614  16251.600  0.500  0.890346  20.7238  8.507382  5.948606
  16253.986  16253.980  0.500  0.892241  20.6982  8.480795  5.929606
  16256.371  16256.370  0.500  0.894450  20.6838  8.456222  5.914025
  16258.814  16258.790  0.500  0.897265  20.6949  8.436965  5.907797
  16261.223  16261.220  0.500  0.899632  20.6874  8.413948  5.901928
  16263.656  16263.670  0.500  0.901282  20.6781  8.396314  5.902786
  16266.124  16266.150  0.500  0.901082  20.6682  8.393980  5.911880
  16268.628  16268.640  0.500  0.898906  20.6567  8.407597  5.930073
  16271.121  16271.150  0.500  0.896317  20.6449  8.424546  5.947907
  16273.673  16273.670  0.500  0.894061  20.6328  8.438642  5.958614
  16276.226  16276.220  0.500  0.893893  20.6196  8.434637  5.955990
  16278.803  16278.790  0.500  0.896013  20.6098  8.412804  5.938906
  16281.369  16281.370  0.500  0.898798  20.5973  8.384322  5.915282
  16283.959  16283.980  0.500  0.900500  20.5857  8.365340  5.895988
  16286.608  16286.600  0.500  0.900248  20.5734  8.362430  5.889529
  16289.258  16289.250  0.500  0.899736  20.5626  8.362334  5.888968
  16291.920  16291.910  0.500  0.898518  20.5499  8.367360  5.893341
  16294.618  16294.590  0.500  0.896586  20.5351  8.377513  5.907296
  16297.294  16297.290  0.500  0.893902  20.52  8.393846  5.923035
  16299.970  16300.010  0.500  0.890920  20.5063  8.413301  5.939375
  16302.753  16302.750  0.500  0.887783  20.4909  8.433389  5.951306
  16305.501  16305.500  0.500  0.884568  20.4317  8.436098  5.947140
  16308.273  16308.280  0.500  0.882278  20.4462  8.461444  5.961623
  16311.070  16311.070  0.500  0.880353  20.4566  8.482054  5.978709
  16313.915  16313.890  0.500  0.877989  20.4412  8.495723  5.989697
  16316.725  16316.720  0.500  0.875883  20.427  8.507741  5.996672
  16319.548  16319.570  0.500  0.873953  20.4174  8.520174  6.004744
  16322.442  16322.450  0.500  0.872378  20.403  8.527579  6.008482
  16325.349  16325.340  0.500  0.871935  20.3837  8.523268  6.008043
  16328.257  16328.250  0.500  0.872545  20.3701  8.512407  6.007422
  16331.201  16331.170  0.500  0.873699  20.3568  8.497013  6.003628
  16334.111  16334.120  0.500  0.875355  20.3468  8.478810  5.996525
  16337.068  16337.090  0.500  0.877374  20.3298  8.454612  5.986200
  16340.062  16340.070  0.500  0.879357  20.3154  8.431922  5.974994
  16343.081  16343.080  0.500  0.880344  20.2935  8.414500  5.962942
  16346.112  16346.100  0.500  0.879886  20.2847  8.414698  5.958523
  16349.168  16349.150  0.500  0.879126  20.27  8.415004  5.957660
  16352.213  16352.210  0.500  0.877412  20.2539  8.422750  5.960170
  16355.294  16355.290  0.500  0.875221  20.241  8.435850  5.967477
  16358.412  16358.390  0.500  0.872907  20.2275  8.449731  5.976484
  16361.555  16361.510  0.500  0.870951  20.2098  8.458885  5.983586
  16364.699  16364.650  0.500  0.868930  20.1914  8.468252  5.988691
  16367.832  16367.800  0.500  0.867113  20.1773  8.477736  5.993400
  16370.978  16370.980  0.500  0.865764  20.1301  8.469357  5.989327
  16374.196  16374.170  0.500  0.864911  20.0633  8.448446  5.979382
  16377.415  16377.390  0.500  0.863689  20.1221  8.483566  6.006157
  16380.647  16380.620  0.500  0.863323  20.1151  8.483693  6.011396
  16383.892  16383.870  0.500  0.862829  20.0998  8.481449  6.012713
  16387.162  16387.150  0.500  0.862285  20.0831  8.479011  6.013371
  16390.434  16390.440  0.500  0.861481  20.0673  8.479156  6.014758
  16393.765  16393.750  0.500  0.860681  20.0534  8.480044  6.017368
  16397.110  16397.070  0.500  0.859168  20.0333  8.484383  6.020611
  16400.468  16400.420  0.500  0.856947  20.0099  8.493306  6.029311
  16403.804  16403.790  0.500  0.855220  19.9737  8.492598  6.031015
  16407.164  16407.170  0.500  0.853761  19.9801  8.507738  6.046960
  16410.585  16410.580  0.500  0.852301  19.9689  8.515374  6.053328
  16414.019  16414.000  0.500  0.851175  19.95  8.516925  6.056118
  16417.455  16417.450  0.500  0.850322  19.9334  8.517101  6.057974
  16420.916  16420.910  0.500  0.849441  19.9005  8.510516  6.049765
  16424.378  16424.390  0.500  0.849546  19.8969  8.508082  6.047778
  16427.925  16427.890  0.500  0.849681  19.8805  8.499928  6.039446
  16431.437  16431.410  0.500  0.849880  19.8658  8.491974  6.030320
  16434.987  16434.950  0.500  0.849913  19.8411  8.481108  6.021749
  16438.502  16438.500  0.500  0.849715  19.816  8.472063  6.013380
  16442.079  16442.080  0.500  0.849200  19.7879  8.464417  6.011212
  16445.716  16445.680  0.500  0.848242  19.7603  8.460728  6.012120
  16449.319  16449.290  0.500  0.847504  19.775  8.473269  6.027916
  16452.947  16452.920  0.500  0.846130  19.758  8.477623  6.035550
  16456.601  16456.580  0.500  0.845005  19.7413  8.479967  6.039670
  16460.257  16460.250  0.500  0.843686  19.7035  8.474899  6.039084
  16463.961  16463.940  0.500  0.841984  19.7031  8.489161  6.047131
  16467.668  16467.650  0.500  0.841119  19.6914  8.491489  6.051318
  16471.399  16471.380  0.500  0.839672  19.6719  8.495348  6.055448
  16475.157  16475.120  0.500  0.838649  19.7198  8.524765  6.075665
  16478.868  16478.890  0.500  0.837653  19.6992  8.524331  6.077368
  16482.688  16482.680  0.500  0.836649  19.6755  8.522610  6.077345
  16486.510  16486.480  0.500  0.835704  19.6622  8.524935  6.081115
  16490.310  16490.310  0.500  0.834302  19.6411  8.527727  6.083269
  16494.172  16494.150  0.500  0.833229  19.6248  8.529790  6.086009
  16498.023  16498.010  0.500  0.832598  19.6066  8.527240  6.084276
  16501.912  16501.890  0.500  0.831683  19.5837  8.525106  6.083521
  16505.826  16505.790  0.500  0.831054  19.5605  8.520365  6.082830
  16509.731  16509.710  0.500  0.830177  19.5485  8.522599  6.083340
  16513.661  16513.650  0.500  0.829295  19.528  8.521154  6.082196
  16517.617  16517.610  0.500  0.828396  19.5099  8.520932  6.085067
  16521.599  16521.580  0.500  0.827655  19.4919  8.519367  6.085715
  16525.594  16525.580  0.500  0.826228  19.4662  8.520316  6.087049
  16529.592  16529.590  0.500  0.825107  19.4509  8.523171  6.089794
  16533.640  16533.630  0.500  0.824069  19.4228  8.519678  6.088666
  16537.701  16537.680  0.500  0.823194  19.4108  8.521878  6.093486
  16541.789  16541.750  0.500  0.822382  19.3909  8.520061  6.094263
  16545.842  16545.840  0.500  0.821353  19.358  8.514353  6.093546
  16549.946  16549.950  0.500  0.820253  19.3355  8.513800  6.095707
  16554.099  16554.080  0.500  0.818977  19.3271  8.520982  6.100671
  16558.255  16558.230  0.500  0.817842  19.3113  8.523663  6.104723
  16562.437  16562.390  0.500  0.816989  19.2828  8.518356  6.103772
  16566.573  16566.580  0.500  0.815685  19.2722  8.524787  6.107037
  16570.795  16570.780  0.500  0.814596  19.2471  8.522958  6.108350
  16575.056  16575.010  0.500  0.813596  19.2294  8.523637  6.109984
  16579.294  16579.250  0.500  0.812498  19.2057  8.522487  6.108437
  16583.511  16583.510  0.500  0.811343  19.1829  8.522219  6.109737
  16587.790  16587.790  0.500  0.810241  19.165  8.523659  6.110541
  16592.144  16592.090  0.500  0.809273  19.1352  8.518655  6.108611
  16596.440  16596.410  0.500  0.808397  19.1233  8.520820  6.113162
  16600.750  16600.750  0.500  0.807432  19.1039  8.520372  6.116066
  16605.111  16605.110  0.500  0.806089  19.0764  8.519553  6.116113
  16609.546  16609.490  0.500  0.804489  19.0569  8.524455  6.121188
  16613.911  16613.880  0.500  0.803535  19.0371  8.523746  6.122231
  16618.303  16618.300  0.500  0.802236  19.0021  8.519108  6.118969
  16622.746  16622.730  0.500  0.801216  18.9968  8.525427  6.126741
  16627.227  16627.180  0.500  0.799956  18.9709  8.524570  6.128043
  16631.686  16631.650  0.500  0.798698  18.9498  8.525783  6.128981
  16636.136  16636.140  0.500  0.797619  18.9271  8.524778  6.128950
  16640.661  16640.650  0.500  0.796676  18.9045  8.522616  6.129909
  16645.201  16645.180  0.500  0.795465  18.8847  8.524031  6.132593
  16649.767  16649.730  0.500  0.794230  18.8596  8.523201  6.133357
  16654.312  16654.300  0.500  0.793222  18.8394  8.522651  6.134866
  16658.895  16658.880  0.500  0.791950  18.8178  8.523715  6.137787
  16663.494  16663.490  0.500  0.790904  18.7945  8.522087  6.136914
  16668.131  16668.110  0.500  0.789924  18.7697  8.519196  6.138368
  16672.771  16672.760  0.500  0.788858  18.7478  8.518335  6.139093
  16677.450  16677.420  0.500  0.787371  18.717  8.516989  6.138566
  16682.144  16682.100  0.500  0.786255  18.6911  8.514704  6.138895
  16686.853  16686.800  0.500  0.784720  18.6646  8.515656  6.139019
  16691.516  16691.520  0.500  0.783781  18.633  8.509236  6.137331
  16696.291  16696.260  0.500  0.782587  18.598  8.503402  6.134748
  16701.057  16701.010  0.500  0.781133  18.5541  8.495679  6.130898
  16705.801  16705.790  0.500  0.780007  18.4953  8.478274  6.118939
  16710.621  16710.590  0.500  0.778940  18.3553  8.423096  6.081290
  16715.469  16715.400  0.500  0.776378  17.0567  7.847244  5.668609
  16720.319  16720.230  0.500  0.777703  17.8259  8.190281  5.916800
  16725.111  16725.090  0.500  0.775522  18.6103  8.569344  6.191530
  16729.979  16729.960  0.500  0.774356  18.5672  8.559472  6.185691
  16734.900  16734.850  0.500  0.773300  18.5299  8.551335  6.183806
  16739.798  16739.760  0.500  0.771854  18.4958  8.547935  6.180648
  16744.700  16744.690  0.500  0.770714  18.4628  8.542417  6.178952
  16749.653  16749.630  0.500  0.769367  18.4268  8.537233  6.177046
  16754.646  16754.600  0.500  0.768021  18.3977  8.535243  6.177703
  16759.618  16759.590  0.500  0.767044  18.3735  8.532378  6.178210
  16764.605  16764.590  0.500  0.765661  18.3453  8.531067  6.178652
  16769.645  16769.620  0.500  0.764574  18.3137  8.525615  6.175511
  16774.712  16774.660  0.500  0.763329  18.2945  8.527286  6.178782
  16779.732  16779.720  0.500  0.762020  18.2652  8.524781  6.178571
  16784.818  16784.800  0.500  0.761047  18.2365  8.519666  6.177124
  16789.944  16789.900  0.500  0.759749  18.2104  8.518550  6.176816
  16795.073  16795.020  0.500  0.758451  18.1768  8.513847  6.176007
  16800.180  16800.160  0.500  0.757241  18.1421  8.507909  6.171244
  16805.364  16805.320  0.500  0.755977  17.8697  8.390734  6.088815
  16810.540  16810.500  0.500  0.754473  18.0961  8.509833  6.176731
  16815.719  16815.690  0.500  0.753493  18.0608  8.501569  6.173655
  16820.938  16820.910  0.500  0.752067  18.013  8.491175  6.166906
  16826.173  16826.140  0.500  0.750902  17.9407  8.466933  6.150988
  16831.448  16831.390  0.500  0.749766  17.7152  8.370040  6.084005
  16836.702  16836.660  0.500  0.749302  15.1823  7.176644  5.216227
  16841.971  16841.950  0.500  0.747152  18.0169  8.534842  6.204619
  16847.294  16847.260  0.500  0.745922  18.025  8.549175  6.218000
  16852.633  16852.590  0.500  0.744681  17.9787  8.537825  6.211340
  16857.962  16857.940  0.500  0.743481  17.9439  8.531556  6.209698
  16863.357  16863.310  0.500  0.742112  17.831  8.489471  6.180420
  16868.718  16868.690  0.500  0.740962  17.8655  8.515702  6.200612
  16874.121  16874.100  0.500  0.739949  17.8319  8.508282  6.199035
  16879.526  16879.520  0.500  0.738520  17.8312  8.520124  6.207961
  16885.023  16884.970  0.500  0.737069  17.7935  8.514438  6.206385
  16890.460  16890.430  0.500  0.735656  17.7673  8.513911  6.204069
  16895.926  16895.910  0.500  0.734600  17.74  8.509858  6.205704
  16901.459  16901.410  0.500  0.733301  17.7069  8.504997  6.202894
  16906.970  16906.930  0.500  0.731818  17.6833  8.506277  6.205177
  16912.509  16912.470  0.500  0.730674  17.6238  8.487345  6.193436
  16918.028  16918.020  0.500  0.729517  17.6094  8.490225  6.197286
  16923.662  16923.600  0.500  0.728390  17.3935  8.395594  6.129387
  16929.226  16929.200  0.500  0.726795  17.5609  8.489913  6.200536
  16934.843  16934.810  0.500  0.725769  17.512  8.474951  6.192442
  16940.464  16940.450  0.500  0.724329  17.446  8.455183  6.177956
  16946.139  16946.100  0.500  0.723098  17.2284  8.360007  6.112480
  16951.818  16951.770  0.500  0.722736  14.88  7.223082  5.282422
  16957.475  16957.460  0.500  0.720590  17.506  8.516059  6.228292