File: xdidata/Data/Ni/Ni-K-NickelBorateHydrate.xdi
# XDI/1.0 BlueSky/1.10.0 BMM/2023-1.0-py310-tiled
# Beamline.name: BMM (06BM) -- Beamline for Materials Measurement (NIST)
# Beamline.xray_source: NSLS-II three-pole wiggler
# Beamline.collimation: paraboloid mirror, 5 nm Rh on 30 nm Pt
# Beamline.focusing: not in use
# Beamline.harmonic_rejection: flat mirror, Pt stripe, pitch = 7.0 mrad relative to beam
# Beamline.software: Bluesky 1.10.0, Ophyd 1.7.0, DataBroker 2.0.0b13, Python 3.10.8, 2023-1.0-py310-tiled
# Detector.I0: 10 cm N2
# Detector.I1: 25 cm N2
# Detector.I2: 25 cm N2
# Element.symbol: Ni
# Element.edge: K
# Element.reference: Ni
# Element.reference_material: Ni foil
# Facility.name: NSLS-II
# Facility.energy: 3.0
# Facility.current: 399.8
# Facility.mode: top-off
# Facility.GUP: 301027
# Facility.SAF: 310583
# Facility.cycle: 2023-2
# Mono.name: Si(111)
# Mono.d_spacing: 3.13519
# Mono.encoder_resolution: 0.0000050 deg/ct
# Mono.angle_offset: 16.0754 deg
# Mono.scan_mode: pseudo channel cut
# Mono.scan_type: step
# Mono.direction: forward in energy
# Sample.name: NiBO3 + nH2O
# Sample.prep: powder on tape
# Sample.x: 117.785 mm
# Sample.y: 114.695 mm
# Sample.SDD_position: 205.000 mm
# Scan.experimenters: Bruce Ravel
# Scan.edge_energy: 8332.8
# Scan.start_time: 2023-06-23T15:42:00
# Scan.end_time: 2023-06-23T15:50:07
# Scan.transient_id: 84855
# Scan.uid: db81a6c5-816c-4e51-a8b5-16cc3e344a60
# Scan.plot_hint: ln(I0/It)  --  ln($5/$6)
# Column.1: energy eV
# Column.2: requested_energy eV
# Column.3: measurement_time seconds
# Column.4: xmu
# Column.5: I0 nA
# Column.6: It nA
# Column.7: Ir nA
# ///////////
# BMM standards collection
# -----------
# energy  requested_energy  measurement_time  xmu  I0  It  Ir
  8132.804  8132.800  0.500  1.702598  134.026  24.4208  9.380261
  8142.815  8142.800  0.500  1.694154  133.83  24.5918  9.480914
  8152.823  8152.800  0.500  1.685604  133.627  24.7655  9.579655
  8162.881  8162.800  0.500  1.677180  133.388  24.9302  9.677578
  8172.860  8172.800  0.500  1.668683  133.15  25.0982  9.775925
  8182.850  8182.800  0.500  1.660301  132.888  25.2596  9.872414
  8192.870  8192.800  0.500  1.651861  132.733  25.444  9.978101
  8202.928  8202.800  0.500  1.643652  132.493  25.6074  10.0768
  8212.918  8212.800  0.500  1.635065  132.252  25.7811  10.1781
  8222.818  8222.800  0.500  1.627020  132.082  25.956  10.2809
  8232.821  8232.800  0.500  1.618778  131.84  26.1229  10.382
  8242.840  8242.800  0.500  1.610616  131.64  26.2969  10.4845
  8252.808  8252.800  0.500  1.602439  131.353  26.4552  10.5803
  8262.810  8262.800  0.500  1.594383  131.138  26.6254  10.6819
  8272.805  8272.800  0.500  1.586520  130.924  26.7919  10.78
  8282.807  8282.800  0.500  1.578594  130.631  26.9447  10.873
  8292.805  8292.800  0.500  1.570942  130.443  27.1125  10.9687
  8302.807  8302.800  0.500  1.563478  130.158  27.256  11.0531
  8304.799  8304.800  0.500  1.561726  130.151  27.3023  11.0738
  8306.792  8306.800  0.500  1.560366  130.088  27.3262  11.0872
  8308.789  8308.800  0.500  1.558878  130.042  27.3571  11.102
  8310.787  8310.800  0.500  1.557579  130.003  27.3845  11.1161
  8312.789  8312.800  0.500  1.556017  129.963  27.419  11.1296
  8314.789  8314.800  0.500  1.554616  129.894  27.4428  11.1393
  8316.793  8316.800  0.500  1.553331  129.846  27.4679  11.1468
  8318.798  8318.800  0.500  1.551948  129.785  27.4931  11.1511
  8320.795  8320.800  0.500  1.550669  129.739  27.5184  11.1526
  8322.793  8322.800  0.500  1.549449  129.688  27.5411  11.1482
  8323.072  8323.100  0.500  1.549366  129.686  27.5431  11.1446
  8323.375  8323.400  0.500  1.549156  129.614  27.5335  11.1388
  8323.675  8323.700  0.500  1.548833  129.593  27.5379  11.136
  8323.975  8324.000  0.500  1.548782  129.66  27.5537  11.1394
  8324.278  8324.300  0.500  1.548689  129.655  27.5552  11.1359
  8324.575  8324.600  0.500  1.548512  129.644  27.5577  11.133
  8324.881  8324.900  0.500  1.548347  129.645  27.5625  11.1304
  8325.178  8325.200  0.500  1.548199  129.618  27.5607  11.1231
  8325.481  8325.500  0.500  1.548186  129.622  27.5619  11.12
  8325.790  8325.800  0.500  1.547959  129.61  27.5657  11.1147
  8326.082  8326.100  0.500  1.547882  129.537  27.5523  11.1042
  8326.388  8326.400  0.500  1.547695  129.571  27.5647  11.1009
  8326.688  8326.700  0.500  1.547543  129.516  27.5571  11.0893
  8326.994  8327.000  0.500  1.547506  129.538  27.563  11.0832
  8327.282  8327.300  0.500  1.547371  129.572  27.5737  11.0774
  8327.583  8327.600  0.500  1.547286  129.538  27.5689  11.0635
  8327.892  8327.900  0.500  1.547203  129.491  27.5611  11.05
  8328.183  8328.200  0.500  1.547057  129.511  27.5695  11.0397
  8328.481  8328.500  0.500  1.546919  129.535  27.5784  11.027
  8328.781  8328.800  0.500  1.546838  129.487  27.5705  11.0055
  8329.075  8329.100  0.500  1.546773  129.478  27.5702  10.9847
  8329.388  8329.400  0.500  1.546806  129.472  27.568  10.958
  8329.688  8329.700  0.500  1.546792  129.461  27.5661  10.9251
  8329.986  8330.000  0.500  1.546767  129.464  27.5674  10.8869
  8330.295  8330.300  0.500  1.546726  129.441  27.5637  10.8323
  8330.596  8330.600  0.500  1.546939  129.423  27.5541  10.7647
  8330.896  8330.900  0.500  1.547061  129.443  27.5549  10.6778
  8331.194  8331.200  0.500  1.547395  129.425  27.5419  10.5542
  8331.500  8331.500  0.500  1.547750  129.385  27.5235  10.3822
  8331.801  8331.800  0.500  1.548644  129.374  27.4967  10.164
  8332.095  8332.100  0.500  1.549790  129.91  27.5789  9.944743
  8332.390  8332.400  0.500  1.551179  129.86  27.5301  9.658076
  8332.694  8332.700  0.500  1.552420  129.844  27.4926  9.361875
  8332.985  8333.000  0.500  1.553074  129.818  27.4689  9.080529
  8333.292  8333.300  0.500  1.552937  129.783  27.4655  8.822320
  8333.590  8333.600  0.500  1.551873  129.737  27.4849  8.600838
  8333.894  8333.900  0.500  1.550770  129.753  27.5187  8.406154
  8334.197  8334.200  0.500  1.549747  129.722  27.5402  8.231442
  8334.501  8334.500  0.500  1.548953  129.683  27.5538  8.078394
  8334.793  8334.800  0.500  1.548589  129.638  27.5542  7.948203
  8335.097  8335.100  0.500  1.548451  129.642  27.5588  7.834668
  8335.398  8335.400  0.500  1.548609  129.584  27.5423  7.737963
  8335.699  8335.700  0.500  1.548862  129.582  27.5348  7.661313
  8335.993  8336.000  0.500  1.549086  129.601  27.5327  7.597233
  8336.294  8336.300  0.500  1.549669  129.573  27.5106  7.538661
  8336.595  8336.600  0.500  1.550363  129.594  27.4962  7.487491
  8336.896  8336.900  0.500  1.551284  129.526  27.4564  7.433637
  8337.200  8337.200  0.500  1.552497  129.568  27.4319  7.377901
  8337.501  8337.500  0.500  1.553960  129.558  27.3897  7.310516
  8337.805  8337.800  0.500  1.555929  129.487  27.3209  7.228085
  8338.103  8338.100  0.500  1.558365  129.565  27.2709  7.139296
  8338.401  8338.400  0.500  1.561193  129.543  27.1893  7.033601
  8338.700  8338.700  0.500  1.564399  129.521  27.0976  6.922677
  8338.995  8339.000  0.500  1.568096  129.501  26.9934  6.810393
  8339.296  8339.300  0.500  1.572389  129.511  26.8798  6.699023
  8339.594  8339.600  0.500  1.577316  129.468  26.7388  6.593441
  8339.898  8339.900  0.500  1.583233  129.459  26.5793  6.488763
  8340.202  8340.200  0.500  1.589898  129.425  26.3958  6.381971
  8340.504  8340.500  0.500  1.597711  129.442  26.1937  6.272601
  8340.799  8340.800  0.500  1.606627  129.389  25.9506  6.154874
  8341.100  8341.100  0.500  1.617151  129.371  25.6754  6.024676
  8341.407  8341.400  0.500  1.629049  129.385  25.3744  5.886676
  8341.703  8341.700  0.500  1.642352  129.373  25.0368  5.734835
  8342.004  8342.000  0.500  1.656949  129.357  24.6709  5.571907
  8342.291  8342.300  0.500  1.672393  129.378  24.2967  5.403968
  8342.595  8342.600  0.500  1.688562  129.331  23.8984  5.227440
  8342.896  8342.900  0.500  1.705189  129.33  23.5042  5.047200
  8343.192  8343.200  0.500  1.721897  129.301  23.1096  4.866893
  8343.496  8343.500  0.500  1.739022  129.273  22.7122  4.683683
  8343.804  8343.800  0.500  1.756440  129.239  22.3142  4.501038
  8344.099  8344.100  0.500  1.774298  129.248  21.9209  4.320768
  8344.395  8344.400  0.500  1.793284  129.272  21.5125  4.140077
  8344.702  8344.700  0.500  1.814026  129.238  21.0654  3.954641
  8344.998  8345.000  0.500  1.836306  129.21  20.5968  3.771658
  8345.300  8345.300  0.500  1.860656  129.216  20.1021  3.589612
  8345.589  8345.600  0.500  1.885653  129.191  19.6022  3.417780
  8345.894  8345.900  0.500  1.913089  129.182  19.0702  3.243805
  8346.196  8346.200  0.500  1.940236  129.188  18.5604  3.082277
  8346.497  8346.500  0.500  1.968571  129.169  18.0393  2.924683
  8346.799  8346.800  0.500  1.995495  129.15  17.5575  2.781962
  8347.101  8347.100  0.500  2.021359  129.152  17.1094  2.651504
  8347.399  8347.400  0.500  2.043876  129.116  16.7238  2.541128
  8347.701  8347.700  0.500  2.063568  129.084  16.3937  2.448711
  8348.000  8348.000  0.500  2.079467  129.074  16.1338  2.376648
  8348.302  8348.300  0.500  2.093165  129.09  15.9163  2.318433
  8348.601  8348.600  0.500  2.104437  129.05  15.7331  2.272954
  8348.896  8348.900  0.500  2.114017  129.028  15.5804  2.238390
  8349.195  8349.200  0.500  2.122710  129.008  15.4431  2.209691
  8349.500  8349.500  0.500  2.131010  128.928  15.306  2.186661
  8349.796  8349.800  0.500  2.138766  128.974  15.1932  2.169162
  8350.098  8350.100  0.500  2.145956  128.941  15.0805  2.154516
  8350.400  8350.400  0.500  2.152195  128.89  14.9807  2.144317
  8350.699  8350.700  0.500  2.156647  128.861  14.9109  2.140825
  8351.007  8351.000  0.500  2.158288  128.849  14.885  2.144866
  8351.303  8351.300  0.500  2.156329  128.828  14.9118  2.157777
  8351.605  8351.600  0.500  2.150072  128.772  14.9988  2.179825
  8351.898  8351.900  0.500  2.139648  128.765  15.1551  2.212015
  8352.197  8352.200  0.500  2.125103  128.751  15.3755  2.253529
  8352.497  8352.500  0.500  2.106803  128.714  15.655  2.302964
  8352.787  8352.800  0.500  2.086514  128.67  15.9704  2.357321
  8353.098  8353.100  0.500  2.063776  128.67  16.3377  2.417733
  8353.403  8353.400  0.500  2.041482  128.645  16.7028  2.474212
  8353.699  8353.700  0.500  2.020153  128.603  17.0572  2.527071
  8353.999  8354.000  0.500  2.001430  128.648  17.3857  2.571766
  8354.301  8354.300  0.500  1.984278  128.61  17.6812  2.607203
  8354.594  8354.600  0.500  1.969891  128.61  17.9375  2.632797
  8354.899  8354.900  0.500  1.957291  128.616  18.1659  2.649979
  8355.193  8355.200  0.500  1.946830  128.595  18.3538  2.658760
  8355.498  8355.500  0.500  1.937313  128.596  18.5295  2.661679
  8355.795  8355.800  0.500  1.928778  128.577  18.6855  2.660059
  8356.088  8356.100  0.500  1.921084  128.588  18.8315  2.657940
  8356.390  8356.400  0.500  1.913665  128.573  18.9695  2.654041
  8356.684  8356.700  0.500  1.906230  128.576  19.1114  2.651938
  8356.992  8357.000  0.500  1.898987  128.517  19.2416  2.651834
  8357.292  8357.300  0.500  1.892133  128.561  19.3806  2.657390
  8357.594  8357.600  0.500  1.885186  128.555  19.5148  2.667230
  8357.801  8357.800  0.500  1.880401  128.55  19.6076  2.675841
  8358.778  8358.790  0.500  1.859383  128.523  20.0199  2.740632
  8359.769  8359.790  0.500  1.843150  128.473  20.3396  2.822393
  8361.115  8360.810  0.500  1.834995  128.499  20.5103  2.894190
  8361.838  8361.860  0.500  1.836091  128.451  20.4801  2.915840
  8362.992  8362.920  0.500  1.843195  128.404  20.3277  2.932301
  8363.970  8364.000  0.500  1.850379  128.379  20.1783  2.953588
  8365.107  8365.100  0.500  1.854359  128.343  20.0925  2.992971
  8366.200  8366.220  0.500  1.852215  128.358  20.1379  3.036181
  8367.346  8367.360  0.500  1.845088  128.257  20.2661  3.074862
  8368.497  8368.510  0.500  1.835244  128.314  20.4757  3.120506
  8369.680  8369.690  0.500  1.823874  128.265  20.7018  3.162499
  8370.870  8370.880  0.500  1.812464  128.238  20.935  3.192371
  8372.090  8372.100  0.500  1.801360  128.243  21.1695  3.202841
  8373.323  8373.330  0.500  1.792607  128.196  21.3479  3.187101
  8374.574  8374.580  0.500  1.786741  128.135  21.4633  3.146080
  8375.855  8375.850  0.500  1.783871  128.136  21.5251  3.089779
  8377.134  8377.140  0.500  1.784167  128.099  21.5126  3.018736
  8378.440  8378.450  0.500  1.787464  128.052  21.4339  2.933883
  8379.771  8379.780  0.500  1.793258  128.048  21.3094  2.850681
  8381.136  8381.130  0.500  1.801382  128  21.129  2.779044
  8382.498  8382.500  0.500  1.810615  127.939  20.9249  2.736973
  8383.872  8383.880  0.500  1.821205  127.89  20.6965  2.723391
  8385.289  8385.290  0.500  1.832286  127.875  20.4661  2.736389
  8386.707  8386.710  0.500  1.843734  127.803  20.2216  2.770854
  8388.146  8388.150  0.500  1.854537  127.779  20.0006  2.818135
  8389.604  8389.610  0.500  1.864609  127.693  19.7869  2.860849
  8391.084  8391.090  0.500  1.873421  127.666  19.6091  2.898140
  8392.588  8392.590  0.500  1.880921  127.642  19.4589  2.929477
  8394.114  8394.110  0.500  1.886586  127.601  19.3429  2.949918
  8395.643  8395.650  0.500  1.890438  127.552  19.2611  2.956820
  8397.204  8397.210  0.500  1.891804  127.443  19.2183  2.952724
  8398.780  8398.780  0.500  1.890582  127.484  19.248  2.955445
  8400.378  8400.380  0.500  1.886359  127.434  19.322  2.972344
  8401.988  8401.990  0.500  1.880090  127.397  19.4378  3.002104
  8403.633  8403.630  0.500  1.872829  127.281  19.5616  3.030979
  8405.293  8405.280  0.500  1.864735  127.313  19.7255  3.054474
  8406.951  8406.950  0.500  1.856622  127.266  19.8789  3.060628
  8408.649  8408.640  0.500  1.848798  127.199  20.0245  3.057558
  8410.351  8410.350  0.500  1.842010  127.173  20.1568  3.057794
  8412.087  8412.080  0.500  1.835739  127.131  20.2768  3.060839
  8413.830  8413.830  0.500  1.830501  127.094  20.3774  3.055278
  8415.595  8415.590  0.500  1.826287  127.063  20.4585  3.033414
  8417.388  8417.380  0.500  1.822950  127.017  20.5195  3.003436
  8419.185  8419.180  0.500  1.820396  126.952  20.5614  2.975372
  8421.012  8421.010  0.500  1.817842  126.911  20.6072  2.947113
  8422.863  8422.850  0.500  1.815327  126.885  20.6549  2.916037
  8424.713  8424.710  0.500  1.812595  126.832  20.7028  2.878668
  8426.596  8426.590  0.500  1.809524  126.789  20.7594  2.836492
  8428.503  8428.490  0.500  1.806552  126.752  20.8151  2.798912
  8430.411  8430.410  0.500  1.803824  126.676  20.8595  2.773002
  8432.360  8432.350  0.500  1.801897  126.652  20.8958  2.771087
  8434.310  8434.310  0.500  1.800783  126.566  20.9048  2.792009
  8436.291  8436.280  0.500  1.800363  126.504  20.9034  2.834793
  8438.289  8438.280  0.500  1.800392  126.475  20.898  2.891271
  8440.294  8440.290  0.500  1.800433  126.404  20.8854  2.951644
  8442.324  8442.320  0.500  1.799761  126.379  20.8953  3.018514
  8444.388  8444.380  0.500  1.798219  126.332  20.9198  3.087224
  8446.457  8446.450  0.500  1.795637  126.253  20.9607  3.139368
  8448.555  8448.540  0.500  1.792310  126.162  21.0155  3.187260
  8450.653  8450.650  0.500  1.788597  126.125  21.0874  3.251055
  8452.793  8452.780  0.500  1.784957  126.084  21.1575  3.331587
  8454.930  8454.920  0.500  1.782053  126.005  21.2057  3.412288
  8457.102  8457.090  0.500  1.780463  125.953  21.2307  3.473484
  8459.297  8459.280  0.500  1.780526  125.911  21.2222  3.498472
  8461.487  8461.480  0.500  1.782109  125.851  21.1785  3.487865
  8463.719  8463.700  0.500  1.784563  125.759  21.1111  3.446270
  8465.957  8465.950  0.500  1.787356  125.682  21.0395  3.387415
  8468.224  8468.210  0.500  1.789977  125.643  20.9778  3.323817
  8470.505  8470.490  0.500  1.791424  125.564  20.9344  3.263094
  8472.797  8472.790  0.500  1.791957  125.522  20.9161  3.219356
  8475.127  8475.110  0.500  1.791510  125.413  20.9074  3.201285
  8477.455  8477.450  0.500  1.790287  125.338  20.9204  3.209591
  8479.818  8479.800  0.500  1.788887  125.808  21.0283  3.245233
  8482.192  8482.180  0.500  1.787222  125.8  21.0621  3.259902
  8484.586  8484.570  0.500  1.785212  125.746  21.0953  3.239788
  8486.999  8486.990  0.500  1.782828  125.615  21.1237  3.171775
  8489.442  8489.420  0.500  1.779723  125.572  21.1821  3.080505
  8491.896  8491.870  0.500  1.775879  125.515  21.2539  3.000718
  8494.370  8494.350  0.500  1.771311  125.436  21.3379  2.956047
  8496.867  8496.840  0.500  1.765997  125.419  21.4486  2.946345
  8499.365  8499.350  0.500  1.760259  125.338  21.5581  2.953989
  8501.893  8501.870  0.500  1.754506  125.262  21.6695  2.975929
  8504.432  8504.420  0.500  1.748927  125.185  21.7772  3.020000
  8507.009  8506.990  0.500  1.743760  125.077  21.8712  3.093254
  8509.589  8509.570  0.500  1.739600  125.036  21.9551  3.193685
  8512.197  8512.180  0.500  1.736508  124.948  22.0076  3.314951
  8514.808  8514.800  0.500  1.734459  124.753  22.0183  3.451337
  8517.470  8517.450  0.500  1.733231  124.744  22.0438  3.600927
  8520.121  8520.110  0.500  1.732673  124.627  22.0354  3.731360
  8522.808  8522.790  0.500  1.732302  124.429  22.0086  3.813501
  8525.512  8525.490  0.500  1.731741  124.196  21.9797  3.833395
  8528.228  8528.210  0.500  1.731051  123.444  21.8618  3.775139
  8530.964  8530.950  0.500  1.729972  108.993  19.3233  3.271240
  8533.718  8533.700  0.500  1.728622  124.112  22.0334  3.640965
  8536.489  8536.480  0.500  1.727175  124.546  22.1425  3.582557
  8539.293  8539.270  0.500  1.725646  124.504  22.1689  3.527467
  8542.096  8542.090  0.500  1.723820  124.37  22.1855  3.494302
  8544.945  8544.920  0.500  1.721797  124.251  22.2093  3.490097
  8547.792  8547.770  0.500  1.719630  124.176  22.2439  3.505430
  8550.673  8550.650  0.500  1.717517  124.067  22.2714  3.527858
  8553.559  8553.540  0.500  1.714790  123.984  22.3173  3.554702
  8556.466  8556.450  0.500  1.711589  123.942  22.3813  3.591705
  8559.388  8559.370  0.500  1.707773  123.842  22.4488  3.636394
  8562.343  8562.320  0.500  1.703761  123.737  22.5198  3.677396
  8565.313  8565.290  0.500  1.700077  123.659  22.5887  3.687504
  8568.282  8568.270  0.500  1.697156  123.535  22.632  3.650473
  8571.303  8571.280  0.500  1.694978  123.52  22.6787  3.587111
  8574.320  8574.300  0.500  1.693191  123.433  22.7032  3.528906
  8577.371  8577.350  0.500  1.691380  123.341  22.7274  3.488986
  8580.424  8580.410  0.500  1.689383  123.237  22.7537  3.470935
  8583.515  8583.490  0.500  1.687043  123.122  22.7857  3.470034
  8586.617  8586.590  0.500  1.684683  122.993  22.8156  3.492920
  8589.724  8589.710  0.500  1.682434  122.779  22.8272  3.540743
  8592.875  8592.850  0.500  1.679987  113.561  21.165  3.349032
  8596.007  8596.000  0.500  1.678060  121.023  22.5994  3.663057
  8599.191  8599.180  0.500  1.675795  122.105  22.8531  3.792199
  8602.391  8602.370  0.500  1.673499  122.114  22.9074  3.876350
  8605.593  8605.590  0.500  1.671204  121.958  22.9307  3.932601
  8608.838  8608.820  0.500  1.668678  121.654  22.9313  3.959835
  8612.084  8612.070  0.500  1.666066  121.152  22.8965  3.958486
  8615.357  8615.350  0.500  1.662977  119.213  22.5997  3.904502
  8618.652  8618.640  0.500  1.659728  86.2772  16.4091  2.837062
  8621.959  8621.950  0.500  1.656058  123.318  23.5402  4.073090
  8625.288  8625.270  0.500  1.652095  122.99  23.5707  4.082809
  8628.638  8628.620  0.500  1.647689  122.672  23.6137  4.093386
  8631.998  8631.990  0.500  1.643475  122.41  23.6627  4.098823
  8635.367  8635.370  0.500  1.639690  122.24  23.7194  4.093971
  8638.793  8638.780  0.500  1.636465  122.031  23.7554  4.082187
  8642.212  8642.200  0.500  1.633652  120.314  23.4872  4.017672
  8645.653  8645.650  0.500  1.631271  118.216  23.1326  3.942865
  8649.114  8649.110  0.500  1.628856  121.226  23.7789  4.045126
  8652.606  8652.590  0.500  1.626497  121.331  23.8557  4.053526
  8656.107  8656.090  0.500  1.624000  121.274  23.9041  4.056002
  8659.618  8659.610  0.500  1.621281  121.249  23.9644  4.056681
  8663.163  8663.150  0.500  1.618884  121.135  23.9993  4.049301
  8666.719  8666.700  0.500  1.616600  120.989  24.0251  4.038523
  8670.290  8670.280  0.500  1.614630  120.915  24.0578  4.037780
  8673.890  8673.880  0.500  1.612670  120.81  24.084  4.054511
  8677.509  8677.490  0.500  1.610637  120.715  24.1141  4.088770
  8681.129  8681.120  0.500  1.608372  120.613  24.1483  4.133740
  8684.803  8684.780  0.500  1.605863  120.5  24.1863  4.186608
  8688.467  8688.450  0.500  1.603321  120.378  24.2233  4.239262
  8692.148  8692.140  0.500  1.600443  120.22  24.2612  4.280652
  8695.871  8695.850  0.500  1.597243  120.049  24.3043  4.303886
  8699.603  8699.580  0.500  1.593735  119.857  24.3507  4.313209
  8703.332  8703.320  0.500  1.590101  119.429  24.3522  4.316874
  8707.111  8707.090  0.500  1.586284  113.906  23.3149  4.150299
  8710.889  8710.880  0.500  1.582741  119.713  24.5904  4.414013
  8714.690  8714.680  0.500  1.579347  119.907  24.7141  4.482356
  8718.524  8718.510  0.500  1.576102  119.819  24.7762  4.524124
  8722.365  8722.350  0.500  1.573022  119.69  24.8257  4.543216
  8726.233  8726.210  0.500  1.570110  119.538  24.8666  4.554868
  8730.110  8730.090  0.500  1.567097  119.381  24.9088  4.568587
  8734.010  8733.990  0.500  1.564111  119.266  24.9593  4.580681
  8737.934  8737.910  0.500  1.561036  119.156  25.0131  4.589404
  8741.888  8741.850  0.500  1.557952  118.982  25.0537  4.595043
  8745.835  8745.810  0.500  1.554860  118.918  25.1178  4.602312
  8749.797  8749.780  0.500  1.551891  118.785  25.1642  4.606887
  8753.807  8753.780  0.500  1.548977  118.685  25.2165  4.613275
  8757.815  8757.790  0.500  1.546244  118.567  25.2604  4.616193
  8761.847  8761.830  0.500  1.543340  118.449  25.3085  4.623599
  8765.899  8765.880  0.500  1.540610  118.31  25.348  4.630221
  8769.981  8769.950  0.500  1.537724  118.176  25.3925  4.636997
  8774.058  8774.040  0.500  1.534657  118.058  25.4451  4.648084
  8778.164  8778.150  0.500  1.531703  117.991  25.5057  4.667257
  8782.305  8782.280  0.500  1.528301  117.836  25.559  4.692871
  8786.449  8786.430  0.500  1.525005  117.677  25.6088  4.726964
  8790.604  8790.590  0.500  1.521643  117.601  25.6785  4.774129
  8794.800  8794.780  0.500  1.518239  117.455  25.7341  4.819097
  8799.003  8798.980  0.500  1.514873  117.342  25.796  4.859030
  8803.227  8803.210  0.500  1.511545  117.238  25.8591  4.889613
  8807.469  8807.450  0.500  1.508282  117.086  25.9099  4.909592
  8811.734  8811.710  0.500  1.505123  116.956  25.9632  4.926181
  8816.014  8815.990  0.500  1.502048  116.848  26.0191  4.944738
  8820.309  8820.290  0.500  1.499002  116.708  26.067  4.964127
  8824.631  8824.610  0.500  1.496028  116.56  26.1116  4.990393
  8828.971  8828.950  0.500  1.492881  116.451  26.1694  5.025681
  8833.338  8833.310  0.500  1.489814  116.366  26.2306  5.063466
  8837.707  8837.690  0.500  1.486803  116.215  26.2756  5.093653
  8842.097  8842.080  0.500  1.483713  116.067  26.3233  5.118472
  8846.525  8846.500  0.500  1.480740  115.948  26.3745  5.145589
  8850.948  8850.930  0.500  1.477749  115.768  26.4126  5.169128
  8855.399  8855.380  0.500  1.474704  115.698  26.477  5.198004
  8859.878  8859.850  0.500  1.471572  115.569  26.5304  5.219628
  8864.361  8864.340  0.500  1.468434  115.406  26.5764  5.235433
  8868.880  8868.850  0.500  1.465158  115.248  26.6271  5.249017
  8873.414  8873.380  0.500  1.461781  115.199  26.7057  5.264237
  8877.966  8877.930  0.500  1.458376  115.024  26.7562  5.274013
  8882.526  8882.500  0.500  1.455118  114.881  26.8101  5.280974
  8887.108  8887.080  0.500  1.451682  114.757  26.8734  5.288399
  8891.718  8891.690  0.500  1.448147  114.635  26.9398  5.300006
  8896.331  8896.310  0.500  1.444745  114.492  26.9979  5.315667
  8900.989  8900.960  0.500  1.441320  114.306  27.0465  5.339143
  8905.634  8905.620  0.500  1.437937  114.165  27.1048  5.376527
  8910.320  8910.300  0.500  1.434624  113.444  27.0228  5.391241
  8915.030  8915.000  0.500  1.431221  113.921  27.229  5.462304
  8919.736  8919.720  0.500  1.427819  113.822  27.2981  5.500613
  8924.480  8924.460  0.500  1.424619  111.731  26.8825  5.437117
  8929.234  8929.210  0.500  1.421350  113.384  27.3695  5.552399
  8934.010  8933.990  0.500  1.418054  113.478  27.4826  5.591652
  8938.818  8938.790  0.500  1.414774  113.28  27.5248  5.613595
  8943.622  8943.600  0.500  1.411573  113.111  27.572  5.637219
  8948.455  8948.430  0.500  1.408327  112.998  27.6339  5.663487
  8953.318  8953.290  0.500  1.405104  112.606  27.627  5.679832
  8958.185  8958.160  0.500  1.401877  112.673  27.7328  5.717380
  8963.080  8963.050  0.500  1.398607  112.54  27.7907  5.746340
  8967.990  8967.960  0.500  1.395369  112.339  27.8311  5.773896
  8972.905  8972.890  0.500  1.392017  112.254  27.9033  5.807943
  8977.847  8977.830  0.500  1.388662  112.073  27.9521  5.835030
  8982.826  8982.800  0.500  1.385236  111.584  27.9255  5.845127
  8987.814  8987.790  0.500  1.381825  111.691  28.0479  5.884152
  8992.831  8992.790  0.500  1.378485  111.343  28.054  5.896894
  8997.866  8997.820  0.500  1.374968  111.498  28.1921  5.936481
  9002.912  9002.860  0.500  1.371576  111.073  28.1801  5.946047
  9007.962  9007.920  0.500  1.368324  111.127  28.2855  5.979216
  9013.048  9013.000  0.500  1.364784  110.892  28.3258  5.996534
  9018.127  9018.100  0.500  1.361445  110.724  28.3776  6.016161
  9023.253  9023.220  0.500  1.357949  110.789  28.4937  6.051608
  9028.340  9028.360  0.500  1.354653  110.605  28.5402  6.075340
  9033.541  9033.520  0.500  1.351092  110.401  28.5891  6.099878
  9038.713  9038.700  0.500  1.347770  110.173  28.625  6.125378
  9043.913  9043.890  0.500  1.344297  110.023  28.6856  6.152703
  9049.133  9049.110  0.500  1.340908  109.906  28.7522  6.186300
  9054.352  9054.340  0.500  1.337582  109.737  28.8038  6.217474
  9059.616  9059.590  0.500  1.334015  109.594  28.8689  6.250440
  9064.887  9064.860  0.500  1.330707  108.74  28.7388  6.242605
  9070.174  9070.150  0.500  1.327414  109.223  28.9617  6.308938
  9075.482  9075.460  0.500  1.323915  109.069  29.0225  6.339773
  9080.814  9080.790  0.500  1.320480  108.889  29.074  6.367612
  9086.166  9086.140  0.500  1.317008  108.666  29.1156  6.397689
  9091.529  9091.510  0.500  1.313559  108.553  29.1856  6.430797
  9096.941  9096.890  0.500  1.310055  108.405  29.2481  6.461958
  9102.295  9102.300  0.500  1.306619  108.226  29.3005  6.491816
  9107.695  9107.720  0.500  1.303077  108.084  29.3659  6.525142
  9113.223  9113.170  0.500  1.299515  107.909  29.4229  6.556707
  9118.683  9118.630  0.500  1.296060  107.748  29.4807  6.588971
  9124.117  9124.110  0.500  1.292619  107.607  29.5435  6.622687
  9129.670  9129.610  0.500  1.289103  107.388  29.5873  6.650810
  9135.110  9135.130  0.500  1.285633  107.203  29.6389  6.677586
  9140.673  9140.670  0.500  1.282182  106.877  29.6511  6.694816
  9146.188  9146.220  0.500  1.278713  106.459  29.6376  6.705827
  9151.851  9151.800  0.500  1.275211  106.877  29.8585  6.767637
  9157.373  9157.400  0.500  1.271780  105.625  29.61  6.726920
  9162.984  9163.010  0.500  1.268351  106.5  29.958  6.820588
  9168.603  9168.650  0.500  1.264853  104.333  29.4512  6.721030
  9174.280  9174.300  0.500  1.261398  106.367  30.1292  6.894536
  9180.041  9179.970  0.500  1.258028  106.012  30.1301  6.914810
  9185.688  9185.660  0.500  1.254615  106.266  30.3055  6.973250