File: xdidata/Data/Ni/Ni-K-NickelFoil.xdi
# XDI/1.0 BlueSky/1.10.0 BMM/2023-1.0-py310-tiled
# Beamline.name: BMM (06BM) -- Beamline for Materials Measurement (NIST)
# Beamline.xray_source: NSLS-II three-pole wiggler
# Beamline.collimation: paraboloid mirror, 5 nm Rh on 30 nm Pt
# Beamline.focusing: not in use
# Beamline.harmonic_rejection: flat mirror, Pt stripe, pitch = 7.0 mrad relative to beam
# Beamline.software: Bluesky 1.10.0, Ophyd 1.7.0, DataBroker 2.0.0b13, Python 3.10.8, 2023-1.0-py310-tiled
# Detector.I0: 10 cm N2
# Detector.I1: 25 cm N2
# Detector.I2: 25 cm N2
# Element.symbol: Ni
# Element.edge: K
# Element.reference: Ni
# Element.reference_material: Ni foil
# Facility.name: NSLS-II
# Facility.energy: 3.0
# Facility.current: 400.5
# Facility.mode: top-off
# Facility.GUP: 301027
# Facility.SAF: 310583
# Facility.cycle: 2023-2
# Mono.name: Si(111)
# Mono.d_spacing: 3.13519
# Mono.encoder_resolution: 0.0000050 deg/ct
# Mono.angle_offset: 16.0754 deg
# Mono.scan_mode: pseudo channel cut
# Mono.scan_type: step
# Mono.direction: forward in energy
# Sample.name: Ni foil
# Sample.prep: reference foil
# Sample.x: 109.138 mm
# Sample.y: 153.150 mm
# Sample.SDD_position: 205.000 mm
# Scan.experimenters: Bruce Ravel
# Scan.edge_energy: 8332.8
# Scan.start_time: 2023-05-28T14:55:46
# Scan.end_time: 2023-05-28T15:03:42
# Scan.transient_id: 78777
# Scan.uid: 93081eaf-854b-48c6-ac5d-88cebc1c2845
# Scan.plot_hint: ln(It/Ir)  --  ln($6/$7)
# Column.1: energy eV
# Column.2: requested_energy eV
# Column.3: measurement_time seconds
# Column.4: xmu
# Column.5: I0 nA
# Column.6: It nA
# Column.7: Ir nA
# ///////////
# standard reference foil
# -----------
# energy  requested_energy  measurement_time  xmu  I0  It  Ir
  8132.790  8132.800  0.500  1.064226  135.462  167.946  57.9406
  8142.829  8142.800  0.500  1.060347  135.339  168.069  58.2084
  8152.837  8152.800  0.500  1.056502  135.187  168.17  58.4678
  8162.847  8162.800  0.500  1.052685  135.013  168.247  58.7182
  8172.866  8172.800  0.500  1.048721  134.863  168.339  58.9836
  8182.844  8182.800  0.500  1.044937  134.722  168.417  59.2344
  8192.873  8192.800  0.500  1.041153  134.589  168.512  59.4929
  8202.813  8202.800  0.500  1.037472  134.421  168.608  59.7462
  8212.840  8212.800  0.500  1.033776  134.333  168.777  60.0273
  8222.818  8222.800  0.500  1.030078  134.176  168.845  60.274
  8232.812  8232.800  0.500  1.026453  134.024  168.92  60.5198
  8242.811  8242.800  0.500  1.022795  133.93  169.07  60.7956
  8252.820  8252.800  0.500  1.019258  133.754  169.099  61.0217
  8262.813  8262.800  0.500  1.015822  133.627  169.237  61.2815
  8272.814  8272.800  0.500  1.012497  133.483  169.315  61.5139
  8282.816  8282.800  0.500  1.009163  133.267  169.312  61.7182
  8293.215  8292.800  0.500  1.006299  133.751  170.21  62.2235
  8302.780  8302.800  0.500  1.003723  133.756  170.489  62.4864
  8304.769  8304.800  0.500  1.003338  133.734  170.517  62.5206
  8306.780  8306.800  0.500  1.002933  133.701  170.5  62.5397
  8308.774  8308.800  0.500  1.002682  133.672  170.555  62.5755
  8310.781  8310.800  0.500  1.002444  133.645  170.551  62.5891
  8312.780  8312.800  0.500  1.002274  133.611  170.573  62.6079
  8314.783  8314.800  0.500  1.002334  133.574  170.603  62.6151
  8316.778  8316.800  0.500  1.002401  133.548  170.538  62.5869
  8318.777  8318.800  0.500  1.002811  133.497  170.535  62.5602
  8320.783  8320.800  0.500  1.003566  133.481  170.595  62.5349
  8322.784  8322.800  0.500  1.004805  133.44  170.58  62.452
  8323.069  8323.100  0.500  1.004950  133.417  170.535  62.4264
  8323.372  8323.400  0.500  1.005294  133.408  170.543  62.4082
  8323.669  8323.700  0.500  1.005590  133.398  170.58  62.4029
  8323.972  8324.000  0.500  1.005889  133.39  170.568  62.3799
  8324.278  8324.300  0.500  1.006224  133.381  170.571  62.3601
  8324.578  8324.600  0.500  1.006610  133.371  170.556  62.3306
  8324.875  8324.900  0.500  1.007042  133.363  170.516  62.2893
  8325.175  8325.200  0.500  1.007448  133.354  170.521  62.2656
  8325.484  8325.500  0.500  1.007968  133.34  170.522  62.2336
  8325.775  8325.800  0.500  1.008456  133.345  170.512  62.1995
  8326.079  8326.100  0.500  1.009105  133.34  170.529  62.1656
  8326.379  8326.400  0.500  1.009618  133.338  170.557  62.1437
  8326.676  8326.700  0.500  1.010454  133.321  170.546  62.0877
  8326.979  8327.000  0.500  1.011256  133.319  170.532  62.0331
  8327.279  8327.300  0.500  1.012170  133.306  170.522  61.9729
  8327.589  8327.600  0.500  1.013122  133.297  170.522  61.9137
  8327.874  8327.900  0.500  1.014250  133.304  170.521  61.8436
  8328.183  8328.200  0.500  1.015516  133.278  170.506  61.76
  8328.481  8328.500  0.500  1.016937  133.268  170.552  61.689
  8328.787  8328.800  0.500  1.018693  133.267  170.557  61.5825
  8329.087  8329.100  0.500  1.020658  133.256  170.553  61.4601
  8329.385  8329.400  0.500  1.023042  133.244  170.523  61.303
  8329.694  8329.700  0.500  1.026165  133.251  170.522  61.1114
  8329.983  8330.000  0.500  1.029822  133.246  170.51  60.8841
  8330.295  8330.300  0.500  1.034775  133.217  170.509  60.5831
  8330.596  8330.600  0.500  1.041174  133.224  170.509  60.1964
  8330.896  8330.900  0.500  1.049812  133.203  170.484  59.6699
  8331.197  8331.200  0.500  1.061567  133.2  170.504  58.9797
  8331.485  8331.500  0.500  1.077295  133.198  170.517  58.0637
  8331.798  8331.800  0.500  1.099016  133.161  170.491  56.8074
  8332.089  8332.100  0.500  1.123430  133.154  170.476  55.4322
  8332.393  8332.400  0.500  1.152298  133.149  170.44  53.8437
  8332.685  8332.700  0.500  1.181687  133.13  170.43  52.2811
  8332.994  8333.000  0.500  1.211753  133.104  170.409  50.7266
  8333.286  8333.300  0.500  1.239170  133.087  170.399  49.3516
  8333.587  8333.600  0.500  1.264859  133.059  170.39  48.0976
  8333.894  8333.900  0.500  1.289083  133.027  170.367  46.9401
  8334.191  8334.200  0.500  1.309557  133.002  170.344  45.9826
  8334.492  8334.500  0.500  1.328602  132.983  170.347  45.1159
  8334.790  8334.800  0.500  1.344669  132.965  170.33  44.3925
  8335.094  8335.100  0.500  1.358715  132.939  170.29  43.763
  8335.404  8335.400  0.500  1.370363  132.926  170.296  43.2578
  8335.693  8335.700  0.500  1.379539  132.913  170.287  42.8602
  8336.002  8336.000  0.500  1.387681  132.912  170.304  42.5171
  8336.294  8336.300  0.500  1.394301  132.905  170.313  42.2387
  8336.604  8336.600  0.500  1.400501  132.886  170.295  41.9733
  8336.899  8336.900  0.500  1.406312  132.885  170.278  41.7259
  8337.200  8337.200  0.500  1.412833  132.877  170.254  41.4487
  8337.498  8337.500  0.500  1.420469  132.86  170.242  41.1305
  8337.793  8337.800  0.500  1.429594  132.866  170.233  40.7549
  8338.100  8338.100  0.500  1.440652  132.847  170.245  40.3094
  8338.387  8338.400  0.500  1.452335  132.846  170.25  39.8425
  8338.697  8338.700  0.500  1.465066  132.828  170.236  39.3352
  8338.992  8339.000  0.500  1.477602  132.81  170.228  38.8434
  8339.290  8339.300  0.500  1.489415  132.798  170.221  38.3856
  8339.597  8339.600  0.500  1.500471  132.791  170.233  37.9662
  8339.889  8339.900  0.500  1.510310  132.764  170.214  37.5903
  8340.202  8340.200  0.500  1.520167  132.76  170.218  37.2224
  8340.492  8340.500  0.500  1.529353  132.744  170.205  36.8793
  8340.802  8340.800  0.500  1.539384  132.734  170.188  36.5075
  8341.097  8341.100  0.500  1.549964  132.706  170.151  36.1156
  8341.402  8341.400  0.500  1.561867  132.702  170.156  35.6893
  8341.703  8341.700  0.500  1.574987  132.688  170.159  35.2247
  8342.001  8342.000  0.500  1.589309  132.679  170.139  34.7196
  8342.309  8342.300  0.500  1.605668  132.664  170.132  34.1549
  8342.598  8342.600  0.500  1.622526  132.656  170.127  33.583
  8342.902  8342.900  0.500  1.641058  132.64  170.115  32.9639
  8343.201  8343.200  0.500  1.660777  132.621  170.075  32.3128
  8343.499  8343.500  0.500  1.681901  132.609  170.072  31.6367
  8343.801  8343.800  0.500  1.703867  132.597  170.084  30.9517
  8344.093  8344.100  0.500  1.726731  132.585  170.088  30.2527
  8344.398  8344.400  0.500  1.751311  132.568  170.07  29.515
  8344.693  8344.700  0.500  1.775359  132.566  170.066  28.8131
  8344.995  8345.000  0.500  1.800377  132.565  170.075  28.1027
  8345.300  8345.300  0.500  1.825753  132.552  170.069  27.3976
  8345.595  8345.600  0.500  1.850436  132.543  170.027  26.7228
  8345.897  8345.900  0.500  1.875038  132.896  170.496  26.1454
  8346.196  8346.200  0.500  1.898520  132.907  170.556  25.5476
  8346.506  8346.500  0.500  1.922921  132.92  170.585  24.936
  8346.805  8346.800  0.500  1.945024  132.922  170.555  24.3866
  8347.104  8347.100  0.500  1.966154  132.915  170.555  23.8767
  8347.405  8347.400  0.500  1.985310  132.902  170.565  23.4251
  8347.698  8347.700  0.500  2.001157  132.891  170.554  23.0553
  8348.003  8348.000  0.500  2.014494  132.886  170.558  22.7504
  8348.305  8348.300  0.500  2.024584  132.87  170.561  22.5224
  8348.610  8348.600  0.500  2.032209  132.86  170.584  22.3543
  8348.899  8348.900  0.500  2.037262  132.847  170.526  22.2341
  8349.201  8349.200  0.500  2.040469  132.82  170.491  22.1583
  8349.500  8349.500  0.500  2.042010  132.791  170.484  22.1233
  8349.796  8349.800  0.500  2.042359  132.773  170.439  22.1097
  8350.098  8350.100  0.500  2.041074  132.742  170.387  22.1315
  8350.394  8350.400  0.500  2.038911  132.725  170.365  22.1764
  8350.696  8350.700  0.500  2.035760  132.698  170.342  22.2435
  8350.995  8351.000  0.500  2.032138  132.662  170.308  22.3198
  8351.294  8351.300  0.500  2.027909  132.636  170.284  22.4112
  8351.599  8351.600  0.500  2.023477  132.609  170.268  22.5085
  8351.892  8351.900  0.500  2.019215  132.575  170.231  22.5998
  8352.203  8352.200  0.500  2.015030  132.545  170.197  22.6901
  8352.503  8352.500  0.500  2.011337  132.518  170.167  22.7699
  8352.808  8352.800  0.500  2.008201  132.499  170.152  22.8395
  8353.104  8353.100  0.500  2.006007  132.479  170.134  22.8872
  8353.400  8353.400  0.500  2.005007  132.465  170.146  22.9118
  8353.711  8353.700  0.500  2.005451  132.457  170.144  22.9014
  8354.005  8354.000  0.500  2.007468  132.428  170.126  22.8528
  8354.304  8354.300  0.500  2.010765  132.44  170.159  22.782
  8354.609  8354.600  0.500  2.015896  132.442  170.187  22.669
  8354.896  8354.900  0.500  2.021961  132.435  170.172  22.53
  8355.199  8355.200  0.500  2.029599  132.427  170.154  22.3563
  8355.498  8355.500  0.500  2.037815  132.433  170.149  22.1726
  8355.795  8355.800  0.500  2.046690  132.433  170.151  21.977
  8356.097  8356.100  0.500  2.055634  132.422  170.143  21.7803
  8356.399  8356.400  0.500  2.064533  132.412  170.132  21.5859
  8356.690  8356.700  0.500  2.071988  132.398  170.134  21.4259
  8356.995  8357.000  0.500  2.078462  132.382  170.136  21.2878
  8357.304  8357.300  0.500  2.083303  132.382  170.149  21.1866
  8357.606  8357.600  0.500  2.086231  132.369  170.142  21.1239
  8357.795  8357.800  0.500  2.087212  132.379  170.177  21.1075
  8358.796  8358.790  0.500  2.082922  132.365  170.155  21.1955
  8359.790  8359.790  0.500  2.069069  132.346  170.174  21.4935
  8360.818  8360.810  0.500  2.054960  132.343  170.208  21.8033
  8361.877  8361.860  0.500  2.043593  132.358  170.249  22.0579
  8362.938  8362.920  0.500  2.031266  132.345  170.273  22.3346
  8364.018  8364.000  0.500  2.015237  132.336  170.272  22.6954
  8365.104  8365.100  0.500  1.998661  132.314  170.258  23.0727
  8366.236  8366.220  0.500  1.986696  132.299  170.259  23.3506
  8367.373  8367.360  0.500  1.980489  132.286  170.279  23.4988
  8368.524  8368.510  0.500  1.976444  132.264  170.283  23.5945
  8369.695  8369.690  0.500  1.974392  132.254  170.286  23.6435
  8370.888  8370.880  0.500  1.976471  132.245  170.309  23.5975
  8372.117  8372.100  0.500  1.984679  132.223  170.337  23.4085
  8373.344  8373.330  0.500  1.998263  132.194  170.333  23.0921
  8374.577  8374.580  0.500  2.016414  132.202  170.378  22.6828
  8375.867  8375.850  0.500  2.037645  132.177  170.371  22.2054
  8377.152  8377.140  0.500  2.060600  132.165  170.39  21.7039
  8378.465  8378.450  0.500  2.085445  132.145  170.43  21.1763
  8379.783  8379.780  0.500  2.107798  132.127  170.408  20.7055
  8381.148  8381.130  0.500  2.123916  132.1  170.398  20.3732
  8382.513  8382.500  0.500  2.128407  132.071  170.403  20.2825
  8383.893  8383.880  0.500  2.121619  132.027  170.402  20.4206
  8385.298  8385.290  0.500  2.105101  131.995  170.372  20.757
  8386.725  8386.710  0.500  2.079942  131.96  170.368  21.2854
  8388.155  8388.150  0.500  2.052306  131.907  170.34  21.8781
  8389.613  8389.610  0.500  2.026838  131.87  170.301  22.4374
  8391.105  8391.090  0.500  2.005106  131.833  170.295  22.9295
  8392.603  8392.590  0.500  1.987068  131.806  170.348  23.3542
  8394.108  8394.110  0.500  1.974269  131.777  170.336  23.6534
  8395.658  8395.650  0.500  1.968205  131.741  170.307  23.7931
  8397.222  8397.210  0.500  1.967703  131.715  170.326  23.8078
  8398.786  8398.780  0.500  1.968212  131.668  170.298  23.7918
  8400.399  8400.380  0.500  1.965963  131.638  170.308  23.8467
  8401.997  8401.990  0.500  1.961658  131.616  170.319  23.9511
  8403.633  8403.630  0.500  1.958672  131.582  170.325  24.0235
  8405.296  8405.280  0.500  1.959725  131.555  170.34  24.0004
  8406.957  8406.950  0.500  1.965363  131.543  170.356  23.8677
  8408.646  8408.640  0.500  1.973516  131.508  170.337  23.6713
  8410.366  8410.350  0.500  1.979923  131.475  170.359  23.5232
  8412.093  8412.080  0.500  1.984846  131.442  170.4  23.4132
  8413.836  8413.830  0.500  1.991915  131.426  170.374  23.2447
  8415.607  8415.590  0.500  2.002963  131.388  170.345  22.9855
  8417.382  8417.380  0.500  2.015685  131.352  170.367  22.6978
  8419.185  8419.180  0.500  2.027191  131.326  170.351  22.4361
  8421.025  8421.010  0.500  2.038724  131.291  170.337  22.1769
  8422.850  8422.850  0.500  2.051431  131.259  170.368  21.901
  8424.723  8424.710  0.500  2.067088  131.232  170.374  21.5615
  8426.599  8426.590  0.500  2.084342  131.207  170.376  21.1929
  8428.500  8428.490  0.500  2.100093  131.159  170.361  20.8598
  8430.427  8430.410  0.500  2.110987  131.135  170.396  20.6381
  8432.345  8432.350  0.500  2.113169  131.099  170.401  20.5937
  8434.325  8434.310  0.500  2.105662  131.054  170.404  20.7493
  8436.291  8436.280  0.500  2.089833  131.001  170.388  21.0784
  8438.289  8438.280  0.500  2.069924  130.975  170.396  21.5032
  8440.297  8440.290  0.500  2.048670  130.937  170.416  21.9677
  8442.330  8442.320  0.500  2.026147  130.895  170.419  22.4685
  8444.391  8444.380  0.500  2.005481  130.866  170.421  22.9379
  8446.451  8446.450  0.500  1.990645  130.821  170.421  23.2808
  8448.558  8448.540  0.500  1.978020  130.775  170.408  23.5748
  8450.653  8450.650  0.500  1.961623  130.728  170.385  23.9612
  8452.796  8452.780  0.500  1.940215  130.685  170.368  24.4772
  8454.933  8454.920  0.500  1.918699  130.642  170.387  25.0125
  8457.102  8457.090  0.500  1.902312  130.597  170.376  25.4241
  8459.288  8459.280  0.500  1.894919  130.538  170.358  25.61
  8461.497  8461.480  0.500  1.896290  130.484  170.348  25.5735
  8463.706  8463.700  0.500  1.905049  130.444  170.314  25.3454
  8465.957  8465.950  0.500  1.918858  130.393  170.27  24.9913
  8468.224  8468.210  0.500  1.935008  130.345  170.273  24.5913
  8470.512  8470.490  0.500  1.951283  130.297  170.277  24.1949
  8472.806  8472.790  0.500  1.963506  130.237  170.274  23.9006
  8475.130  8475.110  0.500  1.968441  130.175  170.272  23.7826
  8477.467  8477.450  0.500  1.965923  130.115  170.211  23.8341
  8479.821  8479.800  0.500  1.960015  130.075  170.218  23.9762
  8482.198  8482.180  0.500  1.957079  130.007  170.173  24.0405
  8484.586  8484.570  0.500  1.965237  129.958  170.168  23.8443
  8487.002  8486.990  0.500  1.988044  129.898  170.151  23.3044
  8489.436  8489.420  0.500  2.020050  129.844  170.171  22.5729
  8491.887  8491.870  0.500  2.049112  129.785  170.187  21.9285
  8494.351  8494.350  0.500  2.067646  129.726  170.124  21.5178
  8496.851  8496.840  0.500  2.075882  129.669  170.116  21.3404
  8499.350  8499.350  0.500  2.078226  129.624  170.142  21.2936
  8501.887  8501.870  0.500  2.075741  129.561  170.132  21.3453
  8504.422  8504.420  0.500  2.065506  129.512  170.105  21.5615
  8507.003  8506.990  0.500  2.045685  129.444  170.058  21.9871
  8509.570  8509.570  0.500  2.017477  129.383  170.059  22.6163
  8512.194  8512.180  0.500  1.982497  129.326  170.054  23.4207
  8514.808  8514.800  0.500  1.942258  129.262  170.039  24.3802
  8517.457  8517.450  0.500  1.901209  129.201  170.013  25.398
  8520.127  8520.110  0.500  1.865487  129.121  169.971  26.3151
  8522.802  8522.790  0.500  1.842756  129.035  169.898  26.9084
  8525.503  8525.490  0.500  1.836956  128.895  169.786  27.0471
  8528.222  8528.210  0.500  1.846787  128.44  169.239  26.6962
  8530.967  8530.950  0.500  1.866811  113.875  150.1  23.2078
  8533.708  8533.700  0.500  1.890809  127.622  168.278  25.4016
  8536.505  8536.480  0.500  1.911857  128.583  169.624  25.0713
  8539.281  8539.270  0.500  1.928244  128.649  169.779  24.6864
  8542.109  8542.090  0.500  1.937836  128.629  169.83  24.4581
  8544.935  8544.920  0.500  1.940046  128.583  169.854  24.4076
  8547.780  8547.770  0.500  1.936879  128.524  169.837  24.4826
  8550.667  8550.650  0.500  1.931768  128.467  169.829  24.6069
  8553.544  8553.540  0.500  1.925962  128.414  169.823  24.7493
  8556.470  8556.450  0.500  1.918667  128.349  169.817  24.9295
  8559.379  8559.370  0.500  1.909021  128.28  169.791  25.1674
  8562.330  8562.320  0.500  1.901103  128.22  169.777  25.3654
  8565.294  8565.290  0.500  1.901495  128.143  169.749  25.3512
  8568.288  8568.270  0.500  1.913844  128.074  169.718  25.0355
  8571.297  8571.280  0.500  1.933058  127.993  169.67  24.5521
  8574.323  8574.300  0.500  1.950351  127.908  169.646  24.1277
  8577.365  8577.350  0.500  1.962184  127.818  169.605  23.8382
  8580.431  8580.410  0.500  1.968766  127.711  169.518  23.6696
  8583.505  8583.490  0.500  1.970029  127.6  169.446  23.6297
  8586.604  8586.590  0.500  1.964518  127.43  169.289  23.7384
  8589.721  8589.710  0.500  1.951145  126.976  168.753  23.9817
  8592.860  8592.850  0.500  1.930870  114.537  152.303  22.0872
  8596.019  8596.000  0.500  1.906903  126.516  168.297  24.9988
  8599.201  8599.180  0.500  1.883459  127.146  169.205  25.7298
  8602.381  8602.370  0.500  1.864020  127.066  169.171  26.2296
  8605.615  8605.590  0.500  1.850585  126.882  168.994  26.5567
  8608.829  8608.820  0.500  1.843926  126.591  168.656  26.6806
  8612.093  8612.070  0.500  1.842686  126.011  167.964  26.6041
  8615.357  8615.350  0.500  1.843007  123.981  165.331  26.1786
  8618.655  8618.640  0.500  1.842323  89.1515  118.946  18.8469
  8621.978  8621.950  0.500  1.841481  128.065  170.946  27.109
  8625.288  8625.270  0.500  1.840387  128.152  171.146  27.1704
  8628.635  8628.620  0.500  1.839324  127.882  170.863  27.1543
  8632.017  8631.990  0.500  1.840242  127.677  170.694  27.1025
  8635.386  8635.370  0.500  1.843608  127.466  170.457  26.9741
  8638.819  8638.780  0.500  1.848134  127.135  170.051  26.7882
  8642.212  8642.200  0.500  1.852473  124.367  166.442  26.1063
  8645.663  8645.650  0.500  1.855756  124.759  167.038  26.1139
  8649.133  8649.110  0.500  1.857410  127.11  170.274  26.5758
  8652.609  8652.590  0.500  1.858540  127.104  170.363  26.5595
  8656.117  8656.090  0.500  1.860016  127.021  170.345  26.5176
  8659.627  8659.610  0.500  1.862137  126.941  170.262  26.4485
  8663.170  8663.150  0.500  1.865274  126.85  170.236  26.3618
  8666.725  8666.700  0.500  1.868992  126.763  170.21  26.2599
  8670.300  8670.280  0.500  1.870477  126.687  170.203  26.2198
  8673.897  8673.880  0.500  1.867147  126.604  170.174  26.3027
  8677.513  8677.490  0.500  1.859982  126.507  170.105  26.4811
  8681.138  8681.120  0.500  1.850096  126.411  170.066  26.7382
  8684.806  8684.780  0.500  1.838723  126.323  170.042  27.0402
  8688.470  8688.450  0.500  1.827881  126.225  169.995  27.3273
  8692.174  8692.140  0.500  1.819845  126.13  169.934  27.538
  8695.867  8695.850  0.500  1.816250  126.019  169.866  27.6261
  8699.584  8699.580  0.500  1.815570  125.879  169.755  27.6269
  8703.342  8703.320  0.500  1.814784  125.598  169.459  27.6002
  8707.111  8707.090  0.500  1.810398  119.15  160.857  26.3145
  8710.902  8710.880  0.500  1.802082  124.983  168.803  27.8449
  8714.703  8714.680  0.500  1.791594  125.579  169.676  28.284
  8718.531  8718.510  0.500  1.784547  125.551  169.744  28.4954
  8722.369  8722.350  0.500  1.782427  125.472  169.702  28.5489
  8726.229  8726.210  0.500  1.781349  125.388  169.681  28.5761
  8730.107  8730.090  0.500  1.779824  125.3  169.656  28.6156
  8734.014  8733.990  0.500  1.779272  125.209  169.609  28.6234
  8737.924  8737.910  0.500  1.779334  125.117  169.574  28.6158
  8741.871  8741.850  0.500  1.779680  125.028  169.494  28.5923
  8745.839  8745.810  0.500  1.780389  124.936  169.446  28.5639
  8749.800  8749.780  0.500  1.781246  124.841  169.422  28.5354
  8753.797  8753.780  0.500  1.782023  124.747  169.405  28.5104
  8757.806  8757.790  0.500  1.782819  124.652  169.333  28.4756
  8761.850  8761.830  0.500  1.783088  124.558  169.285  28.4599
  8765.892  8765.880  0.500  1.783278  124.463  169.232  28.4456
  8769.971  8769.950  0.500  1.783291  124.366  169.187  28.4376
  8774.064  8774.040  0.500  1.782781  124.266  169.154  28.4466
  8778.174  8778.150  0.500  1.780919  124.161  169.075  28.4862
  8782.295  8782.280  0.500  1.777360  124.047  169.035  28.5812
  8786.446  8786.430  0.500  1.771836  123.938  168.987  28.7312
  8790.608  8790.590  0.500  1.764651  123.835  168.925  28.9278
  8794.810  8794.780  0.500  1.757293  123.724  168.843  29.1272
  8798.997  8798.980  0.500  1.751352  123.619  168.811  29.2953
  8803.230  8803.210  0.500  1.747455  123.513  168.749  29.3989
  8807.475  8807.450  0.500  1.745228  123.407  168.684  29.453
  8811.734  8811.710  0.500  1.743704  123.309  168.642  29.4907
  8816.021  8815.990  0.500  1.742156  123.206  168.58  29.5254
  8820.312  8820.290  0.500  1.739821  123.108  168.528  29.5854
  8824.631  8824.610  0.500  1.736249  123  168.488  29.6842
  8828.971  8828.950  0.500  1.731292  122.88  168.413  29.8184
  8833.332  8833.310  0.500  1.725808  122.787  168.402  29.9804
  8837.720  8837.690  0.500  1.721582  122.684  168.357  30.0994
  8842.100  8842.080  0.500  1.718395  122.585  168.258  30.1777
  8846.522  8846.500  0.500  1.715129  122.471  168.199  30.2658
  8850.951  8850.930  0.500  1.711664  122.367  168.143  30.3607
  8855.405  8855.380  0.500  1.708601  122.259  168.095  30.4452
  8859.871  8859.850  0.500  1.706192  122.14  168.019  30.5048
  8864.358  8864.340  0.500  1.704739  122.02  167.953  30.5372
  8868.866  8868.850  0.500  1.704161  121.913  167.914  30.5477
  8873.400  8873.380  0.500  1.703861  121.81  167.869  30.5487
  8877.942  8877.930  0.500  1.703994  121.694  167.752  30.5234
  8882.509  8882.500  0.500  1.704643  121.584  167.691  30.4925
  8887.091  8887.080  0.500  1.705268  121.463  167.621  30.4606
  8891.708  8891.690  0.500  1.705614  121.348  167.555  30.4382
  8896.331  8896.310  0.500  1.704477  121.223  167.498  30.4624
  8900.975  8900.960  0.500  1.701612  121.093  167.411  30.5339
  8905.631  8905.620  0.500  1.696727  120.961  167.295  30.6622
  8910.320  8910.300  0.500  1.690751  120.351  166.539  30.7066
  8915.020  8915.000  0.500  1.685242  120.755  167.206  30.9999
  8919.739  8919.720  0.500  1.680666  120.716  167.259  31.1519
  8924.470  8924.460  0.500  1.676979  118.738  164.623  30.7742
  8929.237  8929.210  0.500  1.673705  120.401  167.02  31.3248
  8934.013  8933.990  0.500  1.670712  120.42  167.151  31.4433
  8938.812  8938.790  0.500  1.668025  120.261  166.989  31.4973
  8943.608  8943.600  0.500  1.665690  120.136  166.907  31.5555
  8948.441  8948.430  0.500  1.662816  120.017  166.836  31.6328
  8953.307  8953.290  0.500  1.659873  119.68  166.47  31.6565
  8958.179  8958.160  0.500  1.656783  119.754  166.68  31.7944
  8963.076  8963.050  0.500  1.653812  119.638  166.6  31.8738
  8967.983  8967.960  0.500  1.650334  119.49  166.477  31.9612
  8972.915  8972.890  0.500  1.646874  119.376  166.425  32.062
  8977.850  8977.830  0.500  1.643882  119.242  166.337  32.141
  8982.822  8982.800  0.500  1.640994  118.789  165.795  32.129
  8987.803  8987.790  0.500  1.638687  118.938  166.098  32.2621
  8992.807  8992.790  0.500  1.636627  118.692  165.839  32.2781
  8997.880  8997.820  0.500  1.634563  118.715  165.969  32.3702
  9002.874  9002.860  0.500  1.632436  118.069  165.166  32.2822
  9007.930  9007.920  0.500  1.630565  118.426  165.768  32.4605
  9013.020  9013.000  0.500  1.628981  118.287  165.679  32.4945
  9018.134  9018.100  0.500  1.627388  118.157  165.561  32.5231
  9023.246  9023.220  0.500  1.625405  118.155  165.667  32.6085
  9028.385  9028.360  0.500  1.623159  118.003  165.544  32.6576
  9033.548  9033.520  0.500  1.620448  117.864  165.435  32.7247
  9038.720  9038.700  0.500  1.617737  117.721  165.33  32.7928
  9043.917  9043.890  0.500  1.614923  117.474  165.071  32.8337
  9049.126  9049.110  0.500  1.611822  117.436  165.078  32.937
  9054.401  9054.340  0.500  1.608545  117.3  165.001  33.0297
  9059.623  9059.590  0.500  1.605192  117.179  164.932  33.1268
  9064.933  9064.860  0.500  1.602062  116.432  163.952  33.0331
  9070.209  9070.150  0.500  1.599028  116.885  164.713  33.2872
  9075.528  9075.460  0.500  1.596110  116.765  164.638  33.3694
  9080.824  9080.790  0.500  1.593175  116.46  164.285  33.3958
  9086.155  9086.140  0.500  1.590000  116.447  164.351  33.5154
  9091.539  9091.510  0.500  1.586940  116.327  164.31  33.6097
  9096.916  9096.890  0.500  1.584121  116.187  164.22  33.6862
  9102.366  9102.300  0.500  1.581131  116.043  164.114  33.7651
  9107.791  9107.720  0.500  1.578058  115.892  163.992  33.8439
  9113.152  9113.170  0.500  1.574989  115.783  163.933  33.9357
  9118.704  9118.630  0.500  1.572030  115.641  163.821  34.0131
  9124.071  9124.110  0.500  1.569029  115.487  163.714  34.093
  9129.659  9129.610  0.500  1.566205  115.323  163.576  34.1606
  9135.164  9135.130  0.500  1.563707  115.17  163.446  34.2189
  9140.745  9140.670  0.500  1.561410  114.941  163.219  34.2498
  9146.292  9146.220  0.500  1.559320  114.468  162.617  34.1949
  9151.880  9151.800  0.500  1.557215  114.797  163.176  34.3847
  9157.477  9157.400  0.500  1.554878  112.873  160.534  33.9073
  9163.010  9163.010  0.500  1.552594  114.529  163.007  34.5083
  9168.618  9168.650  0.500  1.550033  111.473  158.757  33.6948
  9174.269  9174.300  0.500  1.547191  114.265  162.825  34.6566
  9179.932  9179.970  0.500  1.544314  113.944  162.471  34.6807
  9185.637  9185.660  0.500  1.541501  114.092  162.777  34.844