File: xdidata/Data/Ni/Ni-K-NickelHydroxide.xdi
# XDI/1.0 BlueSky/1.10.0 BMM/2023-1.0-py310-tiled
# Beamline.name: BMM (06BM) -- Beamline for Materials Measurement (NIST)
# Beamline.xray_source: NSLS-II three-pole wiggler
# Beamline.collimation: paraboloid mirror, 5 nm Rh on 30 nm Pt
# Beamline.focusing: not in use
# Beamline.harmonic_rejection: flat mirror, Pt stripe, pitch = 7.0 mrad relative to beam
# Beamline.software: Bluesky 1.10.0, Ophyd 1.7.0, DataBroker 2.0.0b13, Python 3.10.8, 2023-1.0-py310-tiled
# Detector.I0: 10 cm N2
# Detector.I1: 25 cm N2
# Detector.I2: 25 cm N2
# Element.symbol: Ni
# Element.edge: K
# Element.reference: Ni
# Element.reference_material: Ni foil
# Facility.name: NSLS-II
# Facility.energy: 3.0
# Facility.current: 399.6
# Facility.mode: top-off
# Facility.GUP: 301027
# Facility.SAF: 310583
# Facility.cycle: 2023-2
# Mono.name: Si(111)
# Mono.d_spacing: 3.13519
# Mono.encoder_resolution: 0.0000050 deg/ct
# Mono.angle_offset: 16.0754 deg
# Mono.scan_mode: pseudo channel cut
# Mono.scan_type: step
# Mono.direction: forward in energy
# Sample.name: Ni(OH)2
# Sample.prep: powder on tape
# Sample.x: 117.785 mm
# Sample.y: 114.695 mm
# Sample.SDD_position: 205.000 mm
# Scan.experimenters: Bruce Ravel
# Scan.edge_energy: 8332.8
# Scan.start_time: 2023-06-23T15:33:06
# Scan.end_time: 2023-06-23T15:41:24
# Scan.transient_id: 84850
# Scan.uid: 1ef347fd-dc43-4930-97ee-f357c3e4ee12
# Scan.plot_hint: ln(I0/It)  --  ln($5/$6)
# Column.1: energy eV
# Column.2: requested_energy eV
# Column.3: measurement_time seconds
# Column.4: xmu
# Column.5: I0 nA
# Column.6: It nA
# Column.7: Ir nA
# ///////////
# BMM standards collection
# -----------
# energy  requested_energy  measurement_time  xmu  I0  It  Ir
  8132.807  8132.800  0.500  0.831370  134.029  58.3631  22.4313
  8142.815  8142.800  0.500  0.824386  133.813  58.6777  22.6292
  8152.823  8152.800  0.500  0.817375  133.539  58.9695  22.8217
  8162.867  8162.800  0.500  0.812077  133.382  59.2128  22.9962
  8172.860  8172.800  0.500  0.806371  133.145  59.4461  23.1647
  8182.847  8182.800  0.500  0.800623  132.945  59.699  23.3446
  8192.914  8192.800  0.500  0.794925  132.766  59.959  23.5255
  8202.902  8202.800  0.500  0.789712  132.508  60.1552  23.6831
  8212.826  8212.800  0.500  0.781149  132.699  60.7602  24.0016
  8222.801  8222.800  0.500  0.775848  132.421  60.9551  24.157
  8232.806  8232.800  0.500  0.770460  132.257  61.2083  24.339
  8242.811  8242.800  0.500  0.765134  132.042  61.4354  24.5085
  8252.817  8252.800  0.500  0.759970  131.794  61.6377  24.6651
  8262.813  8262.800  0.500  0.755402  131.59  61.8237  24.8212
  8272.817  8272.800  0.500  0.750537  131.395  62.0333  24.9777
  8282.819  8282.800  0.500  0.745290  131.141  62.239  25.1288
  8292.820  8292.800  0.500  0.739958  130.896  62.4549  25.2866
  8302.813  8302.800  0.500  0.735459  130.661  62.6241  25.4103
  8304.793  8304.800  0.500  0.734093  130.595  62.6778  25.4383
  8306.792  8306.800  0.500  0.732763  130.557  62.7428  25.4739
  8308.789  8308.800  0.500  0.731872  130.504  62.7736  25.4923
  8310.790  8310.800  0.500  0.730704  130.501  62.8455  25.525
  8312.786  8312.800  0.500  0.729593  130.485  62.9073  25.5519
  8314.792  8314.800  0.500  0.728559  130.373  62.9185  25.5551
  8316.796  8316.800  0.500  0.727663  130.32  62.9495  25.5595
  8318.789  8318.800  0.500  0.726650  130.248  62.9785  25.5618
  8320.795  8320.800  0.500  0.725724  130.268  63.0461  25.567
  8322.790  8322.800  0.500  0.724827  130.198  63.069  25.5442
  8323.075  8323.100  0.500  0.724320  130.161  63.0831  25.5459
  8323.369  8323.400  0.500  0.723524  130.219  63.1614  25.571
  8323.672  8323.700  0.500  0.723227  130.166  63.1547  25.5575
  8323.972  8324.000  0.500  0.722635  130.204  63.2103  25.5755
  8324.278  8324.300  0.500  0.722167  130.157  63.2171  25.5676
  8324.572  8324.600  0.500  0.721627  130.16  63.2528  25.5736
  8324.878  8324.900  0.500  0.721097  130.133  63.2729  25.5704
  8325.184  8325.200  0.500  0.720788  130.106  63.2794  25.5614
  8325.487  8325.500  0.500  0.720417  130.132  63.3154  25.5648
  8325.787  8325.800  0.500  0.720136  130.134  63.3345  25.5594
  8326.079  8326.100  0.500  0.720079  130.127  63.3345  25.5427
  8326.391  8326.400  0.500  0.719878  130.107  63.3376  25.5268
  8326.679  8326.700  0.500  0.719761  130.066  63.3249  25.5072
  8326.988  8327.000  0.500  0.719346  130.066  63.3513  25.4966
  8327.288  8327.300  0.500  0.719180  130.059  63.3584  25.4753
  8327.583  8327.600  0.500  0.718929  130.047  63.3684  25.4541
  8327.883  8327.900  0.500  0.718390  129.978  63.3691  25.4274
  8328.180  8328.200  0.500  0.718400  129.971  63.3652  25.3948
  8328.490  8328.500  0.500  0.718199  130.03  63.4063  25.377
  8328.781  8328.800  0.500  0.717926  130.011  63.4146  25.3377
  8329.081  8329.100  0.500  0.717678  130.005  63.4272  25.2946
  8329.388  8329.400  0.500  0.717414  129.99  63.4369  25.2389
  8329.685  8329.700  0.500  0.717292  129.976  63.4376  25.1652
  8329.986  8330.000  0.500  0.717207  129.963  63.4366  25.0752
  8330.295  8330.300  0.500  0.716864  129.973  63.4634  24.9697
  8330.593  8330.600  0.500  0.716635  129.946  63.4649  24.8201
  8330.890  8330.900  0.500  0.717326  129.866  63.3817  24.5916
  8331.197  8331.200  0.500  0.717627  129.89  63.3746  24.3068
  8331.497  8331.500  0.500  0.717640  129.836  63.3474  23.9338
  8331.801  8331.800  0.500  0.718247  129.91  63.3449  23.4525
  8332.095  8332.100  0.500  0.718932  129.89  63.2918  22.8697
  8332.393  8332.400  0.500  0.720612  129.858  63.1699  22.204
  8332.688  8332.700  0.500  0.721550  129.838  63.101  21.5421
  8332.991  8333.000  0.500  0.721366  129.814  63.1012  20.9064
  8333.286  8333.300  0.500  0.720297  129.779  63.1514  20.3441
  8333.587  8333.600  0.500  0.720076  129.736  63.1446  19.818
  8333.894  8333.900  0.500  0.719002  129.708  63.1987  19.3553
  8334.191  8334.200  0.500  0.718018  129.657  63.2359  18.9573
  8334.495  8334.500  0.500  0.716922  129.634  63.2942  18.6076
  8334.799  8334.800  0.500  0.716619  129.566  63.28  18.2997
  8335.097  8335.100  0.500  0.716690  129.596  63.2904  18.0416
  8335.395  8335.400  0.500  0.716996  129.568  63.2575  17.821
  8335.702  8335.700  0.500  0.716524  129.582  63.2941  17.6564
  8336.002  8336.000  0.500  0.716894  129.517  63.2389  17.4998
  8336.294  8336.300  0.500  0.717705  129.492  63.1753  17.3642
  8336.589  8336.600  0.500  0.718071  129.561  63.1859  17.2597
  8336.896  8336.900  0.500  0.719610  129.533  63.0752  17.1252
  8337.197  8337.200  0.500  0.720360  129.536  63.0293  17.0061
  8337.501  8337.500  0.500  0.722327  129.493  62.8843  16.8405
  8337.802  8337.800  0.500  0.724922  129.482  62.7162  16.649
  8338.106  8338.100  0.500  0.727941  129.491  62.5313  16.4253
  8338.401  8338.400  0.500  0.731400  129.477  62.3086  16.1762
  8338.703  8338.700  0.500  0.734815  129.459  62.0877  15.9168
  8338.998  8339.000  0.500  0.739411  129.424  61.7861  15.6444
  8339.296  8339.300  0.500  0.743186  129.443  61.5628  15.4043
  8339.594  8339.600  0.500  0.747995  129.422  61.2574  15.163
  8339.895  8339.900  0.500  0.753641  129.392  60.8985  14.9221
  8340.193  8340.200  0.500  0.759811  129.366  60.5116  14.6882
  8340.501  8340.500  0.500  0.767235  129.354  60.0585  14.44
  8340.799  8340.800  0.500  0.776154  129.399  59.5459  14.1777
  8341.103  8341.100  0.500  0.786030  129.319  58.9243  13.8869
  8341.402  8341.400  0.500  0.796926  129.311  58.2823  13.583
  8341.703  8341.700  0.500  0.809046  129.316  57.582  13.2503
  8342.001  8342.000  0.500  0.821445  129.307  56.8688  12.9067
  8342.300  8342.300  0.500  0.833284  129.261  56.1793  12.5566
  8342.601  8342.600  0.500  0.844511  129.282  55.561  12.2182
  8342.896  8342.900  0.500  0.854719  129.194  54.9595  11.8725
  8343.195  8343.200  0.500  0.864585  129.251  54.4437  11.5419
  8343.496  8343.500  0.500  0.874960  129.216  53.8673  11.1849
  8343.798  8343.800  0.500  0.885869  129.206  53.2788  10.8263
  8344.099  8344.100  0.500  0.898242  129.195  52.619  10.4519
  8344.398  8344.400  0.500  0.912012  129.187  51.8964  10.0707
  8344.699  8344.700  0.500  0.928033  129.147  51.0557  9.673059
  8344.998  8345.000  0.500  0.946900  129.122  50.0919  9.256900
  8345.300  8345.300  0.500  0.967396  129.112  49.0719  8.854010
  8345.595  8345.600  0.500  0.990183  129.111  47.9659  8.449740
  8345.891  8345.900  0.500  1.015972  129.102  46.7414  8.043926
  8346.193  8346.200  0.500  1.043798  129.089  45.4541  7.642544
  8346.494  8346.500  0.500  1.074399  129.08  44.0813  7.243313
  8346.796  8346.800  0.500  1.106127  129.082  42.7053  6.862896
  8347.104  8347.100  0.500  1.137305  129.057  41.3862  6.511026
  8347.402  8347.400  0.500  1.165329  129.042  40.2377  6.208650
  8347.698  8347.700  0.500  1.186995  129.014  39.367  5.973726
  8348.000  8348.000  0.500  1.202565  128.985  38.7501  5.798165
  8348.308  8348.300  0.500  1.212184  128.956  38.3704  5.678079
  8348.607  8348.600  0.500  1.216769  128.943  38.191  5.604156
  8348.899  8348.900  0.500  1.218497  128.937  38.1232  5.561630
  8349.195  8349.200  0.500  1.218928  128.901  38.0962  5.535625
  8349.485  8349.500  0.500  1.219188  128.88  38.0802  5.521257
  8349.790  8349.800  0.500  1.220027  128.87  38.0454  5.512371
  8350.086  8350.100  0.500  1.221251  128.849  37.9926  5.507477
  8350.388  8350.400  0.500  1.220000  128.806  38.0274  5.522809
  8350.684  8350.700  0.500  1.219343  128.754  38.0371  5.537882
  8350.992  8351.000  0.500  1.215711  128.739  38.1711  5.578532
  8351.291  8351.300  0.500  1.208370  128.742  38.453  5.642363
  8351.596  8351.600  0.500  1.199242  128.62  38.7689  5.710649
  8351.898  8351.900  0.500  1.188451  128.657  39.2009  5.799687
  8352.200  8352.200  0.500  1.176515  128.661  39.6729  5.891560
  8352.491  8352.500  0.500  1.162810  128.636  40.2123  5.993488
  8352.793  8352.800  0.500  1.148051  128.575  40.7908  6.098711
  8353.086  8353.100  0.500  1.133195  128.509  41.3802  6.201119
  8353.388  8353.400  0.500  1.117433  128.51  42.038  6.307325
  8353.684  8353.700  0.500  1.102207  128.51  42.683  6.403535
  8353.987  8354.000  0.500  1.087808  128.498  43.2978  6.484936
  8354.295  8354.300  0.500  1.075440  128.466  43.8259  6.542982
  8354.714  8354.600  0.500  1.062080  128.454  44.4111  6.592007
  8354.870  8354.900  0.500  1.051275  128.376  44.8663  6.634815
  8355.172  8355.200  0.500  1.042396  128.413  45.2795  6.647256
  8355.489  8355.500  0.500  1.034364  128.378  45.6321  6.641645
  8355.833  8355.800  0.500  1.024595  128.389  46.084  6.639668
  8356.076  8356.100  0.500  1.014795  128.32  46.5129  6.654473
  8356.414  8356.400  0.500  1.006803  128.342  46.8944  6.642310
  8356.708  8356.700  0.500  1.000319  128.339  47.1982  6.633189
  8357.013  8357.000  0.500  0.993755  128.311  47.4988  6.628147
  8357.307  8357.300  0.500  0.987586  128.317  47.7949  6.637046
  8357.609  8357.600  0.500  0.982081  128.302  48.053  6.647822
  8357.801  8357.800  0.500  0.979074  128.281  48.1897  6.657912
  8358.802  8358.790  0.500  0.964366  128.309  48.9147  6.774946
  8359.799  8359.790  0.500  0.955875  128.27  49.3167  6.921236
  8360.821  8360.810  0.500  0.954701  128.248  49.3662  7.026146
  8361.874  8361.860  0.500  0.958989  128.245  49.1536  7.078377
  8362.932  8362.920  0.500  0.966795  128.239  48.7692  7.107938
  8364.015  8364.000  0.500  0.972165  128.267  48.5187  7.182944
  8365.107  8365.100  0.500  0.970364  128.429  48.6674  7.327450
  8366.239  8366.220  0.500  0.962891  128.495  49.0578  7.477570
  8367.373  8367.360  0.500  0.953944  128.461  49.4856  7.590323
  8368.536  8368.510  0.500  0.944110  128.423  49.9598  7.694369
  8369.707  8369.690  0.500  0.934444  128.42  50.444  7.786638
  8370.891  8370.880  0.500  0.926335  128.423  50.856  7.834429
  8372.111  8372.100  0.500  0.917175  128.373  51.3037  7.842631
  8373.347  8373.330  0.500  0.908811  128.343  51.7228  7.802272
  8374.589  8374.580  0.500  0.905215  128.325  51.9017  7.691521
  8375.870  8375.850  0.500  0.904643  128.244  51.8986  7.531492
  8377.158  8377.140  0.500  0.906037  128.208  51.8116  7.349319
  8378.462  8378.450  0.500  0.912215  128.275  51.5194  7.130064
  8379.795  8379.780  0.500  0.918995  128.181  51.134  6.918514
  8381.145  8381.130  0.500  0.927292  128.225  50.7287  6.751957
  8382.507  8382.500  0.500  0.935756  128.181  50.2839  6.655257
  8383.887  8383.880  0.500  0.944371  128.117  49.8278  6.634558
  8385.295  8385.290  0.500  0.953065  128.033  49.3641  6.678939
  8386.725  8386.710  0.500  0.962861  128.019  48.8777  6.778986
  8388.158  8388.150  0.500  0.971124  127.908  48.4333  6.904252
  8389.619  8389.610  0.500  0.977686  127.904  48.1151  7.038634
  8391.102  8391.090  0.500  0.985361  127.821  47.7161  7.134507
  8392.600  8392.590  0.500  0.990255  127.843  47.4914  7.232131
  8394.117  8394.110  0.500  0.993221  127.727  47.3077  7.300328
  8395.655  8395.650  0.500  0.995636  127.767  47.2085  7.333046
  8397.219  8397.210  0.500  0.995193  127.702  47.2052  7.338738
  8398.792  8398.780  0.500  0.991466  127.674  47.3712  7.359466
  8400.387  8400.380  0.500  0.986142  127.619  47.6037  7.409091
  8401.994  8401.990  0.500  0.980352  127.572  47.8623  7.479793
  8403.639  8403.630  0.500  0.974488  127.522  48.125  7.543731
  8405.293  8405.280  0.500  0.968777  127.491  48.389  7.579172
  8406.951  8406.950  0.500  0.963565  127.465  48.6316  7.574809
  8408.655  8408.640  0.500  0.960116  127.409  48.7783  7.534445
  8410.363  8410.350  0.500  0.957472  127.372  48.8932  7.504300
  8412.087  8412.080  0.500  0.954239  127.323  49.0328  7.488301
  8413.842  8413.830  0.500  0.951324  127.267  49.1543  7.454711
  8415.607  8415.590  0.500  0.948619  127.242  49.2776  7.393838
  8417.382  8417.380  0.500  0.945933  127.207  49.3968  7.317320
  8419.203  8419.180  0.500  0.943491  127.111  49.48  7.244330
  8421.025  8421.010  0.500  0.939921  127.129  49.6639  7.188823
  8422.866  8422.850  0.500  0.935993  127.066  49.8348  7.121519
  8424.732  8424.710  0.500  0.932256  127.031  50.0076  7.037436
  8426.599  8426.590  0.500  0.929247  126.977  50.1368  6.935208
  8428.506  8428.490  0.500  0.926746  126.934  50.2456  6.841056
  8430.424  8430.410  0.500  0.925109  126.892  50.311  6.771785
  8432.360  8432.350  0.500  0.924772  126.789  50.2875  6.750016
  8434.325  8434.310  0.500  0.924487  126.791  50.3025  6.798682
  8436.288  8436.280  0.500  0.924958  126.733  50.2557  6.897129
  8438.292  8438.280  0.500  0.924644  126.656  50.2408  7.030581
  8440.312  8440.290  0.500  0.923660  126.635  50.2821  7.187827
  8442.324  8442.320  0.500  0.922273  126.586  50.3323  7.356951
  8444.395  8444.380  0.500  0.920401  126.524  50.4021  7.521960
  8446.460  8446.450  0.500  0.917821  126.459  50.5064  7.650383
  8448.545  8448.540  0.500  0.914729  126.418  50.6461  7.766020
  8450.668  8450.650  0.500  0.912826  126.326  50.7058  7.903345
  8452.780  8452.780  0.500  0.909962  126.317  50.8475  8.090575
  8454.945  8454.920  0.500  0.909357  126.251  50.8517  8.268840
  8457.099  8457.090  0.500  0.909886  126.175  50.7941  8.395969
  8459.294  8459.280  0.500  0.912182  126.09  50.6435  8.437619
  8461.497  8461.480  0.500  0.915633  126.031  50.4457  8.397154
  8463.715  8463.700  0.500  0.919104  126.018  50.2655  8.294951
  8465.972  8465.950  0.500  0.921168  125.939  50.1304  8.160566
  8468.212  8468.210  0.500  0.921617  125.893  50.0895  8.025258
  8470.505  8470.490  0.500  0.920974  125.785  50.0787  7.893997
  8472.806  8472.790  0.500  0.920297  125.747  50.0976  7.799288
  8475.133  8475.110  0.500  0.919733  125.678  50.0983  7.757020
  8477.461  8477.450  0.500  0.919826  125.621  50.0712  7.768975
  8479.818  8479.800  0.500  0.919603  125.57  50.0619  7.815088
  8482.204  8482.180  0.500  0.919261  125.528  50.0625  7.837264
  8484.586  8484.570  0.500  0.917394  125.468  50.132  7.789264
  8487.009  8486.990  0.500  0.914207  125.377  50.2554  7.637037
  8489.427  8489.420  0.500  0.911848  125.3  50.3431  7.411448
  8491.890  8491.870  0.500  0.907482  125.269  50.551  7.226869
  8494.357  8494.350  0.500  0.904630  125.22  50.6754  7.107706
  8496.861  8496.840  0.500  0.898913  125.11  50.9213  7.079707
  8499.356  8499.350  0.500  0.893776  125.062  51.1637  7.095313
  8501.896  8501.870  0.500  0.889249  125.01  51.3746  7.140260
  8504.441  8504.420  0.500  0.884863  124.892  51.5518  7.234466
  8507.012  8506.990  0.500  0.881804  124.803  51.6728  7.394024
  8509.585  8509.570  0.500  0.880499  124.761  51.7229  7.607136
  8512.207  8512.180  0.500  0.879458  124.67  51.7392  7.877520
  8514.814  8514.800  0.500  0.880125  124.626  51.6865  8.188939
  8517.473  8517.450  0.500  0.881032  124.562  51.613  8.518903
  8520.124  8520.110  0.500  0.881048  124.396  51.5433  8.816362
  8522.811  8522.790  0.500  0.880521  124.228  51.5008  9.015144
  8525.509  8525.490  0.500  0.879085  124.014  51.4859  9.068119
  8528.231  8528.210  0.500  0.877606  123.232  51.2371  8.938824
  8530.970  8530.950  0.500  0.872802  108.659  45.3954  7.765905
  8533.721  8533.700  0.500  0.875331  124.008  51.6771  8.630698
  8536.498  8536.480  0.500  0.873899  124.375  51.9045  8.488745
  8539.290  8539.270  0.500  0.873340  124.298  51.9014  8.347408
  8542.105  8542.090  0.500  0.872546  124.185  51.8953  8.263365
  8544.939  8544.920  0.500  0.871034  124.125  51.9484  8.253200
  8547.780  8547.770  0.500  0.869623  124.016  51.9762  8.281046
  8550.664  8550.650  0.500  0.867584  123.918  52.0415  8.333374
  8553.559  8553.540  0.500  0.864878  123.823  52.142  8.396613
  8556.476  8556.450  0.500  0.860658  123.788  52.3478  8.488359
  8559.391  8559.370  0.500  0.856816  123.737  52.5279  8.598683
  8562.337  8562.320  0.500  0.854755  123.61  52.5823  8.676043
  8565.310  8565.290  0.500  0.854900  123.579  52.5613  8.671243
  8568.294  8568.270  0.500  0.854138  123.502  52.5688  8.568808
  8571.303  8571.280  0.500  0.854286  123.379  52.5086  8.396555
  8574.314  8574.300  0.500  0.853707  123.339  52.522  8.254281
  8577.362  8577.350  0.500  0.851595  123.243  52.5922  8.168087
  8580.421  8580.410  0.500  0.850146  123.131  52.6204  8.116785
  8583.496  8583.490  0.500  0.849143  123.102  52.6605  8.109291
  8586.607  8586.590  0.500  0.847606  122.984  52.6911  8.156129
  8589.712  8589.710  0.500  0.846542  122.772  52.6564  8.256537
  8592.863  8592.850  0.500  0.837287  113.232  49.0161  7.840238
  8596.010  8596.000  0.500  0.844610  121.062  52.0233  8.520737
  8599.191  8599.180  0.500  0.842194  122.097  52.5949  8.817748
  8602.387  8602.370  0.500  0.841159  122.081  52.6425  8.998928
  8605.599  8605.590  0.500  0.839295  121.991  52.7018  9.129867
  8608.832  8608.820  0.500  0.837283  121.691  52.6784  9.189245
  8612.080  8612.070  0.500  0.835311  121.128  52.5381  9.175847
  8615.360  8615.350  0.500  0.831459  119.22  51.9099  9.060433
  8618.648  8618.640  0.500  0.823463  86.1663  37.8192  6.607003
  8621.962  8621.950  0.500  0.825132  123.347  54.0479  9.445019
  8625.275  8625.270  0.500  0.822008  122.976  54.0538  9.454908
  8628.622  8628.620  0.500  0.818876  122.676  54.091  9.470103
  8632.014  8631.990  0.500  0.816821  122.436  54.0965  9.462109
  8635.380  8635.370  0.500  0.815640  122.288  54.095  9.431741
  8638.790  8638.780  0.500  0.814941  122.115  54.0562  9.381276
  8642.215  8642.200  0.500  0.812506  120.388  53.4217  9.230019
  8645.657  8645.650  0.500  0.813076  118.381  52.501  9.038860
  8649.127  8649.110  0.500  0.810013  121.285  53.954  9.272194
  8652.606  8652.590  0.500  0.808437  121.383  54.0825  9.282587
  8656.101  8656.090  0.500  0.807143  121.391  54.1564  9.281240
  8659.618  8659.610  0.500  0.806519  121.314  54.1559  9.261153
  8663.167  8663.150  0.500  0.803601  121.176  54.2522  9.247227
  8666.722  8666.700  0.500  0.803077  121.099  54.2462  9.211366
  8670.290  8670.280  0.500  0.801860  121.007  54.2709  9.202126
  8673.900  8673.880  0.500  0.800669  120.842  54.2617  9.228039
  8677.496  8677.490  0.500  0.799208  120.827  54.3341  9.303600
  8681.138  8681.120  0.500  0.797502  120.692  54.3661  9.400909
  8684.809  8684.780  0.500  0.795889  120.578  54.4022  9.510022
  8688.470  8688.450  0.500  0.793650  120.469  54.4752  9.627668
  8692.157  8692.140  0.500  0.791501  120.294  54.513  9.711735
  8695.867  8695.850  0.500  0.789311  120.167  54.5749  9.757943
  8699.593  8699.580  0.500  0.786453  119.965  54.6391  9.774492
  8703.342  8703.320  0.500  0.783497  119.517  54.5962  9.773630
  8707.117  8707.090  0.500  0.778215  113.974  52.3395  9.406418
  8710.896  8710.880  0.500  0.780303  119.8  54.9003  9.947767
  8714.707  8714.680  0.500  0.778118  120.057  55.1385  10.0939
  8718.557  8718.510  0.500  0.776876  119.923  55.1456  10.1673
  8722.375  8722.350  0.500  0.774102  119.781  55.2329  10.2051
  8726.226  8726.210  0.500  0.773366  119.616  55.1976  10.2065
  8730.120  8730.090  0.500  0.771248  119.473  55.2485  10.2291
  8734.007  8733.990  0.500  0.768480  119.348  55.3435  10.2546
  8737.931  8737.910  0.500  0.767098  119.194  55.3488  10.2545
  8741.878  8741.850  0.500  0.765308  119.131  55.4186  10.2612
  8745.832  8745.810  0.500  0.764187  118.929  55.3867  10.2453
  8749.800  8749.780  0.500  0.761053  118.879  55.5373  10.2659
  8753.811  8753.780  0.500  0.759782  118.754  55.5493  10.2589
  8757.815  8757.790  0.500  0.757969  118.604  55.5798  10.2555
  8761.850  8761.830  0.500  0.756145  118.53  55.6465  10.2621
  8765.902  8765.880  0.500  0.754419  118.388  55.676  10.2653
  8769.981  8769.950  0.500  0.752218  118.276  55.746  10.2762
  8774.064  8774.040  0.500  0.750054  118.169  55.8162  10.294
  8778.171  8778.150  0.500  0.747819  117.976  55.8496  10.3149
  8782.305  8782.280  0.500  0.745055  117.903  55.9695  10.373
  8786.456  8786.430  0.500  0.742993  117.77  56.022  10.4366
  8790.614  8790.590  0.500  0.740800  117.668  56.0963  10.5242
  8794.797  8794.780  0.500  0.738703  117.556  56.1606  10.6141
  8799.007  8798.980  0.500  0.736795  117.392  56.1893  10.6809
  8803.237  8803.210  0.500  0.734791  117.282  56.2491  10.7333
  8807.465  8807.450  0.500  0.733427  117.173  56.2733  10.7598
  8811.728  8811.710  0.500  0.730901  117.054  56.3586  10.7911
  8816.011  8815.990  0.500  0.729207  116.854  56.3577  10.8069
  8820.315  8820.290  0.500  0.727577  116.741  56.3949  10.8377
  8824.627  8824.610  0.500  0.725860  116.677  56.4609  10.8861
  8828.974  8828.950  0.500  0.724238  116.482  56.4581  10.9384
  8833.332  8833.310  0.500  0.721964  116.422  56.5573  11.0163
  8837.714  8837.690  0.500  0.720250  116.3  56.5954  11.0689
  8842.097  8842.080  0.500  0.718180  116.097  56.6132  11.1059
  8846.518  8846.500  0.500  0.716415  116.038  56.6848  11.1534
  8850.951  8850.930  0.500  0.715576  115.927  56.678  11.1909
  8855.402  8855.380  0.500  0.713062  116.151  56.9305  11.273
  8859.871  8859.850  0.500  0.711239  116.025  56.9723  11.3073
  8864.361  8864.340  0.500  0.708582  115.93  57.077  11.343
  8868.870  8868.850  0.500  0.706425  115.779  57.1258  11.3597
  8873.400  8873.380  0.500  0.704038  115.647  57.197  11.3733
  8877.949  8877.930  0.500  0.701868  115.492  57.2446  11.3806
  8882.516  8882.500  0.500  0.699898  115.359  57.2913  11.3836
  8887.091  8887.080  0.500  0.697757  115.146  57.308  11.3767
  8891.708  8891.690  0.500  0.695555  115.083  57.4031  11.3915
  8896.334  8896.310  0.500  0.693249  114.93  57.4592  11.4126
  8900.978  8900.960  0.500  0.691918  114.793  57.4671  11.4436
  8905.641  8905.620  0.500  0.689205  114.629  57.541  11.5132
  8910.320  8910.300  0.500  0.687468  113.965  57.3072  11.5324
  8915.013  8915.000  0.500  0.684904  114.467  57.7072  11.677
  8919.742  8919.720  0.500  0.683180  114.34  57.7426  11.7361
  8924.494  8924.460  0.500  0.681699  112.225  56.7586  11.5749
  8929.234  8929.210  0.500  0.679133  113.888  57.7476  11.8158
  8933.999  8933.990  0.500  0.677106  114.002  57.9226  11.8841
  8938.808  8938.790  0.500  0.674873  113.713  57.9049  11.9103
  8943.615  8943.600  0.500  0.673455  113.609  57.9343  11.9432
  8948.455  8948.430  0.500  0.671846  113.49  57.9666  11.982
  8953.314  8953.290  0.500  0.670414  113.033  57.8162  11.9859
  8958.192  8958.160  0.500  0.667637  113.192  58.0582  12.0704
  8963.076  8963.050  0.500  0.666084  112.986  58.0429  12.0996
  8967.983  8967.960  0.500  0.663700  112.831  58.1017  12.1537
  8972.912  8972.890  0.500  0.661655  112.744  58.1755  12.2087
  8977.854  8977.830  0.500  0.659482  112.566  58.2101  12.2514
  8982.822  8982.800  0.500  0.657360  112.096  58.0901  12.2587
  8987.779  8987.790  0.500  0.655416  112.207  58.2609  12.3229
  8992.811  8992.790  0.500  0.653180  111.857  58.2091  12.3346
  8997.838  8997.820  0.500  0.651245  111.919  58.3539  12.3889
  9002.885  9002.860  0.500  0.649529  111.54  58.2563  12.3919
  9007.941  9007.920  0.500  0.647128  111.61  58.4333  12.452
  9013.024  9013.000  0.500  0.644959  111.406  58.4527  12.4735
  9018.141  9018.100  0.500  0.642174  111.141  58.4763  12.4978
  9023.235  9023.220  0.500  0.639941  111.253  58.6662  12.5597
  9028.371  9028.360  0.500  0.637814  110.993  58.6538  12.5863
  9033.537  9033.520  0.500  0.635994  110.886  58.7038  12.6273
  9038.724  9038.700  0.500  0.633724  110.672  58.7238  12.6647
  9043.903  9043.890  0.500  0.632227  110.517  58.7297  12.701
  9049.133  9049.110  0.500  0.629838  110.383  58.7987  12.751
  9054.384  9054.340  0.500  0.627153  110.242  58.8813  12.8112
  9059.623  9059.590  0.500  0.625436  110.068  58.8892  12.853
  9064.894  9064.860  0.500  0.624072  109.156  58.4814  12.802
  9070.174  9070.150  0.500  0.620975  109.671  58.9393  12.941
  9075.510  9075.460  0.500  0.618671  109.549  59.0099  12.9902
  9080.849  9080.790  0.500  0.616482  109.403  59.0602  13.0379
  9086.177  9086.140  0.500  0.614784  109.204  59.0529  13.0769
  9091.568  9091.510  0.500  0.612526  109.056  59.1064  13.1261
  9096.884  9096.890  0.500  0.610593  108.906  59.1391  13.1697
  9102.327  9102.300  0.500  0.608084  108.705  59.178  13.2137
  9107.745  9107.720  0.500  0.606162  108.571  59.2188  13.2628
  9113.152  9113.170  0.500  0.603786  108.379  59.2549  13.3085
  9118.619  9118.630  0.500  0.601443  108.268  59.3333  13.3638
  9124.071  9124.110  0.500  0.599441  108.106  59.363  13.409
  9129.616  9129.610  0.500  0.597454  107.906  59.3709  13.4456
  9135.107  9135.130  0.500  0.595277  107.695  59.3843  13.4819
  9140.644  9140.670  0.500  0.593213  107.449  59.3709  13.5074
  9146.213  9146.220  0.500  0.592644  106.932  59.1186  13.4749
  9151.760  9151.800  0.500  0.588664  107.286  59.5513  13.6009
  9157.369  9157.400  0.500  0.585644  106.08  59.0594  13.5158
  9162.984  9163.010  0.500  0.584578  106.939  59.6013  13.67
  9168.614  9168.650  0.500  0.580743  104.704  58.5801  13.4691
  9174.273  9174.300  0.500  0.580353  106.502  59.6095  13.7422
  9179.928  9179.970  0.500  0.578470  106.15  59.524  13.7602
  9185.627  9185.660  0.500  0.576314  106.458  59.8256  13.8673