File: xdidata/Data/Ti/Ti-K-Li2TiO5.xdi
# XDI/1.0 BlueSky/1.5.0
# Beamline.name: 6BM
# Beamline.xray_source: NSLS-II three-pole wiggler
# Beamline.collimation: paraboloid mirror, 5 nm Rh on 30 nm Pt
# Beamline.focusing: not in use
# Beamline.harmonic_rejection: flat mirror, Si stripe, pitch = 7.0 mrad relative to beam
# Detector.i0: 10 cm N2
# Detector.i1: 25 cm N2
# Detector.i2: 25 cm N2
# Element.symbol: Ti
# Element.edge: K
# Facility.name: NSLS-II
# Facility.energy: 3.0
# Facility.current: 220.5
# Facility.mode: top-off
# Facility.gup: 301027
# Facility.saf: 304156
# Mono.name: Si(111)
# Mono.d_spacing: 3.13532
# Mono.encoder_resolution: 0.0000050 deg/ct
# Mono.angle_offset: 16.0577 deg
# Mono.scan_mode: pseudo channel cut
# Mono.scan_type: step
# Mono.direction: forward in energy
# Sample.name: Li2TiO5
# Sample.prep: Powder in polyethylene glycol pellet
# Sample.x_position: -97.500 mm
# Sample.y_position: 115.250 mm
# Sample.wheel_position: 30.000 mm
# Scan.experimenters: Bruce Ravel
# Scan.edge_energy: 4966.0
# Scan.start_time: 2019-06-16T15:41:20
# Scan.end_time: 2019-06-16T18:11:15
# Scan.transient_id: 10621
# Scan.uid: 84886ac2-6dbb-43d7-9855-9aeb89350303
# Scan.plot_hint: ln(I0/It)  --  ln($5/$6)
# Scan.sequence: merge of 9 scans
# Column.1: energy eV
# Column.2: requested_energy eV
# Column.3: measurement_time seconds
# Column.4: mutrans
# Column.5: i0
# Column.6: itrans
# Column.7: irefer
# /////
#  from Martin Stennet
# -----
# energy   requested_energy   measurement_time   mutrans   i0   itrans   irefer
4765.99 4766 0.500000 5.773535 8.377634 0.026045 0.001047
4776.01 4776 0.500000 5.725533 8.586826 0.028007 0.001372
4786.01 4786 0.500000 5.683950 8.794434 0.029903 0.001417
4796.01 4796 0.500000 5.642147 9.007278 0.031933 0.001632
4806.01 4806 0.500000 5.599353 9.224540 0.034133 0.001942
4816.01 4816 0.500000 5.565907 9.438794 0.036114 0.001998
4826.01 4826 0.500000 5.525207 9.655348 0.038477 0.002376
4836.01 4836 0.500000 5.487128 9.862909 0.040820 0.002512
4846 4846 0.500000 5.449017 10.0864 0.043378 0.002724
4856 4856 0.500000 5.412351 10.3056 0.045974 0.003063
4866.01 4866 0.500000 5.374273 10.5321 0.048810 0.003353
4876.01 4876 0.500000 5.335785 10.7616 0.051831 0.003737
4886.01 4886 0.500000 5.302091 10.9913 0.054750 0.003889
4896.01 4896 0.500000 5.265518 11.2151 0.057946 0.004155
4906.01 4906 0.500000 5.227980 11.4564 0.061457 0.004762
4916 4916 0.500000 5.195558 11.6892 0.064773 0.005014
4926 4926 0.500000 5.160562 11.9233 0.068422 0.005411
4936 4936 0.500000 5.124317 12.166 0.072392 0.005974
4938 4938 0.500000 5.116961 12.2113 0.073197 0.006033
4940 4940 0.500000 5.110203 12.2578 0.073973 0.006057
4942 4942 0.500000 5.103395 12.3024 0.074748 0.006195
4944 4944 0.500000 5.095751 12.348 0.075603 0.006274
4946 4946 0.500000 5.089329 12.3888 0.076342 0.006411
4948 4948 0.500000 5.083977 12.423 0.076964 0.006396
4950 4950 0.500000 5.078085 12.468 0.077699 0.006576
4952 4952 0.500000 5.070483 12.5093 0.078551 0.006561
4954 4954 0.500000 5.064575 12.5493 0.079269 0.006635
4956 4956 0.500000 5.058098 12.5882 0.080031 0.006829
4956.25 4956.25 0.500000 5.057926 12.5925 0.080073 0.006832
4956.5 4956.5 0.500000 5.057052 12.5965 0.080168 0.006875
4956.75 4956.75 0.500000 5.056573 12.6015 0.080239 0.006663
4957 4957 0.500000 5.055369 12.6042 0.080352 0.006881
4957.25 4957.25 0.500000 5.056096 12.607 0.080314 0.006780
4957.49 4957.5 0.500000 5.054297 12.62 0.080539 0.006919
4957.74 4957.75 0.500000 5.054321 12.6234 0.080559 0.006843
4957.99 4958 0.500000 5.052033 12.6293 0.080781 0.006838
4958.25 4958.25 0.500000 5.052186 12.633 0.080792 0.006807
4958.5 4958.5 0.500000 5.051323 12.6368 0.080886 0.006900
4958.74 4958.75 0.500000 5.050534 12.6428 0.080989 0.007030
4959 4959 0.500000 5.049366 12.6481 0.081117 0.006945
4959.25 4959.25 0.500000 5.049328 12.6514 0.081142 0.006985
4959.5 4959.5 0.500000 5.048549 12.6538 0.081222 0.007046
4959.74 4959.75 0.500000 5.046536 12.6595 0.081421 0.006937
4959.99 4960 0.500000 5.047212 12.6643 0.081397 0.006979
4960.24 4960.25 0.500000 5.047248 12.6678 0.081417 0.006975
4960.49 4960.5 0.500000 5.046621 12.675 0.081514 0.006909
4960.75 4960.75 0.500000 5.046359 12.68 0.081567 0.006895
4961 4961 0.500000 5.045384 12.6827 0.081665 0.006987
4961.25 4961.25 0.500000 5.043509 12.6886 0.081855 0.006978
4961.5 4961.5 0.500000 5.043806 12.6911 0.081848 0.006898
4961.74 4961.75 0.500000 5.042144 12.6978 0.082027 0.006984
4961.99 4962 0.500000 5.042488 12.7015 0.082023 0.006980
4962.24 4962.25 0.500000 5.041694 12.7068 0.082122 0.006978
4962.49 4962.5 0.500000 5.041483 12.7105 0.082163 0.006906
4962.75 4962.75 0.500000 5.041275 12.7161 0.082216 0.006959
4963 4963 0.500000 5.039254 12.7191 0.082402 0.006911
4963.25 4963.25 0.500000 5.039900 12.7261 0.082393 0.006882
4963.5 4963.5 0.500000 5.039412 12.7312 0.082467 0.006689
4963.75 4963.75 0.500000 5.039739 12.7347 0.082464 0.006693
4964 4964 0.500000 5.038627 12.7399 0.082588 0.006693
4964.25 4964.25 0.500000 5.039902 12.745 0.082516 0.006363
4964.5 4964.5 0.500000 5.039017 12.7565 0.082663 0.006014
4964.75 4964.75 0.500000 5.041207 12.7596 0.082503 0.005475
4965 4965 0.500000 5.040677 12.7639 0.082574 0.004996
4965.25 4965.25 0.500000 5.040546 12.7798 0.082689 0.004652
4965.5 4965.5 0.500000 5.041047 12.7981 0.082765 0.004587
4965.75 4965.75 0.500000 5.043031 12.8002 0.082615 0.004581
4966 4966 0.500000 5.046090 12.8052 0.082391 0.004724
4966.25 4966.25 0.500000 5.050486 12.8084 0.082054 0.004857
4966.5 4966.5 0.500000 5.056882 12.8121 0.081556 0.005123
4966.75 4966.75 0.500000 5.070860 12.8135 0.080423 0.005065
4967 4967 0.500000 5.085996 12.8304 0.079326 0.005052
4967.25 4967.25 0.500000 5.095107 12.8333 0.078626 0.005018
4967.5 4967.5 0.500000 5.093137 12.8347 0.078792 0.004965
4967.75 4967.75 0.500000 5.079876 12.8403 0.079876 0.005122
4968 4968 0.500000 5.071954 12.846 0.080545 0.005081
4968.25 4968.25 0.500000 5.075531 12.8489 0.080282 0.004760
4968.5 4968.5 0.500000 5.084039 12.8504 0.079609 0.004707
4968.75 4968.75 0.500000 5.106283 12.8527 0.077880 0.004511
4969 4969 0.500000 5.137529 12.8619 0.075531 0.004274
4969.25 4969.25 0.500000 5.168905 12.8691 0.073237 0.004089
4969.5 4969.5 0.500000 5.193342 12.8683 0.071468 0.003815
4969.75 4969.75 0.500000 5.197611 12.869 0.071166 0.003841
4970 4970 0.500000 5.191099 12.8748 0.071656 0.004042
4970.25 4970.25 0.500000 5.182913 12.8824 0.072293 0.003901
4970.5 4970.5 0.500000 5.169866 12.893 0.073300 0.003960
4970.75 4970.75 0.500000 5.151535 12.9035 0.074716 0.004169
4971 4971 0.500000 5.129932 12.9085 0.076381 0.004147
4971.25 4971.25 0.500000 5.114303 12.9158 0.077626 0.004119
4971.5 4971.5 0.500000 5.099661 12.9231 0.078813 0.004239
4971.75 4971.75 0.500000 5.094804 12.9272 0.079224 0.004109
4972 4972 0.500000 5.096509 12.9283 0.079095 0.004000
4972.25 4972.25 0.500000 5.103674 12.9333 0.078564 0.003855
4972.5 4972.5 0.500000 5.114141 12.9364 0.077758 0.003750
4972.75 4972.75 0.500000 5.123384 12.9417 0.077084 0.003637
4973 4973 0.500000 5.131331 12.944 0.076482 0.003397
4973.25 4973.25 0.500000 5.133067 12.9468 0.076366 0.003420
4973.5 4973.5 0.500000 5.135672 12.9514 0.076195 0.003218
4973.75 4973.75 0.500000 5.135938 12.9552 0.076197 0.003190
4974 4974 0.500000 5.139394 12.9579 0.075950 0.003151
4974.25 4974.25 0.500000 5.145335 12.9588 0.075504 0.003061
4974.5 4974.5 0.500000 5.160157 12.9753 0.074476 0.002940
4974.75 4974.75 0.500000 5.181806 12.9769 0.072898 0.002774
4975 4975 0.500000 5.212056 12.9772 0.070737 0.002739
4975.25 4975.25 0.500000 5.252818 12.9796 0.067932 0.002433
4975.5 4975.5 0.500000 5.301045 12.9786 0.064722 0.002268
4975.75 4975.75 0.500000 5.354122 12.9804 0.061381 0.002228
4976 4976 0.500000 5.403714 12.9806 0.058428 0.001940
4976.25 4976.25 0.500000 5.435637 12.9818 0.056580 0.001938
4976.5 4976.5 0.500000 5.449948 12.9824 0.055782 0.001781
4976.75 4976.75 0.500000 5.445614 12.9812 0.056016 0.001764
4977 4977 0.500000 5.445614 12.9817 0.056019 0.001733
4977.25 4977.25 0.500000 5.445419 12.9851 0.056044 0.001800
4977.5 4977.5 0.500000 5.455597 12.9896 0.055498 0.001619
4977.75 4977.75 0.500000 5.464820 12.9911 0.054992 0.001626
4978 4978 0.500000 5.478903 12.9929 0.054232 0.001583
4978.25 4978.25 0.500000 5.493517 12.9975 0.053459 0.001315
4978.5 4978.5 0.500000 5.503878 13.0005 0.052922 0.001461
4978.75 4978.75 0.500000 5.516471 13.0169 0.052322 0.001457
4979 4979 0.500000 5.530337 13.0179 0.051619 0.001330
4979.25 4979.25 0.500000 5.541529 13.0189 0.051042 0.001394
4979.5 4979.5 0.500000 5.550902 13.0159 0.050555 0.001362
4979.75 4979.75 0.500000 5.561102 13.0273 0.050081 0.001366
4980 4980 0.500000 5.570650 13.0276 0.049611 0.001283
4980.25 4980.25 0.500000 5.578560 13.025 0.049208 0.001204
4980.5 4980.5 0.500000 5.588411 13.024 0.048725 0.001195
4980.75 4980.75 0.500000 5.600689 13.0237 0.048129 0.001275
4981 4981 0.500000 5.613239 13.0222 0.047522 0.001157
4981.25 4981.25 0.500000 5.630202 13.0211 0.046721 0.001132
4981.5 4981.5 0.500000 5.653699 13.0248 0.045648 0.001142
4981.75 4981.75 0.500000 5.675780 13.0302 0.044656 0.001125
4982 4982 0.500000 5.711398 13.0339 0.043116 0.000959
4982.25 4982.25 0.500000 5.749678 13.0354 0.041493 0.000991
4982.5 4982.5 0.500000 5.792427 13.0382 0.039766 0.000802
4982.75 4982.75 0.500000 5.835880 13.0413 0.038084 0.000704
4983 4983 0.500000 5.879221 13.0433 0.036484 0.000730
4983.25 4983.25 0.500000 5.921358 13.0466 0.034999 0.000593
4983.5 4983.5 0.500000 5.957725 13.0469 0.033732 0.000739
4983.75 4983.75 0.500000 6.000767 13.0463 0.032310 0.000558
4984 4984 0.500000 6.035246 13.0477 0.031221 0.000745
4984.25 4984.25 0.500000 6.073246 13.0612 0.030094 0.000522
4984.5 4984.5 0.500000 6.106111 13.0628 0.029128 0.000459
4984.75 4984.75 0.500000 6.136499 13.0635 0.028252 0.000511
4985 4985 0.500000 6.160567 13.0672 0.027583 0.000548
4985.25 4985.25 0.500000 6.184660 13.0726 0.026939 0.000394
4985.5 4985.5 0.500000 6.202641 13.073 0.026462 0.000471
4985.75 4985.75 0.500000 6.228058 13.0751 0.025799 0.000361
4986 4986 0.500000 6.243696 13.076 0.025404 0.000446
4986.25 4986.25 0.500000 6.263124 13.0781 0.024919 0.000360
4986.5 4986.5 0.500000 6.277227 13.0762 0.024568 0.000528
4986.75 4986.75 0.500000 6.291153 13.0766 0.024226 0.000572
4987 4987 0.500000 6.301386 13.0751 0.023979 0.000333
4987.25 4987.25 0.500000 6.313944 13.0763 0.023682 0.000403
4987.5 4987.5 0.500000 6.315334 13.0767 0.023649 0.000421
4987.75 4987.75 0.500000 6.305374 13.0782 0.023889 0.000371
4988 4988 0.500000 6.292716 13.0827 0.024201 0.000450
4988.25 4988.25 0.500000 6.280075 13.088 0.024517 0.000400
4988.5 4988.5 0.500000 6.260168 13.0986 0.025033 0.000409
4988.75 4988.75 0.500000 6.235277 13.1069 0.025682 0.000398
4989 4989 0.500000 6.205741 13.116 0.026462 0.000474
4989.26 4989.25 0.500000 6.186321 13.1275 0.027015 0.000488
4989.5 4989.5 0.500000 6.158327 13.1396 0.027803 0.000562
4989.75 4989.75 0.500000 6.136108 13.1517 0.028456 0.000643
4990 4990 0.500000 6.112079 13.1644 0.029167 0.000631
4990.25 4990.25 0.500000 6.094623 13.1735 0.029705 0.000590
4990.5 4990.5 0.500000 6.071935 13.1866 0.030420 0.000669
4990.75 4990.75 0.500000 6.052584 13.201 0.031047 0.000647
4991 4991 0.500000 6.036639 13.2108 0.031569 0.000647
4991.25 4991.25 0.500000 6.019548 13.2179 0.032132 0.000747
4991.5 4991.5 0.500000 6.003685 13.2285 0.032668 0.000830
4991.75 4991.75 0.500000 5.992774 13.2384 0.033052 0.000759
4992 4992 0.500000 5.984834 13.2471 0.033336 0.000744
4992.25 4992.25 0.500000 5.977448 13.2538 0.033605 0.000736
4992.5 4992.5 0.500000 5.971841 13.2654 0.033821 0.000782
4992.75 4992.75 0.500000 5.971138 13.2824 0.033889 0.000820
4993 4993 0.500000 5.961918 13.2997 0.034246 0.000887
4993.25 4993.25 0.500000 5.963374 13.3048 0.034210 0.000736
4993.5 4993.5 0.500000 5.960585 13.3102 0.034320 0.000724
4993.75 4993.75 0.500000 5.960174 13.3292 0.034384 0.000767
4994 4994 0.500000 5.959250 13.3344 0.034428 0.000854
4994.25 4994.25 0.500000 5.958324 13.3381 0.034469 0.000721
4994.5 4994.5 0.500000 5.959407 13.344 0.034447 0.000811
4994.75 4994.75 0.500000 5.962874 13.3459 0.034333 0.000727
4995 4995 0.500000 5.962687 13.362 0.034381 0.000902
4995.25 4995.25 0.500000 5.967498 13.3683 0.034231 0.000801
4995.5 4995.5 0.500000 5.972465 13.3721 0.034072 0.000766
4995.75 4995.75 0.500000 5.976977 13.3751 0.033928 0.000815
4996 4996 0.700000 5.983152 18.7271 0.047204 0.001174
4997.09 4997.08 0.710000 6.035161 19.0112 0.045495 0.000862
4998.19 4998.18 0.730000 6.088207 19.5709 0.044413 0.000803
4999.29 4999.29 0.740000 6.133613 19.8593 0.043075 0.000716
5000.44 5000.43 0.750000 6.155489 20.1683 0.042794 0.000706
5001.59 5001.58 0.760000 6.142823 20.4856 0.044026 0.000791
5002.77 5002.76 0.780000 6.099097 21.0742 0.047312 0.000913
5003.96 5003.95 0.790000 6.055835 21.4015 0.050169 0.001013
5005.17 5005.16 0.800000 6.014988 21.7337 0.053078 0.001044
5006.4 5006.39 0.810000 5.970601 22.0678 0.056337 0.001126
5007.65 5007.64 0.830000 5.929789 22.6699 0.060280 0.001342
5008.92 5008.91 0.840000 5.895316 23.0196 0.063364 0.001516
5010.2 5010.2 0.850000 5.854165 23.3532 0.066979 0.001819
5011.52 5011.51 0.860000 5.825563 23.6799 0.069884 0.001911
5012.83 5012.83 0.880000 5.813780 24.2807 0.072504 0.002148
5014.18 5014.18 0.890000 5.810222 24.6045 0.073734 0.002055
5015.54 5015.54 0.900000 5.808278 24.9315 0.074859 0.002170
5016.93 5016.93 0.910000 5.810896 25.2679 0.075671 0.002071
5018.33 5018.33 0.930000 5.807898 25.8833 0.077748 0.002267
5019.75 5019.75 0.940000 5.796938 26.2234 0.079638 0.002344
5021.19 5021.19 0.950000 5.777598 26.5657 0.082252 0.002449
5022.65 5022.65 0.960000 5.757956 26.9078 0.084962 0.002538
5024.14 5024.13 0.980000 5.738854 27.5383 0.088632 0.002856
5025.63 5025.63 0.990000 5.730919 27.8829 0.090456 0.002867
5027.14 5027.14 1.000000 5.727680 28.2293 0.091875 0.002964
5028.68 5028.68 1.010000 5.733777 28.5831 0.092462 0.002718
5030.24 5030.24 1.030000 5.738888 29.2197 0.094041 0.002711
5031.81 5031.81 1.040000 5.741787 29.595 0.094972 0.002753
5033.4 5033.4 1.050000 5.744644 29.961 0.095872 0.002753
5035.01 5035.01 1.060000 5.751891 30.319 0.096317 0.002765
5036.65 5036.65 1.080000 5.766471 30.9923 0.097031 0.002698
5038.3 5038.3 1.090000 5.780573 31.3696 0.096839 0.002536
5039.98 5039.97 1.100000 5.789512 31.7368 0.097099 0.002642
5041.65 5041.65 1.110000 5.788425 32.1054 0.098334 0.002570
5043.37 5043.36 1.130000 5.779704 32.7685 0.101244 0.002808
5045.1 5045.09 1.140000 5.769894 33.1437 0.103414 0.002855
5046.84 5046.83 1.150000 5.759897 33.5181 0.105633 0.003090
5048.61 5048.6 1.160000 5.755332 33.9049 0.107339 0.003196
5050.39 5050.38 1.180000 5.753609 34.6165 0.109782 0.003433
5052.19 5052.18 1.190000 5.753702 35.0031 0.110995 0.003508
5054 5054 1.200000 5.753869 35.4003 0.112237 0.003610
5055.84 5055.84 1.210000 5.754835 35.7948 0.113378 0.003727
5057.7 5057.7 1.230000 5.751723 36.5004 0.115975 0.004014
5059.58 5059.58 1.240000 5.743882 36.8998 0.118166 0.003923
5061.48 5061.48 1.250000 5.730831 37.3045 0.121034 0.004222
5063.41 5063.4 1.260000 5.717947 37.7143 0.123950 0.004417
5065.33 5065.33 1.280000 5.710220 38.4314 0.127285 0.004432
5067.28 5067.29 1.290000 5.703861 38.8536 0.129502 0.004749
5069.26 5069.26 1.300000 5.700214 39.2772 0.131396 0.004749
5071.27 5071.26 1.310000 5.691828 39.7047 0.133953 0.004795
5073.26 5073.27 1.330000 5.676494 40.4339 0.138508 0.005187
5075.3 5075.3 1.340000 5.663302 40.9004 0.141973 0.005144
5077.35 5077.35 1.350000 5.649645 41.3387 0.145462 0.005381
5079.41 5079.42 1.360000 5.639767 41.774 0.148453 0.005295
5081.5 5081.51 1.380000 5.629532 42.5149 0.152638 0.005428
5083.6 5083.61 1.390000 5.617976 42.9476 0.155985 0.005495
5085.73 5085.74 1.400000 5.606893 43.4158 0.159441 0.005473
5087.89 5087.89 1.410000 5.592384 43.8559 0.163414 0.005758
5090.04 5090.05 1.430000 5.581765 44.6497 0.168146 0.005706
5092.22 5092.23 1.440000 5.572158 45.0802 0.171407 0.005828
5094.43 5094.44 1.450000 5.563520 45.5252 0.174600 0.006143
5096.65 5096.66 1.460000 5.558344 45.9676 0.177212 0.006490
5098.9 5098.9 1.480000 5.550328 46.7264 0.181587 0.006869
5101.16 5101.16 1.490000 5.543885 47.1795 0.184538 0.007150
5103.44 5103.44 1.500000 5.532985 47.6346 0.188352 0.007510
5105.73 5105.74 1.510000 5.521725 48.1129 0.192395 0.007762
5108.04 5108.05 1.530000 5.508233 48.908 0.198231 0.008227
5110.39 5110.39 1.540000 5.498345 49.3707 0.202096 0.008550
5112.74 5112.74 1.550000 5.491197 49.835 0.205466 0.008630
5115.12 5115.12 1.560000 5.484348 50.2958 0.208791 0.008902
5117.51 5117.51 1.580000 5.479355 51.0864 0.213132 0.009126
5119.92 5119.92 1.590000 5.475479 51.5998 0.216112 0.009234
5122.35 5122.35 1.600000 5.470386 52.0644 0.219169 0.009505
5124.8 5124.8 1.610000 5.464687 52.5338 0.222410 0.009719
5127.27 5127.27 1.630000 5.460060 53.3418 0.226880 0.009880
5129.76 5129.76 1.640000 5.453291 53.8199 0.230470 0.010348
5132.27 5132.27 1.650000 5.446554 54.2946 0.234071 0.010403
5134.79 5134.79 1.660000 5.439948 54.7664 0.237669 0.010450
5137.34 5137.34 1.680000 5.433767 55.5682 0.242644 0.010767
5139.9 5139.9 1.690000 5.428562 56.0469 0.246012 0.010894
5142.49 5142.49 1.700000 5.422808 56.5811 0.249791 0.011033
5145.09 5145.09 1.710000 5.415861 57.0473 0.253604 0.011100
5147.71 5147.71 1.730000 5.407362 57.8545 0.259385 0.011339
5150.35 5150.35 1.740000 5.397896 58.3297 0.264011 0.011736
5153.01 5153.01 1.750000 5.389953 58.8583 0.268525 0.012330
5155.69 5155.69 1.760000 5.383594 59.3281 0.272391 0.012225
5158.39 5158.39 1.780000 5.375227 60.1303 0.278396 0.012849
5161.11 5161.11 1.790000 5.365147 60.6059 0.283444 0.013274
5163.84 5163.84 1.800000 5.352784 61.1123 0.289365 0.013585
5166.6 5166.6 1.810000 5.338218 61.5703 0.295807 0.014060
5169.37 5169.37 1.830000 5.324146 62.3696 0.303899 0.014761
5172.17 5172.17 1.840000 5.311426 62.8186 0.310004 0.015189
5174.98 5174.98 1.850000 5.298956 63.2666 0.316129 0.015604
5177.81 5177.81 1.860000 5.287203 63.7066 0.322096 0.016107
5180.66 5180.66 1.880000 5.276288 64.4942 0.329654 0.016709
5183.53 5183.53 1.890000 5.267004 64.9545 0.335099 0.017110
5186.42 5186.42 1.900000 5.256647 65.3921 0.340876 0.017484
5189.32 5189.32 1.910000 5.248473 65.8353 0.346001 0.017734
5192.25 5192.25 1.930000 5.238620 66.6692 0.353853 0.018466
5195.2 5195.2 1.940000 5.229479 67.1168 0.359500 0.018816
5198.16 5198.16 1.950000 5.220893 67.5314 0.364837 0.019187
5201.14 5201.14 1.960000 5.212807 67.9629 0.370150 0.019543
5204.15 5204.15 1.980000 5.204492 68.7629 0.377637 0.019763
5207.17 5207.17 1.990000 5.195179 69.2238 0.383719 0.020243
5210.21 5210.21 2.000000 5.184456 69.6758 0.390394 0.020804
5213.27 5213.27 2.010000 5.175261 70.1378 0.396610 0.021139
5216.35 5216.35 2.030000 5.166270 71.103 0.405703 0.021747
5219.45 5219.45 2.040000 5.158599 71.5502 0.411398 0.022174
5222.56 5222.56 2.050000 5.150904 71.9943 0.417145 0.022581
5225.7 5225.7 2.060000 5.142466 72.4261 0.423205 0.023176
5228.85 5228.85 2.080000 5.133769 73.2022 0.431470 0.023773
5232.03 5232.03 2.090000 5.124760 73.6518 0.438057 0.024317
5235.22 5235.22 2.100000 5.114467 74.1233 0.445420 0.025016
5238.43 5238.43 2.110000 5.104410 74.576 0.452670 0.025686
5241.66 5241.66 2.130000 5.092903 75.3957 0.462943 0.026579
5244.92 5244.92 2.140000 5.081170 75.8451 0.471200 0.027134
5248.18 5248.18 2.150000 5.069447 75.8408 0.476727 0.027549
5251.47 5251.47 2.160000 5.058601 76.3851 0.485386 0.028221
5254.78 5254.78 2.180000 5.047615 77.4963 0.497885 0.029606
5258.11 5258.11 2.190000 5.037704 78.1 0.506760 0.030412
5261.45 5261.45 2.200000 5.028442 78.5571 0.514472 0.030804
5264.82 5264.82 2.210000 5.018878 79.0804 0.522877 0.031575
5268.2 5268.2 2.230000 5.008588 79.9694 0.534222 0.032612
5271.6 5271.6 2.240000 4.999170 80.487 0.542771 0.033292
5275.03 5275.03 2.250000 4.989706 81.0996 0.552099 0.034018
5278.47 5278.47 2.260000 4.980741 80.7364 0.554576 0.034345
5281.93 5281.93 2.280000 4.971405 82.4288 0.571514 0.035293
5285.4 5285.4 2.290000 4.961262 83.0803 0.581899 0.035890
5288.9 5288.9 2.300000 4.950372 83.6623 0.592395 0.037089
5292.42 5292.42 2.310000 4.939561 84.19 0.602609 0.038019
5295.96 5295.96 2.330000 4.929028 85.1081 0.615632 0.038938
5299.51 5299.51 2.340000 4.918562 85.6344 0.625955 0.039872
5303.09 5303.09 2.350000 4.907855 86.1367 0.636406 0.041017
5306.68 5306.68 2.360000 4.897021 86.6293 0.647017 0.041586
5310.29 5310.29 2.380000 4.885882 87.4313 0.660319 0.042815
5313.92 5313.92 2.390000 4.874879 87.9139 0.671314 0.043759
5317.57 5317.57 2.400000 4.863780 88.4566 0.682995 0.044588
5321.24 5321.24 2.410000 4.852295 88.9807 0.694977 0.045866
5324.93 5324.93 2.430000 4.840721 89.8757 0.710142 0.047287
5328.64 5328.64 2.440000 4.829543 90.3646 0.722029 0.048495
5332.36 5332.36 2.450000 4.817675 90.7559 0.733815 0.049616
5336.11 5336.11 2.460000 4.805824 91.2423 0.746540 0.051017
5339.87 5339.87 2.480000 4.795071 92.2956 0.763321 0.052440
5343.66 5343.66 2.490000 4.783787 92.8687 0.776777 0.053724
5347.46 5347.46 2.500000 4.774031 93.3819 0.788727 0.055075
5351.28 5351.28 2.510000 4.764188 93.8263 0.800317 0.056201
5355.12 5355.12 2.530000 4.752322 94.6748 0.817192 0.057611
5358.98 5358.98 2.540000 4.741701 95.2392 0.830843 0.058791
5362.86 5362.86 2.550000 4.733019 96.5445 0.849576 0.060383
5366.76 5366.76 2.560000 4.722532 97.1831 0.864210 0.061911
5370.68 5370.68 2.580000 4.712826 98.1719 0.881520 0.063095
5374.61 5374.61 2.590000 4.702320 98.8322 0.896823 0.064812
5378.57 5378.57 2.600000 4.692320 99.5369 0.912288 0.066310
5382.54 5382.54 2.610000 4.682344 100.249 0.928028 0.067662
5386.54 5386.54 2.630000 4.671585 101.359 0.948454 0.069602
5390.55 5390.55 2.640000 4.660439 102.079 0.965909 0.071455
5394.58 5394.58 2.650000 4.649567 102.802 0.983381 0.073196
5398.63 5398.63 2.660000 4.638465 103.334 0.999501 0.075009
5402.7 5402.7 2.680000 4.627128 104.504 1.022337 0.076993
5406.79 5406.79 2.690000 4.616281 105.144 1.039815 0.078728
5410.9 5410.9 2.700000 4.605515 105.834 1.057965 0.080546
5415.02 5415.02 2.710000 4.594394 106.71 1.078654 0.082849
5419.17 5419.17 2.730000 4.583026 107.531 1.099385 0.084988
5423.33 5423.33 2.740000 4.571466 108.424 1.121414 0.087263
5427.52 5427.52 2.750000 4.560223 109.113 1.141287 0.089196
5431.72 5431.72 2.760000 4.548993 109.834 1.161811 0.091650
5435.94 5435.94 2.780000 4.538147 111.02 1.187154 0.094085
5440.18 5440.18 2.790000 4.526319 111.714 1.208789 0.096663
5444.44 5444.44 2.800000 4.515469 112.42 1.229697 0.098635
5448.72 5448.72 2.810000 4.504579 113.109 1.250783 0.101104
5453.02 5453.02 2.830000 4.494009 114.167 1.275896 0.103578
5457.34 5457.34 2.840000 4.482925 114.827 1.297569 0.105958
5461.67 5461.67 2.850000 4.471699 115.558 1.320581 0.108791
5466.03 5466.03 2.860000 4.460581 116.16 1.342301 0.110884
5470.4 5470.4 2.880000 4.450174 117.184 1.368295 0.113567
5474.8 5474.8 2.890000 4.438944 117.755 1.390486 0.116211
5479.21 5479.21 2.900000 4.428189 118.337 1.412477 0.118693
5483.64 5483.64 2.910000 4.417593 118.828 1.433451 0.121098
5488.09 5488.09 2.930000 4.406796 119.696 1.459583 0.123712
5492.56 5492.56 2.940000 4.395659 120.179 1.481889 0.126428
5497.05 5497.05 2.950000 4.383645 120.702 1.506313 0.129477
5501.56 5501.56 2.960000 4.372496 121.042 1.527508 0.132020
5506.08 5506.08 2.980000 4.361219 121.707 1.553334 0.134810
5510.63 5510.63 2.990000 4.349807 121.972 1.574563 0.137618
5515.19 5515.19 3.000000 4.338572 122.253 1.596015 0.140334
5519.78 5519.78 3.010000 4.327141 122.473 1.617269 0.143064
5524.38 5524.38 3.030000 4.315760 122.97 1.642427 0.146052
5529 5529 3.040000 4.304508 123.098 1.662738 0.148863
5533.64 5533.64 3.050000 4.293187 123.133 1.682149 0.151087
5538.3 5538.3 3.060000 4.281696 123.174 1.702155 0.154365
5542.98 5542.98 3.080000 4.270411 123.543 1.726638 0.157308
5547.68 5547.68 3.090000 4.259210 123.452 1.744803 0.159763
5552.4 5552.4 3.100000 4.247704 123.403 1.764284 0.162484
5557.13 5557.13 3.110000 4.236230 123.329 1.783583 0.165204
5561.89 5561.89 3.130000 4.224815 123.669 1.809032 0.168516
5566.66 5566.66 3.140000 4.213256 123.68 1.830217 0.171489
5571.46 5571.46 3.150000 4.202034 123.638 1.850247 0.174302
5576.27 5576.27 3.160000 4.190765 123.585 1.870417 0.177162
5581.1 5581.1 3.180000 4.179378 123.869 1.896203 0.181064
5585.95 5585.95 3.190000 4.167812 123.849 1.917933 0.184335
5590.82 5590.82 3.200000 4.156328 123.935 1.941432 0.187652
5595.71 5595.71 3.210000 4.144963 123.894 1.962970 0.190429
5600.62 5600.62 3.230000 4.133443 124.414 1.994045 0.194891
5605.54 5605.54 3.240000 4.122081 124.457 2.017529 0.198039
5610.49 5610.49 3.250000 4.110750 124.478 2.040871 0.201791
5615.45 5615.45 3.260000 4.098757 124.568 2.066981 0.205259
5620.44 5620.44 3.280000 4.087366 125.036 2.098503 0.209794
5625.44 5625.44 3.290000 4.075726 124.666 2.116801 0.213041
5630.46 5630.46 3.300000 4.064082 124.792 2.143764 0.217015
5635.5 5635.5 3.310000 4.052120 124.899 2.171434 0.221145
5640.56 5640.56 3.330000 4.042262 125.516 2.203781 0.225708
5645.64 5645.64 3.340000 4.030131 125.768 2.235138 0.230461
5650.74 5650.74 3.350000 4.018222 126.267 2.270898 0.235577
5655.86 5655.86 3.360000 4.006548 126.965 2.310259 0.241059
5660.99 5660.99 3.380000 3.995349 127.969 2.354762 0.247251
5666.15 5666.15 3.390000 3.983583 128.673 2.395751 0.252712
5671.32 5671.32 3.400000 3.972103 129.267 2.434582 0.258383
5676.52 5676.52 3.410000 3.960775 130.053 2.477290 0.264649
5681.73 5681.73 3.430000 3.949256 131.255 2.529163 0.271846
5686.96 5686.96 3.440000 3.937496 131.974 2.573099 0.278458
5692.21 5692.21 3.450000 3.926036 132.669 2.616454 0.284436
5697.48 5697.48 3.460000 3.914894 133.297 2.658293 0.290806
5702.77 5702.77 3.480000 3.903630 134.392 2.710488 0.298388
5708.08 5708.08 3.490000 3.892122 135.098 2.756284 0.305464
5713.4 5713.4 3.500000 3.880250 135.87 2.805158 0.312538
5718.75 5718.75 3.510000 3.868590 136.619 2.853684 0.320139
5724.12 5724.12 3.530000 3.857168 137.733 2.910022 0.328221
5729.5 5729.5 3.540000 3.845499 138.441 2.959293 0.335832
5734.9 5734.9 3.550000 3.833859 139.097 3.008141 0.343380
5740.32 5740.32 3.560000 3.822205 139.766 3.058045 0.351306
5745.77 5745.77 3.580000 3.810288 140.835 3.118376 0.360580
5751.23 5751.23 3.590000 3.798721 141.552 3.170695 0.368699
5756.7 5756.7 3.600000 3.787142 142.302 3.224646 0.377274
5762.2 5762.2 3.610000 3.775369 142.841 3.275180 0.385661
5767.72 5767.72 3.630000 3.763541 143.792 3.336191 0.395478
5773.26 5773.26 3.640000 3.752137 144.364 3.387906 0.403606
5778.81 5778.81 3.650000 3.740301 144.932 3.441726 0.412797
5784.39 5784.39 3.660000 3.728437 145.407 3.494219 0.421960
5789.98 5789.98 3.680000 3.716614 146.448 3.561075 0.432327
5795.59 5795.59 3.690000 3.704857 146.972 3.616092 0.441775
5801.22 5801.22 3.700000 3.693161 147.603 3.674317 0.451416
5806.87 5806.87 3.710000 3.681458 148.203 3.732688 0.461340
5812.54 5812.54 3.730000 3.670084 149.219 3.801259 0.472517
5818.23 5818.23 3.740000 3.658559 149.702 3.857788 0.482552