File: xdidata/Data/Ti/Ti-K-Anatase.xdi
# XDI/1.0 BlueSky/1.5.0
# Beamline.name: 6BM
# Beamline.xray_source: NSLS-II three-pole wiggler
# Beamline.collimation: paraboloid mirror, 5 nm Rh on 30 nm Pt
# Beamline.focusing: not in use
# Beamline.harmonic_rejection: flat mirror, Si stripe, pitch = 7.0 mrad relative to beam
# Detector.i0: 10 cm N2
# Detector.i1: 25 cm N2
# Detector.i2: 25 cm N2
# Element.symbol: Ti
# Element.edge: K
# Facility.name: NSLS-II
# Facility.energy: 3.0
# Facility.current: 219.5
# Facility.mode: top-off
# Facility.gup: 301027
# Facility.saf: 304156
# Mono.name: Si(111)
# Mono.d_spacing: 3.13526
# Mono.encoder_resolution: 0.0000050 deg/ct
# Mono.angle_offset: 16.0571 deg
# Mono.scan_mode: pseudo channel cut
# Mono.scan_type: step
# Mono.direction: forward in energy
# Sample.name: TiO2 anatase
# Sample.prep: Powder in polyethylene glycol pellet
# Sample.x_position: -97.532 mm
# Sample.y_position: 117.543 mm
# Sample.wheel_position: -420.000 mm
# Scan.experimenters: Bruce Ravel, Martin Stennett
# Scan.edge_energy: 4966.0
# Scan.start_time: 2019-05-29T19:00:19
# Scan.end_time: 2019-05-29T19:43:36
# Scan.transient_id: 9752
# Scan.uid: f32ba38a-0473-4f12-8442-7691134ab519
# Scan.plot_hint: ln(I0/It)  --  ln($5/$6)
# Scan.sequence: merge of 3 scans
# Column.1: energy eV
# Column.2: requested_energy eV
# Column.3: measurement_time seconds
# Column.4: mutrans
# Column.5: i0
# Column.6: itrans
# Column.7: irefer
# /////
#  sample disk prepared by Martin
# -----
# energy   requested_energy   measurement_time   mutrans   i0   itrans   irefer
4765.99 4766 0.500000 3.603884 10.8222 0.294585 0.024139
4776.01 4776 0.500000 3.583998 11.0342 0.306358 0.025275
4786.01 4786 0.500000 3.557324 11.3113 0.322539 0.026842
4796.01 4796 0.500000 3.530579 11.5618 0.338622 0.028565
4806.01 4806 0.500000 3.504507 11.8237 0.355436 0.030225
4816 4816 0.500000 3.478077 12.074 0.372682 0.032238
4826 4826 0.500000 3.452964 12.3285 0.390215 0.034006
4836 4836 0.500000 3.427149 12.5808 0.408611 0.036127
4846 4846 0.500000 3.401364 12.833 0.427688 0.038100
4856 4856 0.500000 3.376981 13.0854 0.446867 0.040350
4866 4866 0.500000 3.351425 13.3304 0.467021 0.042677
4876 4876 0.500000 3.327005 13.5732 0.487283 0.045104
4886 4886 0.500000 3.302953 13.8147 0.508025 0.047602
4896 4896 0.500000 3.278318 14.0558 0.529782 0.050185
4906 4906 0.500000 3.253821 14.3019 0.552425 0.053143
4916 4916 0.500000 3.230773 14.5445 0.574896 0.055826
4926 4926 0.500000 3.207798 14.7801 0.597787 0.058719
4936 4936 0.500000 3.184384 15.0138 0.621626 0.061702
4938 4938 0.500000 3.179523 15.0827 0.627522 0.062812
4939.99 4940 0.500000 3.175507 15.1331 0.632154 0.063172
4941.99 4942 0.500000 3.171524 15.1754 0.636450 0.063667
4943.99 4944 0.500000 3.166854 15.2156 0.641122 0.064276
4946.01 4946 0.500000 3.162234 15.2546 0.645744 0.064967
4948 4948 0.500000 3.157624 15.289 0.650185 0.065708
4950 4950 0.500000 3.153598 15.3305 0.654585 0.066287
4952.01 4952 0.500000 3.148883 15.3693 0.659346 0.066763
4954.01 4954 0.500000 3.145798 15.4049 0.662914 0.067074
4956.01 4956 0.500000 3.141734 15.4755 0.668663 0.067750
4956.25 4956.25 0.500000 3.141355 15.4806 0.669137 0.067751
4956.49 4956.5 0.500000 3.140621 15.4837 0.669757 0.068117
4956.74 4956.75 0.500000 3.139998 15.4862 0.670283 0.067841
4956.99 4957 0.500000 3.139182 15.4895 0.670972 0.068057
4957.24 4957.25 0.500000 3.139089 15.4922 0.671156 0.067938
4957.49 4957.5 0.500000 3.139257 15.4988 0.671329 0.068235
4957.74 4957.75 0.500000 3.137998 15.4994 0.672201 0.068422
4957.99 4958 0.500000 3.137386 15.5049 0.672852 0.068271
4958.24 4958.25 0.500000 3.137170 15.5113 0.673273 0.068473
4958.49 4958.5 0.500000 3.136666 15.5146 0.673755 0.068330
4958.74 4958.75 0.500000 3.137055 15.5189 0.673681 0.068395
4959 4959 0.500000 3.136241 15.5247 0.674478 0.068400
4959.24 4959.25 0.500000 3.135612 15.5269 0.674999 0.068465
4959.5 4959.5 0.500000 3.135134 15.5322 0.675554 0.068516
4959.74 4959.75 0.500000 3.134889 15.5375 0.675951 0.068787
4960 4960 0.500000 3.134652 15.5411 0.676269 0.068277
4960.25 4960.25 0.500000 3.134072 15.5431 0.676746 0.068608
4960.5 4960.5 0.500000 3.134248 15.5495 0.676905 0.068741
4960.75 4960.75 0.500000 3.133667 15.5541 0.677500 0.068459
4961 4961 0.500000 3.133154 15.5589 0.678057 0.068702
4961.24 4961.25 0.500000 3.132571 15.5627 0.678615 0.068929
4961.49 4961.5 0.500000 3.132391 15.568 0.678972 0.068599
4961.75 4961.75 0.500000 3.132358 15.5724 0.679184 0.068316
4962 4962 0.500000 3.131957 15.5784 0.679720 0.068495
4962.25 4962.25 0.500000 3.131950 15.5849 0.680011 0.068377
4962.5 4962.5 0.500000 3.131231 15.5895 0.680699 0.068382
4962.75 4962.75 0.500000 3.131546 15.5947 0.680711 0.068027
4963 4963 0.500000 3.131311 15.6 0.681101 0.067826
4963.25 4963.25 0.500000 3.131075 15.603 0.681392 0.067373
4963.5 4963.5 0.500000 3.131330 15.6081 0.681443 0.066870
4963.75 4963.75 0.500000 3.131273 15.614 0.681741 0.066268
4964 4964 0.500000 3.131063 15.6194 0.682115 0.065095
4964.25 4964.25 0.500000 3.131275 15.6243 0.682189 0.063297
4964.5 4964.5 0.500000 3.131794 15.627 0.681948 0.060188
4964.75 4964.75 0.500000 3.132361 15.6301 0.681703 0.056075
4965 4965 0.500000 3.133251 15.6353 0.681322 0.051593
4965.25 4965.25 0.500000 3.134183 15.6384 0.680815 0.048276
4965.5 4965.5 0.500000 3.135776 15.6427 0.679929 0.046750
4965.75 4965.75 0.500000 3.137641 15.6451 0.678756 0.046692
4966 4966 0.500000 3.141262 15.6501 0.676532 0.047761
4966.25 4966.25 0.500000 3.147133 15.6539 0.672673 0.049264
4966.5 4966.5 0.500000 3.156449 15.6555 0.666542 0.050223
4966.75 4966.75 0.500000 3.173156 15.6604 0.655765 0.050732
4967 4967 0.500000 3.199338 15.6596 0.638669 0.050143
4967.25 4967.25 0.500000 3.227354 15.6647 0.621410 0.049178
4967.5 4967.5 0.500000 3.240994 15.6674 0.613018 0.048392
4967.75 4967.75 0.500000 3.229862 15.673 0.620127 0.048522
4968 4968 0.500000 3.206647 15.6781 0.634842 0.048633
4968.25 4968.25 0.500000 3.191319 15.6843 0.644886 0.048947
4968.5 4968.5 0.500000 3.190697 15.6872 0.645418 0.048199
4968.75 4968.75 0.500000 3.203782 15.69 0.637167 0.046358
4969 4969 0.500000 3.224320 15.6909 0.624277 0.045017
4969.25 4969.25 0.500000 3.243294 15.6907 0.612565 0.043666
4969.5 4969.5 0.500000 3.256305 15.6932 0.604677 0.042560
4969.75 4969.75 0.500000 3.269222 15.6915 0.596810 0.041786
4970 4970 0.500000 3.287462 15.6966 0.586214 0.040913
4970.25 4970.25 0.500000 3.305328 15.7025 0.576073 0.040017
4970.5 4970.5 0.500000 3.316143 15.717 0.570413 0.039322
4970.75 4970.75 0.500000 3.314034 15.7261 0.571936 0.039435
4971 4971 0.500000 3.300701 15.7366 0.579988 0.039622
4971.25 4971.25 0.500000 3.284558 15.7443 0.589697 0.039981
4971.5 4971.5 0.500000 3.271393 15.7491 0.597724 0.039900
4971.75 4971.75 0.500000 3.265768 15.7541 0.601277 0.039599
4972 4972 0.500000 3.270602 15.759 0.598555 0.038725
4972.25 4972.25 0.500000 3.281857 15.7637 0.592050 0.037667
4972.5 4972.5 0.500000 3.295446 15.7678 0.584231 0.036175
4972.75 4972.75 0.500000 3.303976 15.7704 0.579351 0.035306
4973 4973 0.500000 3.306319 15.773 0.578092 0.034306
4973.25 4973.25 0.500000 3.301308 15.7749 0.581045 0.033858
4973.5 4973.5 0.500000 3.292184 15.7777 0.586504 0.033615
4973.75 4973.75 0.500000 3.282119 15.7819 0.592597 0.032915
4974 4974 0.500000 3.270359 15.7825 0.599613 0.032926
4974.25 4974.25 0.500000 3.260941 15.785 0.605364 0.032737
4974.5 4974.5 0.500000 3.253963 15.7886 0.609777 0.032531
4974.76 4974.75 0.500000 3.250790 15.7895 0.611742 0.031876
4975 4975 0.500000 3.251231 15.7887 0.611439 0.031185
4975.25 4975.25 0.500000 3.256101 15.7893 0.608501 0.030331
4975.5 4975.5 0.500000 3.264448 15.7896 0.603427 0.029362
4975.75 4975.75 0.500000 3.276335 15.7907 0.596436 0.028966
4976 4976 0.500000 3.292091 15.7921 0.587124 0.027941
4976.25 4976.25 0.500000 3.309169 15.7982 0.577246 0.027091
4976.5 4976.5 0.500000 3.329266 15.7965 0.565885 0.025919
4976.75 4976.75 0.500000 3.350931 15.8118 0.554166 0.025411
4977 4977 0.500000 3.374821 15.8193 0.541561 0.024480
4977.25 4977.25 0.500000 3.399482 15.8224 0.528342 0.023641
4977.5 4977.5 0.500000 3.424511 15.823 0.515390 0.022617
4977.75 4977.75 0.500000 3.451426 15.8252 0.501746 0.021952
4978 4978 0.500000 3.478149 15.829 0.488495 0.021327
4978.25 4978.25 0.500000 3.503558 15.8316 0.476428 0.020652
4978.5 4978.5 0.500000 3.525690 15.8335 0.466022 0.020257
4978.75 4978.75 0.500000 3.542553 15.8347 0.458270 0.019786
4979 4979 0.500000 3.553301 15.8365 0.453408 0.019465
4979.25 4979.25 0.500000 3.559626 15.8351 0.450492 0.019211
4979.5 4979.5 0.500000 3.565776 15.8328 0.447671 0.018987
4979.75 4979.75 0.500000 3.575130 15.8287 0.443390 0.018941
4980 4980 0.500000 3.590074 15.825 0.436731 0.018565
4980.25 4980.25 0.500000 3.615221 15.8222 0.425699 0.018186
4980.5 4980.5 0.500000 3.649978 15.8209 0.411166 0.017449
4980.75 4980.75 0.500000 3.697469 15.8163 0.392189 0.016751
4981 4981 0.500000 3.754654 15.8171 0.370118 0.015849
4981.25 4981.25 0.500000 3.816127 15.8162 0.348352 0.014928
4981.5 4981.5 0.500000 3.876230 15.8139 0.327764 0.014285
4981.75 4981.75 0.500000 3.934383 15.8167 0.309351 0.013421
4982 4982 0.500000 3.988712 15.8468 0.293587 0.012756
4982.25 4982.25 0.500000 4.040592 15.8579 0.278900 0.012523
4982.5 4982.5 0.500000 4.094206 15.8595 0.264406 0.011551
4982.75 4982.75 0.500000 4.152756 15.8621 0.249228 0.011209
4983 4983 0.500000 4.219754 15.8634 0.233301 0.010562
4983.25 4983.25 0.500000 4.291509 15.8618 0.217026 0.010014
4983.5 4983.5 0.500000 4.362175 15.8624 0.202381 0.009552
4983.75 4983.75 0.500000 4.432984 15.8589 0.188332 0.008826
4984 4984 0.500000 4.501814 15.8563 0.175851 0.008433
4984.25 4984.25 0.500000 4.565791 15.8541 0.164891 0.008172
4984.5 4984.5 0.500000 4.622030 15.8569 0.155935 0.007826
4984.75 4984.75 0.500000 4.673286 15.8895 0.148407 0.007548
4985 4985 0.500000 4.720483 15.8921 0.141583 0.007186
4985.25 4985.25 0.500000 4.754135 15.8932 0.136949 0.007188
4985.5 4985.5 0.500000 4.774147 15.8931 0.134221 0.007176
4985.75 4985.75 0.500000 4.779049 15.8954 0.133585 0.006952
4986.01 4986 0.500000 4.766883 15.8945 0.135237 0.007210
4986.25 4986.25 0.500000 4.744554 15.8947 0.138259 0.007420
4986.5 4986.5 0.500000 4.713584 15.8908 0.142620 0.007534
4986.75 4986.75 0.500000 4.681404 15.8881 0.147238 0.007790
4987 4987 0.500000 4.650622 15.8852 0.151781 0.007973
4987.25 4987.25 0.500000 4.628579 15.8848 0.155182 0.008078
4987.5 4987.5 0.500000 4.609010 15.8835 0.158228 0.008212
4987.75 4987.75 0.500000 4.597039 15.8818 0.160115 0.008228
4988 4988 0.500000 4.582770 15.8866 0.162459 0.008493
4988.25 4988.25 0.500000 4.570204 15.8908 0.164568 0.008350
4988.5 4988.5 0.500000 4.559221 15.9 0.166470 0.008589
4988.75 4988.75 0.500000 4.550516 15.9099 0.168036 0.008576
4989 4989 0.500000 4.544144 15.923 0.169243 0.008690
4989.25 4989.25 0.500000 4.536432 15.932 0.170658 0.008822
4989.5 4989.5 0.500000 4.531130 15.9458 0.171716 0.008870
4989.75 4989.75 0.500000 4.524195 15.9573 0.173026 0.009052
4990 4990 0.500000 4.517110 15.971 0.174410 0.008866
4990.25 4990.25 0.500000 4.508488 15.9835 0.176065 0.008967
4990.5 4990.5 0.500000 4.500477 15.9957 0.177614 0.008675
4990.75 4990.75 0.500000 4.491410 16.0086 0.179373 0.009038
4991 4991 0.500000 4.481859 16.0219 0.181249 0.009095
4991.25 4991.25 0.500000 4.474541 16.0312 0.182683 0.009298
4991.5 4991.5 0.500000 4.470939 16.0434 0.183474 0.009343
4991.75 4991.75 0.500000 4.470426 16.0496 0.183646 0.009465
4992 4992 0.500000 4.473729 16.062 0.183184 0.009424
4992.25 4992.25 0.500000 4.480253 16.0668 0.182044 0.009283
4992.5 4992.5 0.500000 4.490216 16.0769 0.180360 0.009123
4992.75 4992.75 0.500000 4.502304 16.0831 0.178246 0.009054
4993 4993 0.500000 4.517209 16.0895 0.175685 0.009166
4993.25 4993.25 0.500000 4.530201 16.0945 0.173491 0.009018
4993.5 4993.5 0.500000 4.542604 16.0996 0.171384 0.008806
4993.75 4993.75 0.500000 4.549453 16.1036 0.170265 0.008805
4994.01 4994 0.500000 4.555091 16.1085 0.169359 0.008746
4994.25 4994.25 0.500000 4.554206 16.1141 0.169565 0.008851
4994.5 4994.5 0.500000 4.551480 16.1185 0.170079 0.008870
4994.75 4994.75 0.500000 4.548345 16.1216 0.170642 0.008727
4995 4995 0.500000 4.545347 16.124 0.171182 0.008654
4995.25 4995.25 0.500000 4.543068 16.1311 0.171645 0.008922
4995.5 4995.5 0.500000 4.545802 16.1335 0.171209 0.008562
4995.75 4995.75 0.500000 4.549217 16.1457 0.170746 0.008548
4996 4996 0.700000 4.552123 22.5534 0.237825 0.012120
4997.09 4997.08 0.710000 4.587419 22.9331 0.233437 0.011602
4998.19 4998.18 0.730000 4.616378 23.5814 0.233188 0.011472
4999.3 4999.29 0.740000 4.613683 23.9213 0.237187 0.011403
5000.43 5000.43 0.750000 4.610486 24.2798 0.241510 0.011688
5001.59 5001.58 0.760000 4.624504 24.6521 0.241803 0.011889
5002.77 5002.76 0.780000 4.614255 25.3568 0.251284 0.012234
5003.96 5003.95 0.790000 4.557360 25.7413 0.270026 0.012966
5005.17 5005.16 0.800000 4.475624 26.1296 0.297463 0.014512
5006.4 5006.39 0.810000 4.397583 26.5206 0.326377 0.015370
5007.65 5007.64 0.830000 4.330621 27.2435 0.358503 0.017386
5008.92 5008.91 0.840000 4.272783 27.6277 0.385226 0.018446
5010.21 5010.2 0.850000 4.203801 28.0171 0.418546 0.020386
5011.51 5011.51 0.860000 4.145098 28.4058 0.449982 0.021995
5012.84 5012.83 0.880000 4.113956 29.1184 0.475889 0.022940
5014.19 5014.18 0.890000 4.105593 29.4985 0.486142 0.023483
5015.55 5015.54 0.900000 4.107652 29.8781 0.491385 0.024507
5016.94 5016.93 0.910000 4.107115 30.2695 0.498099 0.024741
5018.34 5018.33 0.930000 4.099274 30.9888 0.513945 0.025575
5019.76 5019.75 0.940000 4.086015 31.3858 0.527482 0.026417
5021.19 5021.19 0.950000 4.074443 31.7821 0.540341 0.027351
5022.66 5022.65 0.960000 4.070378 32.1814 0.549365 0.027909
5024.14 5024.13 0.980000 4.074442 32.9194 0.559677 0.028291
5025.64 5025.63 0.990000 4.081853 33.3179 0.562274 0.028629
5027.15 5027.14 1.000000 4.091081 33.7124 0.563709 0.028309
5028.69 5028.68 1.010000 4.097320 34.1875 0.568105 0.028620
5030.25 5030.24 1.030000 4.099494 34.9228 0.579059 0.028731
5031.81 5031.81 1.040000 4.100750 35.3255 0.585001 0.028566
5033.4 5033.4 1.050000 4.101332 35.7283 0.591327 0.028230
5035.02 5035.01 1.060000 4.097489 36.1277 0.600242 0.028446
5036.66 5036.65 1.080000 4.092838 36.8742 0.615496 0.028668
5038.31 5038.3 1.090000 4.094662 37.2915 0.621317 0.028600
5039.98 5039.97 1.100000 4.106247 37.6932 0.620791 0.028687
5041.65 5041.65 1.110000 4.123254 38.0934 0.616794 0.028704
5043.36 5043.36 1.130000 4.133342 38.8443 0.622645 0.029126
5045.09 5045.09 1.140000 4.133739 39.2571 0.629013 0.029754
5046.83 5046.83 1.150000 4.132842 39.6654 0.636124 0.030885
5048.59 5048.6 1.160000 4.135842 40.0746 0.640767 0.031386
5050.38 5050.38 1.180000 4.136212 40.8384 0.652733 0.032862
5052.18 5052.18 1.190000 4.138984 41.3405 0.658932 0.033697
5054 5054 1.200000 4.148444 41.7758 0.659596 0.034396
5055.84 5055.84 1.210000 4.164020 42.2014 0.656018 0.034778
5057.7 5057.7 1.230000 4.177356 42.9912 0.659441 0.035219
5059.58 5059.58 1.240000 4.184744 43.43 0.661272 0.035094
5061.48 5061.48 1.250000 4.183686 43.8568 0.668478 0.035729
5063.4 5063.4 1.260000 4.176111 44.2928 0.680270 0.036363
5065.33 5065.33 1.280000 4.162904 45.1263 0.702280 0.037888
5067.29 5067.29 1.290000 4.146883 45.64 0.721735 0.038900
5069.26 5069.26 1.300000 4.128763 46.0817 0.742052 0.040354
5071.26 5071.26 1.310000 4.111468 46.5273 0.762303 0.041619
5073.27 5073.27 1.330000 4.097370 47.338 0.786590 0.042626
5075.3 5075.3 1.340000 4.087664 47.7829 0.801724 0.043276
5077.35 5077.35 1.350000 4.080135 48.2406 0.815525 0.044030
5079.42 5079.42 1.360000 4.073126 48.7 0.829069 0.043873
5081.51 5081.51 1.380000 4.064815 49.5105 0.849907 0.044552
5083.61 5083.61 1.390000 4.051601 49.967 0.869166 0.044621
5085.74 5085.74 1.400000 4.031735 50.4173 0.894578 0.045403
5087.89 5087.89 1.410000 4.006692 50.874 0.925584 0.046104
5090.05 5090.05 1.430000 3.981879 51.702 0.964257 0.047673
5092.23 5092.23 1.440000 3.963342 52.1727 0.991269 0.048617
5094.44 5094.44 1.450000 3.950208 52.6374 1.013295 0.050512
5096.66 5096.66 1.460000 3.942438 53.0922 1.030026 0.052549
5098.9 5098.9 1.480000 3.939122 53.9151 1.049473 0.054579
5101.15 5101.16 1.490000 3.937458 54.3708 1.060103 0.057480
5103.44 5103.44 1.500000 3.934763 54.8359 1.072059 0.058925
5105.74 5105.74 1.510000 3.924727 55.3054 1.092144 0.060810
5108.05 5108.05 1.530000 3.911194 56.1366 1.123666 0.062458
5110.39 5110.39 1.540000 3.900961 56.6163 1.144916 0.063984
5112.74 5112.74 1.550000 3.895294 57.0976 1.161214 0.064788
5115.12 5115.12 1.560000 3.889596 57.575 1.177623 0.065904
5117.51 5117.51 1.580000 3.884963 58.4306 1.200663 0.067457
5119.92 5119.92 1.590000 3.883009 58.9322 1.213340 0.067977
5122.35 5122.35 1.600000 3.883337 59.433 1.223250 0.069029
5124.8 5124.8 1.610000 3.884252 59.9337 1.232430 0.069785
5127.27 5127.27 1.630000 3.885712 60.8179 1.248783 0.071403
5129.76 5129.76 1.640000 3.888980 61.3371 1.255336 0.072109
5132.27 5132.27 1.650000 3.895605 61.8589 1.257658 0.072273
5134.79 5134.79 1.660000 3.902511 62.3843 1.259613 0.072638
5137.34 5137.34 1.680000 3.908550 63.2879 1.270161 0.073108
5139.9 5139.9 1.690000 3.912156 63.8184 1.276198 0.072995
5142.49 5142.49 1.700000 3.909608 64.3521 1.290162 0.073400
5145.09 5145.09 1.710000 3.900828 64.8826 1.312259 0.074305
5147.71 5147.71 1.730000 3.886106 65.7973 1.350515 0.076026
5150.35 5150.35 1.740000 3.870494 66.3411 1.383075 0.077740
5153.01 5153.01 1.750000 3.855508 66.8885 1.415558 0.079900
5155.69 5155.69 1.760000 3.839243 67.5235 1.452431 0.082929
5158.39 5158.39 1.780000 3.821294 68.543 1.501056 0.086202
5161.11 5161.11 1.790000 3.803725 69.0902 1.539864 0.089457
5163.84 5163.84 1.800000 3.791379 69.6561 1.571757 0.091949
5166.6 5166.6 1.810000 3.783592 70.2246 1.596973 0.093978
5169.37 5169.37 1.830000 3.776243 71.1693 1.630389 0.096751
5172.17 5172.17 1.840000 3.768228 71.7289 1.656437 0.099255
5174.98 5174.98 1.850000 3.759772 72.2838 1.683431 0.102546
5177.81 5177.81 1.860000 3.751408 72.8983 1.711991 0.104805
5180.66 5180.66 1.880000 3.745848 73.9726 1.746917 0.107541
5183.53 5183.53 1.890000 3.743027 74.5709 1.766020 0.109305
5186.42 5186.42 1.900000 3.741101 75.1322 1.782744 0.110446
5189.32 5189.32 1.910000 3.736220 75.7086 1.805205 0.112319
5192.25 5192.25 1.930000 3.728129 76.6671 1.842914 0.115016
5195.2 5195.2 1.940000 3.720072 77.2193 1.871204 0.116950
5198.16 5198.16 1.950000 3.712684 77.7486 1.898005 0.118827
5201.14 5201.14 1.960000 3.701852 78.5201 1.937697 0.120772
5204.15 5204.15 1.980000 3.687820 79.5105 1.989860 0.124531
5207.17 5207.17 1.990000 3.676449 80.1094 2.027785 0.126755
5210.21 5210.21 2.000000 3.669086 80.7009 2.057859 0.128604
5213.27 5213.27 2.010000 3.662999 81.2976 2.085725 0.130509
5216.35 5216.35 2.030000 3.655003 82.2997 2.128404 0.133839
5219.45 5219.45 2.040000 3.644097 82.8884 2.167111 0.137218
5222.56 5222.56 2.050000 3.633549 83.4989 2.206230 0.140008
5225.7 5225.7 2.060000 3.625392 84.0741 2.239621 0.143063
5228.85 5228.85 2.080000 3.618360 85.0602 2.281874 0.146383
5232.03 5232.03 2.090000 3.610254 85.6499 2.316399 0.149273
5235.22 5235.22 2.100000 3.602651 86.2732 2.351065 0.152453
5238.43 5238.43 2.110000 3.596348 86.9232 2.383761 0.155745
5241.66 5241.66 2.130000 3.589821 87.9134 2.426701 0.159575
5244.92 5244.92 2.140000 3.584066 88.5011 2.457022 0.162831
5248.18 5248.18 2.150000 3.579771 88.6335 2.471285 0.165292
5251.47 5251.47 2.160000 3.576360 89.3708 2.500361 0.168346
5254.78 5254.78 2.180000 3.571240 90.8122 2.553729 0.173110
5258.11 5258.11 2.190000 3.564226 91.6134 2.594396 0.176789
5261.45 5261.45 2.200000 3.557784 92.3043 2.630840 0.180254
5264.82 5264.82 2.210000 3.551358 93.0363 2.668813 0.183717
5268.2 5268.2 2.230000 3.544452 94.2362 2.721965 0.187744
5271.6 5271.6 2.240000 3.536720 94.9456 2.763751 0.191414
5275.03 5275.03 2.250000 3.528347 95.7941 2.811879 0.194947
5278.47 5278.47 2.260000 3.519767 95.289 2.821164 0.196428
5281.93 5281.93 2.280000 3.510558 97.5401 2.914512 0.202696
5285.4 5285.4 2.290000 3.500947 98.4288 2.969475 0.207662
5288.9 5288.9 2.300000 3.490359 99.1955 3.024459 0.211832
5292.42 5292.42 2.310000 3.479245 99.9782 3.082376 0.216851
5295.96 5295.96 2.330000 3.469085 101.209 3.152197 0.223332
5299.51 5299.51 2.340000 3.459623 102.091 3.209952 0.228431
5303.09 5303.09 2.350000 3.450742 102.868 3.263180 0.232955
5306.68 5306.68 2.360000 3.440878 103.679 3.321543 0.238703
5310.29 5310.29 2.380000 3.430608 104.931 3.396367 0.245185
5313.92 5313.92 2.390000 3.421135 105.675 3.452975 0.250406
5317.57 5317.57 2.400000 3.412585 106.659 3.515089 0.256097
5321.24 5321.24 2.410000 3.403056 107.234 3.567874 0.261040
5324.93 5324.93 2.430000 3.394039 108.316 3.636485 0.267891
5328.64 5328.64 2.440000 3.385648 108.952 3.688672 0.273683
5332.36 5332.36 2.450000 3.377257 109.647 3.743494 0.279118
5336.11 5336.11 2.460000 3.369117 110.42 3.800698 0.285228
5339.87 5339.87 2.480000 3.361057 111.623 3.873199 0.292407
5343.66 5343.66 2.490000 3.353234 112.301 3.927314 0.298373
5347.46 5347.46 2.500000 3.345075 112.841 3.978519 0.304446
5351.28 5351.28 2.510000 3.336944 113.569 4.036891 0.310293
5355.12 5355.12 2.530000 3.330152 114.247 4.088652 0.316376
5358.98 5358.98 2.540000 3.323146 115.798 4.173306 0.323474
5362.86 5362.86 2.550000 3.315678 116.45 4.228277 0.329141
5366.76 5366.76 2.560000 3.307879 117.008 4.281773 0.334675
5370.68 5370.68 2.580000 3.300439 117.892 4.346324 0.340710
5374.61 5374.61 2.590000 3.292638 118.378 4.398447 0.346618
5378.57 5378.57 2.600000 3.284263 118.824 4.452144 0.352382
5382.54 5382.54 2.610000 3.274817 119.392 4.515902 0.359542
5386.54 5386.54 2.630000 3.264466 120.302 4.597687 0.367884
5390.55 5390.55 2.640000 3.253758 120.687 4.662023 0.374987
5394.58 5394.58 2.650000 3.243823 121.214 4.729146 0.382452
5398.63 5398.63 2.660000 3.234350 121.272 4.776460 0.388207
5402.7 5402.7 2.680000 3.224935 122.195 4.858313 0.397074
5406.79 5406.79 2.690000 3.215987 122.314 4.906780 0.403294
5410.9 5410.9 2.700000 3.206784 122.526 4.960715 0.410180
5415.02 5415.02 2.710000 3.198395 122.878 5.016876 0.416983
5419.17 5419.17 2.730000 3.190331 123.065 5.065189 0.423643
5423.33 5423.33 2.740000 3.182772 123.663 5.128384 0.431595
5427.52 5427.52 2.750000 3.175240 123.815 5.173528 0.438357
5431.72 5431.72 2.760000 3.166951 124.031 5.225678 0.445000
5435.94 5435.94 2.780000 3.158089 124.71 5.301089 0.453881
5440.18 5440.18 2.790000 3.148791 124.991 5.362668 0.462049
5444.44 5444.44 2.800000 3.139577 125.335 5.427179 0.470194
5448.72 5448.72 2.810000 3.130825 125.671 5.489555 0.477846
5453.02 5453.02 2.830000 3.121718 126.609 5.581144 0.488992
5457.34 5457.34 2.840000 3.112747 127.244 5.659687 0.498339
5461.67 5461.67 2.850000 3.104132 127.713 5.729707 0.506540
5466.02 5466.03 2.860000 3.094855 128.277 5.808621 0.516150
5470.4 5470.4 2.880000 3.085224 129.199 5.906994 0.527589
5474.8 5474.8 2.890000 3.075136 130.115 6.009169 0.539633
5479.21 5479.21 2.900000 3.065421 130.695 6.094880 0.549970
5483.64 5483.64 2.910000 3.055725 131.304 6.182991 0.560291
5488.09 5488.09 2.930000 3.046251 132.268 6.287629 0.572916
5492.56 5492.56 2.940000 3.036827 133.03 6.383732 0.585163
5497.05 5497.05 2.950000 3.026929 133.66 6.477786 0.597363
5501.56 5501.56 2.960000 3.018087 134.471 6.574922 0.609050
5506.08 5506.08 2.980000 3.009281 135.765 6.696949 0.623434
5510.63 5510.63 2.990000 3.000920 136.425 6.785976 0.635035
5515.19 5515.19 3.000000 2.992765 137.236 6.882237 0.648176
5519.78 5519.78 3.010000 2.984986 138.051 6.977150 0.660430
5524.38 5524.38 3.030000 2.977389 139.315 7.094739 0.674945
5529 5529 3.040000 2.969869 140.168 7.192086 0.688692
5533.64 5533.64 3.050000 2.962034 141.067 7.295129 0.701998
5538.3 5538.3 3.060000 2.954054 141.799 7.391697 0.715476
5542.98 5542.98 3.080000 2.945824 143.147 7.523626 0.732399
5547.68 5547.68 3.090000 2.936942 143.93 7.632265 0.747310
5552.4 5552.4 3.100000 2.927873 144.764 7.746418 0.762295
5557.13 5557.13 3.110000 2.918908 145.621 7.862460 0.778285
5561.89 5561.89 3.130000 2.909943 146.907 8.003330 0.796048
5566.66 5566.66 3.140000 2.901346 147.723 8.117263 0.811721
5571.46 5571.46 3.150000 2.892170 148.563 8.238642 0.827963
5576.27 5576.27 3.160000 2.883228 149.359 8.357213 0.845053
5581.1 5581.1 3.180000 2.873913 150.731 8.512931 0.865291
5585.95 5585.95 3.190000 2.864733 151.59 8.640364 0.882510
5590.82 5590.82 3.200000 2.855559 152.462 8.770163 0.900702
5595.71 5595.71 3.210000 2.846563 153.246 8.894946 0.918651
5600.62 5600.62 3.230000 2.837545 154.533 9.050872 0.939407
5605.54 5605.54 3.240000 2.828749 155.305 9.176443 0.958159
5610.49 5610.49 3.250000 2.820056 156.182 9.308883 0.977396
5615.45 5615.45 3.260000 2.811657 157.228 9.450257 0.997634
5620.44 5620.44 3.280000 2.802838 158.561 9.614819 1.020563
5625.44 5625.44 3.290000 2.794111 158.587 9.700664 1.035182
5630.46 5630.46 3.300000 2.785456 159.78 9.858598 1.058408
5635.5 5635.5 3.310000 2.777116 159.892 9.948119 1.074513
5640.56 5640.56 3.330000 2.767804 161.325 10.1311 1.100137
5645.64 5645.64 3.340000 2.759248 162.016 10.262 1.120797
5650.74 5650.74 3.350000 2.750214 162.66 10.3963 1.141911
5655.86 5655.86 3.360000 2.741009 163.571 10.5512 1.165495
5660.99 5660.99 3.380000 2.731859 164.853 10.7316 1.192026
5666.15 5666.15 3.390000 2.723065 165.768 10.8865 1.215874
5671.32 5671.32 3.400000 2.714217 166.782 11.0504 1.241458
5676.52 5676.52 3.410000 2.705448 167.848 11.219 1.267689
5681.73 5681.73 3.430000 2.696591 169.216 11.4111 1.296171
5686.96 5686.96 3.440000 2.687651 170.071 11.5717 1.322422
5692.21 5692.21 3.450000 2.678718 170.845 11.7287 1.347773
5697.48 5697.48 3.460000 2.669875 171.535 11.8806 1.372550
5702.77 5702.77 3.480000 2.661071 172.816 12.0752 1.402727
5708.08 5708.08 3.490000 2.652069 173.473 12.2307 1.428838