File: xdidata/Data/Ti/Ti-K-Eu2Ti2O7.xdi
# XDI/1.0 BlueSky/1.5.0
# Beamline.name: 6BM
# Beamline.xray_source: NSLS-II three-pole wiggler
# Beamline.collimation: paraboloid mirror, 5 nm Rh on 30 nm Pt
# Beamline.focusing: not in use
# Beamline.harmonic_rejection: flat mirror, Si stripe, pitch = 7.0 mrad relative to beam
# Detector.i0: 10 cm N2
# Detector.i1: 25 cm N2
# Detector.i2: 25 cm N2
# Element.symbol: Ti
# Element.edge: K
# Facility.name: NSLS-II
# Facility.energy: 3.0
# Facility.current: 219.4
# Facility.mode: top-off
# Facility.gup: 301027
# Facility.saf: 304156
# Mono.name: Si(111)
# Mono.d_spacing: 3.13532
# Mono.encoder_resolution: 0.0000050 deg/ct
# Mono.angle_offset: 16.0577 deg
# Mono.scan_mode: pseudo channel cut
# Mono.scan_type: step
# Mono.direction: forward in energy
# Sample.name: Eu2Ti2O7 pyrochlore
# Sample.prep: powder on tape
# Sample.x_position: -97.500 mm
# Sample.y_position: 115.250 mm
# Sample.wheel_position: 0.000 mm
# Scan.experimenters: Bruce Ravel
# Scan.edge_energy: 4966.0
# Scan.start_time: 2019-06-16T20:39:25
# Scan.end_time: 2019-06-16T23:06:51
# Scan.transient_id: 10639
# Scan.uid: 13bb7c02-38da-4619-ae76-ad642b5872ee
# Scan.plot_hint: ln(I0/It)  --  ln($5/$6)
# Scan.sequence: merge of 9 scans
# Column.1: energy eV
# Column.2: requested_energy eV
# Column.3: measurement_time seconds
# Column.4: mutrans
# Column.5: i0
# Column.6: itrans
# Column.7: irefer
# /////
#  from Fatih Dogan, 1993
# -----
# energy   requested_energy   measurement_time   mutrans   i0   itrans   irefer
4765.99 4766 0.500000 3.298278 8.529566 0.315141 0.020981
4776.01 4776 0.500000 3.273615 8.731844 0.330668 0.022493
4786.01 4786 0.500000 3.249044 8.952498 0.347457 0.024071
4796.01 4796 0.500000 3.225389 9.168524 0.364360 0.025641
4806.01 4806 0.500000 3.201300 9.388443 0.382197 0.027255
4816.01 4816 0.500000 3.177510 9.602639 0.400328 0.029228
4826.01 4826 0.500000 3.153849 9.820939 0.419231 0.031060
4836 4836 0.500000 3.130648 10.0347 0.438408 0.032980
4846.07 4846 0.500000 3.107444 10.2671 0.459158 0.035250
4856 4856 0.500000 3.084695 10.4918 0.479926 0.037489
4866 4866 0.500000 3.061854 10.7187 0.501634 0.039803
4876.01 4876 0.500000 3.039474 10.9422 0.523700 0.042264
4886 4886 0.500000 3.016901 11.1691 0.546751 0.044792
4896.01 4896 0.500000 2.994806 11.3946 0.570255 0.047377
4906 4906 0.500000 2.972941 11.6263 0.594716 0.050279
4916 4916 0.500000 2.951204 11.8594 0.619970 0.053339
4926 4926 0.500000 2.929426 12.1012 0.646538 0.056423
4936 4936 0.500000 2.908285 12.3289 0.672773 0.059631
4938 4938 0.500000 2.903761 12.3707 0.678121 0.060182
4940 4940 0.500000 2.899466 12.4284 0.684211 0.060890
4942.01 4942 0.500000 2.895372 12.4745 0.689571 0.061585
4944 4944 0.500000 2.891020 12.5171 0.694940 0.062266
4946 4946 0.500000 2.886900 12.5556 0.699960 0.062896
4948 4948 0.500000 2.882466 12.5867 0.704807 0.063575
4950 4950 0.500000 2.878371 12.6318 0.710235 0.064090
4952 4952 0.500000 2.874375 12.6726 0.715386 0.064643
4953.99 4954 0.500000 2.870079 12.713 0.720753 0.065327
4956 4956 0.500000 2.865879 12.7524 0.726029 0.065930
4956.25 4956.25 0.500000 2.865340 12.7555 0.726606 0.065998
4956.5 4956.5 0.500000 2.864812 12.766 0.727586 0.066123
4956.75 4956.75 0.500000 2.864401 12.7763 0.728471 0.066236
4956.99 4957 0.500000 2.864057 12.7808 0.728977 0.066274
4957.24 4957.25 0.500000 2.863602 12.7844 0.729513 0.066225
4957.49 4957.5 0.500000 2.862789 12.7976 0.730858 0.066411
4957.74 4957.75 0.500000 2.862340 12.8045 0.731584 0.066411
4957.99 4958 0.500000 2.861835 12.8086 0.732188 0.066677
4958.24 4958.25 0.500000 2.861228 12.8147 0.732983 0.066610
4958.49 4958.5 0.500000 2.860724 12.8201 0.733660 0.066722
4958.74 4958.75 0.500000 2.860226 12.8367 0.734972 0.066824
4959 4959 0.500000 2.859774 12.842 0.735614 0.066792
4959.25 4959.25 0.500000 2.859406 12.848 0.736226 0.066835
4959.49 4959.5 0.500000 2.858794 12.852 0.736908 0.066972
4959.74 4959.75 0.500000 2.858315 12.8565 0.737517 0.066943
4959.99 4960 0.500000 2.858044 12.8618 0.738019 0.066867
4960.24 4960.25 0.500000 2.857516 12.8671 0.738716 0.067131
4960.49 4960.5 0.500000 2.857041 12.8715 0.739319 0.067080
4960.75 4960.75 0.500000 2.856553 12.8746 0.739858 0.067088
4961 4961 0.500000 2.855978 12.8808 0.740639 0.067014
4961.25 4961.25 0.500000 2.855479 12.8858 0.741301 0.067026
4961.5 4961.5 0.500000 2.854902 12.8926 0.742124 0.067046
4961.75 4961.75 0.500000 2.854488 12.896 0.742622 0.067072
4962 4962 0.500000 2.854173 12.9025 0.743230 0.067026
4962.25 4962.25 0.500000 2.853446 12.9064 0.743993 0.066931
4962.49 4962.5 0.500000 2.853164 12.9121 0.744534 0.066873
4962.75 4962.75 0.500000 2.852593 12.9161 0.745188 0.066625
4963 4963 0.500000 2.852116 12.9213 0.745846 0.066448
4963.25 4963.25 0.500000 2.851825 12.9247 0.746257 0.066124
4963.5 4963.5 0.500000 2.851298 12.9309 0.747010 0.065608
4963.74 4963.75 0.500000 2.850812 12.935 0.747610 0.064750
4964 4964 0.500000 2.850388 12.9382 0.748108 0.063443
4964.24 4964.25 0.500000 2.849996 12.9431 0.748683 0.061213
4964.5 4964.5 0.500000 2.849621 12.9484 0.749272 0.058154
4964.75 4964.75 0.500000 2.849336 12.9638 0.750376 0.053758
4965 4965 0.500000 2.848796 12.9695 0.751115 0.049407
4965.25 4965.25 0.500000 2.848700 12.9718 0.751320 0.046568
4965.5 4965.5 0.500000 2.848262 12.976 0.751893 0.045434
4965.75 4965.75 0.500000 2.848031 12.9825 0.752442 0.046112
4966 4966 0.500000 2.848002 12.9868 0.752716 0.047654
4966.25 4966.25 0.500000 2.848385 12.9922 0.752743 0.049503
4966.5 4966.5 0.500000 2.848912 13.0094 0.753332 0.050953
4966.75 4966.75 0.500000 2.850324 13.0135 0.752512 0.052106
4967 4967 0.500000 2.852022 13.0148 0.751307 0.052701
4967.25 4967.25 0.500000 2.853798 13.0177 0.750147 0.052522
4967.5 4967.5 0.500000 2.854459 13.0212 0.749852 0.052105
4967.75 4967.75 0.500000 2.854127 13.0276 0.750469 0.051517
4968 4968 0.500000 2.853918 13.0343 0.751011 0.050938
4968.25 4968.25 0.500000 2.855053 13.039 0.750436 0.050080
4968.5 4968.5 0.500000 2.856965 13.0427 0.749225 0.049065
4968.75 4968.75 0.500000 2.859870 13.0454 0.747206 0.047975
4969 4969 0.500000 2.863106 13.047 0.744868 0.047163
4969.25 4969.25 0.500000 2.865182 13.0469 0.743327 0.046610
4969.5 4969.5 0.500000 2.865506 13.0505 0.743283 0.046041
4969.75 4969.75 0.500000 2.864293 13.0517 0.744247 0.045865
4970 4970 0.500000 2.863208 13.0568 0.745347 0.045466
4970.25 4970.25 0.500000 2.862337 13.0648 0.746458 0.045615
4970.5 4970.5 0.500000 2.860972 13.0748 0.748047 0.045395
4970.75 4970.75 0.500000 2.858333 13.0839 0.750552 0.045339
4971 4971 0.500000 2.855612 13.0925 0.753105 0.045198
4971.25 4971.25 0.500000 2.853686 13.1012 0.755050 0.044802
4971.5 4971.5 0.500000 2.852188 13.1084 0.756591 0.044254
4971.75 4971.75 0.500000 2.851911 13.1231 0.757648 0.043591
4972 4972 0.500000 2.852862 13.1284 0.757234 0.042772
4972.25 4972.25 0.500000 2.854863 13.1316 0.755927 0.041835
4972.5 4972.5 0.500000 2.856784 13.1377 0.754803 0.040723
4972.75 4972.75 0.500000 2.858641 13.1412 0.753616 0.039799
4973 4973 0.500000 2.859978 13.1443 0.752770 0.038967
4973.25 4973.25 0.500000 2.860974 13.1481 0.752251 0.038067
4973.5 4973.5 0.500000 2.862238 13.1512 0.751470 0.037292
4973.75 4973.75 0.500000 2.862903 13.1524 0.751041 0.036460
4974 4974 0.500000 2.863565 13.1555 0.750714 0.035809
4974.25 4974.25 0.500000 2.864141 13.1713 0.751186 0.035000
4974.5 4974.5 0.500000 2.864149 13.173 0.751279 0.034348
4974.75 4974.75 0.500000 2.863657 13.1759 0.751814 0.033661
4975 4975 0.500000 2.863005 13.1776 0.752399 0.033210
4975.25 4975.25 0.500000 2.862076 13.1792 0.753187 0.032510
4975.5 4975.5 0.500000 2.861863 13.1803 0.753417 0.031974
4975.75 4975.75 0.500000 2.861453 13.1811 0.753769 0.031207
4976 4976 0.500000 2.861474 13.1811 0.753751 0.030554
4976.25 4976.25 0.500000 2.861745 13.1806 0.753520 0.030251
4976.5 4976.5 0.500000 2.862700 13.1821 0.752891 0.029629
4976.75 4976.75 0.500000 2.864281 13.1848 0.751843 0.028998
4977 4977 0.500000 2.866447 13.1859 0.750294 0.028537
4977.25 4977.25 0.500000 2.869460 13.1886 0.748174 0.028130
4977.5 4977.5 0.500000 2.873379 13.1903 0.745353 0.027753
4977.75 4977.75 0.500000 2.877327 13.1935 0.742585 0.027353
4978 4978 0.500000 2.881149 13.1957 0.739880 0.027005
4978.25 4978.25 0.500000 2.884234 13.1979 0.737726 0.026661
4978.5 4978.5 0.500000 2.886853 13.2004 0.735946 0.026346
4978.75 4978.75 0.500000 2.889668 13.2035 0.734047 0.026104
4979 4979 0.500000 2.892361 13.2045 0.732127 0.025875
4979.25 4979.25 0.500000 2.896106 13.2056 0.729433 0.025771
4979.5 4979.5 0.500000 2.899930 13.2055 0.726669 0.025507
4979.75 4979.75 0.500000 2.904465 13.2133 0.723805 0.025446
4980 4980 0.500000 2.909486 13.2158 0.720305 0.025023
4980.25 4980.25 0.500000 2.915288 13.214 0.716000 0.024958
4980.5 4980.5 0.500000 2.922432 13.212 0.710865 0.024580
4980.75 4980.75 0.500000 2.931177 13.2134 0.704718 0.024285
4981 4981 0.500000 2.940837 13.2243 0.698520 0.024005
4981.25 4981.25 0.500000 2.951591 13.2239 0.691053 0.023677
4981.5 4981.5 0.500000 2.963520 13.2258 0.682947 0.023303
4981.75 4981.75 0.500000 2.976836 13.2291 0.674056 0.022897
4982 4982 0.500000 2.991454 13.233 0.664416 0.022489
4982.25 4982.25 0.500000 3.006431 13.2351 0.654708 0.022117
4982.5 4982.5 0.500000 3.022035 13.2383 0.644692 0.021737
4982.75 4982.75 0.500000 3.037058 13.2418 0.635309 0.021225
4983 4983 0.500000 3.050781 13.2437 0.626703 0.020921
4983.25 4983.25 0.500000 3.062208 13.2492 0.619919 0.020712
4983.5 4983.5 0.500000 3.073083 13.2588 0.613588 0.020289
4983.75 4983.75 0.500000 3.082797 13.2592 0.607725 0.020198
4984 4984 0.500000 3.091294 13.2585 0.602455 0.019987
4984.25 4984.25 0.500000 3.098522 13.2573 0.598151 0.019955
4984.5 4984.5 0.500000 3.103653 13.2592 0.595137 0.019910
4984.75 4984.75 0.500000 3.105987 13.2613 0.593855 0.020128
4985 4985 0.500000 3.106029 13.2683 0.594135 0.020033
4985.25 4985.25 0.500000 3.102480 13.2778 0.596670 0.020295
4985.5 4985.5 0.500000 3.097167 13.2808 0.600008 0.020587
4985.75 4985.75 0.500000 3.089978 13.2823 0.604354 0.020784
4986 4986 0.500000 3.082910 13.2825 0.608694 0.021104
4986.25 4986.25 0.500000 3.076001 13.2855 0.613020 0.021319
4986.5 4986.5 0.500000 3.069560 13.2927 0.617335 0.021718
4986.75 4986.75 0.500000 3.064105 13.292 0.620683 0.021875
4987 4987 0.500000 3.059181 13.2918 0.623721 0.022156
4987.25 4987.25 0.500000 3.054859 13.29 0.626352 0.022291
4987.5 4987.5 0.500000 3.051041 13.2906 0.628774 0.022342
4987.75 4987.75 0.500000 3.047522 13.293 0.631092 0.022437
4988 4988 0.500000 3.044471 13.2963 0.633199 0.022521
4988.25 4988.25 0.500000 3.041751 13.3009 0.635136 0.022659
4988.5 4988.5 0.500000 3.039560 13.3089 0.636918 0.022657
4988.75 4988.75 0.500000 3.037612 13.3189 0.638633 0.022729
4989 4989 0.500000 3.036875 13.3307 0.639669 0.022868
4989.25 4989.25 0.500000 3.036676 13.3403 0.640256 0.022707
4989.5 4989.5 0.500000 3.037753 13.3524 0.640147 0.022759
4989.75 4989.75 0.500000 3.039151 13.3645 0.639829 0.022914
4990 4990 0.500000 3.042498 13.3765 0.638275 0.022741
4990.25 4990.25 0.500000 3.045820 13.387 0.636652 0.022863
4990.5 4990.5 0.500000 3.049556 13.3978 0.634779 0.022751
4990.75 4990.75 0.500000 3.052907 13.4095 0.633224 0.022712
4991 4991 0.500000 3.056399 13.4207 0.631550 0.022494
4991.25 4991.25 0.500000 3.059010 13.4295 0.630314 0.022665
4991.5 4991.5 0.500000 3.061835 13.4372 0.628885 0.022643
4991.75 4991.75 0.500000 3.064270 13.448 0.627866 0.022581
4992 4992 0.500000 3.066621 13.4677 0.627301 0.022588
4992.25 4992.25 0.500000 3.067874 13.4747 0.626840 0.022611
4992.5 4992.5 0.500000 3.068699 13.482 0.626661 0.022586
4992.75 4992.75 0.500000 3.069013 13.4882 0.626756 0.022620
4993 4993 0.500000 3.068976 13.4953 0.627109 0.022701
4993.25 4993.25 0.500000 3.067866 13.5006 0.628053 0.022924
4993.5 4993.5 0.500000 3.066878 13.5052 0.628894 0.022800
4993.75 4993.75 0.500000 3.065793 13.5081 0.629701 0.022643
4994 4994 0.500000 3.064387 13.5126 0.630808 0.022727
4994.25 4994.25 0.500000 3.063179 13.5168 0.631758 0.022799
4994.51 4994.5 0.500000 3.062658 13.5315 0.632780 0.022599
4994.75 4994.75 0.500000 3.061832 13.5376 0.633580 0.022718
4995 4995 0.500000 3.061528 13.5428 0.634019 0.022685
4995.25 4995.25 0.500000 3.061328 13.5473 0.634360 0.022516
4995.5 4995.5 0.500000 3.061229 13.5493 0.634517 0.022403
4995.75 4995.75 0.500000 3.060792 13.5526 0.634943 0.022257
4996 4996 0.700000 3.060561 18.9371 0.887417 0.030990
4997.09 4997.08 0.710000 3.057695 19.2602 0.905150 0.030843
4998.19 4998.18 0.730000 3.050410 19.808 0.937731 0.031047
4999.29 4999.29 0.740000 3.039611 20.0939 0.961538 0.031322
5000.43 5000.43 0.750000 3.029944 20.4231 0.986796 0.032243
5001.59 5001.58 0.760000 3.026448 20.7421 1.005731 0.032917
5002.77 5002.76 0.780000 3.028717 21.3408 1.032416 0.034006
5003.95 5003.95 0.790000 3.032169 21.6683 1.044657 0.034549
5005.17 5005.16 0.800000 3.028573 22.0029 1.064601 0.035742
5006.39 5006.39 0.810000 3.014810 22.3412 1.095918 0.037616
5007.65 5007.64 0.830000 2.998652 22.9516 1.144212 0.040372
5008.92 5008.91 0.840000 2.983784 23.2849 1.178232 0.042962
5010.2 5010.2 0.850000 2.966752 23.6167 1.215556 0.045113
5011.51 5011.51 0.860000 2.952244 23.9491 1.250658 0.046859
5012.83 5012.83 0.880000 2.942922 24.5767 1.295467 0.049017
5014.19 5014.18 0.890000 2.937685 24.9061 1.319724 0.050485
5015.54 5015.54 0.900000 2.935211 25.2356 1.340497 0.051743
5016.93 5016.93 0.910000 2.935047 25.5713 1.358556 0.052872
5018.34 5018.33 0.930000 2.934182 26.1894 1.392598 0.054790
5019.76 5019.75 0.940000 2.930127 26.5336 1.416636 0.056353
5021.19 5021.19 0.950000 2.923385 26.8774 1.444690 0.057964
5022.65 5022.65 0.960000 2.916598 27.2203 1.473076 0.059387
5024.14 5024.13 0.980000 2.911799 27.8553 1.514700 0.061054
5025.63 5025.63 0.990000 2.909454 28.1985 1.536962 0.061700
5027.14 5027.14 1.000000 2.908689 28.5473 1.557170 0.062425
5028.68 5028.68 1.010000 2.908965 28.8977 1.575851 0.062615
5030.24 5030.24 1.030000 2.908503 29.534 1.611295 0.063398
5031.81 5031.81 1.040000 2.906951 29.8843 1.632938 0.062996
5033.4 5033.4 1.050000 2.904044 30.2371 1.657021 0.062653
5035.02 5035.01 1.060000 2.900706 30.5946 1.682222 0.062014
5036.66 5036.65 1.080000 2.898061 31.2464 1.722611 0.062770
5038.31 5038.3 1.090000 2.896941 31.6119 1.744713 0.062769
5039.97 5039.97 1.100000 2.896304 32.0045 1.767509 0.063593
5041.65 5041.65 1.110000 2.895289 32.3881 1.790508 0.064700
5043.37 5043.36 1.130000 2.893960 33.0605 1.830122 0.067051
5045.09 5045.09 1.140000 2.893007 33.4304 1.852357 0.068762
5046.83 5046.83 1.150000 2.892619 33.8062 1.873902 0.071128
5048.6 5048.6 1.160000 2.892571 34.1845 1.894975 0.073620
5050.38 5050.38 1.180000 2.891190 34.8587 1.935027 0.076998
5052.18 5052.18 1.190000 2.887814 35.2512 1.963437 0.080176
5053.99 5054 1.200000 2.883238 35.6906 1.997005 0.083017
5055.83 5055.84 1.210000 2.879129 36.0861 2.027446 0.085414
5057.69 5057.7 1.230000 2.876275 36.7825 2.072471 0.087649
5059.57 5059.58 1.240000 2.874195 37.1865 2.099608 0.089062
5061.47 5061.48 1.250000 2.871885 37.588 2.127176 0.090556
5063.39 5063.4 1.260000 2.868422 37.9897 2.157368 0.092610
5065.32 5065.33 1.280000 2.863988 38.7111 2.208096 0.095459
5067.28 5067.29 1.290000 2.858581 39.1562 2.245608 0.098141
5069.25 5069.26 1.300000 2.852740 39.5751 2.282924 0.100234
5071.25 5071.26 1.310000 2.846252 39.9971 2.322259 0.102566
5073.26 5073.27 1.330000 2.839688 40.7267 2.380214 0.105450
5075.3 5075.3 1.340000 2.833628 41.1444 2.419262 0.106755
5077.35 5077.35 1.350000 2.828459 41.57 2.456949 0.107377
5079.41 5079.42 1.360000 2.823888 41.9925 2.493287 0.107628
5081.51 5081.51 1.380000 2.818569 42.7258 2.550366 0.108410
5083.6 5083.61 1.390000 2.812407 43.1476 2.591464 0.108163
5085.73 5085.74 1.400000 2.805712 43.5977 2.636078 0.108221
5087.89 5087.89 1.410000 2.799127 44.0456 2.680796 0.108538
5090.05 5090.05 1.430000 2.792535 44.7886 2.744010 0.110397
5092.22 5092.23 1.440000 2.786529 45.2159 2.786866 0.112630
5094.44 5094.44 1.450000 2.781320 45.6508 2.828368 0.116317
5096.65 5096.66 1.460000 2.777454 46.0902 2.866642 0.120962
5098.9 5098.9 1.480000 2.773703 46.8443 2.924487 0.127420
5101.16 5101.16 1.490000 2.769452 47.2858 2.964643 0.133314
5103.44 5103.44 1.500000 2.764668 47.737 3.007303 0.138367
5105.74 5105.74 1.510000 2.759143 48.1895 3.052594 0.142492
5108.05 5108.05 1.530000 2.754217 48.9893 3.118616 0.146254
5110.39 5110.39 1.540000 2.749424 49.4365 3.162208 0.148807
5112.74 5112.74 1.550000 2.744991 49.8912 3.205466 0.151168
5115.12 5115.12 1.560000 2.740315 50.3662 3.251147 0.153856
5117.51 5117.51 1.580000 2.735972 51.1598 3.316714 0.157232
5119.92 5119.92 1.590000 2.732349 51.614 3.358319 0.159905
5122.35 5122.35 1.600000 2.729353 52.0646 3.397804 0.162293
5124.8 5124.8 1.610000 2.726242 52.5234 3.438446 0.165195
5127.27 5127.27 1.630000 2.722474 53.319 3.503699 0.169711
5129.76 5129.76 1.640000 2.717843 53.8299 3.553686 0.173228
5132.27 5132.27 1.650000 2.712929 54.2942 3.601992 0.175874
5134.79 5134.79 1.660000 2.708274 54.7587 3.649757 0.178300
5137.34 5137.34 1.680000 2.703856 55.5541 3.719179 0.181358
5139.9 5139.9 1.690000 2.699578 56.0264 3.766891 0.183207
5142.49 5142.49 1.700000 2.695006 56.4996 3.816069 0.184374
5145.09 5145.09 1.710000 2.689831 56.9636 3.867373 0.185829
5147.71 5147.71 1.730000 2.684333 57.7585 3.942997 0.188460
5150.35 5150.35 1.740000 2.678696 58.2289 3.997571 0.191597
5153.01 5153.01 1.750000 2.672880 58.7133 4.054322 0.195467
5155.69 5155.69 1.760000 2.666651 59.2003 4.113502 0.200913
5158.39 5158.39 1.780000 2.660388 59.9974 4.195095 0.207642
5161.11 5161.11 1.790000 2.654586 60.4495 4.251309 0.213335
5163.84 5163.84 1.800000 2.649084 60.9074 4.307104 0.218124
5166.6 5166.6 1.810000 2.644029 61.422 4.365539 0.222933
5169.37 5169.37 1.830000 2.638975 62.2133 4.444170 0.229313
5172.17 5172.17 1.840000 2.633946 62.6585 4.498533 0.234955
5174.98 5174.98 1.850000 2.628706 63.1 4.554048 0.240916
5177.81 5177.81 1.860000 2.623240 63.5345 4.610537 0.246517
5180.66 5180.66 1.880000 2.617297 64.3934 4.700690 0.253068
5183.53 5183.53 1.890000 2.611116 64.8543 4.763713 0.258029
5186.42 5186.42 1.900000 2.604991 65.3011 4.826039 0.262268
5189.32 5189.32 1.910000 2.599460 65.7965 4.889558 0.266907
5192.25 5192.25 1.930000 2.594057 66.5758 4.974313 0.272408
5195.2 5195.2 1.940000 2.588466 67.0176 5.035405 0.276042
5198.16 5198.16 1.950000 2.582402 67.4683 5.100073 0.280581
5201.14 5201.14 1.960000 2.576129 67.9551 5.169207 0.284863
5204.15 5204.15 1.980000 2.569943 68.7632 5.263132 0.290199
5207.17 5207.17 1.990000 2.564125 69.2396 5.330526 0.294061
5210.21 5210.21 2.000000 2.558402 69.7171 5.398090 0.298298
5213.27 5213.27 2.010000 2.552766 70.1819 5.464778 0.302313
5216.35 5216.35 2.030000 2.547116 70.9909 5.559145 0.309701
5219.45 5219.45 2.040000 2.541534 71.4618 5.627294 0.315419
5222.56 5222.56 2.050000 2.536298 71.9476 5.695331 0.321440
5225.7 5225.7 2.060000 2.531086 72.4567 5.765572 0.327275
5228.85 5228.85 2.080000 2.525998 73.2852 5.861229 0.334617
5232.03 5232.03 2.090000 2.520882 73.7748 5.930670 0.340571
5235.22 5235.22 2.100000 2.515366 74.2739 6.003822 0.347562
5238.43 5238.43 2.110000 2.509656 74.7731 6.078798 0.354665
5241.66 5241.66 2.130000 2.503666 75.6087 6.183615 0.364153
5244.92 5244.92 2.140000 2.498123 76.0561 6.254805 0.371556
5248.18 5248.18 2.150000 2.492500 76.1224 6.295559 0.376956
5251.47 5251.47 2.160000 2.486716 76.7929 6.387865 0.385705
5254.78 5254.78 2.180000 2.480671 77.9803 6.525958 0.397197
5258.11 5258.11 2.190000 2.474528 78.5755 6.616263 0.405506
5261.45 5261.45 2.200000 2.468386 79.0728 6.699176 0.413313
5264.82 5264.82 2.210000 2.462266 79.7349 6.796723 0.421189
5268.2 5268.2 2.230000 2.455906 80.6718 6.920456 0.430652
5271.6 5271.6 2.240000 2.449715 81.234 7.011934 0.437683
5275.03 5275.03 2.250000 2.443733 81.8795 7.110104 0.445267
5278.47 5278.47 2.260000 2.437837 81.5646 7.124614 0.447485
5281.93 5281.93 2.280000 2.431909 83.22 7.312473 0.460827
5285.4 5285.4 2.290000 2.426023 83.8701 7.413080 0.469050
5288.9 5288.9 2.300000 2.420183 84.426 7.505940 0.477091
5292.42 5292.42 2.310000 2.414440 85.0447 7.604465 0.486220
5295.96 5295.96 2.330000 2.408468 86.0217 7.737902 0.497651
5299.51 5299.51 2.340000 2.402239 86.639 7.842123 0.507916
5303.09 5303.09 2.350000 2.395950 87.178 7.940669 0.517347
5306.68 5306.68 2.360000 2.389387 87.597 8.031410 0.526250
5310.29 5310.29 2.380000 2.383095 88.472 8.162822 0.537809
5313.92 5313.92 2.390000 2.376807 88.9346 8.257285 0.547154
5317.57 5317.57 2.400000 2.370560 89.4771 8.359728 0.557200
5321.24 5321.24 2.410000 2.364270 90.0388 8.465249 0.567973
5324.93 5324.93 2.430000 2.357806 91.0378 8.614707 0.581676
5328.64 5328.64 2.440000 2.351316 91.5478 8.719397 0.592654
5332.36 5332.36 2.450000 2.344813 92.0121 8.820755 0.603744
5336.11 5336.11 2.460000 2.338498 92.5981 8.933167 0.615699
5339.87 5339.87 2.480000 2.332124 93.6143 9.088912 0.631049
5343.66 5343.66 2.490000 2.325928 94.1655 9.199270 0.643193
5347.46 5347.46 2.500000 2.319769 94.7848 9.316997 0.655867
5351.28 5351.28 2.510000 2.313605 95.2748 9.423069 0.667537
5355.12 5355.12 2.530000 2.307309 96.0122 9.555980 0.680779
5358.98 5358.98 2.540000 2.301076 96.5368 9.668289 0.691809
5362.86 5362.86 2.550000 2.295384 97.9065 9.861428 0.709075
5366.76 5366.76 2.560000 2.289250 98.5791 9.990247 0.721093
5370.68 5370.68 2.580000 2.283029 99.63 10.1598 0.736797
5374.61 5374.61 2.590000 2.276822 100.328 10.2946 0.749665
5378.57 5378.57 2.600000 2.270441 101.135 10.4438 0.765071
5382.54 5382.54 2.610000 2.264003 101.91 10.5919 0.780057
5386.54 5386.54 2.630000 2.257457 103.058 10.7816 0.798743
5390.55 5390.55 2.640000 2.250790 103.783 10.93 0.815263
5394.58 5394.58 2.650000 2.244103 104.597 11.0896 0.831961
5398.63 5398.63 2.660000 2.237550 105.254 11.2326 0.847882
5402.7 5402.7 2.680000 2.230857 106.585 11.4511 0.869280
5406.79 5406.79 2.690000 2.224286 107.263 11.5999 0.885927
5410.9 5410.9 2.700000 2.217741 108.056 11.7624 0.904042
5415.02 5415.02 2.710000 2.211275 108.977 11.9396 0.923381
5419.17 5419.17 2.730000 2.204823 109.795 12.107 0.941980
5423.33 5423.33 2.740000 2.198402 110.754 12.2915 0.962593
5427.52 5427.52 2.750000 2.191906 111.531 12.4583 0.981918
5431.72 5431.72 2.760000 2.185444 112.258 12.6209 1.001163
5435.94 5435.94 2.780000 2.178951 113.416 12.8342 1.024293
5440.18 5440.18 2.790000 2.172333 114.285 13.0184 1.046030
5444.44 5444.44 2.800000 2.165867 115.03 13.1883 1.065719
5448.72 5448.72 2.810000 2.159187 115.819 13.3676 1.086488
5453.02 5453.02 2.830000 2.152529 116.892 13.5817 1.109868
5457.34 5457.34 2.840000 2.145804 117.567 13.7522 1.130229
5461.67 5461.67 2.850000 2.139053 118.198 13.9198 1.150296
5466.03 5466.03 2.860000 2.132257 118.819 14.0882 1.171165
5470.4 5470.4 2.880000 2.125424 119.891 14.3129 1.196280
5474.8 5474.8 2.890000 2.118620 120.41 14.4729 1.216543
5479.21 5479.21 2.900000 2.111751 120.883 14.63 1.236698
5483.64 5483.64 2.910000 2.104888 121.4 14.7937 1.257825
5488.09 5488.09 2.930000 2.098144 122.238 14.9967 1.282079
5492.56 5492.56 2.940000 2.091357 122.584 15.1416 1.302607
5497.05 5497.05 2.950000 2.084519 122.943 15.29 1.322877
5501.56 5501.56 2.960000 2.077833 123.259 15.4322 1.343259
5506.08 5506.08 2.980000 2.071295 123.919 15.6166 1.367255
5510.63 5510.63 2.990000 2.064663 124.092 15.7424 1.386196
5515.19 5515.19 3.000000 2.058053 124.288 15.8719 1.406389
5519.78 5519.78 3.010000 2.051408 124.443 15.9976 1.425834
5524.38 5524.38 3.030000 2.044868 124.914 16.1635 1.449305
5529 5529 3.040000 2.038254 125.012 16.2836 1.469057
5533.64 5533.64 3.050000 2.031628 125.168 16.4122 1.489886
5538.3 5538.3 3.060000 2.024978 125.147 16.5191 1.508594
5542.98 5542.98 3.080000 2.018447 125.647 16.6937 1.533841
5547.68 5547.68 3.090000 2.011806 125.623 16.8017 1.552773
5552.4 5552.4 3.100000 2.005260 125.726 16.9259 1.573402
5557.13 5557.13 3.110000 1.998635 125.911 17.0635 1.595575
5561.89 5561.89 3.130000 1.991954 126.412 17.2462 1.622291
5566.66 5566.66 3.140000 1.985318 126.433 17.3639 1.642473
5571.46 5571.46 3.150000 1.978586 126.483 17.4881 1.664306
5576.27 5576.27 3.160000 1.972006 126.583 17.6175 1.686632
5581.1 5581.1 3.180000 1.965334 127.056 17.8016 1.714312
5585.95 5585.95 3.190000 1.958779 127.262 17.9478 1.738570
5590.82 5590.82 3.200000 1.952199 127.462 18.0947 1.762567
5595.71 5595.71 3.210000 1.945644 127.774 18.2583 1.789020
5600.62 5600.62 3.230000 1.939052 128.397 18.4685 1.820152
5605.54 5605.54 3.240000 1.932554 128.635 18.6235 1.846445
5610.49 5610.49 3.250000 1.925959 129.096 18.8139 1.876092
5615.45 5615.45 3.260000 1.919413 129.352 18.975 1.903804
5620.44 5620.44 3.280000 1.912808 130.166 19.2209 1.939872
5625.44 5625.44 3.290000 1.906156 129.888 19.308 1.960209
5630.46 5630.46 3.300000 1.899695 130.375 19.5058 1.992791
5635.5 5635.5 3.310000 1.893252 130.539 19.6566 2.020603
5640.56 5640.56 3.330000 1.886534 131.455 19.928 2.061176
5645.64 5645.64 3.340000 1.879947 131.959 20.1367 2.095247
5650.74 5650.74 3.350000 1.873117 132.527 20.362 2.131388
5655.86 5655.86 3.360000 1.866217 133.174 20.603 2.169920
5660.99 5660.99 3.380000 1.859185 134.323 20.9275 2.216882
5666.15 5666.15 3.390000 1.852277 135.088 21.1925 2.258505
5671.32 5671.32 3.400000 1.845441 135.765 21.4449 2.298874
5676.52 5676.52 3.410000 1.838825 136.708 21.7371 2.343822
5681.73 5681.73 3.430000 1.832174 138.094 22.1041 2.397545
5686.96 5686.96 3.440000 1.825501 138.826 22.37 2.441091
5692.21 5692.21 3.450000 1.818805 139.547 22.6372 2.484888
5697.48 5697.48 3.460000 1.812052 140.327 22.9181 2.530933
5702.77 5702.77 3.480000 1.805374 141.435 23.2537 2.583324
5708.08 5708.08 3.490000 1.798675 142.117 23.5229 2.628764
5713.4 5713.4 3.500000 1.791828 143.117 23.8511 2.681773
5718.75 5718.75 3.510000 1.785105 143.875 24.1393 2.729714
5724.12 5724.12 3.530000 1.778325 144.975 24.4892 2.786173
5729.5 5729.5 3.540000 1.771553 145.534 24.7507 2.832273
5734.9 5734.9 3.550000 1.764768 146.179 25.0296 2.881340
5740.32 5740.32 3.560000 1.757963 146.751 25.2993 2.930166
5745.77 5745.77 3.580000 1.751157 147.983 25.6858 2.992381
5751.23 5751.23 3.590000 1.744355 148.677 25.9825 3.045362
5756.7 5756.7 3.600000 1.737564 149.296 26.2683 3.097122
5762.2 5762.2 3.610000 1.730757 149.947 26.5632 3.151183
5767.72 5767.72 3.630000 1.723947 151.01 26.9343 3.214447
5773.26 5773.26 3.640000 1.717152 151.548 27.2145 3.267480
5778.81 5778.81 3.650000 1.710369 152.055 27.4914 3.320246
5784.39 5784.39 3.660000 1.703584 152.551 27.7688 3.373794
5789.98 5789.98 3.680000 1.696836 153.608 28.1505 3.440713
5795.59 5795.59 3.690000 1.690013 154.167 28.4463 3.497414
5801.22 5801.22 3.700000 1.683254 154.678 28.7343 3.554054
5806.87 5806.87 3.710000 1.676522 155.288 29.0424 3.613685
5812.54 5812.54 3.730000 1.669766 156.193 29.4097 3.680735
5818.23 5818.23 3.740000 1.662990 156.615 29.6897 3.737942