File: xdidata/Data/Ti/Ti-K-Bi2Ce2Ti3O12.xdi
# XDI/1.0 BlueSky/1.5.0
# Beamline.name: 6BM
# Beamline.xray_source: NSLS-II three-pole wiggler
# Beamline.collimation: paraboloid mirror, 5 nm Rh on 30 nm Pt
# Beamline.focusing: not in use
# Beamline.harmonic_rejection: flat mirror, Si stripe, pitch = 7.0 mrad relative to beam
# Detector.i0: 10 cm N2
# Detector.i1: 25 cm N2
# Detector.i2: 25 cm N2
# Element.symbol: Ti
# Element.edge: K
# Facility.name: NSLS-II
# Facility.energy: 3.0
# Facility.current: 220.6
# Facility.mode: top-off
# Facility.gup: 301027
# Facility.saf: 304156
# Mono.name: Si(111)
# Mono.d_spacing: 3.13526
# Mono.encoder_resolution: 0.0000050 deg/ct
# Mono.angle_offset: 16.0571 deg
# Mono.scan_mode: pseudo channel cut
# Mono.scan_type: step
# Mono.direction: forward in energy
# Sample.name: Bi2Ce2Ti3O12
# Sample.prep: Powder in polyethylene glycol pellet
# Sample.x_position: -113.290 mm
# Sample.y_position: 117.505 mm
# Sample.wheel_position: 195.000 mm
# Scan.experimenters: Bruce Ravel, Martin Stennett
# Scan.edge_energy: 4966.0
# Scan.start_time: 2019-05-30T21:00:12
# Scan.end_time: 2019-05-30T21:44:13
# Scan.transient_id: 9858
# Scan.uid: 8b242636-752d-41d1-91aa-f0724dad7b0c
# Scan.plot_hint: (DTC1 + DTC2 + DTC3 + DTC4) / I0  --  ($8+$9+$10+$11) / $5
# Scan.sequence: merge of 3 scans
# Column.1: energy eV
# Column.2: requested_energy eV
# Column.3: measurement_time seconds
# Column.4: mutrans
# Column.5: i0
# Column.6: itrans
# Column.7: irefer
# /////
#  sample disk prepared by Martin
# -----
# energy   requested_energy   measurement_time   mutrans   i0   itrans   irefer
4766 4766 0.500000 72.5989 10.7248 0.014755 0.003293
4776.01 4776 0.500000 71.5612 10.949 0.015255 0.003093
4786.01 4786 0.500000 67.0791 11.2072 0.016391 0.003456
4796.01 4796 0.500000 61.7307 11.4679 0.017574 0.003527
4806.01 4806 0.500000 58.9072 11.7286 0.018619 0.003606
4816.01 4816 0.500000 55.8249 11.9853 0.019715 0.003733
4826.01 4826 0.500000 52.7619 12.244 0.021215 0.003914
4836 4836 0.500000 50.0846 12.4845 0.022364 0.003963
4846 4846 0.500000 47.2631 12.7318 0.023888 0.004388
4856 4856 0.500000 43.5355 12.9942 0.025379 0.004429
4866.01 4866 0.500000 39.747 13.2534 0.027061 0.004694
4876.01 4876 0.500000 37.4044 13.5122 0.028689 0.004775
4886.01 4886 0.500000 33.3346 13.7686 0.030209 0.005072
4896 4896 0.500000 31.3792 14.0294 0.032248 0.005448
4906 4906 0.500000 29.3565 14.2942 0.033947 0.005639
4916 4916 0.500000 27.9636 14.5521 0.036060 0.005889
4926 4926 0.500000 24.4695 14.8115 0.038191 0.006084
4936 4936 0.500000 23.557 15.0586 0.040416 0.006625
4938 4938 0.500000 20.9626 15.1069 0.040805 0.006591
4940 4940 0.500000 23.7639 15.1534 0.041157 0.006707
4942 4942 0.500000 21.874 15.1963 0.041452 0.006623
4943.99 4944 0.500000 21.9571 15.2434 0.041969 0.006792
4945.99 4946 0.500000 20.8947 15.2851 0.042578 0.006963
4948.01 4948 0.500000 22.3917 15.3243 0.042981 0.006934
4950.01 4950 0.500000 21.4549 15.371 0.043468 0.006973
4952.01 4952 0.500000 20.7268 15.4134 0.043663 0.006893
4954.01 4954 0.500000 20.9997 15.4573 0.044315 0.007040
4956 4956 0.500000 20.9334 15.4987 0.044712 0.007186
4956.25 4956.25 0.500000 22.0272 15.5035 0.044672 0.007139
4956.49 4956.5 0.500000 21.9179 15.5069 0.044639 0.007054
4956.74 4956.75 0.500000 20.5486 15.5115 0.044869 0.007229
4956.99 4957 0.500000 21.2812 15.5148 0.044647 0.007098
4957.24 4957.25 0.500000 21.1263 15.5209 0.044760 0.007130
4957.49 4957.5 0.500000 20.8637 15.5249 0.045048 0.007304
4957.74 4957.75 0.500000 20.7006 15.5271 0.044866 0.007258
4958 4958 0.500000 21.5537 15.5331 0.045046 0.007074
4958.25 4958.25 0.500000 20.2213 15.541 0.044998 0.007270
4958.5 4958.5 0.500000 21.5969 15.5468 0.045227 0.007153
4958.74 4958.75 0.500000 22.2642 15.5486 0.045283 0.007306
4959 4959 0.500000 22.539 15.5531 0.045318 0.007224
4959.24 4959.25 0.500000 21.2565 15.5579 0.045474 0.007349
4959.5 4959.5 0.500000 21.3179 15.5652 0.045302 0.007439
4959.75 4959.75 0.500000 21.2072 15.569 0.045594 0.007407
4960 4960 0.500000 21.2718 15.5756 0.045539 0.007206
4960.25 4960.25 0.500000 19.7571 15.5795 0.045666 0.007333
4960.5 4960.5 0.500000 20.9244 15.5865 0.045388 0.007278
4960.75 4960.75 0.500000 21.0244 15.5902 0.045671 0.007285
4961 4961 0.500000 22.2074 15.5954 0.045565 0.007146
4961.25 4961.25 0.500000 22.2345 15.6014 0.045605 0.007229
4961.49 4961.5 0.500000 22.2298 15.6078 0.045970 0.007484
4961.75 4961.75 0.500000 22.3454 15.6126 0.045931 0.007245
4962 4962 0.500000 23.0572 15.6175 0.046182 0.007437
4962.25 4962.25 0.500000 21.5016 15.6227 0.046075 0.007314
4962.5 4962.5 0.500000 21.9056 15.626 0.046167 0.007368
4962.75 4962.75 0.500000 22.7169 15.6335 0.046094 0.007265
4963 4963 0.500000 22.0747 15.6384 0.046064 0.007361
4963.25 4963.25 0.500000 23.3535 15.6451 0.046208 0.007240
4963.5 4963.5 0.500000 23.5452 15.6491 0.046326 0.007283
4963.75 4963.75 0.500000 23.3179 15.6544 0.046330 0.007205
4964 4964 0.500000 22.8966 15.6587 0.046322 0.007053
4964.25 4964.25 0.500000 25.4702 15.6663 0.046360 0.006921
4964.5 4964.5 0.500000 24.5747 15.7067 0.046549 0.006740
4964.75 4964.75 0.500000 25.693 15.7115 0.046687 0.006427
4965 4965 0.500000 25.3381 15.7155 0.046675 0.006052
4965.25 4965.25 0.500000 25.7929 15.7202 0.046730 0.005699
4965.5 4965.5 0.500000 25.6809 15.7248 0.046797 0.005491
4965.75 4965.75 0.500000 27.1636 15.7287 0.046729 0.005603
4966 4966 0.500000 28.0183 15.733 0.046927 0.005748
4966.25 4966.25 0.500000 30.805 15.7364 0.047027 0.005895
4966.5 4966.5 0.500000 33.3505 15.7427 0.046808 0.005852
4966.75 4966.75 0.500000 37.6292 15.7446 0.046904 0.005986
4967 4967 0.500000 45.1569 15.745 0.046885 0.006076
4967.25 4967.25 0.500000 49.3877 15.7476 0.046579 0.006022
4967.5 4967.5 0.500000 55.3685 15.8224 0.046845 0.006329
4967.75 4967.75 0.500000 58.6409 15.8279 0.046880 0.006165
4968 4968 0.500000 57.9236 15.8344 0.046835 0.006004
4968.25 4968.25 0.500000 64.1451 15.8426 0.046783 0.005973
4968.5 4968.5 0.500000 79.4517 15.8479 0.046676 0.005872
4968.75 4968.75 0.500000 101.713 15.8509 0.046484 0.005728
4969 4969 0.500000 129.012 15.8535 0.045767 0.005497
4969.25 4969.25 0.500000 150.54 15.8546 0.045454 0.005495
4969.5 4969.5 0.500000 149.129 15.8556 0.045647 0.005457
4969.75 4969.75 0.500000 137.02 15.8561 0.045835 0.005526
4970 4970 0.500000 122.06 15.858 0.046115 0.005366
4970.25 4970.25 0.500000 108.033 15.8652 0.046506 0.005730
4970.5 4970.5 0.500000 103.623 15.8757 0.046694 0.005577
4970.75 4970.75 0.500000 96.0839 15.8887 0.046922 0.005542
4971 4971 0.500000 90.587 15.899 0.046985 0.005430
4971.25 4971.25 0.500000 90.4669 15.9083 0.047171 0.005463
4971.5 4971.5 0.500000 86.9177 15.9153 0.047176 0.005442
4971.75 4971.75 0.500000 87.4933 15.9218 0.047167 0.005328
4972 4972 0.500000 89.5722 15.9266 0.047210 0.005246
4972.25 4972.25 0.500000 95.6437 15.9308 0.047278 0.005279
4972.5 4972.5 0.500000 99.794 15.935 0.047277 0.005236
4972.75 4972.75 0.500000 103.979 15.9384 0.047040 0.005034
4973 4973 0.500000 101.753 15.9425 0.047169 0.004804
4973.25 4973.25 0.500000 103.286 15.9462 0.047248 0.005065
4973.5 4973.5 0.500000 100.848 15.9485 0.047403 0.004938
4973.75 4973.75 0.500000 95.9669 15.952 0.047395 0.004822
4974 4974 0.500000 95.3411 15.9553 0.047566 0.004662
4974.25 4974.25 0.500000 92.5208 15.9581 0.047815 0.004749
4974.5 4974.5 0.500000 89.4814 15.9598 0.047895 0.004729
4974.75 4974.75 0.500000 89.0846 15.9624 0.047881 0.004707
4975 4975 0.500000 83.8094 15.9621 0.047912 0.004625
4975.25 4975.25 0.500000 84.1927 15.9626 0.047937 0.004417
4975.5 4975.5 0.500000 88.2131 15.9644 0.048042 0.004442
4975.75 4975.75 0.500000 89.9943 15.9634 0.047852 0.004256
4976 4976 0.500000 92.6014 15.9653 0.048057 0.004491
4976.25 4976.25 0.500000 97.5695 15.962 0.047875 0.004102
4976.5 4976.5 0.500000 103.414 15.9606 0.048070 0.004298
4976.75 4976.75 0.500000 112.405 15.9616 0.047635 0.004038
4977 4977 0.500000 122.111 15.9629 0.047460 0.004078
4977.25 4977.25 0.500000 134.197 15.9638 0.047527 0.004107
4977.5 4977.5 0.500000 148.98 15.9656 0.046993 0.003882
4977.75 4977.75 0.500000 161.001 15.9698 0.047008 0.004043
4978 4978 0.500000 173.654 15.9711 0.046755 0.003831
4978.25 4978.25 0.500000 192.89 15.9756 0.046659 0.004015
4978.5 4978.5 0.500000 200.943 15.9796 0.046467 0.004034
4978.75 4978.75 0.500000 223.499 15.982 0.046012 0.003729
4979 4979 0.500000 235.709 15.9827 0.045837 0.003819
4979.25 4979.25 0.500000 255.907 15.9848 0.045639 0.003864
4979.5 4979.5 0.500000 268.595 15.9836 0.045481 0.003925
4979.75 4979.75 0.500000 287.376 15.9798 0.045009 0.003747
4980 4980 0.500000 310.474 15.9785 0.044722 0.003723
4980.25 4980.25 0.500000 327.912 15.9768 0.044775 0.004052
4980.5 4980.5 0.500000 351.335 15.9727 0.044016 0.003616
4980.75 4980.75 0.500000 375.548 15.9706 0.043373 0.003471
4981 4981 0.500000 408.617 15.9716 0.043529 0.003803
4981.25 4981.25 0.500000 436.984 15.9659 0.042797 0.003673
4981.5 4981.5 0.500000 462.04 15.9679 0.042314 0.003565
4981.75 4981.75 0.500000 490.319 15.9691 0.041952 0.003631
4982 4982 0.500000 509.667 15.9716 0.041648 0.003460
4982.25 4982.25 0.500000 537.418 15.9748 0.041391 0.003381
4982.5 4982.5 0.500000 561.765 15.9787 0.041115 0.003536
4982.75 4982.75 0.500000 570.576 15.9821 0.040947 0.003471
4983 4983 0.500000 584.321 15.9831 0.040353 0.003357
4983.25 4983.25 0.500000 591.516 15.9835 0.040421 0.003505
4983.5 4983.5 0.500000 597.319 15.9839 0.040287 0.003566
4983.75 4983.75 0.500000 596.826 15.9836 0.040380 0.003407
4984 4984 0.500000 601.668 15.9806 0.040388 0.003574
4984.25 4984.25 0.500000 600.394 15.9787 0.040394 0.003372
4984.5 4984.5 0.500000 590.902 15.9793 0.040377 0.003479
4984.75 4984.75 0.500000 592.416 15.9786 0.040888 0.003578
4985 4985 0.500000 591.743 15.9794 0.040762 0.003421
4985.25 4985.25 0.500000 584.143 15.9837 0.040915 0.003692
4985.5 4985.5 0.500000 585.621 15.9858 0.040832 0.003460
4985.75 4985.75 0.500000 586.879 15.9866 0.040954 0.003470
4986 4986 0.500000 584.862 15.9889 0.040927 0.003404
4986.25 4986.25 0.500000 593.21 15.9874 0.040980 0.003435
4986.5 4986.5 0.500000 589.31 15.9866 0.041058 0.003535
4986.75 4986.75 0.500000 597.765 15.9845 0.041025 0.003759
4987 4987 0.500000 600.071 15.9833 0.041167 0.003629
4987.25 4987.25 0.500000 598.171 15.9809 0.040987 0.003515
4987.5 4987.5 0.500000 606.943 15.9776 0.040899 0.003476
4987.75 4987.75 0.500000 613.795 15.9779 0.040933 0.003552
4988 4988 0.500000 616.029 15.9794 0.041020 0.003710
4988.25 4988.25 0.500000 618.855 15.9841 0.041006 0.003635
4988.5 4988.5 0.500000 612.81 15.9932 0.041041 0.003539
4988.75 4988.75 0.500000 612.687 16.0041 0.040996 0.003592
4989 4989 0.500000 610.307 16.0164 0.041069 0.003598
4989.25 4989.25 0.500000 617.505 16.0294 0.041130 0.003682
4989.5 4989.5 0.500000 619.48 16.0409 0.041351 0.003814
4989.75 4989.75 0.500000 622.371 16.0519 0.041151 0.003600
4990 4990 0.500000 623.952 16.0666 0.041287 0.003645
4990.25 4990.25 0.500000 618.636 16.0804 0.041309 0.003848
4990.5 4990.5 0.500000 623.586 16.0937 0.041329 0.003679
4990.75 4990.75 0.500000 627.036 16.1068 0.041633 0.003684
4991 4991 0.500000 617.07 16.1184 0.041597 0.003721
4991.25 4991.25 0.500000 618.867 16.1306 0.041639 0.003565
4991.5 4991.5 0.500000 616.698 16.1424 0.041947 0.003799
4991.75 4991.75 0.500000 612.332 16.1525 0.041845 0.003635
4992 4992 0.500000 610.808 16.1639 0.042006 0.003585
4992.25 4992.25 0.500000 606.991 16.1718 0.042006 0.003632
4992.5 4992.5 0.500000 605.546 16.1795 0.042236 0.003695
4992.75 4992.75 0.500000 608.236 16.1878 0.042311 0.003650
4993 4993 0.500000 613.885 16.2011 0.042418 0.003803
4993.25 4993.25 0.500000 604.234 16.2328 0.042569 0.003694
4993.5 4993.5 0.500000 602.147 16.238 0.042625 0.003896
4993.75 4993.75 0.500000 606.378 16.2439 0.042788 0.003800
4994 4994 0.500000 600.113 16.2508 0.042787 0.003878
4994.25 4994.25 0.500000 608.184 16.2546 0.042514 0.003606
4994.5 4994.5 0.500000 609.541 16.26 0.042758 0.003765
4994.75 4994.75 0.500000 615.039 16.2637 0.042693 0.003872
4995 4995 0.500000 616.093 16.2661 0.042850 0.003828
4995.25 4995.25 0.500000 610.525 16.273 0.042966 0.003737
4995.5 4995.5 0.500000 610.477 16.3195 0.042809 0.003560
4995.75 4995.75 0.500000 619.008 16.3981 0.043121 0.003757
4996.01 4996 0.700000 614.944 22.9017 0.060192 0.005296
4997.09 4997.08 0.710000 627.135 23.2437 0.061263 0.005191
4998.19 4998.18 0.730000 628.518 23.9029 0.063078 0.005295
4999.3 4999.29 0.740000 644.109 24.2498 0.064311 0.005336
5000.44 5000.43 0.750000 642.611 24.6169 0.065477 0.005489
5001.59 5001.58 0.760000 635.046 24.9944 0.066958 0.005475
5002.77 5002.76 0.780000 626.696 25.7109 0.069252 0.005743
5003.95 5003.95 0.790000 620.312 26.1002 0.070895 0.005802
5005.17 5005.16 0.800000 601.971 26.4962 0.072793 0.005755
5006.4 5006.39 0.810000 577.729 26.9017 0.074965 0.006113
5007.64 5007.64 0.830000 567.507 27.6313 0.077457 0.006388
5008.92 5008.91 0.840000 556.051 28.0288 0.079253 0.006518
5010.2 5010.2 0.850000 535.739 28.4272 0.081566 0.006925
5011.52 5011.51 0.860000 519.132 28.8208 0.083701 0.007283
5012.83 5012.83 0.880000 506.257 29.5429 0.086339 0.007314
5014.18 5014.18 0.890000 501.764 29.9353 0.088155 0.007589
5015.55 5015.54 0.900000 499.215 30.3225 0.089696 0.007677
5016.93 5016.93 0.910000 505.48 30.7174 0.091268 0.007872
5018.34 5018.33 0.930000 503.103 31.4561 0.093919 0.007935
5019.76 5019.75 0.940000 506.58 31.8607 0.095581 0.008179
5021.19 5021.19 0.950000 504.347 32.2655 0.097252 0.008288
5022.66 5022.65 0.960000 501.855 32.6689 0.099048 0.008290
5024.13 5024.13 0.980000 505.023 33.4158 0.102120 0.008806
5025.64 5025.63 0.990000 497.714 33.8273 0.104338 0.008997
5027.15 5027.14 1.000000 495.763 34.2367 0.105980 0.009134
5028.69 5028.68 1.010000 497.183 34.6469 0.107769 0.009137
5030.24 5030.24 1.030000 499.392 35.3977 0.110516 0.009236
5031.81 5031.81 1.040000 501.343 35.8074 0.112362 0.009164
5033.4 5033.4 1.050000 504.927 36.219 0.114096 0.009140
5035.02 5035.01 1.060000 512.191 36.6298 0.116083 0.009352
5036.66 5036.65 1.080000 517.146 37.3909 0.118961 0.009453
5038.3 5038.3 1.090000 519.089 37.8083 0.120530 0.009527
5039.96 5039.97 1.100000 520.599 38.2215 0.122689 0.009347
5041.65 5041.65 1.110000 527.109 38.6407 0.124565 0.009698
5043.36 5043.36 1.130000 526.518 39.4051 0.128005 0.010045
5045.09 5045.09 1.140000 530.101 39.8273 0.129589 0.010063
5046.83 5046.83 1.150000 535.949 40.2487 0.132028 0.010449
5048.6 5048.6 1.160000 540.748 40.6725 0.133771 0.010787
5050.38 5050.38 1.180000 546.408 41.4543 0.136937 0.011194
5052.18 5052.18 1.190000 552.462 41.8807 0.138646 0.011464
5054 5054 1.200000 559.208 42.3151 0.140588 0.011562
5055.84 5055.84 1.210000 566.449 42.7513 0.142469 0.011936
5057.7 5057.7 1.230000 574.214 43.547 0.146107 0.012074
5059.57 5059.58 1.240000 578.089 43.9863 0.148278 0.012344
5061.48 5061.48 1.250000 578.594 44.4245 0.150718 0.013106
5063.4 5063.4 1.260000 588.866 44.8644 0.152921 0.012899
5065.33 5065.33 1.280000 582.746 45.6732 0.156827 0.013073
5067.28 5067.29 1.290000 584.225 46.1156 0.159340 0.013648
5069.26 5069.26 1.300000 579.26 46.5652 0.162458 0.013914
5071.25 5071.26 1.310000 577.861 47.0107 0.165232 0.014064
5073.27 5073.27 1.330000 570.663 47.8202 0.169532 0.014152
5075.3 5075.3 1.340000 563.732 48.2612 0.172641 0.014562
5077.35 5077.35 1.350000 562.417 48.7116 0.175455 0.014458
5079.42 5079.42 1.360000 561.329 49.1664 0.178703 0.014797
5081.51 5081.51 1.380000 556.608 49.9759 0.182861 0.014731
5083.61 5083.61 1.390000 555.614 50.4126 0.186179 0.014822
5085.74 5085.74 1.400000 554.752 50.863 0.189253 0.014744
5087.89 5087.89 1.410000 553.632 51.3102 0.192491 0.015097
5090.05 5090.05 1.430000 553.739 52.126 0.196903 0.015062
5092.23 5092.23 1.440000 552.768 52.5671 0.199689 0.015483
5094.44 5094.44 1.450000 554.402 53.0196 0.203517 0.015886
5096.67 5096.66 1.460000 556.911 53.4818 0.206499 0.016365
5098.9 5098.9 1.480000 555.849 54.3009 0.210846 0.016824
5101.16 5101.16 1.490000 555.074 54.8403 0.215346 0.018174
5103.44 5103.44 1.500000 553.865 55.3521 0.218208 0.018178
5105.74 5105.74 1.510000 554.461 55.8621 0.222153 0.018647
5108.05 5108.05 1.530000 554.507 56.7965 0.227744 0.019028
5110.39 5110.39 1.540000 559.842 57.3333 0.231436 0.019391
5112.74 5112.74 1.550000 559.811 57.8151 0.235162 0.019819
5115.12 5115.12 1.560000 564.026 58.284 0.238672 0.019718
5117.51 5117.51 1.580000 564.212 59.1356 0.244076 0.020333
5119.92 5119.92 1.590000 562.695 59.6301 0.248329 0.020786
5122.35 5122.35 1.600000 563.821 60.1075 0.252048 0.020975
5124.8 5124.8 1.610000 562.978 60.5991 0.255752 0.021310
5127.27 5127.27 1.630000 564.729 61.4712 0.261360 0.021808
5129.76 5129.76 1.640000 568.942 61.9806 0.265982 0.022606
5132.27 5132.27 1.650000 571.793 62.4879 0.270119 0.022838
5134.79 5134.79 1.660000 577.442 62.9889 0.273886 0.022910
5137.34 5137.34 1.680000 582.137 63.877 0.279710 0.023444
5139.9 5139.9 1.690000 583.103 64.3987 0.283755 0.023640
5142.49 5142.49 1.700000 589.645 64.9074 0.288393 0.023810
5145.09 5145.09 1.710000 589.674 65.4285 0.292769 0.024007
5147.71 5147.71 1.730000 593.551 66.3257 0.299179 0.024472
5150.35 5150.35 1.740000 588.881 66.8569 0.304383 0.024924
5153.01 5153.01 1.750000 585.637 67.3926 0.309997 0.025513
5155.69 5155.69 1.760000 589.085 67.9268 0.314752 0.025687
5158.39 5158.39 1.780000 588.063 68.8492 0.322378 0.026590
5161.11 5161.11 1.790000 589.23 69.384 0.327604 0.027318
5163.84 5163.84 1.800000 592.788 69.9273 0.332787 0.028027
5166.6 5166.6 1.810000 591.562 70.4696 0.338356 0.028655
5169.37 5169.37 1.830000 592.748 71.4081 0.345814 0.029000
5172.17 5172.17 1.840000 589.141 71.9507 0.351269 0.029745
5174.98 5174.98 1.850000 589.204 72.4838 0.357505 0.030653
5177.81 5177.81 1.860000 594.336 73.0271 0.363752 0.031400
5180.66 5180.66 1.880000 591.976 73.9672 0.371813 0.032185
5183.53 5183.53 1.890000 592.551 74.545 0.377529 0.032678
5186.42 5186.42 1.900000 593.074 75.0899 0.383819 0.033247
5189.32 5189.32 1.910000 595.611 75.6574 0.389780 0.033967
5192.25 5192.25 1.930000 599.06 76.5987 0.398310 0.034810
5195.2 5195.2 1.940000 595.636 77.1375 0.404532 0.034969
5198.16 5198.16 1.950000 596.534 77.6744 0.411047 0.035631
5201.14 5201.14 1.960000 597.683 78.229 0.417830 0.036139
5204.15 5204.15 1.980000 597.58 79.214 0.427516 0.036976
5207.17 5207.17 1.990000 599.821 79.788 0.434597 0.037464
5210.21 5210.21 2.000000 601.922 80.3642 0.441072 0.037630
5213.27 5213.27 2.010000 601.478 80.9541 0.448689 0.038799
5216.35 5216.35 2.030000 603.439 81.9123 0.458202 0.039218
5219.45 5219.45 2.040000 605.514 82.4921 0.466034 0.040347
5222.56 5222.56 2.050000 605.586 83.0601 0.472689 0.040684
5225.7 5225.7 2.060000 607.251 83.6019 0.480650 0.041999
5228.85 5228.85 2.080000 607.947 84.5492 0.491032 0.042973
5232.03 5232.03 2.090000 612.089 85.1218 0.498329 0.043339
5235.22 5235.22 2.100000 612.09 85.7131 0.507056 0.044696
5238.43 5238.43 2.110000 612.96 86.31 0.515175 0.045521
5241.66 5241.66 2.130000 616.081 87.321 0.525869 0.046492
5244.92 5244.92 2.140000 621.654 88.2568 0.536334 0.047760
5248.18 5248.18 2.150000 623.649 88.656 0.543888 0.048898
5251.47 5251.47 2.160000 623.531 89.2877 0.552812 0.049707
5254.78 5254.78 2.180000 627.617 90.6986 0.566844 0.050711
5258.11 5258.11 2.190000 627.536 91.4579 0.577201 0.052092
5261.45 5261.45 2.200000 627.851 92.0808 0.586864 0.053620
5264.82 5264.82 2.210000 629.959 92.7658 0.597265 0.054646
5268.2 5268.2 2.230000 629.489 93.9109 0.610503 0.055621
5271.6 5271.6 2.240000 631.778 94.6002 0.621627 0.056788
5275.03 5275.03 2.250000 634.085 95.3998 0.632943 0.058055
5278.47 5278.47 2.260000 635.962 94.6586 0.633818 0.058024
5281.93 5281.93 2.280000 636.831 97.0584 0.656176 0.059979
5285.4 5285.4 2.290000 639.139 97.8965 0.668937 0.061172
5288.9 5288.9 2.300000 638.62 98.6216 0.680666 0.062450
5292.42 5292.42 2.310000 637.954 99.3161 0.692543 0.063630
5295.96 5295.96 2.330000 639.425 100.496 0.708283 0.065939
5299.51 5299.51 2.340000 642.94 101.113 0.719529 0.066475
5303.09 5303.09 2.350000 643.052 101.801 0.732068 0.067881
5306.68 5306.68 2.360000 644.579 102.558 0.745818 0.069746
5310.29 5310.29 2.380000 644.078 103.748 0.761864 0.071506
5313.92 5313.92 2.390000 646.49 104.516 0.775158 0.072873
5317.57 5317.57 2.400000 647.327 105.217 0.788650 0.074259
5321.24 5321.24 2.410000 651.614 105.768 0.800779 0.075697
5324.93 5324.93 2.430000 651.631 106.811 0.817288 0.077978
5328.64 5328.64 2.440000 656.581 107.435 0.830486 0.079040
5332.36 5332.36 2.450000 656.732 108.101 0.844805 0.080907
5336.11 5336.11 2.460000 659.812 108.779 0.858353 0.082722
5339.88 5339.87 2.480000 659.992 109.974 0.876989 0.084685
5343.66 5343.66 2.490000 660.822 110.625 0.891559 0.086318
5347.46 5347.46 2.500000 664.011 111.237 0.906568 0.088654
5351.28 5351.28 2.510000 665.847 111.742 0.920411 0.089904
5355.12 5355.12 2.530000 664.583 112.078 0.933008 0.091765
5358.98 5358.98 2.540000 669.932 113.839 0.956403 0.093844
5362.86 5362.86 2.550000 670.082 114.579 0.972899 0.096028
5366.76 5366.76 2.560000 673.399 115.221 0.989023 0.097794
5370.68 5370.68 2.580000 671.876 116.126 1.007304 0.099687
5374.61 5374.61 2.590000 676.082 116.667 1.022705 0.101839
5378.57 5378.57 2.600000 677.416 117.198 1.037910 0.103321
5382.54 5382.54 2.610000 681.486 118.083 1.056664 0.105524
5386.54 5386.54 2.630000 681.281 119.306 1.078937 0.108583
5390.55 5390.55 2.640000 685.514 119.792 1.095398 0.110968
5394.58 5394.58 2.650000 685.116 120.269 1.110754 0.112497
5398.63 5398.63 2.660000 691.171 120.719 1.126069 0.114856
5402.7 5402.7 2.680000 689.091 121.591 1.146289 0.116826
5406.79 5406.79 2.690000 693.928 121.769 1.160312 0.119290
5410.9 5410.9 2.700000 694.9 121.951 1.173981 0.121203
5415.02 5415.02 2.710000 697.298 122.308 1.190333 0.123610
5419.17 5419.17 2.730000 699.063 122.415 1.203182 0.125396
5423.33 5423.33 2.740000 704.269 122.976 1.221030 0.127797
5427.52 5427.52 2.750000 705.616 123.189 1.236728 0.130366
5431.72 5431.72 2.760000 706.829 123.298 1.250365 0.132095
5435.94 5435.94 2.780000 710.925 123.891 1.269558 0.134965
5440.18 5440.18 2.790000 712.732 124.059 1.285126 0.137068
5444.44 5444.44 2.800000 712.74 124.273 1.301478 0.139703
5448.72 5448.72 2.810000 715.765 124.515 1.317526 0.142135
5453.02 5453.02 2.830000 718.451 125.194 1.338783 0.144774
5457.34 5457.34 2.840000 718.58 125.517 1.357249 0.147519
5461.67 5461.67 2.850000 721.752 125.828 1.375052 0.149861
5466.03 5466.03 2.860000 722.252 126.156 1.393109 0.152022
5470.4 5470.4 2.880000 728.981 126.981 1.417402 0.155877
5474.8 5474.8 2.890000 730.88 127.339 1.436953 0.158567
5479.21 5479.21 2.900000 732.695 127.804 1.457110 0.161149
5483.64 5483.64 2.910000 735.853 128.316 1.478330 0.164369
5488.09 5488.09 2.930000 741.632 129.26 1.505686 0.168105
5492.56 5492.56 2.940000 741.92 129.747 1.527738 0.171300
5497.05 5497.05 2.950000 746.091 130.449 1.552772 0.174352
5501.56 5501.56 2.960000 746.225 130.977 1.575620 0.178221
5506.08 5506.08 2.980000 748.434 131.972 1.605421 0.182178
5510.63 5510.63 2.990000 749.631 132.705 1.631737 0.185832
5515.19 5515.19 3.000000 753.782 133.418 1.657744 0.189774
5519.78 5519.78 3.010000 756.745 134.158 1.685916 0.193859
5524.38 5524.38 3.030000 758.659 135.391 1.720083 0.198784
5529 5529 3.040000 764.988 136.473 1.752119 0.202613
5533.64 5533.64 3.050000 762.014 137.381 1.784610 0.208145
5538.3 5538.3 3.060000 764.075 138.268 1.815456 0.212963
5542.98 5542.98 3.080000 767.35 139.687 1.854512 0.218383
5547.68 5547.68 3.090000 774.571 140.507 1.886685 0.222537
5552.4 5552.4 3.100000 775.622 141.509 1.921236 0.227624
5557.13 5557.13 3.110000 775.017 142.628 1.957910 0.232965
5561.89 5561.89 3.130000 779.125 143.887 1.997010 0.238469
5566.66 5566.66 3.140000 782.421 144.744 2.030925 0.243733
5571.46 5571.46 3.150000 785.038 145.652 2.066929 0.249093
5576.27 5576.27 3.160000 788.485 146.479 2.102476 0.254465
5581.1 5581.1 3.180000 792.027 147.797 2.143972 0.260923
5585.95 5585.95 3.190000 793.244 148.702 2.181779 0.266795
5590.82 5590.82 3.200000 795.968 149.606 2.220301 0.272417
5595.71 5595.71 3.210000 799.857 150.361 2.255150 0.277642
5600.62 5600.62 3.230000 802.775 151.724 2.302422 0.285037
5605.54 5605.54 3.240000 803.988 152.415 2.338079 0.290504
5610.49 5610.49 3.250000 805.678 153.317 2.379019 0.297241
5615.45 5615.45 3.260000 811.393 154.169 2.419122 0.303996
5620.44 5620.44 3.280000 810.342 155.346 2.464316 0.310422
5625.44 5625.44 3.290000 815.384 155.493 2.494883 0.316175
5630.46 5630.46 3.300000 816.099 155.708 2.526175 0.321930
5635.5 5635.5 3.310000 821.542 156.637 2.570236 0.328674
5640.56 5640.56 3.330000 824.248 157.951 2.621665 0.337354
5645.64 5645.64 3.340000 823.081 158.521 2.659707 0.343860
5650.74 5650.74 3.350000 826.25 159.092 2.699893 0.350568
5655.86 5655.86 3.360000 831.892 159.786 2.741890 0.357922
5660.99 5660.99 3.380000 834.181 161.066 2.795637 0.366720
5666.15 5666.15 3.390000 838.931 161.991 2.844378 0.374777
5671.32 5671.32 3.400000 840.34 163.055 2.894352 0.382980
5676.52 5676.52 3.410000 843.682 163.945 2.942830 0.391103
5681.73 5681.73 3.430000 848.159 165.338 2.999788 0.400317
5686.96 5686.96 3.440000 851.518 166.355 3.051659 0.409035
5692.21 5692.21 3.450000 856.017 167.256 3.101105 0.417887
5697.48 5697.48 3.460000 858.666 168.067 3.147934 0.426207
5702.77 5702.77 3.480000 865.762 169.935 3.214975 0.437145
5708.08 5708.08 3.490000 869.116 170.564 3.254099 0.445312