File: xdidata/Data/Ti/Ti-K-NiTiO3.xdi
# XDI/1.0 BlueSky/1.5.0
# Beamline.name: 6BM
# Beamline.xray_source: NSLS-II three-pole wiggler
# Beamline.collimation: paraboloid mirror, 5 nm Rh on 30 nm Pt
# Beamline.focusing: not in use
# Beamline.harmonic_rejection: flat mirror, Si stripe, pitch = 7.0 mrad relative to beam
# Detector.i0: 10 cm N2
# Detector.i1: 25 cm N2
# Detector.i2: 25 cm N2
# Element.symbol: Ti
# Element.edge: K
# Facility.name: NSLS-II
# Facility.energy: 3.0
# Facility.current: 219.6
# Facility.mode: top-off
# Facility.gup: 301027
# Facility.saf: 304156
# Mono.name: Si(111)
# Mono.d_spacing: 3.13526
# Mono.encoder_resolution: 0.0000050 deg/ct
# Mono.angle_offset: 16.0571 deg
# Mono.scan_mode: pseudo channel cut
# Mono.scan_type: step
# Mono.direction: forward in energy
# Sample.name: NiTiO3
# Sample.prep: Powder in polyethylene glycol pellet
# Sample.x_position: -97.532 mm
# Sample.y_position: 117.543 mm
# Sample.wheel_position: -510.000 mm
# Scan.experimenters: Bruce Ravel, Martin Stennett
# Scan.edge_energy: 4966.0
# Scan.start_time: 2019-05-29T23:21:34
# Scan.end_time: 2019-05-30T00:04:18
# Scan.transient_id: 9770
# Scan.uid: e68ce967-35fe-4a24-94db-a3b576784ae8
# Scan.plot_hint: ln(I0/It)  --  ln($5/$6)
# Scan.sequence: merge of 3 scans
# Column.1: energy eV
# Column.2: requested_energy eV
# Column.3: measurement_time seconds
# Column.4: mutrans
# Column.5: i0
# Column.6: itrans
# Column.7: irefer
# /////
#  sample disk prepared by Martin
# -----
# energy   requested_energy   measurement_time   mutrans   i0   itrans   irefer
4765.98 4766 0.500000 3.753255 11.0335 0.258660 0.021463
4776.01 4776 0.500000 3.749914 11.2 0.263421 0.021791
4786.01 4786 0.500000 3.723311 11.4365 0.276235 0.023076
4796.01 4796 0.500000 3.696857 11.6732 0.289514 0.024497
4806.01 4806 0.500000 3.669784 11.9376 0.304193 0.026007
4816.01 4816 0.500000 3.644030 12.1717 0.318249 0.027635
4826.01 4826 0.500000 3.618195 12.4028 0.332785 0.029036
4836 4836 0.500000 3.591683 12.6376 0.348189 0.030986
4846 4846 0.500000 3.566974 12.8753 0.363613 0.032526
4856 4856 0.500000 3.541106 13.1097 0.379932 0.034406
4866.01 4866 0.500000 3.516145 13.339 0.396352 0.036319
4876 4876 0.500000 3.490562 13.5677 0.413593 0.038420
4886 4886 0.500000 3.466218 13.7923 0.430801 0.040465
4896 4896 0.500000 3.441162 14.009 0.448673 0.042533
4906 4906 0.500000 3.416499 14.2293 0.467107 0.045141
4916 4916 0.500000 3.392705 14.4484 0.485720 0.047191
4926 4926 0.500000 3.368437 14.6651 0.505115 0.049788
4936 4936 0.500000 3.345153 14.8764 0.524463 0.052250
4938 4938 0.500000 3.340603 14.9183 0.528342 0.052749
4940 4940 0.500000 3.335938 14.9567 0.532178 0.053220
4941.99 4942 0.500000 3.331227 14.9923 0.535965 0.053939
4944 4944 0.500000 3.327120 15.0316 0.539580 0.054252
4946.01 4946 0.500000 3.322087 15.067 0.543577 0.054726
4948.01 4948 0.500000 3.317654 15.1015 0.547249 0.055200
4950.01 4950 0.500000 3.312859 15.1389 0.551240 0.055405
4952 4952 0.500000 3.308671 15.1704 0.554699 0.056311
4954 4954 0.500000 3.304585 15.2021 0.558136 0.056725
4956 4956 0.500000 3.300015 15.2327 0.561819 0.056952
4956.24 4956.25 0.500000 3.299235 15.237 0.562417 0.057223
4956.49 4956.5 0.500000 3.299062 15.2376 0.562538 0.057068
4956.75 4956.75 0.500000 3.299026 15.2413 0.562697 0.057278
4956.99 4957 0.500000 3.298609 15.2474 0.563157 0.056925
4957.24 4957.25 0.500000 3.297714 15.2847 0.565038 0.057401
4957.49 4957.5 0.500000 3.297256 15.286 0.565344 0.057310
4957.74 4957.75 0.500000 3.296796 15.2903 0.565764 0.057545
4957.99 4958 0.500000 3.296208 15.2952 0.566275 0.057613
4958.24 4958.25 0.500000 3.295612 15.2991 0.566757 0.057512
4958.49 4958.5 0.500000 3.295014 15.3046 0.567301 0.057643
4958.74 4958.75 0.500000 3.294417 15.3113 0.567889 0.057655
4959 4959 0.500000 3.294042 15.3123 0.568140 0.057733
4959.25 4959.25 0.500000 3.293601 15.3161 0.568536 0.057786
4959.5 4959.5 0.500000 3.293007 15.3204 0.569034 0.057855
4959.75 4959.75 0.500000 3.292340 15.3264 0.569629 0.057789
4959.99 4960 0.500000 3.291849 15.3299 0.570041 0.057997
4960.25 4960.25 0.500000 3.291715 15.3328 0.570226 0.057940
4960.49 4960.5 0.500000 3.291169 15.3379 0.570725 0.057872
4960.74 4960.75 0.500000 3.290957 15.3437 0.571065 0.057690
4960.99 4961 0.500000 3.290370 15.3485 0.571578 0.058004
4961.25 4961.25 0.500000 3.290280 15.3543 0.571846 0.057593
4961.5 4961.5 0.500000 3.289476 15.359 0.572481 0.057994
4961.75 4961.75 0.500000 3.289408 15.3582 0.572490 0.057811
4962 4962 0.500000 3.289283 15.3629 0.572738 0.057716
4962.25 4962.25 0.500000 3.288598 15.3701 0.573397 0.057589
4962.49 4962.5 0.500000 3.288361 15.3771 0.573796 0.057550
4962.75 4962.75 0.500000 3.288113 15.3797 0.574034 0.057239
4963 4963 0.500000 3.287708 15.3934 0.574779 0.056850
4963.25 4963.25 0.500000 3.287726 15.3984 0.574956 0.056307
4963.5 4963.5 0.500000 3.287434 15.4046 0.575356 0.056069
4963.75 4963.75 0.500000 3.286725 15.428 0.576637 0.055124
4964 4964 0.500000 3.286869 15.4299 0.576626 0.053685
4964.25 4964.25 0.500000 3.286602 15.4339 0.576928 0.051382
4964.5 4964.5 0.500000 3.286853 15.4366 0.576885 0.048057
4964.74 4964.75 0.500000 3.286713 15.4407 0.577118 0.044334
4965 4965 0.500000 3.287315 15.4456 0.576953 0.041377
4965.25 4965.25 0.500000 3.288347 15.4491 0.576490 0.039404
4965.5 4965.5 0.500000 3.289094 15.4516 0.576154 0.039395
4965.75 4965.75 0.500000 3.290861 15.456 0.575300 0.040392
4966 4966 0.500000 3.293970 15.4624 0.573751 0.041905
4966.25 4966.25 0.500000 3.299022 15.4679 0.571085 0.043209
4966.5 4966.5 0.500000 3.306892 15.4693 0.566657 0.043958
4966.75 4966.75 0.500000 3.318778 15.4704 0.559975 0.043891
4967 4967 0.500000 3.327812 15.4726 0.555021 0.043982
4967.25 4967.25 0.500000 3.328781 15.473 0.554522 0.043766
4967.5 4967.5 0.500000 3.324274 15.4776 0.557180 0.043657
4967.75 4967.75 0.500000 3.322285 15.483 0.558474 0.042954
4968 4968 0.500000 3.327053 15.4913 0.556123 0.042028
4968.25 4968.25 0.500000 3.343311 15.4945 0.547277 0.040632
4968.5 4968.5 0.500000 3.370477 15.4959 0.532726 0.039005
4968.75 4968.75 0.500000 3.405468 15.4965 0.514401 0.037146
4969 4969 0.500000 3.431683 15.497 0.501107 0.035869
4969.25 4969.25 0.500000 3.434452 15.5 0.499796 0.035278
4969.5 4969.5 0.500000 3.420321 15.5011 0.506906 0.035575
4969.75 4969.75 0.500000 3.401213 15.5065 0.516890 0.036109
4970 4970 0.500000 3.383497 15.5124 0.526214 0.036582
4970.25 4970.25 0.500000 3.368048 15.5213 0.534781 0.036909
4970.5 4970.5 0.500000 3.354724 15.5303 0.542236 0.037301
4970.75 4970.75 0.500000 3.342932 15.5419 0.549120 0.037548
4971 4971 0.500000 3.334493 15.5503 0.554101 0.037428
4971.25 4971.25 0.500000 3.329393 15.56 0.557285 0.037443
4971.5 4971.5 0.500000 3.326836 15.565 0.558886 0.036723
4971.75 4971.75 0.500000 3.326948 15.5724 0.559090 0.036101
4972 4972 0.500000 3.328137 15.5746 0.558508 0.035447
4972.25 4972.25 0.500000 3.328485 15.5789 0.558461 0.034582
4972.5 4972.5 0.500000 3.328486 15.5789 0.558462 0.034088
4972.75 4972.75 0.500000 3.328142 15.5853 0.558886 0.033178
4973 4973 0.500000 3.326973 15.5889 0.559668 0.032678
4973.25 4973.25 0.500000 3.326684 15.59 0.559864 0.031874
4973.5 4973.5 0.500000 3.327412 15.5922 0.559537 0.031481
4973.75 4973.75 0.500000 3.329892 15.5947 0.558256 0.030661
4974 4974 0.500000 3.334715 15.5981 0.555704 0.030067
4974.25 4974.25 0.500000 3.341808 15.6023 0.551895 0.029370
4974.5 4974.5 0.500000 3.350154 15.6022 0.547288 0.028500
4974.75 4974.75 0.500000 3.360333 15.602 0.541710 0.027751
4975 4975 0.500000 3.372102 15.6005 0.535338 0.026972
4975.25 4975.25 0.500000 3.385464 15.6013 0.528290 0.026320
4975.5 4975.5 0.500000 3.400853 15.6016 0.520243 0.025316
4975.75 4975.75 0.500000 3.418996 15.6014 0.510974 0.024353
4976 4976 0.500000 3.436919 15.6012 0.501866 0.023630
4976.25 4976.25 0.500000 3.454695 15.6023 0.492997 0.022978
4976.5 4976.5 0.500000 3.470864 15.6013 0.485021 0.022107
4976.75 4976.75 0.500000 3.485742 15.5992 0.477820 0.021670
4977 4977 0.500000 3.499134 15.5998 0.471507 0.021048
4977.25 4977.25 0.500000 3.510383 15.6067 0.466432 0.020363
4977.5 4977.5 0.500000 3.517569 15.6182 0.463433 0.020500
4977.75 4977.75 0.500000 3.523121 15.6431 0.461609 0.020281
4978 4978 0.500000 3.525963 15.6451 0.460334 0.019797
4978.25 4978.25 0.500000 3.527978 15.6484 0.459488 0.019587
4978.5 4978.5 0.500000 3.532276 15.652 0.457601 0.019493
4978.75 4978.75 0.500000 3.538853 15.6497 0.454560 0.019333
4979 4979 0.500000 3.546807 15.6504 0.450981 0.019008
4979.25 4979.25 0.500000 3.555934 15.6475 0.446843 0.018746
4979.5 4979.5 0.500000 3.564713 15.6456 0.442855 0.018621
4979.75 4979.75 0.500000 3.578235 15.643 0.436863 0.018439
4980 4980 0.500000 3.595283 15.6372 0.429230 0.017841
4980.25 4980.25 0.500000 3.615109 15.6358 0.420788 0.017528
4980.5 4980.5 0.500000 3.637070 15.6325 0.411521 0.017178
4980.75 4980.75 0.500000 3.660479 15.6297 0.402079 0.016980
4981 4981 0.500000 3.684687 15.6295 0.392395 0.016405
4981.25 4981.25 0.500000 3.708689 15.6294 0.383174 0.016062
4981.5 4981.5 0.500000 3.731643 15.6318 0.374460 0.015589
4981.75 4981.75 0.500000 3.753799 15.6356 0.366353 0.015118
4982 4982 0.500000 3.774302 15.6377 0.358885 0.015022
4982.25 4982.25 0.500000 3.791779 15.6404 0.352752 0.014868
4982.5 4982.5 0.500000 3.806413 15.6398 0.347602 0.014571
4982.75 4982.75 0.500000 3.818751 15.6412 0.343408 0.014182
4983 4983 0.500000 3.829216 15.6399 0.339806 0.014025
4983.25 4983.25 0.500000 3.834704 15.6425 0.338013 0.014152
4983.5 4983.5 0.500000 3.836954 15.6383 0.337148 0.014039
4983.75 4983.75 0.500000 3.836839 15.6352 0.337121 0.014085
4984 4984 0.500000 3.834565 15.6323 0.337831 0.014246
4984.25 4984.25 0.500000 3.831284 15.632 0.338928 0.014410
4984.5 4984.5 0.500000 3.828618 15.6325 0.339841 0.014373
4984.75 4984.75 0.500000 3.828481 15.6339 0.339920 0.014324
4985 4985 0.500000 3.829228 15.6324 0.339636 0.014665
4985.25 4985.25 0.500000 3.834143 15.634 0.337991 0.014458
4985.5 4985.5 0.500000 3.839155 15.6369 0.336379 0.014429
4985.75 4985.75 0.500000 3.845223 15.636 0.334301 0.014423
4986 4986 0.500000 3.853876 15.6355 0.331437 0.014556
4986.25 4986.25 0.500000 3.860764 15.6369 0.329161 0.014390
4986.5 4986.5 0.500000 3.868914 15.666 0.327136 0.014400
4986.75 4986.75 0.500000 3.877772 15.6654 0.324237 0.014337
4987 4987 0.500000 3.888266 15.6611 0.320797 0.014082
4987.25 4987.25 0.500000 3.898769 15.6592 0.317327 0.014461
4987.5 4987.5 0.500000 3.911927 15.6591 0.313243 0.014080
4987.75 4987.75 0.500000 3.926509 15.661 0.308716 0.013943
4988 4988 0.500000 3.943314 15.6657 0.303626 0.013448
4988.25 4988.25 0.500000 3.958399 15.6704 0.299211 0.013352
4988.5 4988.5 0.500000 3.970619 15.6802 0.295765 0.013485
4988.75 4988.75 0.500000 3.978704 15.6928 0.293634 0.013166
4989 4989 0.500000 3.979975 15.7063 0.293491 0.013241
4989.25 4989.25 0.500000 3.975923 15.7195 0.294928 0.013662
4989.5 4989.5 0.500000 3.967355 15.7305 0.297708 0.013417
4989.75 4989.75 0.500000 3.955044 15.7408 0.301582 0.013513
4990.01 4990 0.500000 3.939146 15.7555 0.306713 0.013871
4990.25 4990.25 0.500000 3.924321 15.7675 0.311494 0.013960
4990.5 4990.5 0.500000 3.911103 15.7798 0.315842 0.013970
4990.75 4990.75 0.500000 3.898381 15.7895 0.320124 0.014262
4991 4991 0.500000 3.887895 15.7984 0.323654 0.014417
4991.25 4991.25 0.500000 3.878725 15.8043 0.326788 0.014705
4991.5 4991.5 0.500000 3.871434 15.8152 0.329405 0.014734
4991.76 4991.75 0.500000 3.864445 15.8284 0.332013 0.014847
4992 4992 0.500000 3.859560 15.8681 0.334447 0.015045
4992.25 4992.25 0.500000 3.853463 15.877 0.336669 0.015206
4992.5 4992.5 0.500000 3.849459 15.8849 0.338202 0.015072
4992.75 4992.75 0.500000 3.844450 15.89 0.340004 0.015261
4993 4993 0.500000 3.840282 15.8942 0.341523 0.015251
4993.25 4993.25 0.500000 3.835453 15.8981 0.343265 0.015349
4993.5 4993.5 0.500000 3.831494 15.9032 0.344757 0.015613
4993.75 4993.75 0.500000 3.826439 15.9058 0.346541 0.015394
4994 4994 0.500000 3.823342 15.9097 0.347700 0.015429
4994.25 4994.25 0.500000 3.819658 15.918 0.349156 0.015673
4994.5 4994.5 0.500000 3.816730 15.9224 0.350289 0.015428
4994.75 4994.75 0.500000 3.813479 15.9239 0.351453 0.015526
4995 4995 0.500000 3.811223 15.9287 0.352361 0.015401
4995.25 4995.25 0.500000 3.809160 15.93 0.353122 0.015393
4995.5 4995.5 0.500000 3.806781 15.9321 0.354005 0.015569
4995.75 4995.75 0.500000 3.806622 15.9338 0.354098 0.015471
4996 4996 0.700000 3.804935 22.2937 0.496270 0.021251
4997.09 4997.08 0.710000 3.804182 22.6422 0.504400 0.021095
4998.18 4998.18 0.730000 3.814467 23.2772 0.513274 0.021161
4999.3 4999.29 0.740000 3.832767 23.6094 0.511122 0.020566
5000.44 5000.43 0.750000 3.849526 23.9688 0.510286 0.020768
5001.58 5001.58 0.760000 3.856316 24.332 0.514526 0.020822
5002.77 5002.76 0.780000 3.847068 25.0258 0.534121 0.022095
5003.95 5003.95 0.790000 3.831650 25.4083 0.550695 0.022779
5005.16 5005.16 0.800000 3.816417 25.7894 0.567524 0.023700
5006.4 5006.39 0.810000 3.801007 26.1777 0.585043 0.024922
5007.65 5007.64 0.830000 3.788344 26.8833 0.608453 0.026456
5008.91 5008.91 0.840000 3.771721 27.2609 0.627320 0.028193
5010.21 5010.2 0.850000 3.748574 27.6473 0.651147 0.029167
5011.52 5011.51 0.860000 3.725400 28.028 0.675583 0.030427
5012.83 5012.83 0.880000 3.708240 28.7287 0.704428 0.032176
5014.19 5014.18 0.890000 3.696606 29.0973 0.721837 0.033330
5015.55 5015.54 0.900000 3.687333 29.4769 0.738072 0.034051
5016.94 5016.93 0.910000 3.681671 29.8551 0.751774 0.035069
5018.34 5018.33 0.930000 3.677690 30.5677 0.772785 0.036073
5019.76 5019.75 0.940000 3.671898 30.9631 0.787337 0.037224
5021.19 5021.19 0.950000 3.663637 31.3567 0.803953 0.038226
5022.65 5022.65 0.960000 3.656029 31.7451 0.820124 0.039234
5024.14 5024.13 0.980000 3.651061 32.4706 0.843056 0.040217
5025.64 5025.63 0.990000 3.649613 32.8689 0.854625 0.040488
5027.14 5027.14 1.000000 3.651311 33.2665 0.863503 0.040740
5028.69 5028.68 1.010000 3.651320 33.6566 0.873618 0.041088
5030.24 5030.24 1.030000 3.651499 34.3822 0.892291 0.041577
5031.82 5031.81 1.040000 3.652638 34.7828 0.901663 0.041175
5033.4 5033.4 1.050000 3.655040 35.1896 0.910014 0.040762
5035.01 5035.01 1.060000 3.658587 35.5871 0.917042 0.040163
5036.65 5036.65 1.080000 3.663289 36.4126 0.933909 0.040068
5038.29 5038.3 1.090000 3.667747 36.8226 0.940229 0.040396
5039.97 5039.97 1.100000 3.670965 37.227 0.947503 0.040777
5041.65 5041.65 1.110000 3.671851 37.6327 0.956972 0.041074
5043.36 5043.36 1.130000 3.670707 38.3843 0.977207 0.042486
5045.09 5045.09 1.140000 3.668180 38.7973 0.990221 0.043855
5046.83 5046.83 1.150000 3.663898 39.2085 1.005006 0.045291
5048.6 5048.6 1.160000 3.658913 39.6277 1.020827 0.046950
5050.38 5050.38 1.180000 3.651929 40.3987 1.047981 0.049266
5052.18 5052.18 1.190000 3.645070 40.8162 1.066094 0.051371
5054 5054 1.200000 3.638658 41.2485 1.084323 0.053109
5055.84 5055.84 1.210000 3.632489 41.6745 1.102290 0.054346
5057.7 5057.7 1.230000 3.625400 42.4597 1.131053 0.055609
5059.58 5059.58 1.240000 3.618600 42.9054 1.150728 0.056939
5061.48 5061.48 1.250000 3.614483 43.3391 1.167155 0.057992
5063.4 5063.4 1.260000 3.611776 43.7823 1.182285 0.058992
5065.33 5065.33 1.280000 3.608750 44.5815 1.207517 0.060563
5067.29 5067.29 1.290000 3.604540 45.0319 1.224868 0.061846
5069.26 5069.26 1.300000 3.600026 45.4813 1.242680 0.063533
5071.26 5071.26 1.310000 3.597508 46.0332 1.260934 0.064382
5073.27 5073.27 1.330000 3.594225 46.8417 1.287301 0.066033
5075.3 5075.3 1.340000 3.591323 47.2938 1.303503 0.066698
5077.35 5077.35 1.350000 3.588437 47.7646 1.320282 0.066687
5079.42 5079.42 1.360000 3.583720 48.2309 1.339472 0.066716
5081.51 5081.51 1.380000 3.577199 49.0569 1.371325 0.067186
5083.61 5083.61 1.390000 3.568537 49.5304 1.396608 0.067225
5085.74 5085.74 1.400000 3.560063 50.006 1.422004 0.067569
5087.89 5087.89 1.410000 3.553546 50.4882 1.445113 0.067821
5090.05 5090.05 1.430000 3.549227 51.3368 1.475756 0.068656
5092.23 5092.23 1.440000 3.546382 51.8321 1.494251 0.069986
5094.44 5094.44 1.450000 3.542864 52.3354 1.514073 0.072168
5096.66 5096.66 1.460000 3.537646 52.9231 1.539094 0.074848
5098.9 5098.9 1.480000 3.530227 53.8151 1.576698 0.078900
5101.16 5101.16 1.490000 3.521153 54.3079 1.605652 0.082409
5103.44 5103.44 1.500000 3.511414 54.8153 1.636489 0.085758
5105.74 5105.74 1.510000 3.501254 55.3217 1.668486 0.088386
5108.05 5108.05 1.530000 3.493198 56.1841 1.708190 0.090882
5110.39 5110.39 1.540000 3.485957 56.6945 1.736231 0.092749
5112.74 5112.74 1.550000 3.480270 57.2051 1.761856 0.093803
5115.12 5115.12 1.560000 3.475176 57.7115 1.786526 0.095845
5117.51 5117.51 1.580000 3.469809 58.6043 1.823930 0.097895
5119.92 5119.92 1.590000 3.465097 59.1294 1.848973 0.099598
5122.35 5122.35 1.600000 3.460909 59.6561 1.873269 0.101130
5124.8 5124.8 1.610000 3.455946 60.1781 1.899065 0.102831
5127.27 5127.27 1.630000 3.450704 61.0944 1.938109 0.105880
5129.76 5129.76 1.640000 3.446746 61.6456 1.963346 0.107769
5132.27 5132.27 1.650000 3.444147 62.1834 1.985635 0.109228
5134.79 5134.79 1.660000 3.442277 62.7275 2.006755 0.110170
5137.34 5137.34 1.680000 3.439419 63.6735 2.042853 0.112071
5139.9 5139.9 1.690000 3.436419 64.234 2.067026 0.112547
5142.49 5142.49 1.700000 3.432653 64.7967 2.093000 0.113426
5145.09 5145.09 1.710000 3.427904 65.3628 2.121337 0.114542
5147.71 5147.71 1.730000 3.422878 66.3067 2.162819 0.116009
5150.35 5150.35 1.740000 3.417502 66.8888 2.193563 0.118062
5153.01 5153.01 1.750000 3.411313 67.4545 2.225855 0.120443
5155.69 5155.69 1.760000 3.404615 68.0366 2.260134 0.123540
5158.39 5158.39 1.780000 3.397033 68.9955 2.309433 0.127869
5161.11 5161.11 1.790000 3.389530 69.5818 2.346615 0.131118
5163.84 5163.84 1.800000 3.381956 70.1705 2.384434 0.134446
5166.6 5166.6 1.810000 3.374252 70.7582 2.423016 0.137680
5169.37 5169.37 1.830000 3.365852 71.7451 2.477554 0.142011
5172.17 5172.17 1.840000 3.356438 72.4872 2.526826 0.146506
5174.98 5174.98 1.850000 3.347054 73.063 2.570897 0.150824
5177.81 5177.81 1.860000 3.338888 73.659 2.613153 0.154720
5180.66 5180.66 1.880000 3.332550 74.6588 2.665443 0.159036
5183.53 5183.53 1.890000 3.326860 75.2845 2.703126 0.161872
5186.42 5186.42 1.900000 3.321348 75.8852 2.739771 0.164615
5189.32 5189.32 1.910000 3.316437 76.4893 2.775179 0.167329
5192.25 5192.25 1.930000 3.312177 77.5002 2.823850 0.170387
5195.2 5195.2 1.940000 3.308973 78.0905 2.854491 0.172338
5198.16 5198.16 1.950000 3.305469 78.6954 2.886694 0.174726
5201.14 5201.14 1.960000 3.301038 79.4676 2.927976 0.177336
5204.15 5204.15 1.980000 3.294924 80.5042 2.984349 0.180681
5207.17 5207.17 1.990000 3.287851 81.1307 3.028929 0.183797
5210.21 5210.21 2.000000 3.281733 81.7498 3.070775 0.185905
5213.27 5213.27 2.010000 3.275130 82.3759 3.114784 0.189267
5216.35 5216.35 2.030000 3.267593 83.4439 3.179024 0.193736
5219.45 5219.45 2.040000 3.259534 84.0975 3.229873 0.198140
5222.56 5222.56 2.050000 3.252042 84.7631 3.279919 0.202550
5225.7 5225.7 2.060000 3.244387 85.3974 3.329855 0.206506
5228.85 5228.85 2.080000 3.236886 86.4489 3.396215 0.211470
5232.03 5232.03 2.090000 3.229670 87.1212 3.447429 0.216151
5235.22 5235.22 2.100000 3.222092 87.9896 3.508261 0.221416
5238.43 5238.43 2.110000 3.214201 88.6869 3.564092 0.226742
5241.66 5241.66 2.130000 3.206205 89.746 3.635614 0.232961
5244.92 5244.92 2.140000 3.197827 90.381 3.692132 0.238708
5248.18 5248.18 2.150000 3.190194 90.4903 3.724926 0.242789
5251.47 5251.47 2.160000 3.183532 91.4365 3.789048 0.248477
5254.78 5254.78 2.180000 3.177607 92.8791 3.871680 0.255860
5258.11 5258.11 2.190000 3.172135 93.7094 3.927746 0.260804
5261.45 5261.45 2.200000 3.166590 94.4216 3.979596 0.265677
5264.82 5264.82 2.210000 3.161266 95.2175 4.034558 0.270654
5268.2 5268.2 2.230000 3.156255 96.4281 4.106382 0.276123
5271.6 5271.6 2.240000 3.150568 97.1832 4.162130 0.280703
5275.03 5275.03 2.250000 3.144719 98.0699 4.224757 0.285996
5278.47 5278.47 2.260000 3.138163 97.9404 4.246940 0.288637
5281.93 5281.93 2.280000 3.131194 99.8678 4.360784 0.296850
5285.4 5285.4 2.290000 3.125042 100.764 4.427059 0.301787
5288.9 5288.9 2.300000 3.118592 101.539 4.489988 0.307388
5292.42 5292.42 2.310000 3.111897 102.333 4.555486 0.313698
5295.96 5295.96 2.330000 3.104308 103.621 4.647979 0.321658
5299.51 5299.51 2.340000 3.095982 104.297 4.717444 0.328710
5303.09 5303.09 2.350000 3.088528 105.097 4.789167 0.335646
5306.68 5306.68 2.360000 3.081398 105.934 4.861821 0.342333
5310.29 5310.29 2.380000 3.074391 107.192 4.954158 0.350460
5313.92 5313.92 2.390000 3.067559 107.982 5.024887 0.357114
5317.57 5317.57 2.400000 3.060461 108.777 5.097977 0.364539
5321.24 5321.24 2.410000 3.053202 109.506 5.169514 0.371618
5324.93 5324.93 2.430000 3.045920 110.673 5.262773 0.380206
5328.64 5328.64 2.440000 3.038571 111.203 5.327003 0.387471
5332.36 5332.36 2.450000 3.032321 111.921 5.395012 0.395154
5336.11 5336.11 2.460000 3.025614 112.733 5.470730 0.403409
5339.87 5339.87 2.480000 3.018416 113.976 5.570999 0.413784
5343.66 5343.66 2.490000 3.011211 114.688 5.646338 0.422010
5347.46 5347.46 2.500000 3.003858 115.263 5.716484 0.430171
5351.28 5351.28 2.510000 2.996028 115.981 5.797345 0.437867
5355.12 5355.12 2.530000 2.988939 116.564 5.867941 0.445884
5358.98 5358.98 2.540000 2.981165 118.1 5.991635 0.457121
5362.86 5362.86 2.550000 2.973835 118.759 6.069428 0.464981
5366.76 5366.76 2.560000 2.966382 119.304 6.142850 0.472568
5370.68 5370.68 2.580000 2.959180 120.274 6.237591 0.481371
5374.61 5374.61 2.590000 2.952234 120.787 6.307878 0.489430
5378.57 5378.57 2.600000 2.945416 121.31 6.378482 0.496891
5382.54 5382.54 2.610000 2.937816 122.105 6.469301 0.507144
5386.54 5386.54 2.630000 2.930716 123.06 6.566374 0.517575
5390.55 5390.55 2.640000 2.923191 123.462 6.637523 0.526071
5394.58 5394.58 2.650000 2.915909 124 6.715187 0.534533
5398.63 5398.63 2.660000 2.908866 124.162 6.771508 0.542965
5402.7 5402.7 2.680000 2.901803 125.143 6.873359 0.553182
5406.79 5406.79 2.690000 2.894409 125.409 6.939075 0.562511
5410.9 5410.9 2.700000 2.886619 125.728 7.011129 0.571614
5415.02 5415.02 2.710000 2.878506 126.17 7.093095 0.581991
5419.17 5419.17 2.730000 2.870901 126.546 7.168525 0.591363
5423.33 5423.33 2.740000 2.863354 127.152 7.257424 0.602645
5427.52 5427.52 2.750000 2.855910 127.513 7.332472 0.612289
5431.72 5431.72 2.760000 2.848340 127.92 7.411741 0.622593
5435.94 5435.94 2.780000 2.840710 128.761 7.517594 0.635598
5440.18 5440.18 2.790000 2.833275 129.225 7.600998 0.646414
5444.44 5444.44 2.800000 2.826151 129.683 7.682468 0.656819
5448.72 5448.72 2.810000 2.818765 130.181 7.769190 0.668426
5453.02 5453.02 2.830000 2.811334 131.128 7.884025 0.681778
5457.34 5457.34 2.840000 2.803923 131.707 7.977716 0.693118
5461.67 5461.67 2.850000 2.796480 132.335 8.075682 0.705644
5466.03 5466.03 2.860000 2.788742 132.965 8.177170 0.718268
5470.4 5470.4 2.880000 2.781392 134.257 8.317503 0.734036
5474.8 5474.8 2.890000 2.774438 135.141 8.430667 0.747786
5479.21 5479.21 2.900000 2.767452 135.868 8.535482 0.761072
5483.64 5483.64 2.910000 2.760235 136.546 8.640201 0.774729
5488.09 5488.09 2.930000 2.752947 137.732 8.778979 0.790989
5492.56 5492.56 2.940000 2.745323 138.47 8.893575 0.806521
5497.05 5497.05 2.950000 2.737247 139.215 9.013940 0.821608
5501.56 5501.56 2.960000 2.729419 140.025 9.137661 0.837778
5506.08 5506.08 2.980000 2.721451 141.297 9.294375 0.856865
5510.63 5510.63 2.990000 2.713712 142.38 9.438394 0.874548
5515.19 5515.19 3.000000 2.705953 143.22 9.568010 0.891095
5519.78 5519.78 3.010000 2.697865 144.119 9.706238 0.909504
5524.38 5524.38 3.030000 2.690005 145.462 9.874064 0.930815
5529 5529 3.040000 2.682017 146.393 10.0169 0.949735
5533.64 5533.64 3.050000 2.674183 147.656 10.1828 0.970843
5538.3 5538.3 3.060000 2.666703 148.422 10.3125 0.988805
5542.98 5542.98 3.080000 2.658816 149.745 10.4868 1.010905
5547.68 5547.68 3.090000 2.651247 150.595 10.6265 1.030951
5552.4 5552.4 3.100000 2.643915 151.408 10.7625 1.049409
5557.13 5557.13 3.110000 2.636458 152.245 10.903 1.068934
5561.89 5561.89 3.130000 2.629203 153.587 11.0792 1.092649
5566.66 5566.66 3.140000 2.621825 154.465 11.225 1.113276
5571.46 5571.46 3.150000 2.614515 155.299 11.3684 1.133083
5576.27 5576.27 3.160000 2.607091 156.131 11.5145 1.154959
5581.1 5581.1 3.180000 2.599793 157.462 11.6977 1.179569
5585.95 5585.95 3.190000 2.592299 158.425 11.8578 1.201955
5590.82 5590.82 3.200000 2.584579 159.253 12.0122 1.224749
5595.71 5595.71 3.210000 2.576841 160.115 12.171 1.247418
5600.62 5600.62 3.230000 2.569076 161.407 12.3648 1.274672
5605.54 5605.54 3.240000 2.561492 162.279 12.5263 1.298622
5610.49 5610.49 3.250000 2.553556 163.1 12.69 1.322695
5615.45 5615.45 3.260000 2.545833 163.945 12.8546 1.347804
5620.44 5620.44 3.280000 2.538053 165.232 13.0567 1.376111
5625.44 5625.44 3.290000 2.530299 165.312 13.1647 1.395780
5630.46 5630.46 3.300000 2.523081 166.068 13.3207 1.421332
5635.5 5635.5 3.310000 2.514844 166.821 13.4918 1.448040
5640.56 5640.56 3.330000 2.507159 168.246 13.712 1.480430
5645.64 5645.64 3.340000 2.499849 168.958 13.871 1.506087
5650.74 5650.74 3.350000 2.492121 169.508 14.0242 1.531715
5655.86 5655.86 3.360000 2.484333 170.298 14.1996 1.559846
5660.99 5660.99 3.380000 2.476506 171.79 14.4366 1.594722
5666.15 5666.15 3.390000 2.468503 172.742 14.6333 1.625641
5671.32 5671.32 3.400000 2.461042 174.232 14.87 1.661485
5676.52 5676.52 3.410000 2.453586 175.391 15.0809 1.694942
5681.73 5681.73 3.430000 2.445923 176.867 15.3249 1.731899
5686.96 5686.96 3.440000 2.438322 177.781 15.5216 1.764425
5692.21 5692.21 3.450000 2.430571 178.87 15.7382 1.799417
5697.48 5697.48 3.460000 2.422951 179.85 15.9455 1.833306
5702.77 5702.77 3.480000 2.415168 181.206 16.1912 1.872418
5708.08 5708.08 3.490000 2.407530 182.062 16.3924 1.906618