File: xdidata/Ta/Ta-L3-Ta.xdi
# XDI/1.0 BlueSky/1.5.3
# Beamline.name: 6BM
# Beamline.xray_source: NSLS-II three-pole wiggler
# Beamline.collimation: paraboloid mirror, 5 nm Rh on 30 nm Pt
# Beamline.focusing: not in use
# Beamline.harmonic_rejection: flat mirror, Pt stripe, pitch = 7.0 mrad relative to beam
# Detector.i0: 10 cm N2
# Detector.I1: 25 cm N2
# Detector.I2: 25 cm N2
# Element.symbol: Ta
# Element.edge: L3
# Facility.name: NSLS-II
# Facility.energy: 3.0
# Facility.current: 400.3
# Facility.mode: top-off
# Facility.GUP: 305832
# Facility.SAF: 305669
# Facility.cycle: 2020-1
# Mono.name: Si(111)
# Mono.d_spacing: 3.13532
# Mono.encoder_resolution: 0.0000050 deg/ct
# Mono.angle_offset: 16.0581 deg
# Mono.scan_mode: fixed exit
# Mono.scan_type: step
# Mono.direction: forward in energy
# Sample.name: Ta
# Sample.prep: X
# Sample.x_position: -7.603 mm
# Sample.y_position: 102.894 mm
# Scan.experimenters: Neil Hyatt, Martin Stennett, Dan Austin, Seb Lawson
# Scan.edge_energy: 9881.1
# Scan.start_time: 2020-03-07T06:14:15
# Scan.end_time: 2020-03-07T06:25:44
# Scan.transient_id: 23472
# Scan.uid: ed6ccb2b-2857-4f87-977c-896b4366f4f0
# Scan.plot_hint: ln(i0/itrans)  --  ln($5/$6)
# Column.1: energy eV
# Column.2: requested_energy eV
# Column.3: measurement_time seconds
# Column.4: mutrans
# Column.5: i0
# Column.6: itrans
# Column.7: irefer
# ///////////
#
# -----------
#  energy  requested_energy  measurement_time  mutrans  i0  itrans  irefer
9681.091  9681.100  1.000  0.490438  113.422  69.4549  16.9294
9691.189  9691.100  1.000  0.486928  113.154  69.5344  17.1736
9701.166  9701.100  1.000  0.483388  112.814  69.5716  16.0357
9711.168  9711.100  1.000  0.479819  112.519  69.6372  16.7676
9721.134  9721.100  1.000  0.476502  112.239  69.6951  16.5991
9731.141  9731.100  1.000  0.473016  111.923  69.7415  16.4852
9741.141  9741.100  1.000  0.469621  111.616  69.7868  16.1329
9751.137  9751.100  1.000  0.466271  111.3  69.8228  16.8949
9761.134  9761.100  1.000  0.463122  110.998  69.8531  17.2877
9771.122  9771.100  1.000  0.460009  110.606  69.8233  17.0228
9781.115  9781.100  1.000  0.456931  110.254  69.8158  16.5256
9791.117  9791.100  1.000  0.454082  108.569  68.9449  16.3773
9801.110  9801.100  1.000  0.451590  109.676  69.8215  16.789
9811.103  9811.100  1.000  0.449493  109.449  69.8234  17.1829
9821.113  9821.100  1.000  0.448147  108.622  69.3892  17.4383
9831.119  9831.100  1.000  0.448261  108.757  69.4669  17.1971
9841.020  9841.100  1.000  0.451523  108.408  69.0187  17.0247
9851.088  9851.100  1.000  0.460997  108.084  68.1635  16.7822
9853.086  9853.100  1.000  0.464609  108.006  67.869  16.6977
9855.084  9855.100  1.000  0.469136  107.942  67.5221  16.6038
9857.084  9857.100  1.000  0.474939  107.859  67.0802  16.4862
9859.084  9859.100  1.000  0.482585  107.796  66.5304  16.351
9861.081  9861.100  1.000  0.492432  107.737  65.8424  16.1822
9863.074  9863.100  1.000  0.505910  107.677  64.9249  15.971
9865.081  9865.100  1.000  0.524361  107.606  63.6955  15.685
9867.076  9867.100  1.000  0.551311  107.532  61.9593  15.2778
9869.089  9869.100  1.000  0.591665  107.486  59.4835  14.6969
9871.081  9871.100  1.000  0.657178  107.42  55.6773  13.7951
9871.313  9871.350  1.000  0.667803  107.389  55.0727  13.6522
9871.557  9871.600  1.000  0.679555  107.383  54.4265  13.4993
9871.810  9871.850  1.000  0.692660  107.381  53.7165  13.329
9872.080  9872.100  1.000  0.707066  107.379  52.9472  13.1415
9872.324  9872.350  1.000  0.721790  107.36  52.1643  12.9534
9872.581  9872.600  1.000  0.738268  107.358  51.3106  12.7476
9872.839  9872.850  1.000  0.755797  107.364  50.422  12.5333
9873.075  9873.100  1.000  0.774267  107.337  49.4869  12.3072
9873.336  9873.350  1.000  0.796165  107.333  48.4132  12.047
9873.593  9873.600  1.000  0.819448  107.352  47.3073  11.7801
9873.833  9873.850  1.000  0.844041  107.341  46.1536  11.4957
9874.095  9874.100  1.000  0.872795  107.333  44.8419  11.1767
9874.343  9874.350  1.000  0.904526  107.316  43.4345  10.8338
9874.584  9874.600  1.000  0.937465  107.295  42.0187  10.4873
9874.849  9874.850  1.000  0.978140  107.303  40.347  10.0777
9875.098  9875.100  1.000  1.020476  107.297  38.6725  9.667909
9875.343  9875.350  1.000  1.066974  107.28  36.9095  9.231161
9875.600  9875.600  1.000  1.122306  107.279  34.9222  8.740719
9875.845  9875.850  1.000  1.179405  107.271  32.9819  8.262837
9876.094  9876.100  1.000  1.245393  107.253  30.8703  7.740865
9876.355  9876.350  1.000  1.318761  107.232  28.6808  7.196654
9876.595  9876.600  1.000  1.395924  107.219  26.5478  6.668261
9876.844  9876.850  1.000  1.478201  107.59  24.5356  6.167229
9877.097  9877.100  1.000  1.570886  107.57  22.3597  5.624176
9877.342  9877.350  1.000  1.666957  107.54  20.3058  5.112287
9877.587  9877.600  1.000  1.769980  107.495  18.3102  4.613874
9877.848  9877.850  1.000  1.887771  107.434  16.2664  4.102986
9878.093  9878.100  1.000  2.003402  107.339  14.4775  3.656653
9878.338  9878.350  1.000  2.127787  107.105  12.7562  3.225100
9878.604  9878.600  1.000  2.265545  106.713  11.074  2.800758
9878.836  9878.850  1.000  2.397132  106.239  9.665491  2.447165
9879.085  9879.100  1.000  2.539771  105.707  8.338615  2.113500
9879.347  9879.350  1.000  2.692540  105.277  7.128193  1.808704
9879.596  9879.600  1.000  2.837603  105.038  6.151626  1.561901
9879.840  9879.850  1.000  2.987881  104.936  5.288153  1.344457
9880.102  9880.100  1.000  3.140016  104.953  4.542601  1.156141
9880.347  9880.350  1.000  3.271155  105.112  3.990312  1.016303
9880.600  9880.600  1.000  3.395596  105.463  3.535192  0.901029
9880.853  9880.850  1.000  3.504426  105.942  3.185041  0.811442
9881.098  9881.100  1.000  3.587720  106.391  2.942916  0.750283
9881.356  9881.350  1.000  3.651947  106.733  2.768719  0.705251
9881.605  9881.600  1.000  3.692953  106.929  2.662364  0.678559
9881.846  9881.850  1.000  3.708588  107.048  2.623979  0.668105
9882.103  9882.100  1.000  3.701662  107.098  2.643453  0.673844
9882.361  9882.350  1.000  3.670050  107.14  2.729422  0.693763
9882.602  9882.600  1.000  3.623647  107.173  2.859926  0.727217
9882.855  9882.850  1.000  3.558276  107.171  3.053071  0.775959
9883.104  9883.100  1.000  3.481171  107.182  3.298127  0.837836
9883.345  9883.350  1.000  3.399636  107.198  3.578866  0.907543
9883.603  9883.600  1.000  3.305495  107.194  3.932005  0.997377
9883.856  9883.850  1.000  3.213040  107.165  4.311675  1.093699
9884.101  9884.100  1.000  3.125447  107.176  4.706898  1.193452
9884.346  9884.350  1.000  3.037040  107.163  5.141320  1.303830
9884.608  9884.600  1.000  2.950353  107.139  5.605646  1.422609
9884.845  9884.850  1.000  2.873946  107.128  6.050129  1.535834
9885.098  9885.100  1.000  2.799593  107.145  6.518174  1.655376
9885.356  9885.350  1.000  2.729260  107.148  6.993255  1.777473
9885.597  9885.600  1.000  2.666475  107.132  7.445311  1.892506
9885.851  9885.850  1.000  2.606652  107.11  7.902682  2.009489
9886.100  9886.100  1.000  2.552587  107.112  8.341859  2.123056
9886.337  9886.350  1.000  2.504105  107.104  8.755612  2.227743
9886.594  9886.600  1.000  2.454973  107.083  9.194778  2.340755
9886.848  9886.850  1.000  2.411408  107.031  9.599483  2.445776
9887.102  9887.100  1.000  2.372662  107.005  9.976287  2.542871
9887.343  9887.350  1.000  2.337915  106.996  10.3282  2.633596
9887.588  9887.600  1.000  2.305735  107.016  10.6679  2.720900
9887.833  9887.850  1.000  2.278183  107.006  10.9649  2.797419
9888.095  9888.100  1.000  2.250188  106.985  11.274  2.878830
9888.353  9888.350  1.000  2.226625  106.965  11.5407  2.947359
9888.594  9888.600  1.000  2.206228  106.966  11.7786  3.008834
9888.856  9888.850  1.000  2.186300  106.935  12.0122  3.070417
9889.102  9889.100  1.000  2.169192  106.904  12.2159  3.122485
9889.347  9889.350  1.000  2.152934  106.893  12.4149  3.173459
9889.613  9889.600  1.000  2.137212  106.902  12.6126  3.224613
9889.855  9889.850  1.000  2.123258  106.878  12.787  3.271443
9890.100  9890.100  1.000  2.109885  106.858  12.9567  3.314898
9890.358  9890.350  1.000  2.096033  106.844  13.1357  3.361148
9890.607  9890.600  1.000  2.083716  106.842  13.2983  3.403780
9890.849  9890.850  1.000  2.071359  106.837  13.4631  3.446979
9891.111  9891.100  1.000  2.058023  106.828  13.6426  3.493630
9891.352  9891.350  1.000  2.045801  106.821  13.8094  3.535181
9891.602  9891.600  1.000  2.033118  106.802  13.9832  3.581326
9891.860  9891.850  1.000  2.019869  106.825  14.1728  3.630359
9892.105  9892.100  1.000  2.007306  106.82  14.3512  3.677134
9892.351  9892.350  1.000  1.993994  106.816  14.5431  3.725247
9892.605  9892.600  1.000  1.980213  106.783  14.7403  3.777120
9892.854  9892.850  1.000  1.967033  106.776  14.935  3.829024
9893.096  9893.100  1.000  1.954308  106.768  15.125  3.877356
9893.354  9893.350  1.000  1.940974  106.748  15.3251  3.929894
9893.599  9893.600  1.000  1.928147  106.724  15.5196  3.979504
9893.845  9893.850  1.000  1.915653  106.732  15.7159  4.029262
9894.103  9894.100  1.000  1.902897  106.707  15.9139  4.080239
9894.344  9894.350  1.000  1.891118  106.702  16.1017  4.129056
9894.590  9894.600  1.000  1.879258  106.678  16.2901  4.177813
9894.857  9894.850  1.000  1.867260  106.674  16.4861  4.228704
9895.090  9895.100  1.000  1.856304  106.648  16.6637  4.274168
9895.339  9895.350  1.000  1.845572  106.587  16.8338  4.317244
9895.602  9895.600  1.000  1.834599  106.573  17.0174  4.365322
9895.839  9895.850  1.000  1.825022  106.579  17.182  4.406921
9896.093  9896.100  1.000  1.815425  106.624  17.355  4.451968
9896.356  9896.350  1.000  1.806109  106.593  17.5125  4.492133
9896.593  9896.600  1.000  1.797997  106.553  17.6484  4.527622
9896.847  9896.850  1.000  1.789972  106.588  17.7964  4.564828
9897.106  9897.100  1.000  1.782328  106.596  17.9343  4.601099
9897.351  9897.350  1.000  1.775990  106.583  18.0462  4.629922
9897.605  9897.600  1.000  1.769472  106.596  18.1664  4.659986
9897.851  9897.850  1.000  1.763563  106.587  18.2726  4.687169
9898.101  9898.100  1.000  1.757744  106.541  18.3712  4.712603
9898.360  9898.350  1.000  1.752184  106.508  18.468  4.738717
9898.614  9898.600  1.000  1.746497  106.474  18.5674  4.762814
9898.855  9898.850  1.000  1.740880  106.46  18.6695  4.787738
9899.105  9899.100  1.000  1.735355  106.464  18.7735  4.814730
9899.360  9899.350  1.000  1.729681  106.748  18.9307  4.853146
9899.593  9899.600  1.000  1.724298  106.762  19.0355  4.881799
9899.856  9899.850  1.000  1.718366  106.734  19.1437  4.909743
9900.106  9900.100  1.000  1.712685  106.736  19.2531  4.934913
9900.351  9900.350  1.000  1.707318  106.71  19.352  4.960264
9900.602  9900.600  1.000  1.702260  106.708  19.4498  4.985037
9900.856  9900.850  1.000  1.696830  106.679  19.5504  5.010567
9901.093  9901.100  1.000  1.692173  106.661  19.6383  5.034212
9901.352  9901.350  1.000  1.687589  106.642  19.725  5.054809
9901.606  9901.600  1.000  1.683446  106.624  19.8036  5.075282
9901.852  9901.850  1.000  1.679646  106.61  19.8763  5.092637
9902.107  9902.100  1.000  1.676200  106.598  19.9427  5.109274
9902.348  9902.350  1.000  1.673130  106.563  19.9974  5.123350
9902.586  9902.600  1.000  1.670640  106.572  20.0491  5.136098
9902.849  9902.850  1.000  1.668035  106.587  20.1042  5.150256
9903.099  9903.100  1.000  1.665920  106.571  20.1436  5.160617
9903.337  9903.350  1.000  1.664320  106.535  20.1692  5.167405
9903.591  9903.600  1.000  1.662665  106.499  20.1958  5.171808
9903.837  9903.850  1.000  1.661349  106.486  20.2198  5.177834
9904.083  9904.100  1.000  1.660257  106.463  20.2375  5.183911
9904.355  9904.350  1.000  1.659133  106.44  20.256  5.187627
9904.605  9904.600  1.000  1.658321  106.464  20.277  5.191335
9904.843  9904.850  1.000  1.657579  106.46  20.2912  5.193453
9905.110  9905.100  1.000  1.656692  106.437  20.3048  5.195688
9905.347  9905.350  1.000  1.655945  106.44  20.3207  5.201388
9905.602  9905.600  1.000  1.655011  106.4  20.3319  5.202293
9905.861  9905.850  1.000  1.653995  106.371  20.347  5.206056
9906.099  9906.100  1.000  1.652822  106.369  20.3705  5.210814
9906.353  9906.350  1.000  1.651747  106.336  20.3863  5.215692
9906.616  9906.600  1.000  1.650108  106.337  20.4199  5.225771
9906.850  9906.850  1.000  1.648641  106.347  20.4517  5.230709
9907.105  9907.100  1.000  1.646829  106.352  20.4898  5.240181
9907.355  9907.350  1.000  1.645064  106.334  20.5225  5.249760
9907.597  9907.600  1.000  1.643206  106.293  20.5528  5.256363
9907.856  9907.850  1.000  1.641109  106.269  20.5913  5.263981
9908.102  9908.100  1.000  1.639373  106.283  20.6297  5.274469
9908.361  9908.350  1.000  1.637202  106.238  20.6658  5.283144
9908.595  9908.600  1.000  1.635571  106.241  20.7001  5.290982
9908.845  9908.850  1.000  1.633794  106.245  20.7377  5.300774
9909.087  9909.100  1.000  1.632231  106.219  20.7651  5.307429
9909.346  9909.350  1.000  1.630801  106.193  20.7898  5.313025
9909.593  9909.600  1.000  1.629476  106.182  20.8152  5.320321
9909.852  9909.850  1.000  1.628509  106.172  20.8332  5.325076
9910.090  9910.100  1.000  1.627726  106.156  20.8463  5.328380
9910.349  9910.350  1.000  1.627077  106.155  20.8598  5.332871
9910.591  9910.600  1.000  1.626690  106.132  20.8634  5.334317
9910.846  9910.850  1.000  1.626497  106.133  20.8676  5.333647
9911.096  9911.100  1.000  1.626253  106.165  20.8789  5.336466
9912.201  9912.180  1.000  1.626957  106.122  20.8557  5.329069
9913.310  9913.280  1.000  1.628009  106.072  20.8241  5.320514
9914.420  9914.390  1.000  1.627828  106.043  20.822  5.321940
9915.551  9915.530  1.000  1.623998  106.004  20.8944  5.340183
9916.695  9916.680  1.000  1.616224  105.95  21.0466  5.378891
9917.877  9917.860  1.000  1.604642  105.915  21.2849  5.440318
9919.077  9919.050  1.000  1.591795  105.84  21.5447  5.508648
9920.277  9920.260  1.000  1.580211  105.77  21.7815  5.569475
9921.503  9921.490  1.000  1.572886  105.713  21.9297  5.608274
9922.751  9922.740  1.000  1.572154  105.666  21.936  5.613210
9924.024  9924.010  1.000  1.577328  105.602  21.8097  5.583320
9925.311  9925.300  1.000  1.586837  105.53  21.5884  5.527539
9926.619  9926.610  1.000  1.598164  105.447  21.3286  5.461807
9927.936  9927.930  1.000  1.609137  105.376  21.0815  5.400130
9929.283  9929.280  1.000  1.619113  105.213  20.84  5.339024
9930.652  9930.640  1.000  1.627141  103.469  20.3308  5.212688
9932.047  9932.030  1.000  1.631254  103.567  20.2664  5.191573
9933.447  9933.430  1.000  1.631534  105.206  20.5815  5.276969
9934.860  9934.850  1.000  1.628530  105.177  20.6376  5.293761
9936.307  9936.290  1.000  1.624220  105.14  20.7195  5.316776
9937.755  9937.750  1.000  1.620054  105.113  20.8006  5.341323
9939.246  9939.230  1.000  1.616052  105.061  20.8737  5.362166
9940.759  9940.730  1.000  1.612539  105.006  20.9363  5.383247
9942.251  9942.240  1.000  1.609700  104.959  20.9864  5.398457
9943.791  9943.780  1.000  1.608160  104.881  21.003  5.406456
9945.348  9945.340  1.000  1.608402  104.784  20.9786  5.403994
9946.935  9946.910  1.000  1.610915  104.739  20.9169  5.392820
9948.515  9948.500  1.000  1.615555  104.708  20.8139  5.371613
9950.125  9950.110  1.000  1.621369  104.633  20.6784  5.341646
9951.761  9951.750  1.000  1.627037  104.533  20.5418  5.311638
9953.419  9953.400  1.000  1.630746  104.414  20.4424  5.293578
9955.086  9955.070  1.000  1.631184  103.958  20.3443  5.274436
9956.750  9956.750  1.000  1.626546  101.807  20.0161  5.195979
9958.466  9958.460  1.000  1.618002  104.053  20.6331  5.365236
9960.212  9960.190  1.000  1.607001  104.189  20.8886  5.440584
9961.950  9961.930  1.000  1.596590  104.127  21.0946  5.503151
9963.711  9963.700  1.000  1.588773  104.061  21.2468  5.554009
9965.485  9965.480  1.000  1.584270  103.965  21.323  5.585185
9967.298  9967.280  1.000  1.583375  103.767  21.3014  5.589735
9969.112  9969.100  1.000  1.585423  101.944  20.8844  5.491511
9970.952  9970.940  1.000  1.587919  102.899  21.0275  5.534818
9972.811  9972.800  1.000  1.590348  103.869  21.1742  5.582998
9974.700  9974.680  1.000  1.590956  103.899  21.1674  5.584693
9976.598  9976.580  1.000  1.590854  104.119  21.2143  5.602977
9978.506  9978.500  1.000  1.590935  104.055  21.1997  5.604487
9980.445  9980.430  1.000  1.591989  103.961  21.1581  5.596451
9982.410  9982.390  1.000  1.594610  103.239  20.9562  5.547606
9984.359  9984.360  1.000  1.597923  100.28  20.2882  5.373758
9986.365  9986.360  1.000  1.601983  103.627  20.8806  5.535990
9988.393  9988.370  1.000  1.605718  103.606  20.7985  5.518719
9990.414  9990.400  1.000  1.610020  103.523  20.6926  5.495673
9992.461  9992.450  1.000  1.614317  103.408  20.581  5.470560
9994.531  9994.520  1.000  1.618502  103.178  20.4493  5.438975
9996.623  9996.610  1.000  1.622436  100.602  19.8607  5.283802
9998.724  9998.710  1.000  1.625270  103.205  20.3168  5.406590
10000.848  10000.840  1.000  1.626356  103.251  20.3038  5.406313
10003.013  10002.990  1.000  1.625294  103.125  20.3005  5.407503
10005.165  10005.150  1.000  1.622977  103.007  20.3244  5.415843
10007.331  10007.330  1.000  1.618999  102.894  20.3829  5.434700
10009.558  10009.540  1.000  1.611515  102.165  20.3906  5.440665
10011.774  10011.760  1.000  1.600812  100.868  20.3484  5.432411
10014.017  10014.000  1.000  1.588995  102.555  20.9346  5.591950
10016.273  10016.260  1.000  1.579393  102.519  21.1293  5.648045
10018.557  10018.540  1.000  1.572817  102.435  21.2512  5.683449
10020.842  10020.840  1.000  1.568935  102.366  21.3194  5.702857
10023.167  10023.150  1.000  1.567008  102.297  21.3461  5.714783
10025.511  10025.490  1.000  1.566329  102.176  21.3355  5.715933
10027.847  10027.840  1.000  1.566967  102.044  21.2942  5.707838
10030.227  10030.220  1.000  1.567404  101.93  21.2611  5.703305
10032.622  10032.610  1.000  1.567262  101.806  21.2384  5.702305
10035.027  10035.020  1.000  1.567251  101.485  21.1717  5.691863
10037.459  10037.450  1.000  1.567651  99.8932  20.8312  5.603696
10039.923  10039.900  1.000  1.568417  101.593  21.1695  5.703694
10042.379  10042.370  1.000  1.569385  101.496  21.1287  5.700167
10044.880  10044.860  1.000  1.570337  101.391  21.0868  5.695884
10047.374  10047.370  1.000  1.573298  101.281  21.0018  5.683049
10049.899  10049.890  1.000  1.579965  101.208  20.847  5.650602
10052.461  10052.440  1.000  1.590807  101.126  20.6055  5.593530
10055.007  10055.000  1.000  1.602922  101.008  20.3338  5.529657
10057.611  10057.590  1.000  1.614516  100.914  20.0806  5.468725
10060.207  10060.190  1.000  1.622701  100.812  19.8968  5.429854
10062.818  10062.810  1.000  1.624116  100.68  19.8427  5.421529
10065.466  10065.450  1.000  1.616646  100.581  19.9718  5.462913
10068.128  10068.110  1.000  1.600367  100.484  20.2799  5.554833
10070.796  10070.790  1.000  1.577899  100.396  20.7226  5.685218
10073.500  10073.490  1.000  1.556783  100.283  21.1409  5.803534
10076.220  10076.210  1.000  1.543599  100.173  21.398  5.880816
10078.958  10078.940  1.000  1.538299  100.087  21.4932  5.915103
10081.715  10081.700  1.000  1.538004  99.9956  21.48  5.918400
10084.483  10084.470  1.000  1.539978  99.8839  21.4137  5.906980
10087.283  10087.270  1.000  1.541372  99.7368  21.3524  5.897980
10090.098  10090.080  1.000  1.541551  97.5497  20.8804  5.777584
10092.936  10092.910  1.000  1.541442  99.2112  21.2384  5.878568
10095.772  10095.760  1.000  1.542674  99.2992  21.231  5.882587
10098.636  10098.630  1.000  1.546097  99.2187  21.1413  5.866493
10101.537  10101.520  1.000  1.550745  99.1129  21.0208  5.839880
10104.439  10104.420  1.000  1.553965  99.021  20.9338  5.821233
10107.370  10107.350  1.000  1.554913  98.938  20.8965  5.815305
10110.320  10110.300  1.000  1.554403  98.8364  20.8857  5.816405
10113.268  10113.260  1.000  1.554714  98.7088  20.8522  5.814074
10116.253  10116.240  1.000  1.556749  98.6089  20.7888  5.801224
10119.266  10119.250  1.000  1.559687  98.487  20.7022  5.780976
10122.285  10122.270  1.000  1.562572  98.3779  20.6196  5.764215
10125.315  10125.310  1.000  1.564894  98.2436  20.5437  5.749215
10128.383  10128.370  1.000  1.565692  98.104  20.4982  5.742205
10131.470  10131.450  1.000  1.564118  97.9847  20.5055  5.749704
10134.559  10134.550  1.000  1.559717  97.8042  20.558  5.770003
10137.685  10137.660  1.000  1.552969  97.7645  20.6888  5.814505
10140.814  10140.800  1.000  1.544763  97.6636  20.8377  5.863051
10143.967  10143.950  1.000  1.536897  97.5395  20.9756  5.909302
10147.157  10147.130  1.000  1.530305  97.4117  21.0867  5.948330
10150.341  10150.320  1.000  1.524477  97.2789  21.181  5.984148
10153.544  10153.530  1.000  1.519279  97.1497  21.2631  6.016998
10156.776  10156.760  1.000  1.515580  97.0252  21.3146  6.038897
10160.047  10160.020  1.000  1.514767  96.874  21.2986  6.044160
10163.301  10163.280  1.000  1.515513  96.7304  21.2512  6.040632
10166.589  10166.570  1.000  1.516449  96.6023  21.2032  6.036236
10169.888  10169.880  1.000  1.518060  96.4834  21.143  6.025827
10173.221  10173.210  1.000  1.520397  96.3689  21.0687  6.013106
10176.569  10176.550  1.000  1.522707  96.2368  20.9912  5.997975
10179.928  10179.920  1.000  1.525068  96.1204  20.9164  5.986037
10183.317  10183.300  1.000  1.526782  96.0138  20.8574  5.978558
10186.708  10186.700  1.000  1.527922  95.8695  20.8024  5.971286
10190.146  10190.130  1.000  1.527888  95.697  20.7656  5.966531
10193.582  10193.570  1.000  1.526380  95.2862  20.7077  5.957992
10197.057  10197.030  1.000  1.523269  95.4616  20.8105  5.997183
10200.524  10200.500  1.000  1.519558  95.34  20.8612  6.018042
10204.017  10204.000  1.000  1.515353  95.1959  20.9174  6.042955
10207.544  10207.520  1.000  1.511459  95.0225  20.9608  6.062591
10211.069  10211.060  1.000  1.508046  94.8767  21.0002  6.083685
10214.632  10214.610  1.000  1.504200  94.7339  21.0494  6.104843
10218.203  10218.190  1.000  1.500059  94.6008  21.107  6.128818
10221.808  10221.780  1.000  1.495005  94.6916  21.2343  6.173446
10225.406  10225.390  1.000  1.490827  94.6602  21.3162  6.205663
10229.043  10229.020  1.000  1.487686  94.5081  21.3489  6.220707
10232.692  10232.670  1.000  1.486754  94.3544  21.3341  6.226661
10236.361  10236.340  1.000  1.486479  94.2084  21.3069  6.224870
10240.047  10240.030  1.000  1.485802  93.8881  21.2488  6.216867
10243.758  10243.740  1.000  1.484601  93.9399  21.2861  6.233486
10247.486  10247.460  1.000  1.483721  93.7743  21.2673  6.237651
10251.235  10251.210  1.000  1.483304  93.6176  21.2406  6.236565
10254.995  10254.970  1.000  1.483147  93.4676  21.2099  6.237655
10258.777  10258.760  1.000  1.482651  93.342  21.1919  6.240218
10262.580  10262.560  1.000  1.481419  93.2091  21.1878  6.247052
10266.395  10266.380  1.000  1.479693  93.0626  21.191  6.258043
10270.240  10270.220  1.000  1.478104  92.8692  21.1806  6.261396
10274.097  10274.080  1.000  1.477039  92.4433  21.106  6.248985
10277.989  10277.960  1.000  1.476315  92.563  21.1486  6.271170
10281.875  10281.860  1.000  1.475156  92.3873  21.1329  6.275029
10285.805  10285.780  1.000  1.472902  92.2381  21.1464  6.286500
10289.729  10289.710  1.000  1.470018  92.0974  21.1752  6.305807
10293.693  10293.670  1.000  1.466619  91.9565  21.2148  6.326596
10297.651  10297.640  1.000  1.462778  91.8064  21.2616  6.350748
10301.662  10301.640  1.000  1.458960  91.6427  21.3049  6.373436
10305.663  10305.650  1.000  1.455236  91.4803  21.3465  6.393152
10309.708  10309.680  1.000  1.451848  91.3207  21.3816  6.415445
10313.748  10313.730  1.000  1.448246  91.1715  21.4237  6.434915
10317.823  10317.800  1.000  1.445413  91.0253  21.45  6.452840
10321.910  10321.890  1.000  1.442875  90.8481  21.4626  6.463930
10326.029  10326.000  1.000  1.440592  90.7189  21.4811  6.478409
10330.132  10330.120  1.000  1.438276  90.5376  21.4879  6.491846
10334.294  10334.270  1.000  1.436762  90.3897  21.4853  6.500329
10338.446  10338.430  1.000  1.436211  90.2042  21.453  6.498463
10342.647  10342.620  1.000  1.435931  90.0545  21.4234  6.499672
10346.843  10346.820  1.000  1.435033  89.8975  21.4053  6.503511
10351.065  10351.040  1.000  1.433574  89.7168  21.3934  6.506552
10355.310  10355.280  1.000  1.432068  89.5435  21.3843  6.515542
10359.567  10359.540  1.000  1.430315  89.3903  21.3852  6.522941
10363.856  10363.820  1.000  1.428773  89.2275  21.3792  6.530033
10368.148  10368.120  1.000  1.427358  89.0362  21.3635  6.534970
10372.463  10372.440  1.000  1.426062  88.8866  21.3553  6.540337
10376.800  10376.770  1.000  1.423954  88.7155  21.3592  6.553577
10381.145  10381.130  1.000  1.421241  88.5486  21.3769  6.565903
10385.527  10385.500  1.000  1.418277  88.3811  21.3998  6.582519
10389.912  10389.900  1.000  1.415498  88.2126  21.4184  6.598741
10394.335  10394.310  1.000  1.413720  88.0596  21.4193  6.607600
10398.760  10398.740  1.000  1.411866  87.8924  21.4183  6.616884
10403.214  10403.190  1.000  1.409740  87.7325  21.4249  6.627282
10407.685  10407.660  1.000  1.406375  87.5756  21.4586  6.650736
10412.179  10412.150  1.000  1.401504  87.3988  21.5199  6.677440
10416.681  10416.660  1.000  1.396182  87.228  21.5924  6.711092
10421.202  10421.180  1.000  1.391072  87.048  21.6583  6.741662
10425.802  10425.730  1.000  1.387077  86.8831  21.7038  6.764845
10430.326  10430.290  1.000  1.383936  86.7139  21.7297  6.781560
10434.920  10434.880  1.000  1.381477  86.5709  21.7472  6.798971
10439.513  10439.480  1.000  1.379651  86.4067  21.7457  6.807325
10444.125  10444.100  1.000  1.378883  86.2201  21.7154  6.809454
10448.798  10448.740  1.000  1.378458  86.0242  21.6752  6.805905
10453.423  10453.400  1.000  1.378257  85.8407  21.6334  6.802674
10458.052  10458.080  1.000  1.378465  85.7127  21.5966  6.800881
10462.813  10462.780  1.000  1.378588  85.5294  21.5478  6.796522
10467.536  10467.500  1.000  1.377946  85.339  21.5136  6.794913
10472.263  10472.230  1.000  1.376071  85.1878  21.5158  6.805711
10477.019  10476.990  1.000  1.373110  85.0144  21.5357  6.823143
10481.826  10481.760  1.000  1.369738  84.8541  21.5677  6.842530
10486.543  10486.560  1.000  1.366070  84.7201  21.6127  6.865818
10491.340  10491.370  1.000  1.362828  84.5057  21.628  6.881393
10496.290  10496.200  1.000  1.360029  84.3307  21.6438  6.895996
10501.135  10501.050  1.000  1.357452  84.1038  21.6412  6.906217
10506.022  10505.920  1.000  1.354805  83.8918  21.6439  6.917879
10510.771  10510.810  1.000  1.351679  83.6238  21.6423  6.926425
10515.696  10515.720  1.000  1.348351  83.5403  21.6928  6.953658
10520.684  10520.640  1.000  1.344492  83.3677  21.7316  6.975056
10525.628  10525.590  1.000  1.339976  83.1543  21.7741  7.000125
10530.534  10530.550  1.000  1.335641  83.0216  21.8338  7.029840
10535.522  10535.540  1.000  1.331938  82.8429  21.8677  7.049129
10540.514  10540.540  1.000  1.329043  82.6208  21.8722  7.063435
10545.521  10545.560  1.000  1.326233  82.4537  21.8894  7.078654
10550.692  10550.600  1.000  1.323664  82.2725  21.8975  7.093819
10555.646  10555.660  1.000  1.322000  82.0088  21.8637  7.092546
10560.759  10560.740  1.000  1.320160  81.9311  21.8832  7.108630
10565.926  10565.840  1.000  1.318862  81.7236  21.8561  7.113290
10570.982  10570.960  1.000  1.317624  81.5695  21.8419  7.119484
10576.047  10576.090  1.000  1.316396  81.4015  21.8237  7.121293
10581.312  10581.250  1.000  1.315580  81.1874  21.7841  7.118893
10586.509  10586.420  1.000  1.314608  81.0196  21.7602  7.125374
10591.638  10591.620  1.000  1.313323  80.8362  21.7389  7.127411
10596.806  10596.830  1.000  1.311354  80.6864  21.7413  7.139632
10602.038  10602.060  1.000  1.308361  80.7303  21.8184  7.175435
10607.271  10607.310  1.000  1.304352  80.5418  21.8549  7.198457
10612.567  10612.580  1.000  1.300528  80.3729  21.8926  7.220533
10617.844  10617.870  1.000  1.296793  80.0986  21.8995  7.235531
10623.161  10623.180  1.000  1.293399  80.0404  21.958  7.266107