File: xdidata/Ta/Ta-L1-TantalumOxide.xdi
# XDI/1.0 BlueSky/1.10.0 BMM/2023-1.0-py310-tiled
# Beamline.name: BMM (06BM) -- Beamline for Materials Measurement (NIST)
# Beamline.xray_source: NSLS-II three-pole wiggler
# Beamline.collimation: paraboloid mirror, 5 nm Rh on 30 nm Pt
# Beamline.focusing: not in use
# Beamline.harmonic_rejection: flat mirror, Pt stripe, pitch = 7.0 mrad relative to beam
# Beamline.software: Bluesky 1.10.0, Ophyd 1.7.0, DataBroker 2.0.0b13, Python 3.10.8, 2023-1.0-py310-tiled
# Detector.I0: 10 cm N2
# Detector.I1: 25 cm N2
# Detector.I2: 25 cm N2
# Element.symbol: Ta
# Element.edge: L1
# Element.reference: Ta
# Element.reference_material: Ta2O5
# Facility.name: NSLS-II
# Facility.energy: 3.0
# Facility.current: 399.9
# Facility.mode: top-off
# Facility.GUP: 301027
# Facility.SAF: 310583
# Facility.cycle: 2023-2
# Mono.name: Si(111)
# Mono.d_spacing: 3.13519
# Mono.encoder_resolution: 0.0000050 deg/ct
# Mono.angle_offset: 16.0754 deg
# Mono.scan_mode: pseudo channel cut
# Mono.scan_type: step
# Mono.direction: forward in energy
# Sample.name: Ta2O5
# Sample.prep: PEG pellet
# Sample.x: 109.138 mm
# Sample.y: 153.150 mm
# Sample.SDD_position: 205.000 mm
# Scan.experimenters: Bruce Ravel
# Scan.edge_energy: 11681.5
# Scan.start_time: 2023-05-28T19:08:01
# Scan.end_time: 2023-05-28T19:16:03
# Scan.transient_id: 78938
# Scan.uid: 44f7c9a6-fd67-4f65-bfdf-29df0958bcaf
# Scan.plot_hint: ln(It/Ir)  --  ln($6/$7)
# Column.1: energy eV
# Column.2: requested_energy eV
# Column.3: measurement_time seconds
# Column.4: xmu
# Column.5: I0 nA
# Column.6: It nA
# Column.7: Ir nA
# ///////////
# sample courtesy Martin Stennett, University of Sheffield
# -----------
# energy  requested_energy  measurement_time  xmu  I0  It  Ir
  11481.482  11481.500  0.500  1.871179  69.3534  115.446  17.772
  11491.543  11491.500  0.500  1.868326  69.151  115.16  17.7786
  11501.553  11501.500  0.500  1.865419  68.9873  114.935  17.7955
  11511.598  11511.500  0.500  1.862399  68.8186  114.695  17.8121
  11521.499  11521.500  0.500  1.859072  68.6382  114.446  17.8327
  11531.510  11531.500  0.500  1.855866  68.4632  114.204  17.852
  11541.533  11541.500  0.500  1.852731  68.2637  113.916  17.8629
  11551.510  11551.500  0.500  1.850056  68.0188  113.551  17.8534
  11561.522  11561.500  0.500  1.847569  67.3179  112.426  17.7206
  11571.522  11571.500  0.500  1.844932  66.5124  111.126  17.5619
  11581.534  11581.500  0.500  1.842044  66.4292  111.026  17.5968
  11591.535  11591.500  0.500  1.838805  66.3127  110.88  17.6307
  11601.553  11601.500  0.500  1.835747  66.2282  110.774  17.6678
  11611.548  11611.500  0.500  1.832974  66.0975  110.605  17.6899
  11621.548  11621.500  0.500  1.830473  65.8821  110.293  17.6841
  11631.536  11631.500  0.500  1.828144  65.7931  110.182  17.7075
  11641.536  11641.500  0.500  1.826103  65.6966  110.071  17.7258
  11651.536  11651.500  0.500  1.823980  65.3833  109.585  17.685
  11653.479  11653.500  0.500  1.823622  65.5018  109.784  17.7236
  11655.464  11655.500  0.500  1.823300  65.479  109.757  17.7249
  11657.473  11657.500  0.500  1.822922  65.4397  109.704  17.723
  11659.471  11659.500  0.500  1.822611  65.3229  109.522  17.6991
  11661.464  11661.500  0.500  1.822369  65.2476  109.41  17.6853
  11663.476  11663.500  0.500  1.822143  65.3263  109.547  17.7114
  11665.494  11665.500  0.500  1.821918  65.2949  109.503  17.7083
  11667.477  11667.500  0.500  1.821935  65.2143  109.376  17.6875
  11669.467  11669.500  0.500  1.821988  65.1112  109.2  17.6581
  11671.481  11671.500  0.500  1.822198  65.2096  109.373  17.6824
  11671.759  11671.800  0.500  1.822132  65.2102  109.372  17.6833
  11672.050  11672.100  0.500  1.822376  65.2034  109.364  17.6777
  11672.358  11672.400  0.500  1.822265  65.2006  109.353  17.6779
  11672.660  11672.700  0.500  1.822480  65.1973  109.356  17.6745
  11672.957  11673.000  0.500  1.822457  65.1966  109.357  17.6752
  11673.247  11673.300  0.500  1.822547  65.1877  109.351  17.6726
  11673.573  11673.600  0.500  1.822655  65.1848  109.347  17.6701
  11673.869  11673.900  0.500  1.822785  65.18  109.337  17.6662
  11674.172  11674.200  0.500  1.822918  65.1728  109.334  17.6633
  11674.456  11674.500  0.500  1.822940  65.168  109.328  17.6619
  11674.770  11674.800  0.500  1.823130  65.1693  109.322  17.6576
  11675.061  11675.100  0.500  1.823284  65.1618  109.316  17.6539
  11675.369  11675.400  0.500  1.823511  65.1562  109.299  17.6472
  11675.683  11675.700  0.500  1.823630  65.1512  109.296  17.6446
  11675.980  11676.000  0.500  1.823860  65.1477  109.298  17.6408
  11676.259  11676.300  0.500  1.823987  65.142  109.285  17.6365
  11676.567  11676.600  0.500  1.824358  65.1292  109.277  17.6286
  11676.875  11676.900  0.500  1.824556  65.1223  109.252  17.6211
  11677.166  11677.200  0.500  1.824908  65.0903  109.197  17.606
  11677.474  11677.500  0.500  1.825225  65.0479  109.129  17.5895
  11677.777  11677.800  0.500  1.825518  65.0048  109.067  17.5744
  11678.074  11678.100  0.500  1.825856  64.9612  109.002  17.558
  11678.376  11678.400  0.500  1.826304  64.9313  108.942  17.5406
  11678.673  11678.700  0.500  1.826703  64.9708  108.989  17.541
  11678.957  11679.000  0.500  1.827209  65.0873  109.2  17.5661
  11679.284  11679.300  0.500  1.827838  65.1125  109.246  17.5625
  11679.586  11679.600  0.500  1.828735  65.1487  109.309  17.5568
  11679.877  11679.900  0.500  1.829325  65.1881  109.376  17.5573
  11680.180  11680.200  0.500  1.830222  65.2182  109.425  17.5494
  11680.482  11680.500  0.500  1.831339  65.2328  109.452  17.5341
  11680.779  11680.800  0.500  1.832237  65.2396  109.463  17.5201
  11681.094  11681.100  0.500  1.833453  65.2392  109.465  17.4992
  11681.402  11681.400  0.500  1.834783  65.24  109.463  17.4755
  11681.687  11681.700  0.500  1.836159  65.2357  109.463  17.4516
  11682.002  11682.000  0.500  1.837718  65.2354  109.467  17.425
  11682.287  11682.300  0.500  1.839389  65.2268  109.46  17.3947
  11682.595  11682.600  0.500  1.841170  65.2197  109.454  17.3629
  11682.898  11682.900  0.500  1.842765  65.2151  109.443  17.3335
  11683.189  11683.200  0.500  1.844401  65.211  109.449  17.3061
  11683.504  11683.500  0.500  1.846236  65.2072  109.42  17.2698
  11683.801  11683.800  0.500  1.847799  65.2022  109.416  17.2421
  11684.104  11684.100  0.500  1.849411  65.1968  109.415  17.2142
  11684.389  11684.400  0.500  1.850841  65.1912  109.404  17.188
  11684.697  11684.700  0.500  1.852203  65.1846  109.397  17.1634
  11684.988  11685.000  0.500  1.853439  65.1735  109.382  17.1398
  11685.303  11685.300  0.500  1.854788  65.1717  109.374  17.1156
  11685.600  11685.600  0.500  1.855867  65.1633  109.362  17.0952
  11685.879  11685.900  0.500  1.857000  65.1551  109.349  17.0738
  11686.188  11686.200  0.500  1.858171  65.1497  109.337  17.0519
  11686.485  11686.500  0.500  1.859237  65.144  109.327  17.0323
  11686.782  11686.800  0.500  1.860174  65.1401  109.32  17.0151
  11687.091  11687.100  0.500  1.861168  65.1373  109.32  16.9983
  11687.388  11687.400  0.500  1.862145  65.1314  109.318  16.9814
  11687.685  11687.700  0.500  1.862925  65.1253  109.306  16.9662
  11687.994  11688.000  0.500  1.863792  65.1201  109.299  16.9505
  11688.286  11688.300  0.500  1.864367  65.1112  109.282  16.9381
  11688.601  11688.600  0.500  1.865305  65.1124  109.286  16.9228
  11688.892  11688.900  0.500  1.866151  65.1019  109.274  16.9067
  11689.207  11689.200  0.500  1.866962  65.0986  109.266  16.8917
  11689.498  11689.500  0.500  1.867846  65.0879  109.263  16.8763
  11689.807  11689.800  0.500  1.868921  65.0824  109.26  16.8578
  11690.098  11690.100  0.500  1.870042  65.0842  109.257  16.8384
  11690.413  11690.400  0.500  1.871360  65.0733  109.242  16.8139
  11690.693  11690.700  0.500  1.872755  65.0691  109.235  16.7894
  11691.008  11691.000  0.500  1.874335  65.0654  109.22  16.7605
  11691.293  11691.300  0.500  1.876021  65.0599  109.216  16.7318
  11691.620  11691.600  0.500  1.878029  65.0522  109.197  16.6952
  11691.894  11691.900  0.500  1.879828  65.0466  109.197  16.6652
  11692.197  11692.200  0.500  1.882119  65.0434  109.192  16.6264
  11692.471  11692.500  0.500  1.884362  65.0352  109.187  16.5884
  11692.798  11692.800  0.500  1.886949  65.0265  109.164  16.542
  11693.089  11693.100  0.500  1.889615  65.0223  109.158  16.4971
  11693.381  11693.400  0.500  1.892559  65.012  109.139  16.4456
  11693.678  11693.700  0.500  1.895565  65.0143  109.141  16.3966
  11693.993  11694.000  0.500  1.899174  65.0033  109.135  16.3367
  11694.291  11694.300  0.500  1.902453  65  109.121  16.2811
  11694.588  11694.600  0.500  1.906268  64.9974  109.118  16.2186
  11694.886  11694.900  0.500  1.910095  64.9945  109.114  16.1561
  11695.201  11695.200  0.500  1.914331  64.9837  109.097  16.0853
  11695.498  11695.500  0.500  1.918524  64.9832  109.09  16.0169
  11695.796  11695.800  0.500  1.922834  64.9757  109.09  15.9481
  11696.087  11696.100  0.500  1.927072  64.9675  109.084  15.8798
  11696.409  11696.400  0.500  1.931851  64.9631  109.075  15.8028
  11696.712  11696.700  0.500  1.936111  64.9582  109.074  15.7355
  11697.010  11697.000  0.500  1.940322  64.955  109.066  15.6682
  11697.296  11697.300  0.500  1.944605  64.9511  109.052  15.5991
  11697.617  11697.600  0.500  1.948834  64.9456  109.045  15.5324
  11697.909  11697.900  0.500  1.952357  64.9371  109.038  15.4767
  11698.200  11698.200  0.500  1.955787  64.9381  109.034  15.4232
  11698.492  11698.500  0.500  1.958644  64.9304  109.025  15.3779
  11698.808  11698.800  0.500  1.961719  64.9274  109.022  15.3303
  11699.087  11699.100  0.500  1.964078  64.9193  109.008  15.2922
  11699.391  11699.400  0.500  1.966015  64.9119  108.998  15.2612
  11699.677  11699.700  0.500  1.967683  64.9085  108.99  15.2347
  11699.992  11700.000  0.500  1.969037  64.9055  108.986  15.2134
  11700.284  11700.300  0.500  1.969838  64.8881  108.972  15.1993
  11700.588  11700.600  0.500  1.970467  64.8864  108.954  15.1872
  11700.886  11700.900  0.500  1.970832  64.8743  108.94  15.1798
  11701.201  11701.200  0.500  1.970985  64.8546  108.903  15.1723
  11701.505  11701.500  0.500  1.970872  64.8129  108.834  15.1644
  11701.803  11701.800  0.500  1.970700  64.751  108.726  15.152
  11702.101  11702.100  0.500  1.970622  64.6688  108.592  15.1345
  11702.404  11702.400  0.500  1.970216  64.5849  108.461  15.1223
  11702.702  11702.700  0.500  1.970166  64.5178  108.354  15.1082
  11703.000  11703.000  0.500  1.969913  64.4798  108.288  15.1028
  11703.298  11703.300  0.500  1.969764  64.4718  108.267  15.1022
  11703.608  11703.600  0.500  1.969837  64.4988  108.318  15.1081
  11703.912  11703.900  0.500  1.969774  64.5428  108.391  15.1193
  11704.198  11704.200  0.500  1.970045  64.6105  108.522  15.1334
  11704.490  11704.500  0.500  1.970264  64.6775  108.634  15.1457
  11704.806  11704.800  0.500  1.970547  64.7373  108.733  15.1553
  11705.104  11705.100  0.500  1.970739  64.7632  108.777  15.1584
  11705.390  11705.400  0.500  1.970982  64.7763  108.794  15.1572
  11705.688  11705.700  0.500  1.971243  64.7801  108.805  15.1548
  11705.980  11706.000  0.500  1.971458  64.7841  108.812  15.1524
  11706.296  11706.300  0.500  1.971452  64.7799  108.814  15.1529
  11706.481  11706.500  0.500  1.971526  64.7802  108.807  15.1508
  11707.476  11707.490  0.500  1.971059  64.769  108.795  15.1562
  11708.478  11708.490  0.500  1.969755  64.7578  108.776  15.1732
  11709.516  11709.510  0.500  1.968367  64.7344  108.748  15.1904
  11710.679  11710.560  0.500  1.967227  64.7113  108.712  15.2027
  11711.562  11711.620  0.500  1.967263  64.6883  108.682  15.1979
  11712.767  11712.700  0.500  1.968228  64.6623  108.643  15.1778
  11713.794  11713.800  0.500  1.969243  64.6403  108.603  15.1569
  11714.928  11714.920  0.500  1.970054  64.6211  108.577  15.1409
  11716.050  11716.060  0.500  1.970156  64.6093  108.555  15.1363
  11717.197  11717.210  0.500  1.968699  64.588  108.533  15.1554
  11718.368  11718.390  0.500  1.966084  64.5707  108.511  15.1919
  11719.575  11719.580  0.500  1.961960  64.5536  108.489  15.2516
  11720.788  11720.800  0.500  1.957123  64.534  108.461  15.3217
  11722.049  11722.030  0.500  1.951714  64.515  108.425  15.3997
  11723.268  11723.280  0.500  1.946586  64.4941  108.404  15.4758
  11724.548  11724.550  0.500  1.941910  64.4751  108.374  15.5441
  11725.822  11725.840  0.500  1.937413  64.4601  108.347  15.6103
  11727.132  11727.150  0.500  1.933614  64.4367  108.325  15.6664
  11728.478  11728.480  0.500  1.930246  64.4154  108.287  15.7138
  11729.825  11729.830  0.500  1.927954  64.3924  108.259  15.7458
  11731.207  11731.200  0.500  1.926310  64.3752  108.232  15.7677
  11732.596  11732.580  0.500  1.924959  64.3464  108.188  15.7827
  11733.998  11733.990  0.500  1.924318  64.198  107.943  15.757
  11735.418  11735.410  0.500  1.923791  64.0614  107.72  15.7328
  11736.862  11736.850  0.500  1.923216  64.2411  108.03  15.787
  11738.288  11738.310  0.500  1.922648  64.2535  108.062  15.8008
  11739.781  11739.790  0.500  1.921968  64.2306  108.031  15.807
  11741.286  11741.290  0.500  1.921319  64.2188  108.01  15.8142
  11742.816  11742.810  0.500  1.920964  64.193  107.976  15.8147
  11744.358  11744.350  0.500  1.920728  64.1618  107.928  15.8115
  11745.918  11745.910  0.500  1.920735  63.9885  107.641  15.7693
  11747.491  11747.480  0.500  1.920973  63.9306  107.555  15.753
  11749.082  11749.080  0.500  1.921099  64.0843  107.806  15.7877
  11750.673  11750.690  0.500  1.921406  64.0724  107.792  15.7808
  11752.338  11752.330  0.500  1.921982  64.049  107.773  15.769
  11754.002  11753.980  0.500  1.922486  64.0242  107.742  15.7565
  11755.668  11755.650  0.500  1.922917  63.98  107.666  15.7386
  11757.351  11757.340  0.500  1.923243  63.744  107.276  15.6765
  11759.059  11759.050  0.500  1.923489  63.8888  107.526  15.7091
  11760.774  11760.780  0.500  1.923848  64.1203  107.918  15.7607
  11762.526  11762.530  0.500  1.924274  64.1087  107.917  15.754
  11764.289  11764.290  0.500  1.925007  64.1015  107.908  15.741
  11766.090  11766.080  0.500  1.925781  64.0853  107.886  15.7257
  11767.873  11767.880  0.500  1.926707  64.057  107.841  15.7045
  11769.717  11769.710  0.500  1.927726  63.8091  107.432  15.6291
  11771.550  11771.550  0.500  1.928342  63.9395  107.656  15.6519
  11773.401  11773.410  0.500  1.929176  63.9811  107.732  15.65
  11775.289  11775.290  0.500  1.929687  63.934  107.669  15.6328
  11777.201  11777.190  0.500  1.930024  63.5807  107.084  15.5427
  11779.133  11779.110  0.500  1.929820  63.8526  107.544  15.6126
  11781.071  11781.050  0.500  1.929004  63.8669  107.585  15.6313
  11783.022  11783.010  0.500  1.927736  63.8436  107.542  15.6448
  11784.985  11784.980  0.500  1.926189  63.8207  107.517  15.6656
  11786.973  11786.980  0.500  1.924407  63.7936  107.471  15.6868
  11788.999  11788.990  0.500  1.922905  63.7628  107.432  15.7046
  11791.013  11791.020  0.500  1.921491  63.7319  107.394  15.7213
  11793.082  11793.080  0.500  1.920145  63.6997  107.346  15.7354
  11795.146  11795.150  0.500  1.918816  63.67  107.305  15.7503
  11797.228  11797.240  0.500  1.917726  63.6332  107.251  15.7596
  11799.342  11799.350  0.500  1.916451  63.6015  107.197  15.7717
  11801.481  11801.480  0.500  1.915251  63.5624  107.146  15.7832
  11803.639  11803.620  0.500  1.914198  63.4544  106.978  15.7749
  11805.791  11805.790  0.500  1.913228  63.2021  106.553  15.7276
  11807.981  11807.980  0.500  1.912136  63.4441  106.973  15.8068
  11810.183  11810.180  0.500  1.911314  63.4138  106.934  15.814
  11812.423  11812.400  0.500  1.910283  63.3816  106.882  15.8226
  11814.658  11814.650  0.500  1.909504  63.345  106.817  15.8254
  11816.924  11816.910  0.500  1.908713  63.3067  106.774  15.8316
  11819.215  11819.190  0.500  1.907791  63.2704  106.727  15.8392
  11821.507  11821.490  0.500  1.907410  63.2372  106.68  15.8382
  11823.818  11823.810  0.500  1.906636  63.1996  106.631  15.8431
  11826.148  11826.150  0.500  1.905870  63.1674  106.573  15.8466
  11828.516  11828.500  0.500  1.905170  63.0973  106.462  15.8413
  11830.891  11830.880  0.500  1.904585  62.8087  105.998  15.7814
  11833.267  11833.270  0.500  1.903814  63.062  106.422  15.8568
  11835.680  11835.690  0.500  1.902797  63.0381  106.398  15.8693
  11838.131  11838.120  0.500  1.902128  63.0103  106.363  15.8747
  11840.601  11840.570  0.500  1.901171  62.9747  106.305  15.8813
  11843.048  11843.050  0.500  1.900666  62.9427  106.266  15.8835
  11845.545  11845.540  0.500  1.899820  62.9006  106.204  15.8877
  11848.061  11848.050  0.500  1.899445  62.6837  105.846  15.84
  11850.578  11850.570  0.500  1.898675  62.8273  106.096  15.8897
  11853.133  11853.120  0.500  1.898305  62.7843  106.039  15.887
  11855.708  11855.690  0.500  1.898147  62.5626  105.676  15.8351
  11858.296  11858.270  0.500  1.897648  62.5587  105.674  15.8427
  11860.897  11860.880  0.500  1.897363  62.5453  105.657  15.8447
  11863.505  11863.500  0.500  1.896970  62.5291  105.65  15.8499
  11866.158  11866.150  0.500  1.896578  62.597  105.765  15.8734
  11868.830  11868.810  0.500  1.895937  62.5495  105.701  15.874
  11871.498  11871.490  0.500  1.895044  62.4032  105.465  15.8526
  11874.197  11874.190  0.500  1.894208  62.4811  105.613  15.8881
  11876.928  11876.910  0.500  1.893367  62.439  105.547  15.8916
  11879.666  11879.650  0.500  1.892300  62.3897  105.475  15.8977
  11882.394  11882.400  0.500  1.891412  62.3319  105.388  15.8987
  11885.184  11885.180  0.500  1.890397  61.6139  104.187  15.7335
  11887.976  11887.970  0.500  1.889320  62.2252  105.228  15.9078
  11890.793  11890.790  0.500  1.888287  62.2105  105.211  15.9217
  11893.637  11893.620  0.500  1.887256  62.1701  105.154  15.9295
  11896.482  11896.470  0.500  1.886187  62.1204  105.085  15.9361
  11899.371  11899.350  0.500  1.885182  62.0515  104.971  15.9348
  11902.249  11902.240  0.500  1.884140  61.4041  103.891  15.7873
  11905.166  11905.150  0.500  1.883182  61.9902  104.897  15.9553
  11908.085  11908.070  0.500  1.881980  61.9655  104.864  15.9696
  11911.035  11911.020  0.500  1.881195  61.9317  104.815  15.9746
  11913.988  11913.990  0.500  1.880196  61.8743  104.736  15.9785
  11916.985  11916.970  0.500  1.879338  61.1956  103.598  15.8185
  11919.995  11919.980  0.500  1.878129  61.7857  104.612  15.9926
  11923.008  11923.000  0.500  1.877406  61.7695  104.585  16.0001
  11926.059  11926.050  0.500  1.876194  61.7327  104.533  16.0115
  11929.124  11929.110  0.500  1.875306  61.6892  104.479  16.0175
  11932.209  11932.190  0.500  1.874213  61.6236  104.383  16.0203
  11935.314  11935.290  0.500  1.873005  60.9756  103.294  15.8723
  11938.434  11938.410  0.500  1.871917  61.5289  104.243  16.0356
  11941.549  11941.550  0.500  1.870957  61.4946  104.197  16.0439
  11944.728  11944.700  0.500  1.869811  61.4472  104.122  16.0507
  11947.902  11947.880  0.500  1.868936  61.4133  104.076  16.0577
  11951.078  11951.070  0.500  1.868237  61.3628  104.007  16.0582
  11954.311  11954.290  0.500  1.867267  61.3175  103.94  16.0634
  11957.534  11957.520  0.500  1.866460  61.2739  103.876  16.0665
  11960.784  11960.770  0.500  1.865762  61.2292  103.813  16.0679
  11964.079  11964.050  0.500  1.865059  61.1752  103.737  16.0676
  11967.344  11967.340  0.500  1.864294  61.1286  103.657  16.0675
  11970.668  11970.650  0.500  1.863617  61.08  103.586  16.0673
  11973.987  11973.970  0.500  1.862763  61.0306  103.521  16.071
  11977.321  11977.320  0.500  1.861846  60.9777  103.443  16.0736
  11980.706  11980.690  0.500  1.861019  60.9371  103.384  16.0777
  11984.087  11984.070  0.500  1.860005  60.886  103.312  16.0828
  11987.489  11987.480  0.500  1.858993  60.8357  103.243  16.0883
  11990.924  11990.900  0.500  1.857884  60.7779  103.153  16.0921
  11994.355  11994.350  0.500  1.856758  60.7379  103.094  16.101
  11997.838  11997.810  0.500  1.855593  60.6888  103.023  16.1087
  12001.298  12001.290  0.500  1.854527  60.6363  102.957  16.1156
  12004.804  12004.790  0.500  1.853468  60.5898  102.886  16.1215
  12008.331  12008.310  0.500  1.852183  60.5415  102.812  16.1306
  12011.872  12011.850  0.500  1.851105  60.4965  102.744  16.1373
  12015.416  12015.400  0.500  1.850146  60.449  102.682  16.143
  12019.012  12018.980  0.500  1.848880  60.4018  102.605  16.1515
  12022.585  12022.580  0.500  1.847761  60.3411  102.524  16.1567
  12026.204  12026.190  0.500  1.846771  60.302  102.465  16.1634
  12029.819  12029.820  0.500  1.845459  60.2445  102.377  16.1708
  12033.487  12033.480  0.500  1.844362  60.1869  102.3  16.1764
  12037.144  12037.150  0.500  1.843164  60.1314  102.226  16.184
  12040.848  12040.840  0.500  1.842051  60.0677  102.127  16.1863
  12044.567  12044.550  0.500  1.840741  59.9761  101.989  16.1857
  12048.288  12048.280  0.500  1.839754  58.3375  99.2077  15.7598
  12052.011  12052.020  0.500  1.838578  59.8435  101.786  16.1884
  12055.794  12055.790  0.500  1.837350  59.8266  101.77  16.2058
  12059.579  12059.580  0.500  1.836169  59.7723  101.701  16.2139
  12063.386  12063.380  0.500  1.835156  59.7247  101.625  16.2181
  12067.220  12067.210  0.500  1.833871  59.6764  101.553  16.2275
  12071.051  12071.050  0.500  1.832838  59.6165  101.466  16.2303
  12074.909  12074.910  0.500  1.831908  59.5549  101.366  16.2295
  12078.795  12078.790  0.500  1.830857  59.4959  101.28  16.2328
  12082.678  12082.690  0.500  1.829874  59.4458  101.205  16.2367
  12086.646  12086.610  0.500  1.828752  59.3898  101.123  16.2417
  12090.552  12090.550  0.500  1.827783  59.2818  100.961  16.2314
  12094.519  12094.510  0.500  1.826693  59.2817  100.973  16.2511
  12098.501  12098.480  0.500  1.825561  59.2217  100.896  16.2571
  12102.492  12102.480  0.500  1.824452  59.1728  100.825  16.2637
  12106.492  12106.490  0.500  1.823274  59.1055  100.72  16.2659
  12110.545  12110.530  0.500  1.822030  59.043  100.627  16.271
  12114.608  12114.580  0.500  1.820730  59.0016  100.556  16.2808
  12118.642  12118.650  0.500  1.819380  58.9444  100.474  16.2895
  12122.781  12122.740  0.500  1.818118  58.8846  100.389  16.2962
  12126.859  12126.850  0.500  1.816784  58.8118  100.276  16.2996
  12130.990  12130.980  0.500  1.815486  58.7706  100.231  16.3134
  12135.150  12135.130  0.500  1.814117  58.7154  100.146  16.322
  12139.294  12139.290  0.500  1.812801  58.6515  100.051  16.3279
  12143.492  12143.480  0.500  1.811745  58.5936  99.9725  16.3324
  12147.693  12147.680  0.500  1.810595  58.5365  99.889  16.3375
  12151.930  12151.910  0.500  1.809415  58.4705  99.7911  16.3408
  12156.182  12156.150  0.500  1.808264  58.413  99.7011  16.3449
  12160.424  12160.410  0.500  1.807017  58.3313  99.5703  16.3438
  12164.714  12164.690  0.500  1.805847  58.2882  99.5145  16.3537
  12169.001  12168.990  0.500  1.804750  58.2235  99.4147  16.3553
  12173.336  12173.310  0.500  1.803450  58.1628  99.3163  16.3603
  12177.668  12177.650  0.500  1.802285  58.0922  99.2181  16.3632
  12182.028  12182.010  0.500  1.801097  58.0327  99.1309  16.3683
  12186.431  12186.390  0.500  1.799828  57.9703  99.0398  16.374
  12190.811  12190.780  0.500  1.798502  57.9021  98.9412  16.3794
  12195.227  12195.200  0.500  1.797103  57.8398  98.8371  16.3851
  12199.659  12199.630  0.500  1.796010  57.6685  98.561  16.3572
  12204.107  12204.080  0.500  1.794653  57.7239  98.6746  16.3982
  12208.571  12208.550  0.500  1.793174  57.6614  98.5881  16.4081
  12213.084  12213.040  0.500  1.791800  57.5928  98.491  16.4145
  12217.588  12217.550  0.500  1.790639  57.5316  98.3906  16.4168
  12222.101  12222.080  0.500  1.789157  57.469  98.2936  16.425
  12226.670  12226.630  0.500  1.787994  57.4049  98.2035  16.429
  12231.223  12231.200  0.500  1.786672  57.3248  98.0849  16.4309
  12235.818  12235.780  0.500  1.785634  55.8798  95.6275  16.0358
  12240.411  12240.390  0.500  1.784093  57.159  97.828  16.4301
  12245.033  12245.010  0.500  1.782842  57.1173  97.7716  16.4412
  12249.704  12249.660  0.500  1.781517  57.0608  97.695  16.4501
  12254.339  12254.320  0.500  1.780288  56.9845  97.5787  16.4508
  12259.037  12259.000  0.500  1.778939  56.9241  97.4831  16.4568
  12263.746  12263.700  0.500  1.777762  55.6765  95.3632  16.1179
  12268.444  12268.420  0.500  1.776232  56.7438  97.1987  16.4533
  12273.186  12273.160  0.500  1.774647  56.7209  97.1723  16.4749
  12277.925  12277.910  0.500  1.773450  56.6681  97.1023  16.4827
  12282.734  12282.690  0.500  1.771937  56.5115  96.8486  16.4646
  12287.513  12287.490  0.500  1.770625  56.4773  96.8001  16.478
  12292.342  12292.300  0.500  1.769116  55.9317  95.8769  16.3454
  12297.175  12297.130  0.500  1.767961  56.3189  96.5579  16.4806
  12302.045  12301.990  0.500  1.766755  56.296  96.5339  16.4963
  12306.906  12306.860  0.500  1.765393  56.4056  96.7416  16.5544
  12311.783  12311.750  0.500  1.763982  56.3515  96.6585  16.5635
  12316.698  12316.660  0.500  1.762774  56.28  96.5531  16.5655
  12321.630  12321.590  0.500  1.761590  55.0521  94.4677  16.2269
  12326.579  12326.530  0.500  1.760165  56.1297  96.327  16.5698
  12331.545  12331.500  0.500  1.758663  56.077  96.2527  16.5819
  12336.542  12336.490  0.500  1.757269  56.0167  96.1573  16.5886
  12341.543  12341.490  0.500  1.755776  55.9485  96.068  16.598
  12346.548  12346.520  0.500  1.754359  55.8766  95.954  16.6018
  12351.604  12351.560  0.500  1.752791  55.8021  95.83  16.6063
  12356.651  12356.620  0.500  1.751453  55.632  95.5578  16.5813
  12361.742  12361.700  0.500  1.749862  55.6681  95.6337  16.6209
  12366.823  12366.800  0.500  1.748504  55.6046  95.5384  16.6269
  12371.969  12371.920  0.500  1.746938  55.436  95.2593  16.6043
  12377.120  12377.060  0.500  1.745423  55.4417  95.2915  16.6351
  12382.261  12382.220  0.500  1.744049  55.2781  95.0245  16.6114
  12387.453  12387.400  0.500  1.742782  55.321  95.1196  16.6491
  12392.630  12392.590  0.500  1.741426  55.2399  95.0026  16.6511
  12397.865  12397.810  0.500  1.740073  55.1662  94.8917  16.6542
  12403.077  12403.040  0.500  1.738607  55.0876  94.7658  16.6565
  12408.328  12408.290  0.500  1.737346  55.0006  94.6319  16.654
  12413.596  12413.560  0.500  1.735988  54.9532  94.558  16.6636
  12418.896  12418.850  0.500  1.734548  54.8695  94.4379  16.6664
  12424.220  12424.160  0.500  1.733162  54.7933  94.3155  16.6679
  12429.516  12429.490  0.500  1.731760  54.6869  94.1516  16.6623
  12434.896  12434.840  0.500  1.730196  54.475  93.7939  16.6249
  12440.242  12440.210  0.500  1.728525  54.5649  93.9674  16.6835
  12445.645  12445.590  0.500  1.727015  54.4971  93.865  16.6906
  12451.047  12451.000  0.500  1.725544  54.4147  93.742  16.6932
  12456.467  12456.420  0.500  1.723952  54.3433  93.6277  16.6994
  12461.906  12461.870  0.500  1.722401  54.2663  93.5193  16.706
  12467.383  12467.330  0.500  1.720796  54.1587  93.3474  16.702
  12472.858  12472.810  0.500  1.719190  54.1054  93.2667  16.7144
  12478.358  12478.310  0.500  1.717771  54.0262  93.1475  16.7168
  12483.877  12483.830  0.500  1.716139  53.827  92.813  16.684
  12489.415  12489.370  0.500  1.714930  53.8936  92.9441  16.7277
  12494.984  12494.920  0.500  1.713417  53.812  92.8165  16.7301
  12500.545  12500.500  0.500  1.712013  53.7362  92.7059  16.7336
  12506.159  12506.100  0.500  1.710499  53.6373  92.5333  16.7278
  12511.744  12511.710  0.500  1.709254  53.5743  92.4469  16.733
  12517.416  12517.350  0.500  1.707645  53.478  92.2956  16.7325
  12523.024  12523.000  0.500  1.706183  53.424  92.2229  16.7438
  12528.706  12528.670  0.500  1.704795  53.3287  92.0771  16.7405
  12534.394  12534.360  0.500  1.703036  53.2448  91.9489  16.7466