File: xdidata/Ta/Ta-L3-TantalumOxide.xdi
# XDI/1.0 BlueSky/1.10.0 BMM/2023-1.0-py310-tiled
# Beamline.name: BMM (06BM) -- Beamline for Materials Measurement (NIST)
# Beamline.xray_source: NSLS-II three-pole wiggler
# Beamline.collimation: paraboloid mirror, 5 nm Rh on 30 nm Pt
# Beamline.focusing: not in use
# Beamline.harmonic_rejection: flat mirror, Pt stripe, pitch = 7.0 mrad relative to beam
# Beamline.software: Bluesky 1.10.0, Ophyd 1.7.0, DataBroker 2.0.0b13, Python 3.10.8, 2023-1.0-py310-tiled
# Detector.I0: 10 cm N2
# Detector.I1: 25 cm N2
# Detector.I2: 25 cm N2
# Element.symbol: Ta
# Element.edge: L3
# Element.reference: Ta
# Element.reference_material: Ta2O5
# Facility.name: NSLS-II
# Facility.energy: 3.0
# Facility.current: 400.7
# Facility.mode: top-off
# Facility.GUP: 301027
# Facility.SAF: 310583
# Facility.cycle: 2023-2
# Mono.name: Si(111)
# Mono.d_spacing: 3.13519
# Mono.encoder_resolution: 0.0000050 deg/ct
# Mono.angle_offset: 16.0754 deg
# Mono.scan_mode: pseudo channel cut
# Mono.scan_type: step
# Mono.direction: forward in energy
# Sample.name: Ta2O5
# Sample.prep: PEG pellet
# Sample.x: 109.138 mm
# Sample.y: 153.150 mm
# Sample.SDD_position: 205.000 mm
# Scan.experimenters: Bruce Ravel
# Scan.edge_energy: 9881.1
# Scan.start_time: 2023-05-28T17:17:41
# Scan.end_time: 2023-05-28T17:26:06
# Scan.transient_id: 78868
# Scan.uid: 1d04acbc-6002-4840-94b4-21c7ac5369c5
# Scan.plot_hint: ln(It/Ir)  --  ln($6/$7)
# Column.1: energy eV
# Column.2: requested_energy eV
# Column.3: measurement_time seconds
# Column.4: xmu
# Column.5: I0 nA
# Column.6: It nA
# Column.7: Ir nA
# ///////////
# sample courtesy Martin Stennett, University of Sheffield
# -----------
# energy  requested_energy  measurement_time  xmu  I0  It  Ir
  9681.073  9681.100  0.500  1.451953  104.457  156.122  36.5502
  9691.134  9691.100  0.500  1.448048  104.269  155.975  36.6586
  9701.135  9701.100  0.500  1.444088  104.066  155.787  36.7596
  9711.165  9711.100  0.500  1.440248  102.809  154.044  36.4883
  9721.163  9721.100  0.500  1.436282  103.71  155.524  36.9852
  9731.170  9731.100  0.500  1.432460  103.527  155.368  37.0895
  9741.116  9741.100  0.500  1.428675  103.321  155.199  37.1898
  9751.177  9751.100  0.500  1.424805  103.122  155.016  37.2899
  9761.099  9761.100  0.500  1.421166  102.92  154.852  37.3863
  9771.158  9771.100  0.500  1.417525  102.663  154.59  37.4591
  9781.105  9781.100  0.500  1.414010  102.495  154.449  37.5569
  9791.118  9791.100  0.500  1.410577  102.239  154.202  37.6256
  9801.119  9801.100  0.500  1.407375  102.153  154.177  37.7402
  9811.120  9811.100  0.500  1.404650  102.022  154.114  37.8278
  9821.122  9821.100  0.500  1.402428  101.339  153.189  37.6843
  9831.114  9831.100  0.500  1.401120  101.611  153.723  37.8651
  9841.132  9841.100  0.500  1.401868  101.458  153.619  37.8112
  9851.116  9851.100  0.500  1.407291  101.263  153.43  37.5605
  9853.084  9853.100  0.500  1.409460  101.224  153.395  37.4707
  9855.070  9855.100  0.500  1.412198  101.198  153.396  37.3685
  9857.061  9857.100  0.500  1.415665  101.173  153.378  37.2347
  9859.074  9859.100  0.500  1.420053  101.122  153.308  37.0547
  9861.075  9861.100  0.500  1.425953  101.113  153.325  36.8407
  9863.076  9863.100  0.500  1.433459  101.065  153.296  36.5583
  9865.071  9865.100  0.500  1.443395  101.022  153.238  36.1832
  9867.082  9867.100  0.500  1.457209  100.988  153.226  35.684
  9869.078  9869.100  0.500  1.476371  100.957  153.203  35.0016
  9871.071  9871.100  0.500  1.504094  100.905  153.143  34.0312
  9871.361  9871.400  0.500  1.508969  100.898  153.12  33.8607
  9871.660  9871.700  0.500  1.514209  100.908  153.14  33.688
  9871.960  9872.000  0.500  1.520082  100.881  153.092  33.4803
  9872.267  9872.300  0.500  1.526330  100.873  153.1  33.2736
  9872.566  9872.600  0.500  1.532830  100.875  153.103  33.0587
  9872.870  9872.900  0.500  1.540117  100.855  153.088  32.8153
  9873.178  9873.200  0.500  1.548157  100.845  153.08  32.5509
  9873.473  9873.500  0.500  1.556367  100.84  153.075  32.2836
  9873.785  9873.800  0.500  1.565660  100.831  153.067  31.9834
  9874.076  9874.100  0.500  1.575427  100.824  153.057  31.6704
  9874.375  9874.400  0.500  1.585806  100.811  153.044  31.3409
  9874.678  9874.700  0.500  1.597405  100.8  153.032  30.9769
  9874.974  9875.000  0.500  1.608901  100.798  153.019  30.6201
  9875.298  9875.300  0.500  1.622904  100.787  153.02  30.1947
  9875.581  9875.600  0.500  1.636383  100.787  153.015  29.7894
  9875.876  9875.900  0.500  1.651473  100.769  152.99  29.3384
  9876.180  9876.200  0.500  1.668314  100.772  153.002  28.8507
  9876.483  9876.500  0.500  1.686092  100.772  152.99  28.3402
  9876.787  9876.800  0.500  1.706804  100.761  152.98  27.7573
  9877.082  9877.100  0.500  1.728253  100.743  152.974  27.1673
  9877.382  9877.400  0.500  1.753008  100.722  152.957  26.5001
  9877.673  9877.700  0.500  1.779248  100.719  152.938  25.8106
  9877.985  9878.000  0.500  1.810664  100.709  152.932  25.0114
  9878.276  9878.300  0.500  1.843343  100.708  152.923  24.2058
  9878.572  9878.600  0.500  1.880260  100.69  152.908  23.3261
  9878.875  9878.900  0.500  1.921316  100.683  152.889  22.3851
  9879.184  9879.200  0.500  1.966984  100.664  152.864  21.3824
  9879.479  9879.500  0.500  2.016496  100.649  152.846  20.347
  9879.783  9879.800  0.500  2.071330  100.639  152.838  19.2604
  9880.091  9880.100  0.500  2.131739  100.612  152.796  18.1263
  9880.395  9880.400  0.500  2.200145  100.57  152.757  16.9235
  9880.690  9880.700  0.500  2.272836  100.497  152.634  15.7243
  9880.990  9881.000  0.500  2.353790  100.336  152.398  14.4791
  9881.294  9881.300  0.500  2.439737  100.025  151.921  13.2451
  9881.598  9881.600  0.500  2.534352  99.4944  151.118  11.9856
  9881.898  9881.900  0.500  2.630436  98.9286  150.266  10.8262
  9882.198  9882.200  0.500  2.727247  98.4879  149.598  9.783592
  9882.506  9882.500  0.500  2.827497  98.2338  149.235  8.828858
  9882.793  9882.800  0.500  2.914761  98.1842  149.146  8.086234
  9883.097  9883.100  0.500  2.995601  98.3053  149.334  7.467665
  9883.397  9883.400  0.500  3.063091  98.6957  149.922  7.007819
  9883.680  9883.700  0.500  3.112454  99.2229  150.729  6.706166
  9883.984  9884.000  0.500  3.153195  99.7016  151.47  6.470096
  9884.297  9884.300  0.500  3.182209  100.035  151.979  6.306218
  9884.580  9884.600  0.500  3.201083  100.199  152.237  6.198795
  9884.901  9884.900  0.500  3.213682  100.292  152.389  6.127312
  9885.193  9885.200  0.500  3.219120  100.332  152.45  6.096524
  9885.493  9885.500  0.500  3.219882  100.35  152.485  6.093251
  9885.805  9885.800  0.500  3.216243  100.369  152.519  6.116855
  9886.101  9886.100  0.500  3.208441  100.378  152.535  6.165403
  9886.397  9886.400  0.500  3.196386  100.383  152.563  6.241323
  9886.706  9886.700  0.500  3.179508  100.386  152.523  6.345872
  9886.993  9887.000  0.500  3.159240  100.376  152.513  6.475408
  9887.297  9887.300  0.500  3.132908  100.371  152.513  6.648158
  9887.606  9887.600  0.500  3.101576  100.371  152.53  6.860549
  9887.898  9887.900  0.500  3.065857  100.37  152.535  7.110270
  9888.202  9888.200  0.500  3.023602  100.351  152.506  7.415709
  9888.494  9888.500  0.500  2.978515  100.352  152.512  7.758004
  9888.786  9888.800  0.500  2.930194  100.346  152.506  8.141772
  9889.094  9889.100  0.500  2.874457  100.332  152.489  8.607519
  9889.390  9889.400  0.500  2.819298  100.343  152.506  9.096660
  9889.686  9889.700  0.500  2.762475  100.335  152.504  9.628399
  9889.991  9890.000  0.500  2.702932  100.316  152.473  10.217
  9890.296  9890.300  0.500  2.646619  100.324  152.493  10.8103
  9890.592  9890.600  0.500  2.592288  100.298  152.456  11.4111
  9890.905  9890.900  0.500  2.538781  100.295  152.453  12.0381
  9891.201  9891.200  0.500  2.491706  100.291  152.456  12.6186
  9891.501  9891.500  0.500  2.447686  100.274  152.426  13.1838
  9891.797  9891.800  0.500  2.406866  100.269  152.423  13.7329
  9892.102  9892.100  0.500  2.369589  100.25  152.389  14.2513
  9892.403  9892.400  0.500  2.336968  100.244  152.386  14.7236
  9892.707  9892.700  0.500  2.307108  100.238  152.377  15.1689
  9892.999  9893.000  0.500  2.280763  100.221  152.371  15.5732
  9893.291  9893.300  0.500  2.257845  100.219  152.366  15.9337
  9893.605  9893.600  0.500  2.235955  100.207  152.345  16.2842
  9893.892  9893.900  0.500  2.218306  100.206  152.354  16.5751
  9894.189  9894.200  0.500  2.202618  100.182  152.323  16.8338
  9894.498  9894.500  0.500  2.188248  100.176  152.313  17.0763
  9894.786  9894.800  0.500  2.176923  100.166  152.301  17.2694
  9895.090  9895.100  0.500  2.166437  100.158  152.292  17.4504
  9895.404  9895.400  0.500  2.156949  100.152  152.294  17.617
  9895.692  9895.700  0.500  2.148955  100.139  152.27  17.7555
  9896.001  9896.000  0.500  2.141695  100.131  152.269  17.8849
  9896.306  9896.300  0.500  2.134636  100.13  152.242  18.0083
  9896.594  9896.600  0.500  2.128867  100.116  152.224  18.1104
  9896.903  9896.900  0.500  2.122976  100.093  152.189  18.2132
  9897.208  9897.200  0.500  2.117792  100.086  152.185  18.3074
  9897.505  9897.500  0.500  2.112794  100.08  152.186  18.3993
  9897.801  9897.800  0.500  2.108132  100.069  152.173  18.4837
  9898.098  9898.100  0.500  2.103920  100.066  152.174  18.5617
  9898.403  9898.400  0.500  2.099832  100.046  152.163  18.6365
  9898.691  9898.700  0.500  2.096284  100.328  152.598  18.7562
  9898.983  9899.000  0.500  2.093107  100.349  152.633  18.8201
  9899.297  9899.300  0.500  2.089883  100.355  152.638  18.8816
  9899.589  9899.600  0.500  2.087191  100.351  152.614  18.9294
  9899.882  9899.900  0.500  2.084488  100.345  152.617  18.9811
  9900.204  9900.200  0.500  2.081936  100.344  152.617  19.0296
  9900.488  9900.500  0.500  2.079647  100.337  152.602  19.0713
  9900.797  9900.800  0.500  2.077410  100.326  152.587  19.1122
  9901.098  9901.100  0.500  2.075240  100.314  152.586  19.1536
  9901.399  9901.400  0.500  2.073278  100.301  152.58  19.1904
  9901.709  9901.700  0.500  2.071286  100.288  152.56  19.2261
  9901.993  9902.000  0.500  2.069569  100.293  152.555  19.2586
  9902.298  9902.300  0.500  2.067864  100.281  152.551  19.291
  9902.608  9902.600  0.500  2.066111  100.268  152.529  19.322
  9902.892  9902.900  0.500  2.064824  100.263  152.522  19.346
  9903.201  9903.200  0.500  2.063461  100.243  152.499  19.3695
  9903.494  9903.500  0.500  2.062406  100.244  152.523  19.3929
  9903.787  9903.800  0.500  2.061293  100.237  152.521  19.4143
  9904.088  9904.100  0.500  2.060143  100.229  152.499  19.4338
  9904.385  9904.400  0.500  2.059147  100.218  152.485  19.4514
  9904.682  9904.700  0.500  2.058254  100.214  152.479  19.468
  9904.992  9905.000  0.500  2.057312  100.202  152.457  19.4836
  9905.284  9905.300  0.500  2.056124  100.194  152.444  19.5051
  9905.590  9905.600  0.500  2.054916  100.181  152.456  19.5302
  9905.900  9905.900  0.500  2.053758  100.188  152.461  19.5535
  9906.099  9906.100  0.500  2.052734  100.179  152.457  19.5729
  9907.122  9907.090  0.500  2.047772  100.134  152.381  19.6605
  9908.115  9908.090  0.500  2.042068  100.101  152.357  19.7699
  9909.172  9909.110  0.500  2.035357  100.082  152.347  19.9017
  9910.120  9910.160  0.500  2.028830  100.02  152.26  20.0206
  9911.190  9911.220  0.500  2.022050  99.9719  152.199  20.1487
  9912.261  9912.300  0.500  2.017812  99.9641  152.213  20.2361
  9913.370  9913.400  0.500  2.018456  99.9348  152.17  20.2174
  9914.496  9914.520  0.500  2.023993  99.9171  152.145  20.1025
  9915.631  9915.660  0.500  2.032990  99.9002  152.134  19.921
  9916.784  9916.810  0.500  2.043304  99.8703  152.109  19.7133
  9917.971  9917.990  0.500  2.053261  99.8443  152.096  19.5163
  9919.153  9919.180  0.500  2.062789  99.8329  152.09  19.3305
  9920.388  9920.400  0.500  2.073103  99.797  152.011  19.1222
  9921.609  9921.630  0.500  2.083947  99.7772  151.998  18.9143
  9922.870  9922.880  0.500  2.095212  99.7415  151.982  18.7005
  9924.143  9924.150  0.500  2.106978  99.712  151.953  18.4782
  9925.425  9925.440  0.500  2.118993  99.6792  151.904  18.2516
  9926.729  9926.750  0.500  2.130472  99.631  151.858  18.0379
  9928.063  9928.080  0.500  2.141760  99.5832  151.811  17.8299
  9929.415  9929.430  0.500  2.152241  99.5366  151.736  17.6352
  9930.792  9930.800  0.500  2.161171  99.4191  151.568  17.4591
  9932.170  9932.180  0.500  2.168174  98.6723  150.448  17.2091
  9933.583  9933.590  0.500  2.172811  96.9414  147.818  16.8301
  9934.991  9935.010  0.500  2.174196  99.4465  151.655  17.2431
  9936.435  9936.450  0.500  2.172875  99.5364  151.814  17.284
  9937.904  9937.910  0.500  2.169481  99.5006  151.78  17.3389
  9939.395  9939.390  0.500  2.164664  99.4732  151.744  17.4185
  9940.895  9940.890  0.500  2.158632  99.4298  151.679  17.5164
  9942.408  9942.410  0.500  2.150890  99.3942  151.659  17.6502
  9943.939  9943.950  0.500  2.142444  99.3581  151.62  17.7953
  9945.500  9945.510  0.500  2.133505  99.3186  151.608  17.9537
  9947.075  9947.080  0.500  2.124783  99.2781  151.542  18.1031
  9948.676  9948.680  0.500  2.117034  99.2351  151.501  18.2389
  9950.294  9950.290  0.500  2.109994  99.1858  151.435  18.3598
  9951.926  9951.930  0.500  2.103860  99.0515  151.242  18.4492
  9953.572  9953.580  0.500  2.099295  97.3522  148.673  18.2188
  9955.248  9955.250  0.500  2.095369  97.7628  149.319  18.3699
  9956.928  9956.940  0.500  2.093136  98.9599  151.157  18.6376
  9958.661  9958.650  0.500  2.091559  98.9912  151.225  18.6755
  9960.377  9960.380  0.500  2.090405  98.9701  151.219  18.6963
  9962.128  9962.130  0.500  2.089380  98.9173  151.16  18.7081
  9963.897  9963.890  0.500  2.087771  98.8473  151.084  18.7288
  9965.680  9965.680  0.500  2.085726  98.7675  150.972  18.7532
  9967.476  9967.480  0.500  2.083141  98.4179  150.456  18.7375
  9969.311  9969.310  0.500  2.080850  95.9015  146.625  18.3023
  9971.139  9971.150  0.500  2.079050  98.845  151.159  18.9023
  9973.015  9973.010  0.500  2.078341  98.819  151.146  18.914
  9974.891  9974.890  0.500  2.078542  98.7657  151.098  18.9042
  9976.781  9976.790  0.500  2.079356  98.7149  151.025  18.8798
  9978.706  9978.710  0.500  2.080967  98.6538  150.95  18.84
  9980.662  9980.650  0.500  2.083200  98.5749  150.852  18.7857
  9982.606  9982.610  0.500  2.085580  98.3925  150.591  18.7086
  9984.580  9984.580  0.500  2.088392  94.2168  144.23  17.8681
  9986.582  9986.580  0.500  2.090635  98.1728  150.314  18.5801
  9988.588  9988.590  0.500  2.092912  98.4173  150.698  18.5852
  9990.622  9990.620  0.500  2.095059  98.3796  150.672  18.5422
  9992.695  9992.680  0.500  2.096636  98.3337  150.626  18.5072
  9994.752  9994.750  0.500  2.098173  98.268  150.548  18.4693
  9996.835  9996.840  0.500  2.099763  98.1414  150.376  18.4188
  9998.967  9998.950  0.500  2.101718  96.4703  147.826  18.0712
  10001.096  10001.080  0.500  2.103214  97.8186  149.913  18.2989
  10003.212  10003.220  0.500  2.105048  98.2513  150.598  18.3488
  10005.403  10005.390  0.500  2.106231  98.1865  150.544  18.3206
  10007.586  10007.580  0.500  2.106910  98.1308  150.477  18.3
  10009.788  10009.780  0.500  2.107002  98.0738  150.395  18.2883
  10011.999  10012.000  0.500  2.106574  97.9866  150.295  18.284
  10014.281  10014.250  0.500  2.105449  96.9569  148.74  18.1152
  10016.503  10016.510  0.500  2.103360  96.7001  148.365  18.1073
  10018.800  10018.790  0.500  2.101016  97.8145  150.098  18.3618
  10021.106  10021.090  0.500  2.098393  97.8094  150.114  18.412
  10023.423  10023.410  0.500  2.095621  97.7602  150.074  18.4581
  10025.762  10025.750  0.500  2.093131  97.7161  150.03  18.4988
  10028.111  10028.100  0.500  2.090643  97.6711  149.986  18.5395
  10030.492  10030.480  0.500  2.088579  97.6069  149.904  18.5676
  10032.887  10032.870  0.500  2.086513  97.5139  149.815  18.595
  10035.300  10035.290  0.500  2.084686  97.0802  149.168  18.5485
  10037.723  10037.720  0.500  2.082596  96.5585  148.383  18.4894
  10040.157  10040.170  0.500  2.080698  97.5174  149.88  18.7115
  10042.670  10042.650  0.500  2.078736  97.4606  149.815  18.7401
  10045.140  10045.140  0.500  2.076995  97.3972  149.757  18.7655
  10047.665  10047.650  0.500  2.075193  97.3444  149.703  18.7925
  10050.186  10050.170  0.500  2.073602  97.2831  149.645  18.8152
  10052.722  10052.720  0.500  2.072056  97.2304  149.575  18.8355
  10055.311  10055.290  0.500  2.070213  97.1787  149.514  18.8625
  10057.880  10057.870  0.500  2.068959  97.1189  149.444  18.8773
  10060.503  10060.480  0.500  2.067859  97.0654  149.381  18.8901
  10063.114  10063.100  0.500  2.067247  97.0072  149.326  18.8947
  10065.748  10065.750  0.500  2.067100  96.9528  149.29  18.8929
  10068.437  10068.410  0.500  2.067020  96.8958  149.239  18.888
  10071.118  10071.090  0.500  2.067301  96.8473  149.181  18.8754
  10073.792  10073.790  0.500  2.067438  96.7932  149.127  18.866
  10076.533  10076.510  0.500  2.067452  96.7342  149.071  18.8587
  10079.267  10079.250  0.500  2.067206  96.6757  149.014  18.8561
  10082.007  10082.000  0.500  2.066970  96.625  148.962  18.8539
  10084.796  10084.780  0.500  2.066508  96.5616  148.899  18.8546
  10087.579  10087.570  0.500  2.066299  96.3671  148.624  18.8237
  10090.403  10090.390  0.500  2.065935  94.6413  145.998  18.498
  10093.223  10093.220  0.500  2.065530  96.3137  148.594  18.8345
  10096.090  10096.070  0.500  2.065061  96.2923  148.592  18.8431
  10098.967  10098.950  0.500  2.064141  96.2519  148.564  18.8568
  10101.855  10101.840  0.500  2.063261  96.2006  148.511  18.8666
  10104.766  10104.750  0.500  2.062029  96.1498  148.46  18.8835
  10107.684  10107.670  0.500  2.060638  96.0893  148.401  18.9023
  10110.634  10110.620  0.500  2.059206  96.0312  148.35  18.9229
  10113.586  10113.590  0.500  2.057873  96.1798  148.611  18.9814
  10116.593  10116.570  0.500  2.056667  96.1645  148.613  19.0046
  10119.589  10119.580  0.500  2.055587  96.1204  148.572  19.0198
  10122.626  10122.600  0.500  2.054783  96.0686  148.506  19.0267
  10125.647  10125.650  0.500  2.054218  96.0123  148.45  19.0303
  10128.728  10128.710  0.500  2.053820  95.9527  148.398  19.0311
  10131.784  10131.790  0.500  2.053373  95.8963  148.33  19.031
  10134.913  10134.890  0.500  2.052549  95.8035  148.235  19.0345
  10138.000  10138.010  0.500  2.051378  95.7595  148.207  19.0532
  10141.164  10141.150  0.500  2.050092  95.7054  148.15  19.0703
  10144.295  10144.300  0.500  2.048730  95.6399  148.082  19.0875
  10147.481  10147.480  0.500  2.047079  95.5749  148.016  19.1106
  10150.673  10150.670  0.500  2.044926  95.5126  147.951  19.1433
  10153.908  10153.890  0.500  2.042494  95.4475  147.869  19.1794
  10157.122  10157.120  0.500  2.040306  95.3847  147.802  19.2126
  10160.379  10160.370  0.500  2.038695  95.3137  147.739  19.2354
  10163.652  10163.650  0.500  2.036897  95.2454  147.66  19.2597
  10166.953  10166.940  0.500  2.035540  95.1296  147.518  19.2673
  10170.248  10170.250  0.500  2.034575  95.1124  147.533  19.2878
  10173.585  10173.570  0.500  2.033798  95.0514  147.475  19.2953
  10176.933  10176.920  0.500  2.032950  94.9852  147.392  19.3008
  10180.297  10180.290  0.500  2.032257  94.9102  147.315  19.3041
  10183.690  10183.670  0.500  2.031394  94.8434  147.25  19.3122
  10187.090  10187.080  0.500  2.030425  94.7744  147.172  19.3207
  10190.515  10190.500  0.500  2.029415  94.6994  147.076  19.3277
  10193.965  10193.950  0.500  2.028278  94.5427  146.862  19.3214
  10197.412  10197.410  0.500  2.026987  94.5664  146.957  19.3589
  10200.912  10200.890  0.500  2.025511  94.4906  146.881  19.3774
  10204.400  10204.390  0.500  2.024048  94.4047  146.755  19.3892
  10207.932  10207.910  0.500  2.022660  94.3197  146.655  19.4029
  10211.470  10211.450  0.500  2.021211  94.2446  146.58  19.4211
  10215.020  10215.000  0.500  2.019763  94.1795  146.503  19.4391
  10218.586  10218.580  0.500  2.018303  94.1095  146.425  19.4571
  10222.209  10222.180  0.500  2.016964  94.0369  146.356  19.4739
  10225.803  10225.790  0.500  2.015750  93.9222  146.237  19.4818
  10229.440  10229.420  0.500  2.014597  93.8887  146.215  19.5013
  10233.089  10233.080  0.500  2.013490  93.8058  146.128  19.5113
  10236.782  10236.750  0.500  2.012235  93.722  146.034  19.5232
  10240.454  10240.440  0.500  2.011072  93.4946  145.707  19.5022
  10244.175  10244.150  0.500  2.009726  93.59  145.895  19.5537
  10247.902  10247.880  0.500  2.008418  93.5172  145.811  19.568
  10251.638  10251.620  0.500  2.006987  93.4347  145.716  19.5832
  10255.398  10255.390  0.500  2.005452  93.366  145.629  19.6015
  10259.217  10259.180  0.500  2.003754  93.2871  145.548  19.624
  10262.997  10262.980  0.500  2.002173  93.2081  145.471  19.6446
  10266.830  10266.810  0.500  2.000252  93.1257  145.386  19.671
  10270.670  10270.650  0.500  1.998313  93.0331  145.289  19.6959
  10274.532  10274.510  0.500  1.996458  92.9528  145.184  19.7182
  10278.415  10278.390  0.500  1.994548  92.7207  144.865  19.7126
  10282.315  10282.290  0.500  1.992886  92.8158  145.05  19.7706
  10286.227  10286.210  0.500  1.991256  92.7348  144.956  19.79
  10290.174  10290.150  0.500  1.989905  92.6519  144.875  19.8057
  10294.129  10294.110  0.500  1.988534  92.5719  144.775  19.8191
  10298.115  10298.080  0.500  1.987263  92.4814  144.689  19.8325
  10302.117  10302.080  0.500  1.986102  92.4003  144.59  19.842
  10306.113  10306.090  0.500  1.984726  92.3156  144.49  19.8556
  10310.159  10310.130  0.500  1.983568  92.2364  144.414  19.8682
  10314.203  10314.180  0.500  1.982279  92.1466  144.313  19.8798
  10318.269  10318.250  0.500  1.980733  92.0631  144.215  19.897
  10322.366  10322.340  0.500  1.979100  91.804  143.834  19.8769
  10326.485  10326.450  0.500  1.977509  91.9188  144.038  19.9368
  10330.616  10330.580  0.500  1.975689  91.8217  143.928  19.9579
  10334.751  10334.730  0.500  1.973840  91.7346  143.844  19.9831
  10338.921  10338.890  0.500  1.971869  91.6431  143.739  20.008
  10343.113  10343.080  0.500  1.969886  91.5636  143.651  20.0354
  10347.300  10347.280  0.500  1.968086  91.4764  143.564  20.0593
  10351.536  10351.510  0.500  1.966309  91.3938  143.473  20.0823
  10355.776  10355.750  0.500  1.964807  91.2987  143.348  20.0949
  10360.048  10360.010  0.500  1.963148  91.2037  143.258  20.1157
  10364.327  10364.290  0.500  1.961727  91.1185  143.155  20.1298
  10368.620  10368.590  0.500  1.960422  91.0177  143.035  20.1393
  10372.949  10372.910  0.500  1.959017  90.9097  142.904  20.149
  10377.281  10377.250  0.500  1.957584  90.8107  142.778  20.1601
  10381.632  10381.610  0.500  1.956229  90.7203  142.67  20.1722
  10386.009  10385.990  0.500  1.954781  90.6316  142.567  20.1869
  10390.423  10390.380  0.500  1.953109  90.5358  142.45  20.2041
  10394.836  10394.800  0.500  1.951399  90.4422  142.358  20.2255
  10399.239  10399.230  0.500  1.949656  90.3523  142.257  20.2465
  10403.692  10403.680  0.500  1.947566  90.2598  142.144  20.2726
  10408.177  10408.150  0.500  1.945490  90.1612  142.03  20.2986
  10412.672  10412.640  0.500  1.943408  90.0691  141.919  20.325
  10417.170  10417.150  0.500  1.941223  89.98  141.813  20.3541
  10421.705  10421.680  0.500  1.939252  89.88  141.692  20.3769
  10426.258  10426.230  0.500  1.937307  89.7811  141.582  20.4007
  10430.824  10430.800  0.500  1.935487  89.6915  141.495  20.4253
  10435.400  10435.380  0.500  1.933836  89.5925  141.389  20.4438
  10440.008  10439.990  0.500  1.932227  89.5022  141.275  20.4603
  10444.648  10444.610  0.500  1.930812  89.4101  141.182  20.4757
  10449.283  10449.260  0.500  1.929169  89.3159  141.082  20.4948
  10453.932  10453.920  0.500  1.927596  89.2263  140.972  20.511
  10458.637  10458.600  0.500  1.926011  89.1282  140.858  20.527
  10463.323  10463.300  0.500  1.924282  89.0225  140.731  20.544
  10468.055  10468.020  0.500  1.922710  88.9182  140.598  20.5569
  10472.793  10472.760  0.500  1.920803  88.8161  140.48  20.5788
  10477.553  10477.510  0.500  1.918894  88.7184  140.368  20.6017
  10482.318  10482.290  0.500  1.916907  88.6185  140.247  20.6249
  10487.130  10487.090  0.500  1.914800  88.5172  140.127  20.6507
  10491.933  10491.900  0.500  1.912716  88.4169  140.008  20.6762
  10496.763  10496.730  0.500  1.910675  88.3087  139.88  20.6995
  10501.623  10501.590  0.500  1.908598  88.2057  139.742  20.722
  10506.491  10506.460  0.500  1.906597  88.1101  139.64  20.7485
  10511.379  10511.350  0.500  1.904878  87.9127  139.366  20.7433
  10516.295  10516.260  0.500  1.903077  87.8842  139.365  20.7805
  10521.211  10521.190  0.500  1.901430  87.7842  139.248  20.7973
  10526.180  10526.130  0.500  1.899784  87.4248  138.721  20.7528
  10531.124  10531.100  0.500  1.898167  87.5742  139  20.8282
  10536.127  10536.090  0.500  1.896429  87.4723  138.89  20.848
  10541.115  10541.090  0.500  1.894622  87.3232  138.684  20.8547
  10546.141  10546.120  0.500  1.892873  87.2601  138.629  20.8828
  10551.192  10551.160  0.500  1.890906  87.1523  138.502  20.9049
  10556.242  10556.220  0.500  1.889025  86.941  138.216  20.901
  10561.332  10561.300  0.500  1.886871  86.9466  138.258  20.9523
  10566.441  10566.400  0.500  1.884717  86.8209  138.089  20.9719
  10571.545  10571.520  0.500  1.882483  86.7297  137.988  21.0035
  10576.718  10576.660  0.500  1.880209  86.606  137.846  21.0295
  10581.847  10581.820  0.500  1.878066  86.472  137.666  21.0471
  10587.035  10587.000  0.500  1.875812  86.2035  137.267  21.0335
  10592.218  10592.190  0.500  1.873732  86.2926  137.452  21.1057
  10597.445  10597.410  0.500  1.871830  86.1692  137.299  21.1224
  10602.668  10602.640  0.500  1.869940  86.0546  137.159  21.1408
  10607.935  10607.890  0.500  1.868124  85.9358  137.013  21.1566
  10613.178  10613.160  0.500  1.866417  85.8313  136.881  21.1723
  10618.470  10618.450  0.500  1.864672  85.6028  136.559  21.1594
  10623.797  10623.760  0.500  1.863004  85.6244  136.641  21.2074
  10629.115  10629.090  0.500  1.861242  85.5099  136.496  21.2224
  10634.477  10634.440  0.500  1.859319  85.3939  136.362  21.2423
  10639.835  10639.810  0.500  1.857391  85.2694  136.207  21.2591
  10645.214  10645.190  0.500  1.855245  85.1948  136.113  21.29
  10650.637  10650.600  0.500  1.853206  85.0769  135.974  21.3118
  10656.046  10656.020  0.500  1.850915  84.9522  135.82  21.3364
  10661.495  10661.470  0.500  1.848510  84.4653  135.092  21.2731
  10666.965  10666.930  0.500  1.846136  84.7319  135.562  21.3979
  10672.436  10672.410  0.500  1.843781  84.5978  135.379  21.4194
  10677.941  10677.910  0.500  1.841416  84.2377  134.853  21.3868
  10683.458  10683.430  0.500  1.839221  84.3908  135.134  21.4784
  10688.995  10688.970  0.500  1.836977  84.2689  134.962  21.4991
  10694.558  10694.520  0.500  1.835054  84.1387  134.798  21.5144
  10700.127  10700.100  0.500  1.833164  84.0184  134.665  21.5338
  10705.717  10705.700  0.500  1.831431  83.9262  134.554  21.5534
  10711.348  10711.310  0.500  1.829626  83.8185  134.432  21.5727
  10716.974  10716.950  0.500  1.827771  83.7011  134.263  21.5856
  10722.637  10722.600  0.500  1.825891  83.5713  134.097  21.5995
  10728.300  10728.270  0.500  1.824025  83.4571  133.964  21.6185
  10733.990  10733.960  0.500  1.821895  83.3206  133.792  21.6368