File: xdidata/Ta/Ta-L3-Ta2O3.xdi
# XDI/1.0 BlueSky/1.5.3
# Beamline.name: 6BM
# Beamline.xray_source: NSLS-II three-pole wiggler
# Beamline.collimation: paraboloid mirror, 5 nm Rh on 30 nm Pt
# Beamline.focusing: not in use
# Beamline.harmonic_rejection: flat mirror, Pt stripe, pitch = 7.0 mrad relative to beam
# Detector.i0: 10 cm N2
# Detector.i1: 25 cm N2
# Detector.i2: 25 cm N2
# Element.symbol: Ta
# Element.edge: L3
# Facility.name: NSLS-II
# Facility.energy: 3.0
# Facility.current: 400.7
# Facility.mode: top-off
# Facility.gup: 305832
# Facility.saf: 305669
# Facility.cycle: 2020-1
# Mono.name: Si(111)
# Mono.d_spacing: 3.13532
# Mono.encoder_resolution: 0.0000050 deg/ct
# Mono.angle_offset: 16.0581 deg
# Mono.scan_mode: fixed exit
# Mono.scan_type: step
# Mono.direction: forward in energy
# Sample.name: Ta2O3
# Sample.prep: Powder in polyethylene glycol pellet
# Sample.x_position: -5.367 mm
# Sample.y_position: 103.555 mm
# Scan.experimenters: Neil Hyatt, Martin Stennett, Dan Austin, Seb Lawson
# Scan.edge_energy: 9881.1
# Scan.start_time: 2020-03-05T01:00:54
# Scan.end_time: 2020-03-05T18:34:04
# Scan.transient_id: 22951
# Scan.uid: e820bc4d-b17e-4e1d-8068-1a815f9a3f3c
# Scan.plot_hint: ln(I0/It)  --  ln($5/$6)
# Scan.sequence: merge of 2 scans
# Column.1: energy eV
# Column.2: requested_energy eV
# Column.3: measurement_time seconds
# Column.4: mutrans
# Column.5: i0
# Column.6: itrans
# Column.7: irefer
# /////
#
# -----
# energy   requested_energy   measurement_time   mutrans   i0   itrans   irefer
9681.11 9681.1 1.000000 0.383541 113.633 77.6981 34.0632
9691.17 9691.1 1.000000 0.380568 113.366 77.7457 34.1644
9701.18 9701.1 1.000000 0.377664 113.075 77.7709 34.2589
9711.16 9711.1 1.000000 0.374745 112.85 77.8415 34.3679
9721.15 9721.1 1.000000 0.371910 112.572 77.8679 34.4597
9731.15 9731.1 1.000000 0.369125 112.301 77.8954 34.5477
9741.13 9741.1 1.000000 0.366244 112.043 77.9386 34.649
9751.42 9751.1 1.000000 0.363343 111.745 77.9598 34.738
9761.1 9761.1 1.000000 0.360579 111.43 77.9484 34.8031
9771.08 9771.1 1.000000 0.357903 111.047 77.888 34.8583
9781.09 9781.1 1.000000 0.355290 110.759 77.887 34.9283
9791.1 9791.1 1.000000 0.352637 108.927 76.796 34.5057
9801.1 9801.1 1.000000 0.350301 110.229 77.9024 35.08
9811.09 9811.1 1.000000 0.348121 110.046 77.9413 35.1589
9821.09 9821.1 1.000000 0.346383 109.353 77.589 35.0607
9831.09 9831.1 1.000000 0.345194 109.42 77.7251 35.156
9841.09 9841.1 1.000000 0.345534 109.16 77.5147 35.0694
9851.1 9851.1 1.000000 0.349024 108.82 77.0079 34.7593
9853.08 9853.1 1.000000 0.350514 108.754 76.8479 34.6535
9855.08 9855.1 1.000000 0.352460 108.691 76.6548 34.5175
9857.08 9857.1 1.000000 0.354847 108.623 76.4253 34.3515
9859.07 9859.1 1.000000 0.358098 108.565 76.1397 34.1446
9861.07 9861.1 1.000000 0.362209 108.508 75.7915 33.8886
9863.08 9863.1 1.000000 0.367762 108.446 75.331 33.5392
9865.08 9865.1 1.000000 0.375235 108.383 74.733 33.0816
9867.08 9867.1 1.000000 0.385656 108.325 73.9268 32.4441
9869.08 9869.1 1.000000 0.400130 108.261 72.8294 31.5718
9871.09 9871.1 1.000000 0.422117 108.207 71.2207 30.2768
9871.32 9871.35 1.000000 0.425368 108.194 70.983 30.085
9871.57 9871.6 1.000000 0.428978 108.171 70.7102 29.8634
9871.82 9871.85 1.000000 0.432987 108.174 70.428 29.6349
9872.07 9872.1 1.000000 0.437154 108.164 70.1439 29.4086
9872.32 9872.35 1.000000 0.441417 108.15 69.8316 29.1489
9872.58 9872.6 1.000000 0.446028 108.132 69.4924 28.8756
9872.82 9872.85 1.000000 0.450958 108.125 69.1627 28.6096
9873.08 9873.1 1.000000 0.455953 108.114 68.8083 28.3164
9873.33 9873.35 1.000000 0.461634 108.098 68.4104 27.9946
9873.57 9873.6 1.000000 0.467467 108.095 68.024 27.6772
9873.83 9873.85 1.000000 0.473938 108.079 67.5615 27.3046
9874.08 9874.1 1.000000 0.480796 108.08 67.1159 26.9452
9874.33 9874.35 1.000000 0.488007 108.066 66.6237 26.5465
9874.59 9874.6 1.000000 0.496037 108.045 66.0665 26.1012
9874.83 9874.85 1.000000 0.504598 108.044 65.5377 25.6827
9875.08 9875.1 1.000000 0.513682 108.033 64.9266 25.2053
9875.33 9875.35 1.000000 0.523613 108.015 64.2782 24.7096
9875.58 9875.6 1.000000 0.534280 108.012 63.612 24.1995
9875.84 9875.85 1.000000 0.545945 108.001 62.8425 23.6309
9876.09 9876.1 1.000000 0.558870 107.977 62.0708 23.0748
9876.34 9876.35 1.000000 0.572103 107.961 61.2335 22.4868
9876.59 9876.6 1.000000 0.586878 107.95 60.3192 21.8755
9876.84 9876.85 1.000000 0.602531 107.937 59.3905 21.2812
9877.1 9877.1 1.000000 0.619170 107.914 58.3953 20.6748
9877.35 9877.35 1.000000 0.637608 107.893 57.334 20.0626
9877.59 9877.6 1.000000 0.657595 107.824 56.1891 19.4487
9877.85 9877.85 1.000000 0.679860 107.725 54.8672 18.7741
9878.11 9878.1 1.000000 0.704995 107.555 53.458 18.1025
9878.35 9878.35 1.000000 0.730352 107.256 51.9442 17.4337
9878.6 9878.6 1.000000 0.760272 106.816 50.2475 16.7143
9878.84 9878.85 1.000000 0.792126 106.318 48.4752 16.0113
9879.1 9879.1 1.000000 0.828242 105.972 46.592 15.3058
9879.35 9879.35 1.000000 0.867880 105.642 44.6568 14.603
9879.6 9879.6 1.000000 0.909786 105.46 42.7623 13.9224
9879.86 9879.85 1.000000 0.957320 105.435 40.7705 13.2476
9880.09 9880.1 1.000000 1.004914 105.561 38.9669 12.6358
9880.35 9880.35 1.000000 1.056404 106.024 37.1724 12.0409
9880.6 9880.6 1.000000 1.108459 106.432 35.4369 11.4786
9880.84 9880.85 1.000000 1.160983 106.89 33.8028 10.9632
9881.1 9881.1 1.000000 1.213766 107.273 32.1518 10.4439
9881.34 9881.35 1.000000 1.263097 107.509 30.7048 9.992044
9881.59 9881.6 1.000000 1.313984 107.663 29.2702 9.558180
9881.84 9881.85 1.000000 1.358931 107.749 27.9982 9.172241
9882.09 9882.1 1.000000 1.400962 107.796 26.9145 8.859989
9882.34 9882.35 1.000000 1.436618 107.825 25.9709 8.584237
9882.58 9882.6 1.000000 1.466619 107.855 25.2732 8.391163
9882.85 9882.85 1.000000 1.491217 107.864 24.6367 8.219120
9883.1 9883.1 1.000000 1.510337 107.863 24.2009 8.103344
9883.35 9883.35 1.000000 1.523929 107.872 23.8792 8.028986
9883.6 9883.6 1.000000 1.533399 107.877 23.6671 7.985153
9883.85 9883.85 1.000000 1.539338 107.88 23.5342 7.969580
9884.11 9884.1 1.000000 1.542285 107.872 23.4698 7.971881
9884.35 9884.35 1.000000 1.542628 107.862 23.4635 7.992504
9884.61 9884.6 1.000000 1.540752 107.857 23.51 8.033393
9884.85 9884.85 1.000000 1.537063 107.866 23.6024 8.086829
9885.1 9885.1 1.000000 1.531517 107.856 23.7305 8.157829
9885.36 9885.35 1.000000 1.523812 107.849 23.9158 8.237076
9885.6 9885.6 1.000000 1.514647 107.827 24.1316 8.336336
9885.85 9885.85 1.000000 1.503180 107.817 24.4087 8.448749
9886.1 9886.1 1.000000 1.489888 107.81 24.7336 8.583050
9886.35 9886.35 1.000000 1.473432 107.798 25.139 8.744801
9886.6 9886.6 1.000000 1.454713 107.777 25.6079 8.924400
9886.85 9886.85 1.000000 1.433909 107.76 26.1439 9.129622
9887.1 9887.1 1.000000 1.409114 107.756 26.7908 9.363894
9887.34 9887.35 1.000000 1.382778 107.747 27.4889 9.617237
9887.6 9887.6 1.000000 1.353337 107.73 28.3156 9.915420
9887.85 9887.85 1.000000 1.323203 107.715 29.1803 10.2197
9888.09 9888.1 1.000000 1.290096 107.708 30.1164 10.5526
9888.35 9888.35 1.000000 1.256414 107.687 31.1328 10.8996
9888.59 9888.6 1.000000 1.223370 107.646 32.1248 11.2442
9888.85 9888.85 1.000000 1.191048 107.643 33.1821 11.604
9889.09 9889.1 1.000000 1.159551 107.623 34.1908 11.9454
9889.35 9889.35 1.000000 1.129327 107.612 35.2481 12.3012
9889.6 9889.6 1.000000 1.100418 107.596 36.2326 12.6338
9889.84 9889.85 1.000000 1.073647 107.583 37.2224 12.9671
9890.11 9890.1 1.000000 1.046653 107.567 38.2162 13.299
9890.35 9890.35 1.000000 1.023294 107.543 39.1058 13.5964
9890.61 9890.6 1.000000 0.999564 107.525 40.0124 13.8999
9890.85 9890.85 1.000000 0.979178 107.514 40.8193 14.1683
9891.11 9891.1 1.000000 0.958966 107.499 41.6415 14.4467
9891.36 9891.35 1.000000 0.941202 107.476 42.3792 14.7018
9891.61 9891.6 1.000000 0.924448 107.459 43.0623 14.9322
9891.86 9891.85 1.000000 0.909309 107.447 43.7189 15.1551
9892.1 9892.1 1.000000 0.896020 107.439 44.2796 15.3503
9892.36 9892.35 1.000000 0.883351 107.419 44.8334 15.5409
9892.6 9892.6 1.000000 0.872848 107.408 45.2927 15.7048
9892.85 9892.85 1.000000 0.862948 107.389 45.7149 15.856
9893.1 9893.1 1.000000 0.855051 107.384 46.0732 15.9864
9893.34 9893.35 1.000000 0.847409 107.364 46.4037 16.1117
9893.6 9893.6 1.000000 0.840964 107.348 46.7003 16.2237
9893.85 9893.85 1.000000 0.835152 107.333 46.9517 16.3146
9894.1 9894.1 1.000000 0.830071 107.33 47.1915 16.4169
9894.34 9894.35 1.000000 0.825631 107.313 47.3823 16.4958
9894.59 9894.6 1.000000 0.821196 107.307 47.5855 16.581
9894.85 9894.85 1.000000 0.817306 107.292 47.7658 16.6582
9895.09 9895.1 1.000000 0.813424 107.266 47.9343 16.7286
9895.34 9895.35 1.000000 0.809994 107.262 48.0982 16.7992
9895.59 9895.6 1.000000 0.806556 107.247 48.2492 16.8634
9895.86 9895.85 1.000000 0.803398 107.226 48.3977 16.933
9896.1 9896.1 1.000000 0.800346 107.21 48.533 16.9917
9896.36 9896.35 1.000000 0.797594 107.2 48.6646 17.0524
9896.6 9896.6 1.000000 0.794947 107.197 48.7874 17.1061
9896.85 9896.85 1.000000 0.792479 107.175 48.8976 17.1549
9897.1 9897.1 1.000000 0.790315 107.161 48.9998 17.2034
9897.35 9897.35 1.000000 0.788080 107.141 49.0933 17.2445
9897.61 9897.6 1.000000 0.786125 107.135 49.1896 17.2901
9897.85 9897.85 1.000000 0.784354 107.139 49.2753 17.3295
9898.11 9898.1 1.000000 0.782766 107.128 49.3514 17.3698
9898.35 9898.35 1.000000 0.781177 107.102 49.4112 17.3961
9898.6 9898.6 1.000000 0.779619 107.076 49.4757 17.423
9898.85 9898.85 1.000000 0.778342 107.072 49.5372 17.4586
9899.1 9899.1 1.000000 0.776992 107.075 49.6047 17.4936
9899.36 9899.35 1.000000 0.775732 107.046 49.6529 17.5182
9899.6 9899.6 1.000000 0.774457 107.031 49.7051 17.5449
9899.86 9899.85 1.000000 0.773328 107.013 49.7549 17.5749
9900.09 9900.1 1.000000 0.772104 107.011 49.8108 17.6047
9900.35 9900.35 1.000000 0.771083 106.982 49.8472 17.6243
9900.6 9900.6 1.000000 0.769899 106.975 49.9021 17.6564
9900.84 9900.85 1.000000 0.768985 106.98 49.9521 17.684
9901.1 9901.1 1.000000 0.767980 106.944 49.9834 17.7058
9901.34 9901.35 1.000000 0.767081 106.922 50.0176 17.7248
9901.6 9901.6 1.000000 0.766282 106.981 50.0896 17.7669
9901.84 9901.85 1.000000 0.765590 107.097 50.1852 17.8221
9902.09 9902.1 1.000000 0.764841 107.085 50.2187 17.8417
9902.35 9902.35 1.000000 0.764231 107.075 50.2429 17.853
9902.59 9902.6 1.000000 0.763634 107.051 50.2611 17.8656
9902.86 9902.85 1.000000 0.763135 107.234 50.3592 17.8845
9903.1 9903.1 1.000000 0.762555 107.221 50.3832 17.8942
9903.35 9903.35 1.000000 0.762024 107.211 50.4038 17.9105
9903.6 9903.6 1.000000 0.761529 107.193 50.4198 17.9154
9903.85 9903.85 1.000000 0.760918 107.184 50.4457 17.9285
9904.11 9904.1 1.000000 0.760301 107.159 50.4644 17.9382
9904.35 9904.35 1.000000 0.759649 107.155 50.4954 17.9487
9904.61 9904.6 1.000000 0.758951 107.142 50.5246 17.9631
9904.85 9904.85 1.000000 0.758293 107.118 50.5453 17.9714
9905.1 9905.1 1.000000 0.757544 107.101 50.5741 17.9825
9905.35 9905.35 1.000000 0.756682 107.087 50.6114 17.9992
9905.6 9905.6 1.000000 0.755907 107.076 50.6444 18.012
9905.86 9905.85 1.000000 0.755072 107.054 50.6756 18.0217
9906.1 9906.1 1.000000 0.754253 107.039 50.7096 18.0365
9906.36 9906.35 1.000000 0.753359 107.025 50.7486 18.0555
9906.59 9906.6 1.000000 0.752449 107.022 50.7925 18.0763
9906.85 9906.85 1.000000 0.751480 107.019 50.8403 18.0958
9907.1 9907.1 1.000000 0.750675 106.999 50.8706 18.1081
9907.34 9907.35 1.000000 0.749575 106.993 50.9228 18.131
9907.6 9907.6 1.000000 0.748634 106.99 50.9705 18.1549
9907.84 9907.85 1.000000 0.747606 106.975 51.016 18.1725
9908.1 9908.1 1.000000 0.746435 106.97 51.0714 18.1958
9908.34 9908.35 1.000000 0.745352 106.964 51.1236 18.2211
9908.59 9908.6 1.000000 0.744266 106.936 51.1654 18.2386
9908.85 9908.85 1.000000 0.743102 106.936 51.2255 18.2651
9909.09 9909.1 1.000000 0.741947 106.929 51.279 18.282
9909.35 9909.35 1.000000 0.740908 106.917 51.3269 18.3044
9909.59 9909.6 1.000000 0.739840 106.917 51.3799 18.3246
9909.86 9909.85 1.000000 0.738798 106.919 51.4369 18.3536
9910.1 9910.1 1.000000 0.737940 106.908 51.4748 18.3686
9910.35 9910.35 1.000000 0.737133 106.892 51.5076 18.3795
9910.61 9910.6 1.000000 0.736365 106.881 51.5422 18.3908
9910.85 9910.85 1.000000 0.735852 106.873 51.5628 18.4014
9911.11 9911.1 1.000000 0.735400 106.869 51.5858 18.4089
9912.2 9912.18 1.000000 0.735501 106.821 51.5557 18.3989
9913.3 9913.28 1.000000 0.738840 106.796 51.3731 18.334
9914.4 9914.39 1.000000 0.744520 106.756 51.0677 18.2324
9915.55 9915.53 1.000000 0.750925 106.727 50.7323 18.1316
9916.7 9916.68 1.000000 0.757228 106.696 50.4009 18.0465
9917.89 9917.86 1.000000 0.763301 106.666 50.0859 17.9706
9919.07 9919.05 1.000000 0.769634 106.597 49.7397 17.884
9920.27 9920.26 1.000000 0.776234 106.565 49.4041 17.7981
9921.5 9921.49 1.000000 0.783361 106.518 49.0337 17.6894
9922.76 9922.74 1.000000 0.791073 106.478 48.6438 17.5638
9924.03 9924.01 1.000000 0.798590 106.427 48.2602 17.4217
9925.32 9925.3 1.000000 0.806016 106.373 47.8838 17.2793
9926.62 9926.61 1.000000 0.813296 106.295 47.5039 17.1276
9927.94 9927.93 1.000000 0.819937 106.205 47.1565 16.9886
9929.3 9929.28 1.000000 0.825874 106.033 46.8042 16.8525
9930.66 9930.64 1.000000 0.830654 103.935 45.6525 16.4165
9932.05 9932.03 1.000000 0.834524 104.81 45.8892 16.5437
9933.44 9933.43 1.000000 0.835828 106.08 46.3683 16.6907
9934.86 9934.85 1.000000 0.835386 106.085 46.3923 16.7133
9936.3 9936.29 1.000000 0.833535 106.039 46.4578 16.7467
9937.77 9937.75 1.000000 0.830732 105.969 46.5564 16.7941
9939.24 9939.23 1.000000 0.827033 105.907 46.6994 16.8545
9940.74 9940.73 1.000000 0.822365 105.872 46.9018 16.9366
9942.25 9942.24 1.000000 0.817135 105.821 47.1231 17.0214
9943.81 9943.78 1.000000 0.811195 105.742 47.3655 17.1078
9945.35 9945.34 1.000000 0.805607 105.67 47.5927 17.189
9946.93 9946.91 1.000000 0.800331 105.612 47.8165 17.2644
9948.51 9948.5 1.000000 0.795391 105.567 48.03 17.3276
9950.12 9950.11 1.000000 0.791170 105.478 48.1897 17.3732
9951.76 9951.75 1.000000 0.787750 105.399 48.3161 17.4051
9953.41 9953.4 1.000000 0.784994 105.284 48.3935 17.4258
9955.08 9955.07 1.000000 0.783079 104.701 48.2089 17.346
9956.77 9956.75 1.000000 0.781824 102.797 47.4076 17.101
9958.47 9958.46 1.000000 0.780950 105.025 48.4758 17.503
9960.19 9960.19 1.000000 0.780199 105.119 48.5514 17.5534
9961.95 9961.93 1.000000 0.779306 105.044 48.5595 17.5816
9963.72 9963.7 1.000000 0.777973 104.963 48.5858 17.6106
9965.51 9965.48 1.000000 0.776412 104.832 48.5989 17.627
9967.29 9967.28 1.000000 0.774725 104.608 48.5732 17.6174
9969.11 9969.1 1.000000 0.773057 102.499 47.6565 17.2563
9970.96 9970.94 1.000000 0.772554 104.22 48.5166 17.6246
9972.81 9972.8 1.000000 0.772197 104.854 48.8148 17.7086
9974.69 9974.68 1.000000 0.772471 104.763 48.7604 17.6968
9976.59 9976.58 1.000000 0.773198 104.658 48.6751 17.6683
9978.51 9978.5 1.000000 0.774362 104.54 48.5638 17.6326
9980.44 9980.43 1.000000 0.775705 104.412 48.44 17.5918
9982.39 9982.39 1.000000 0.777228 103.354 47.8629 17.362
9984.38 9984.36 1.000000 0.779154 101.381 46.9031 17.0816
9986.37 9986.36 1.000000 0.780433 104.144 48.0908 17.464
9988.36 9988.37 1.000000 0.781687 104.13 48.0255 17.4353
9990.41 9990.4 1.000000 0.782804 104.063 47.9422 17.4043
9992.47 9992.45 1.000000 0.783815 103.936 47.835 17.3629
9994.52 9994.52 1.000000 0.784628 103.727 47.7024 17.3122
9996.63 9996.61 1.000000 0.785523 100.955 46.3818 16.8255
9998.72 9998.71 1.000000 0.786774 104.081 47.7783 17.3616
10000.8 10000.8 1.000000 0.787804 104.021 47.6973 17.3322
10003 10003 1.000000 0.788587 104.044 47.6652 17.319
10005.2 10005.1 1.000000 0.789143 104.017 47.6226 17.3059
10007.3 10007.3 1.000000 0.789371 103.875 47.5468 17.2903
10009.5 10009.5 1.000000 0.789196 102.92 47.1084 17.1377
10011.8 10011.8 1.000000 0.788884 102.38 46.9055 17.1438
10014 10014 1.000000 0.787677 103.655 47.5296 17.3698
10016.3 10016.3 1.000000 0.786099 103.62 47.5873 17.4141
10018.6 10018.5 1.000000 0.784440 103.55 47.6341 17.4516
10020.9 10020.8 1.000000 0.782552 103.451 47.6767 17.4788
10023.2 10023.1 1.000000 0.780844 103.376 47.723 17.5059
10025.5 10025.5 1.000000 0.779098 103.275 47.7585 17.5247
10027.9 10027.8 1.000000 0.777533 103.165 47.7808 17.5327
10030.2 10030.2 1.000000 0.776086 103.078 47.8094 17.5457
10032.6 10032.6 1.000000 0.774786 102.961 47.8164 17.5532
10035 10035 1.000000 0.773477 102.578 47.6995 17.5166
10037.5 10037.5 1.000000 0.772296 101.514 47.2733 17.3867
10039.9 10039.9 1.000000 0.770695 102.776 47.9235 17.6052
10042.4 10042.4 1.000000 0.769400 102.679 47.9398 17.611
10044.9 10044.9 1.000000 0.768108 102.59 47.9593 17.6241
10047.4 10047.4 1.000000 0.766907 102.502 47.9762 17.6244
10049.9 10049.9 1.000000 0.765897 102.413 47.9817 17.6192
10052.5 10052.4 1.000000 0.764698 102.31 47.99 17.5986
10055 10055 1.000000 0.763549 102.204 47.9945 17.5816
10057.6 10057.6 1.000000 0.762676 102.121 47.9974 17.5634
10060.2 10060.2 1.000000 0.761954 102.031 47.9897 17.5516
10062.8 10062.8 1.000000 0.761513 101.907 47.9517 17.5387
10065.5 10065.5 1.000000 0.761324 101.798 47.9086 17.5441
10068.1 10068.1 1.000000 0.761302 101.72 47.8749 17.58
10070.8 10070.8 1.000000 0.761339 101.624 47.8269 17.6175
10073.5 10073.5 1.000000 0.761324 101.513 47.7749 17.6457
10076.2 10076.2 1.000000 0.761222 101.409 47.7302 17.6665
10079 10078.9 1.000000 0.761024 101.327 47.7021 17.6741
10081.7 10081.7 1.000000 0.760658 101.241 47.6797 17.6733
10084.5 10084.5 1.000000 0.760320 101.135 47.6454 17.667
10087.3 10087.3 1.000000 0.760031 101.013 47.6008 17.6484
10090.1 10090.1 1.000000 0.759643 98.6262 46.4906 17.2387
10092.9 10092.9 1.000000 0.759326 100.526 47.4022 17.5865
10095.8 10095.8 1.000000 0.758859 100.599 47.46 17.6122
10098.7 10098.6 1.000000 0.758242 100.53 47.4566 17.6086
10101.5 10101.5 1.000000 0.757405 100.447 47.457 17.5989
10104.5 10104.4 1.000000 0.756522 100.34 47.4474 17.5975
10107.4 10107.4 1.000000 0.755526 100.251 47.4527 17.6079
10110.3 10110.3 1.000000 0.754425 100.123 47.4427 17.6059
10113.3 10113.3 1.000000 0.753506 100.024 47.4388 17.6112
10116.2 10116.2 1.000000 0.752640 99.9341 47.4382 17.6161
10119.3 10119.2 1.000000 0.751873 99.8237 47.4216 17.6067
10122.3 10122.3 1.000000 0.751312 99.7083 47.393 17.6002
10125.3 10125.3 1.000000 0.750800 99.6265 47.379 17.5926
10128.4 10128.4 1.000000 0.750394 99.4945 47.3343 17.5782
10131.5 10131.5 1.000000 0.749977 99.3906 47.3043 17.5798
10134.6 10134.5 1.000000 0.749314 99.2426 47.266 17.587
10137.7 10137.7 1.000000 0.748367 99.168 47.2744 17.6087
10140.8 10140.8 1.000000 0.747402 99.0425 47.2592 17.6254
10144 10144 1.000000 0.746402 98.915 47.2442 17.6431
10147.1 10147.1 1.000000 0.745156 98.8186 47.2581 17.6759
10150.3 10150.3 1.000000 0.743556 98.7021 47.2784 17.7036
10153.5 10153.5 1.000000 0.741974 98.573 47.2892 17.7218
10156.8 10156.8 1.000000 0.740508 98.4645 47.3064 17.7444
10160 10160 1.000000 0.739413 98.3578 47.3067 17.7563
10163.3 10163.3 1.000000 0.738244 98.2151 47.2913 17.7503
10166.6 10166.6 1.000000 0.737119 98.0813 47.2807 17.7525
10169.9 10169.9 1.000000 0.736461 97.9891 47.2681 17.7513
10173.2 10173.2 1.000000 0.735773 97.8664 47.2403 17.7421
10176.6 10176.5 1.000000 0.735177 97.7387 47.2066 17.7303
10179.9 10179.9 1.000000 0.734565 97.616 47.1756 17.722
10183.3 10183.3 1.000000 0.733974 97.4809 47.1376 17.7108
10186.7 10186.7 1.000000 0.733235 97.335 47.1009 17.6991
10190.2 10190.1 1.000000 0.732449 97.1958 47.0712 17.6966
10193.6 10193.6 1.000000 0.731520 96.8192 46.9341 17.6581
10197 10197 1.000000 0.730515 96.9576 47.0455 17.7104
10200.5 10200.5 1.000000 0.729491 96.8258 47.029 17.72
10204 10204 1.000000 0.728371 96.6949 47.0184 17.7332
10207.5 10207.5 1.000000 0.727325 96.5338 46.9884 17.7405
10211.1 10211.1 1.000000 0.726326 96.414 46.9776 17.7546
10214.6 10214.6 1.000000 0.725199 96.2796 46.9643 17.7645
10218.2 10218.2 1.000000 0.724254 96.1546 46.9469 17.7732
10221.8 10221.8 1.000000 0.723210 96.0097 46.9239 17.7779
10225.4 10225.4 1.000000 0.722279 95.8745 46.9024 17.7932
10229 10229 1.000000 0.721405 95.7695 46.8927 17.8065
10232.7 10232.7 1.000000 0.720418 95.6195 46.8648 17.8033
10236.4 10236.3 1.000000 0.719572 95.4822 46.8364 17.8021
10240 10240 1.000000 0.718532 95.1274 46.708 17.7548
10243.8 10243.7 1.000000 0.717663 95.2645 46.8191 17.8166
10247.5 10247.5 1.000000 0.716623 95.1024 46.7876 17.8126
10251.2 10251.2 1.000000 0.715565 94.9458 46.7587 17.8062
10255 10255 1.000000 0.714454 94.8224 46.7502 17.8162
10258.8 10258.8 1.000000 0.713248 94.8412 46.8252 17.8706
10262.6 10262.6 1.000000 0.711859 94.7719 46.8509 17.882
10266.4 10266.4 1.000000 0.710504 94.6471 46.8508 17.891
10270.2 10270.2 1.000000 0.709170 94.508 46.8431 17.8975
10274.1 10274.1 1.000000 0.707805 94.0261 46.664 17.8348
10278 10278 1.000000 0.706627 94.2278 46.821 17.9072
10281.9 10281.9 1.000000 0.705350 94.0863 46.8103 17.9079
10285.8 10285.8 1.000000 0.704151 93.9226 46.7836 17.9154
10289.7 10289.7 1.000000 0.703197 93.7582 46.7446 17.9102
10293.7 10293.7 1.000000 0.702198 93.6216 46.7237 17.9221
10297.7 10297.6 1.000000 0.701144 93.4865 46.706 17.934
10301.7 10301.6 1.000000 0.700202 93.3247 46.6674 17.9339
10305.7 10305.6 1.000000 0.699277 93.1703 46.6317 17.933
10309.7 10309.7 1.000000 0.698339 93.027 46.6036 17.942
10313.8 10313.7 1.000000 0.697345 92.8863 46.5803 17.9507
10317.8 10317.8 1.000000 0.696212 92.7311 46.5554 17.9547
10321.9 10321.9 1.000000 0.695030 92.5082 46.4963 17.9403
10326 10326 1.000000 0.693796 92.4105 46.5049 17.9653
10330.1 10330.1 1.000000 0.692474 92.2462 46.4825 17.9694
10334.3 10334.3 1.000000 0.691015 92.0633 46.457 17.9633
10338.4 10338.4 1.000000 0.689662 91.9122 46.4426 17.9716
10342.6 10342.6 1.000000 0.688329 91.767 46.431 17.9725
10346.8 10346.8 1.000000 0.686964 91.5965 46.4074 17.9761
10351.1 10351 1.000000 0.685744 91.4284 46.3766 17.9733
10355.3 10355.3 1.000000 0.684570 91.2852 46.3589 17.9784
10359.6 10359.5 1.000000 0.683419 91.1392 46.3388 17.9853
10363.9 10363.8 1.000000 0.682424 90.9823 46.305 17.9861
10368.2 10368.1 1.000000 0.681346 90.799 46.2605 17.9775
10372.5 10372.4 1.000000 0.680346 90.635 46.2241 17.978
10376.8 10376.8 1.000000 0.679293 90.4522 46.1773 17.9718
10381.1 10381.1 1.000000 0.678202 90.2733 46.1356 17.9712
10385.5 10385.5 1.000000 0.677095 90.1365 46.1166 17.979
10389.9 10389.9 1.000000 0.675870 89.9898 46.0995 17.9908
10394.3 10394.3 1.000000 0.674587 89.8095 46.0652 17.9872
10398.8 10398.7 1.000000 0.673259 89.6568 46.0474 17.9955
10403.2 10403.2 1.000000 0.671764 89.4861 46.0284 18.0019
10407.7 10407.7 1.000000 0.670343 89.3173 46.0063 18.006
10412.2 10412.1 1.000000 0.668795 89.1319 45.9813 18.0231
10416.7 10416.7 1.000000 0.667355 88.9738 45.9662 18.0402
10421.2 10421.2 1.000000 0.665809 88.7996 45.9474 18.053
10425.8 10425.7 1.000000 0.664449 88.6148 45.9122 18.0556
10430.3 10430.3 1.000000 0.663148 88.4562 45.8896 18.0634
10434.9 10434.9 1.000000 0.661857 88.2738 45.8539 18.0659
10439.5 10439.5 1.000000 0.660743 88.1027 45.8133 18.0622
10444.2 10444.1 1.000000 0.659606 87.9575 45.7916 18.065
10448.7 10448.7 1.000000 0.658457 87.7733 45.7461 18.0544
10453.4 10453.4 1.000000 0.657241 87.6103 45.7175 18.055
10458.1 10458.1 1.000000 0.656107 87.439 45.6799 18.0485
10462.8 10462.8 1.000000 0.654877 87.2699 45.6475 18.0445
10467.5 10467.5 1.000000 0.653590 87.0949 45.6136 18.0394
10472.3 10472.2 1.000000 0.652246 86.9267 45.5872 18.0433
10477 10477 1.000000 0.650780 86.7684 45.5705 18.0545
10481.7 10481.8 1.000000 0.649355 86.5839 45.5383 18.0595
10486.5 10486.6 1.000000 0.647893 86.4097 45.5117 18.0676
10491.4 10491.4 1.000000 0.646261 86.2238 45.4883 18.0752
10496.2 10496.2 1.000000 0.644738 86.0546 45.4674 18.0867
10501 10501 1.000000 0.643315 85.8893 45.4451 18.09
10505.9 10505.9 1.000000 0.641910 85.7115 45.4146 18.0927
10510.8 10510.8 1.000000 0.640461 85.4211 45.3258 18.0749
10515.7 10515.7 1.000000 0.639215 85.3512 45.3453 18.102
10520.6 10520.6 1.000000 0.637929 85.1682 45.3053 18.1043
10525.5 10525.6 1.000000 0.636674 84.9637 45.2531 18.1048
10530.5 10530.5 1.000000 0.635431 84.8017 45.2217 18.1103
10535.5 10535.5 1.000000 0.634151 84.6316 45.1899 18.1203
10540.5 10540.5 1.000000 0.632765 84.4532 45.1576 18.1245
10545.5 10545.6 1.000000 0.631451 84.2799 45.1234 18.126
10550.6 10550.6 1.000000 0.630082 84.1018 45.0894 18.1334
10555.7 10555.7 1.000000 0.628619 83.8099 44.9975 18.1078
10560.7 10560.7 1.000000 0.627082 83.7273 45.0231 18.1328
10565.8 10565.8 1.000000 0.625522 83.5617 45.0037 18.1366
10571 10571 1.000000 0.623843 83.3686 44.9758 18.1429
10576.1 10576.1 1.000000 0.622194 83.1744 44.9434 18.1406
10581.3 10581.2 1.000000 0.620567 82.9782 44.9109 18.1334
10586.4 10586.4 1.000000 0.619069 82.8192 44.8917 18.1425
10591.6 10591.6 1.000000 0.617482 82.6458 44.8696 18.1485
10596.8 10596.8 1.000000 0.615988 82.3831 44.793 18.1257
10602 10602.1 1.000000 0.614678 82.2733 44.7916 18.1442
10607.3 10607.3 1.000000 0.613371 82.0721 44.7398 18.1441
10612.6 10612.6 1.000000 0.612068 81.8953 44.7031 18.1531
10617.8 10617.9 1.000000 0.610761 81.6112 44.6057 18.1323
10623.2 10623.2 1.000000 0.609441 81.5423 44.6257 18.1593