File: xdidata/Mo/Mo-K-Molybdite.xdi
# XDI/1.0 BlueSky/1.10.0 BMM/2023-1.0-py310-tiled
# Beamline.name: BMM (06BM) -- Beamline for Materials Measurement (NIST)
# Beamline.xray_source: NSLS-II three-pole wiggler
# Beamline.collimation: paraboloid mirror, 5 nm Rh on 30 nm Pt
# Beamline.focusing: not in use
# Beamline.harmonic_rejection: flat mirror, Pt stripe, pitch = 7.0 mrad relative to beam
# Beamline.software: Bluesky 1.10.0, Ophyd 1.7.0, DataBroker 2.0.0b13, Python 3.10.8, 2023-1.0-py310-tiled
# Detector.I0: 10 cm N2
# Detector.I1: 25 cm N2
# Detector.I2: 25 cm N2
# Element.symbol: Mo
# Element.edge: K
# Element.reference: Mo
# Element.reference_material: Mo foil
# Facility.name: NSLS-II
# Facility.energy: 3.0
# Facility.current: 399.9
# Facility.mode: top-off
# Facility.GUP: 301027
# Facility.SAF: 310583
# Facility.cycle: 2023-2
# Mono.name: Si(111)
# Mono.d_spacing: 3.13519
# Mono.encoder_resolution: 0.0000050 deg/ct
# Mono.angle_offset: 16.0754 deg
# Mono.scan_mode: pseudo channel cut
# Mono.scan_type: step
# Mono.direction: forward in energy
# Sample.name: MoO3
# Sample.prep: powder in PEG pellet
# Sample.x: 117.785 mm
# Sample.y: 114.695 mm
# Sample.SDD_position: 205.000 mm
# Scan.experimenters: Bruce Ravel
# Scan.edge_energy: 19999.5
# Scan.start_time: 2023-06-23T20:58:22
# Scan.end_time: 2023-06-23T21:05:48
# Scan.transient_id: 85028
# Scan.uid: 8b68f990-eea7-4e4f-95c1-113e12e6abe0
# Scan.plot_hint: ln(I0/It)  --  ln($5/$6)
# Column.1: energy eV
# Column.2: requested_energy eV
# Column.3: measurement_time seconds
# Column.4: xmu
# Column.5: I0 nA
# Column.6: It nA
# Column.7: Ir nA
# ///////////
# sample courtesy Martin Stennett, University of Sheffield
# -----------
# energy  requested_energy  measurement_time  xmu  I0  It  Ir
  19799.565  19799.500  0.500  -0.351126  7.646903  10.8637  8.346995
  19809.555  19809.500  0.500  -0.351260  7.626852  10.8367  8.326719
  19819.607  19819.500  0.500  -0.351879  7.600879  10.8064  8.304151
  19829.600  19829.500  0.500  -0.351858  7.577790  10.7734  8.285340
  19839.620  19839.500  0.500  -0.352624  7.551485  10.7442  8.260371
  19849.599  19849.500  0.500  -0.352641  7.525059  10.7068  8.233936
  19859.570  19859.500  0.500  -0.352899  7.500419  10.6745  8.211312
  19869.586  19869.500  0.500  -0.352845  7.476864  10.6404  8.187444
  19879.612  19879.500  0.500  -0.353098  7.450840  10.606  8.160664
  19889.579  19889.500  0.500  -0.353396  7.347570  10.4622  8.048374
  19899.609  19899.500  0.500  -0.353261  7.401112  10.537  8.105860
  19909.526  19909.500  0.500  -0.353273  7.374528  10.4993  8.075057
  19919.558  19919.500  0.500  -0.353193  7.349509  10.4628  8.044199
  19929.530  19929.500  0.500  -0.352430  7.325591  10.4208  8.008926
  19939.617  19939.500  0.500  -0.352221  7.293521  10.373  7.963051
  19949.628  19949.500  0.500  -0.350975  7.273482  10.3316  7.923505
  19959.525  19959.500  0.500  -0.350136  7.246461  10.2846  7.870554
  19969.520  19969.500  0.500  -0.347474  7.223505  10.2248  7.800222
  19971.464  19971.500  0.500  -0.346720  7.218247  10.2096  7.784492
  19973.427  19973.500  0.500  -0.345910  7.213434  10.1946  7.764123
  19975.442  19975.500  0.500  -0.345371  7.206087  10.1787  7.744857
  19977.439  19977.500  0.500  -0.344356  7.201433  10.1618  7.722578
  19979.438  19979.500  0.500  -0.343390  7.196815  10.1455  7.696898
  19981.454  19981.500  0.500  -0.342038  7.190698  10.1232  7.672197
  19983.453  19983.500  0.500  -0.340718  7.186071  10.1033  7.642085
  19985.453  19985.500  0.500  -0.339243  7.180368  10.0804  7.609307
  19987.418  19987.500  0.500  -0.337469  7.175500  10.0557  7.571543
  19989.418  19989.500  0.500  -0.335323  7.171194  10.0281  7.522908
  19989.681  19989.800  0.500  -0.334816  7.170635  10.0223  7.516629
  19989.979  19990.100  0.500  -0.334570  7.170159  10.0191  7.509022
  19990.260  19990.400  0.500  -0.334044  7.169101  10.0124  7.500105
  19990.576  19990.700  0.500  -0.333791  7.168060  10.0084  7.492727
  19990.892  19991.000  0.500  -0.333776  7.164423  10.0032  7.484466
  19991.208  19991.300  0.500  -0.333141  7.164459  9.996889  7.474119
  19991.541  19991.600  0.500  -0.332789  7.164361  9.993227  7.465150
  19991.840  19991.900  0.500  -0.332318  7.163484  9.987305  7.456502
  19992.103  19992.200  0.500  -0.331943  7.162442  9.982107  7.447281
  19992.384  19992.500  0.500  -0.331477  7.159940  9.973965  7.436839
  19992.682  19992.800  0.500  -0.331067  7.158916  9.968455  7.425262
  19992.998  19993.100  0.500  -0.330286  7.159280  9.961176  7.413815
  19993.297  19993.400  0.500  -0.330069  7.157502  9.956542  7.404463
  19993.630  19993.700  0.500  -0.329655  7.155539  9.949689  7.394828
  19993.929  19994.000  0.500  -0.328589  7.157577  9.941920  7.381265
  19994.245  19994.300  0.500  -0.328287  7.155038  9.935393  7.369663
  19994.543  19994.600  0.500  -0.327632  7.154395  9.927995  7.358419
  19994.859  19994.900  0.500  -0.327024  7.153165  9.920254  7.346187
  19995.158  19995.200  0.500  -0.326368  7.153637  9.914409  7.330870
  19995.421  19995.500  0.500  -0.325954  7.151742  9.907675  7.319377
  19995.737  19995.800  0.500  -0.324825  7.152967  9.898196  7.305344
  19996.053  19996.100  0.500  -0.324523  7.150068  9.891193  7.291289
  19996.352  19996.400  0.500  -0.323944  7.148143  9.882806  7.274399
  19996.668  19996.700  0.500  -0.322866  7.149626  9.874205  7.259177
  19996.967  19997.000  0.500  -0.321993  7.149113  9.864879  7.242182
  19997.265  19997.300  0.500  -0.321493  7.145215  9.854572  7.223734
  19997.581  19997.600  0.500  -0.320649  7.144854  9.845763  7.206270
  19997.880  19997.900  0.500  -0.319834  7.144087  9.836686  7.187015
  19998.161  19998.200  0.500  -0.319125  7.143632  9.829093  7.167655
  19998.442  19998.500  0.500  -0.317982  7.143557  9.817760  7.148590
  19998.740  19998.800  0.500  -0.317090  7.141298  9.805901  7.128425
  19999.057  19999.100  0.500  -0.316062  7.167690  9.832034  7.129560
  19999.355  19999.400  0.500  -0.314905  7.166370  9.818858  7.105092
  19999.671  19999.700  0.500  -0.313825  7.164657  9.805910  7.077040
  20000.005  20000.000  0.500  -0.312485  7.163707  9.791483  7.048477
  20000.304  20000.300  0.500  -0.310984  7.161814  9.774214  7.013876
  20000.638  20000.600  0.500  -0.309834  7.161201  9.762137  6.982886
  20000.901  20000.900  0.500  -0.308241  7.161696  9.747275  6.947888
  20001.200  20001.200  0.500  -0.306904  7.160194  9.732210  6.912144
  20001.499  20001.500  0.500  -0.305262  7.160566  9.716749  6.874040
  20001.780  20001.800  0.500  -0.303784  7.157638  9.698429  6.833983
  20002.078  20002.100  0.500  -0.302038  7.157107  9.680793  6.788109
  20002.412  20002.400  0.500  -0.299890  7.156633  9.659381  6.732975
  20002.693  20002.700  0.500  -0.297542  7.156502  9.636549  6.677464
  20003.010  20003.000  0.500  -0.295532  7.153705  9.613447  6.615101
  20003.326  20003.300  0.500  -0.292714  7.152709  9.585057  6.544861
  20003.642  20003.600  0.500  -0.290048  7.151743  9.558242  6.472644
  20003.906  20003.900  0.500  -0.287027  7.151558  9.529170  6.396335
  20004.205  20004.200  0.500  -0.284311  7.150548  9.501980  6.317922
  20004.468  20004.500  0.500  -0.280543  7.151030  9.466878  6.228637
  20004.820  20004.800  0.500  -0.277055  7.148497  9.430577  6.134699
  20005.101  20005.100  0.500  -0.272627  7.147974  9.388224  6.028128
  20005.400  20005.400  0.500  -0.268079  7.146615  9.343849  5.917188
  20005.699  20005.700  0.500  -0.263060  7.146278  9.296631  5.805698
  20006.033  20006.000  0.500  -0.257275  7.145334  9.241779  5.681391
  20006.331  20006.300  0.500  -0.251024  7.143748  9.182151  5.557969
  20006.630  20006.600  0.500  -0.243996  7.141801  9.115360  5.428481
  20006.947  20006.900  0.500  -0.236599  7.142909  9.049584  5.304479
  20007.210  20007.200  0.500  -0.228476  7.139980  8.972695  5.175261
  20007.509  20007.500  0.500  -0.219912  7.139401  8.895457  5.049751
  20007.773  20007.800  0.500  -0.210084  7.137620  8.806268  4.919065
  20008.089  20008.100  0.500  -0.198938  7.137138  8.708063  4.784413
  20008.406  20008.400  0.500  -0.186430  7.135355  8.597675  4.643772
  20008.705  20008.700  0.500  -0.173453  7.136026  8.487627  4.511684
  20009.004  20009.000  0.500  -0.159323  7.133968  8.366124  4.376264
  20009.355  20009.300  0.500  -0.143730  7.132121  8.234548  4.237878
  20009.619  20009.600  0.500  -0.128335  7.131692  8.108261  4.113399
  20009.883  20009.900  0.500  -0.112935  7.132285  7.985012  3.994754
  20010.199  20010.200  0.500  -0.097517  7.130205  7.860554  3.880099
  20010.516  20010.500  0.500  -0.079729  7.129977  7.721721  3.757202
  20010.780  20010.800  0.500  -0.062154  7.126862  7.583882  3.636063
  20011.096  20011.100  0.500  -0.043352  7.127223  7.442994  3.514703
  20011.395  20011.400  0.500  -0.024949  7.125267  7.305273  3.397247
  20011.729  20011.700  0.500  -0.007308  7.125308  7.177568  3.287321
  20012.046  20012.000  0.500  0.008803  7.123743  7.061311  3.184231
  20012.345  20012.300  0.500  0.023317  7.123708  6.959525  3.090555
  20012.626  20012.600  0.500  0.036238  7.122069  6.868600  3.004661
  20012.925  20012.900  0.500  0.046559  7.122000  6.798005  2.931779
  20013.189  20013.200  0.500  0.055531  7.121222  6.736549  2.859109
  20013.488  20013.500  0.500  0.062341  7.120462  6.690119  2.798029
  20013.805  20013.800  0.500  0.067023  7.119365  6.657846  2.741400
  20014.104  20014.100  0.500  0.069920  7.118571  6.637843  2.687762
  20014.403  20014.400  0.500  0.070240  7.116269  6.633571  2.642228
  20014.685  20014.700  0.500  0.069456  7.116157  6.638672  2.601155
  20015.001  20015.000  0.500  0.066608  7.114334  6.655901  2.565067
  20015.353  20015.300  0.500  0.062464  7.112749  6.682052  2.527740
  20015.600  20015.600  0.500  0.058365  7.112950  6.709686  2.495289
  20015.916  20015.900  0.500  0.053705  7.111248  6.739415  2.464724
  20016.180  20016.200  0.500  0.049393  7.109956  6.767308  2.432389
  20016.497  20016.500  0.500  0.044867  7.109599  6.797662  2.399593
  20016.761  20016.800  0.500  0.041351  7.108081  6.820151  2.362207
  20017.095  20017.100  0.500  0.038140  7.105581  6.839680  2.323151
  20017.394  20017.400  0.500  0.036273  7.104800  6.851709  2.278727
  20017.694  20017.700  0.500  0.035769  7.103814  6.854207  2.231062
  20018.010  20018.000  0.500  0.037044  7.102508  6.844213  2.179374
  20018.309  20018.300  0.500  0.039759  7.102471  6.825627  2.128946
  20018.626  20018.600  0.500  0.043757  7.100264  6.796277  2.077320
  20018.908  20018.900  0.500  0.049364  7.098277  6.756388  2.021972
  20019.207  20019.200  0.500  0.056218  7.097525  6.709526  1.969351
  20019.489  20019.500  0.500  0.064673  7.097610  6.653115  1.914625
  20019.788  20019.800  0.500  0.074745  7.094427  6.583487  1.858100
  20020.070  20020.100  0.500  0.086468  7.094476  6.506805  1.802503
  20020.369  20020.400  0.500  0.099476  7.092743  6.421142  1.748012
  20020.668  20020.700  0.500  0.114450  7.091496  6.324595  1.691392
  20020.985  20021.000  0.500  0.130010  7.091257  6.226737  1.640739
  20021.302  20021.300  0.500  0.147828  7.091239  6.116758  1.586992
  20021.566  20021.600  0.500  0.165040  7.089084  6.010548  1.541171
  20021.883  20021.900  0.500  0.182901  7.088896  5.903990  1.496769
  20022.164  20022.200  0.500  0.202153  7.087240  5.790065  1.454912
  20022.446  20022.500  0.500  0.221381  7.087320  5.679861  1.416606
  20022.746  20022.800  0.500  0.242183  7.085910  5.561819  1.378420
  20023.045  20023.100  0.500  0.264307  7.085648  5.439921  1.342361
  20023.397  20023.400  0.500  0.286770  7.084442  5.318182  1.307746
  20023.679  20023.700  0.500  0.307511  7.083003  5.207952  1.280098
  20023.996  20024.000  0.500  0.328545  7.081005  5.098112  1.253660
  20024.313  20024.300  0.500  0.349860  7.081188  4.990729  1.229015
  20024.506  20024.500  0.500  0.362425  7.081752  4.928806  1.216775
  20025.457  20025.490  0.500  0.424455  7.080240  4.631372  1.162675
  20026.479  20026.490  0.500  0.475310  7.075572  4.398831  1.129273
  20027.501  20027.510  0.500  0.514294  7.074568  4.230043  1.108951
  20028.558  20028.560  0.500  0.540068  7.071469  4.120607  1.093877
  20029.650  20029.620  0.500  0.559271  7.070208  4.041510  1.074508
  20030.707  20030.700  0.500  0.573419  7.067859  3.983413  1.051840
  20031.800  20031.800  0.500  0.584939  7.064430  3.935876  1.027975
  20032.945  20032.920  0.500  0.594665  7.063454  3.897242  1.006501
  20034.073  20034.060  0.500  0.599054  7.061590  3.879149  0.992657
  20035.237  20035.210  0.500  0.598496  7.058205  3.879455  0.988476
  20036.436  20036.390  0.500  0.592045  7.055376  3.903000  0.993268
  20037.617  20037.580  0.500  0.583795  7.052963  3.933986  1.001457
  20038.834  20038.800  0.500  0.575749  7.049683  3.963920  1.007514
  20040.033  20040.030  0.500  0.572258  7.048169  3.976927  1.005611
  20041.339  20041.280  0.500  0.573551  7.041117  3.967817  0.994416
  20042.609  20042.550  0.500  0.579774  7.038935  3.941978  0.975901
  20043.879  20043.840  0.500  0.587583  7.035161  3.909217  0.953742
  20045.203  20045.150  0.500  0.594248  7.030820  3.880855  0.932715
  20046.509  20046.480  0.500  0.597004  7.028573  3.868937  0.915457
  20047.885  20047.830  0.500  0.596849  7.024741  3.867426  0.899498
  20049.209  20049.200  0.500  0.594259  7.021141  3.875469  0.888764
  20050.622  20050.580  0.500  0.590617  7.016506  3.887043  0.882646
  20051.999  20051.990  0.500  0.588201  7.014085  3.895100  0.885514
  20053.429  20053.410  0.500  0.586290  7.009703  3.900114  0.898445
  20054.825  20054.850  0.500  0.585931  7.006627  3.899800  0.919714
  20056.273  20056.310  0.500  0.586276  7.002760  3.896304  0.944076
  20057.740  20057.790  0.500  0.587025  7.000463  3.892110  0.968709
  20059.277  20059.290  0.500  0.587664  6.997055  3.887729  0.988148
  20060.815  20060.810  0.500  0.587586  6.992743  3.885636  1.000730
  20062.370  20062.350  0.500  0.584568  6.988564  3.895054  1.009687
  20063.979  20063.910  0.500  0.579580  6.984203  3.912087  1.014403
  20065.500  20065.480  0.500  0.571663  6.979455  3.940500  1.015585
  20067.091  20067.080  0.500  0.562168  6.976177  3.976227  1.016857
  20068.701  20068.690  0.500  0.551718  6.971663  4.015397  1.019094
  20070.364  20070.330  0.500  0.540478  6.968283  4.058813  1.023211
  20072.027  20071.980  0.500  0.528693  6.963740  4.104254  1.031708
  20073.672  20073.650  0.500  0.518705  6.955937  4.140806  1.043314
  20075.318  20075.340  0.500  0.510478  6.954391  4.174087  1.056166
  20077.036  20077.050  0.500  0.504083  6.951189  4.198928  1.069543
  20078.753  20078.780  0.500  0.500400  6.944161  4.210161  1.078686
  20080.541  20080.530  0.500  0.500635  6.942016  4.207871  1.084584
  20082.295  20082.290  0.500  0.502447  6.938259  4.197981  1.085799
  20084.102  20084.080  0.500  0.505332  6.931894  4.182048  1.080668
  20085.891  20085.880  0.500  0.509443  6.928492  4.162845  1.068798
  20087.752  20087.710  0.500  0.513413  6.922669  4.142869  1.049839
  20089.613  20089.550  0.500  0.516774  6.918313  4.126369  1.028595
  20091.439  20091.410  0.500  0.518301  6.913816  4.117395  1.009535
  20093.318  20093.290  0.500  0.517515  6.909190  4.117877  0.997605
  20095.198  20095.190  0.500  0.514679  6.903596  4.126228  0.996882
  20097.114  20097.110  0.500  0.510995  6.897667  4.137897  1.006609
  20099.065  20099.050  0.500  0.507151  6.894195  4.151747  1.025138
  20101.017  20101.010  0.500  0.503578  6.888630  4.163243  1.047655
  20103.005  20102.980  0.500  0.501527  6.884252  4.169141  1.068180
  20104.993  20104.980  0.500  0.500137  6.878113  4.171215  1.082598
  20106.999  20106.990  0.500  0.500013  6.874213  4.169366  1.088592
  20109.041  20109.020  0.500  0.500811  6.869174  4.162989  1.086553
  20111.102  20111.080  0.500  0.502148  6.863333  4.153890  1.080361
  20113.163  20113.150  0.500  0.504256  6.859393  4.142765  1.072862
  20115.242  20115.240  0.500  0.506531  6.853580  4.129847  1.066412
  20117.374  20117.350  0.500  0.509290  6.848570  4.115457  1.061052
  20119.543  20119.480  0.500  0.512712  6.844145  4.098747  1.056350
  20121.677  20121.620  0.500  0.515564  6.836563  4.082549  1.051096
  20123.811  20123.790  0.500  0.518900  6.831868  4.066158  1.043494
  20126.035  20125.980  0.500  0.521998  6.826560  4.050429  1.035234
  20128.170  20128.180  0.500  0.524847  6.821269  4.035774  1.023618
  20130.448  20130.400  0.500  0.527435  6.815398  4.021879  1.011605
  20132.673  20132.650  0.500  0.529352  6.808509  4.010122  0.999064
  20134.951  20134.910  0.500  0.529988  6.803268  4.004485  0.992273
  20137.249  20137.190  0.500  0.529760  6.797777  4.002165  0.990964
  20139.564  20139.490  0.500  0.527286  6.791682  4.008481  0.998196
  20141.827  20141.810  0.500  0.524456  6.785691  4.016297  1.008937
  20144.215  20144.150  0.500  0.520519  6.781148  4.029439  1.024575
  20146.532  20146.500  0.500  0.516406  6.774884  4.042311  1.040740
  20148.886  20148.880  0.500  0.512888  6.768853  4.052946  1.058982
  20151.240  20151.270  0.500  0.510788  6.763348  4.058162  1.073864
  20153.665  20153.690  0.500  0.509768  6.757347  4.058699  1.084831
  20156.092  20156.120  0.500  0.509505  6.751020  4.055966  1.089093
  20158.555  20158.570  0.500  0.509571  6.743320  4.051072  1.090676
  20161.072  20161.050  0.500  0.509918  6.738705  4.046896  1.092435
  20163.571  20163.540  0.500  0.509463  6.731148  4.044195  1.093047
  20166.107  20166.050  0.500  0.508563  6.726239  4.044886  1.091097
  20168.626  20168.570  0.500  0.507527  6.719621  4.045095  1.086070
  20171.181  20171.120  0.500  0.506273  6.712659  4.045975  1.079512
  20173.701  20173.690  0.500  0.505134  6.706223  4.046700  1.072537
  20176.276  20176.270  0.500  0.504273  6.700406  4.046674  1.068789
  20178.851  20178.880  0.500  0.503389  6.692782  4.045642  1.065234
  20181.462  20181.500  0.500  0.501797  6.686299  4.048163  1.065114
  20184.164  20184.150  0.500  0.499653  6.680184  4.053142  1.067375
  20186.848  20186.810  0.500  0.497445  6.671313  4.056706  1.069066
  20189.551  20189.490  0.500  0.495667  6.662811  4.058748  1.064369
  20192.237  20192.190  0.500  0.493645  6.657552  4.063752  1.052465
  20194.942  20194.910  0.500  0.491797  6.652998  4.068484  1.036840
  20197.683  20197.650  0.500  0.490960  6.646924  4.068175  1.020340
  20200.371  20200.400  0.500  0.489851  6.651501  4.075491  1.012456
  20203.221  20203.180  0.500  0.489075  6.656592  4.081776  1.011977
  20205.946  20205.970  0.500  0.487753  6.648518  4.082219  1.020335
  20208.798  20208.790  0.500  0.486333  6.639032  4.082187  1.037302
  20211.686  20211.620  0.500  0.485903  6.634306  4.081037  1.061253
  20214.540  20214.470  0.500  0.485369  6.627082  4.078770  1.089238
  20217.394  20217.350  0.500  0.485590  6.618045  4.072307  1.117314
  20220.267  20220.240  0.500  0.486368  6.610096  4.064252  1.140132
  20223.212  20223.150  0.500  0.487312  6.604240  4.056821  1.153665
  20226.087  20226.070  0.500  0.488272  6.596991  4.048482  1.151780
  20229.016  20229.020  0.500  0.489444  6.590919  4.040015  1.142303
  20232.000  20231.990  0.500  0.489153  6.583239  4.036483  1.129645
  20235.021  20234.970  0.500  0.488171  6.576438  4.036276  1.123209
  20238.007  20237.980  0.500  0.485875  6.567029  4.039766  1.121401
  20241.066  20241.000  0.500  0.483687  6.558604  4.043418  1.120631
  20244.089  20244.050  0.500  0.481442  6.551214  4.047942  1.116974
  20247.150  20247.110  0.500  0.479620  6.541238  4.049149  1.109312
  20250.229  20250.190  0.500  0.477618  6.536495  4.054321  1.099483
  20253.274  20253.290  0.500  0.476022  6.530332  4.056969  1.088286
  20256.463  20256.410  0.500  0.474095  6.521010  4.058989  1.076281
  20259.582  20259.550  0.500  0.472506  6.514142  4.061162  1.067039
  20262.737  20262.700  0.500  0.471935  6.505311  4.057974  1.059999
  20265.930  20265.880  0.500  0.472837  6.496985  4.049129  1.057069
  20269.105  20269.070  0.500  0.473827  6.489033  4.040167  1.054587
  20272.354  20272.290  0.500  0.475784  6.481502  4.027589  1.050884
  20275.495  20275.520  0.500  0.477609  6.472685  4.014777  1.048059
  20278.800  20278.770  0.500  0.478581  6.462933  4.004832  1.046923
  20282.070  20282.050  0.500  0.479618  6.457927  3.997586  1.051742
  20285.395  20285.340  0.500  0.479920  6.449918  3.991423  1.058240
  20288.704  20288.650  0.500  0.480911  6.441361  3.982179  1.066250
  20292.067  20291.970  0.500  0.480403  6.432850  3.978936  1.078984
  20295.323  20295.320  0.500  0.480788  6.424971  3.972536  1.092963
  20298.707  20298.690  0.500  0.480377  6.414876  3.967922  1.104631
  20302.056  20302.070  0.500  0.479589  6.405779  3.965420  1.113632
  20305.532  20305.480  0.500  0.478762  6.399601  3.964874  1.121973
  20308.920  20308.900  0.500  0.477396  6.389619  3.964099  1.129148
  20312.399  20312.350  0.500  0.476228  6.381021  3.963393  1.133517
  20315.861  20315.810  0.500  0.475149  6.372790  3.962554  1.131046
  20319.342  20319.290  0.500  0.472968  6.361912  3.964426  1.121559
  20322.825  20322.790  0.500  0.471526  6.355806  3.966337  1.112554
  20326.272  20326.310  0.500  0.469602  6.347694  3.968902  1.102993
  20329.884  20329.850  0.500  0.468067  6.337965  3.968908  1.092790
  20333.443  20333.400  0.500  0.467920  6.330018  3.964513  1.082947
  20337.021  20336.980  0.500  0.467949  6.319565  3.957851  1.073547
  20340.656  20340.580  0.500  0.468966  6.310119  3.947917  1.065003
  20344.218  20344.190  0.500  0.470339  6.303233  3.938198  1.058957
  20347.782  20347.820  0.500  0.472136  6.293747  3.925212  1.054156
  20351.438  20351.480  0.500  0.472203  6.285558  3.919844  1.052846
  20355.205  20355.150  0.500  0.471766  6.273364  3.913948  1.054329
  20358.918  20358.840  0.500  0.470675  6.265394  3.913244  1.059053
  20362.579  20362.550  0.500  0.469070  6.256041  3.913680  1.064799
  20366.313  20366.280  0.500  0.466774  6.246357  3.916604  1.070262
  20370.012  20370.020  0.500  0.463907  6.238478  3.922893  1.073066
  20373.822  20373.790  0.500  0.461453  6.229717  3.927010  1.077439
  20377.652  20377.580  0.500  0.458966  6.218218  3.929519  1.083193
  20381.428  20381.380  0.500  0.456457  6.204878  3.930942  1.092773
  20385.297  20385.210  0.500  0.454664  6.198526  3.933965  1.102965
  20389.077  20389.050  0.500  0.454047  6.189759  3.930823  1.108192
  20392.876  20392.910  0.500  0.453358  6.180384  3.927577  1.107853
  20396.786  20396.790  0.500  0.453228  6.169741  3.921322  1.105868
  20400.715  20400.690  0.500  0.453471  6.162002  3.915452  1.104026
  20404.683  20404.610  0.500  0.454066  6.150740  3.905970  1.102737
  20408.598  20408.550  0.500  0.454703  6.142377  3.898174  1.103029
  20412.514  20412.510  0.500  0.455346  6.132193  3.889212  1.102334
  20416.486  20416.480  0.500  0.455808  6.122093  3.881012  1.097679
  20420.515  20420.480  0.500  0.456484  6.111000  3.871363  1.090781
  20424.564  20424.490  0.500  0.457097  6.100874  3.862579  1.084019
  20428.597  20428.530  0.500  0.457464  6.092250  3.855702  1.080162
  20432.630  20432.580  0.500  0.457191  6.081857  3.850176  1.078774
  20436.684  20436.650  0.500  0.457389  6.073187  3.843929  1.080094
  20440.758  20440.740  0.500  0.456194  6.060413  3.840430  1.081573
  20444.888  20444.850  0.500  0.455143  6.048290  3.836776  1.080597
  20449.039  20448.980  0.500  0.453401  6.040436  3.838474  1.079676
  20453.173  20453.130  0.500  0.451985  6.032337  3.838760  1.076566
  20457.290  20457.290  0.500  0.449809  6.018758  3.838463  1.071379
  20461.556  20461.480  0.500  0.448961  6.010018  3.836141  1.067438
  20465.768  20465.680  0.500  0.448006  5.998250  3.832288  1.067562
  20469.964  20469.910  0.500  0.447435  5.986540  3.826991  1.069352
  20474.180  20474.150  0.500  0.447404  5.975888  3.820298  1.070124
  20478.416  20478.410  0.500  0.447927  5.965870  3.811902  1.070642
  20482.728  20482.690  0.500  0.448188  5.956464  3.804899  1.072201
  20487.023  20486.990  0.500  0.448108  5.944347  3.797462  1.076534
  20491.356  20491.310  0.500  0.448572  5.933513  3.788782  1.080209
  20495.674  20495.650  0.500  0.449272  5.923113  3.779494  1.081516
  20500.029  20500.010  0.500  0.448999  5.910959  3.772770  1.080567
  20504.406  20504.390  0.500  0.448321  5.897409  3.766671  1.078158
  20508.839  20508.780  0.500  0.447543  5.889365  3.764463  1.077466
  20513.182  20513.200  0.500  0.445611  5.876090  3.763242  1.075932
  20517.619  20517.630  0.500  0.443887  5.863476  3.761644  1.075289
  20522.133  20522.080  0.500  0.442683  5.851445  3.758444  1.075476
  20526.592  20526.550  0.500  0.441643  5.831138  3.749300  1.074926
  20531.091  20531.040  0.500  0.440504  5.689563  3.662441  1.052163
  20535.592  20535.550  0.500  0.438466  5.791000  3.735342  1.074469
  20540.057  20540.080  0.500  0.437259  5.818114  3.757362  1.081834
  20544.655  20544.630  0.500  0.436295  5.806080  3.753207  1.081424
  20549.273  20549.200  0.500  0.434740  5.792415  3.750202  1.079452
  20553.837  20553.780  0.500  0.434590  5.779444  3.742363  1.075690
  20558.422  20558.390  0.500  0.434352  5.766907  3.735135  1.073087
  20563.009  20563.010  0.500  0.433958  5.755054  3.728928  1.073264
  20567.691  20567.660  0.500  0.433722  5.738308  3.718955  1.072521
  20572.412  20572.320  0.500  0.433238  5.723616  3.711227  1.070890
  20577.061  20577.000  0.500  0.433275  5.693097  3.691302  1.064885
  20581.712  20581.700  0.500  0.433613  5.553990  3.599892  1.037972
  20586.459  20586.420  0.500  0.432788  5.701207  3.698361  1.063834
  20591.226  20591.160  0.500  0.432471  5.692117  3.693637  1.057886
  20595.996  20595.910  0.500  0.432002  5.677759  3.686048  1.052075
  20600.730  20600.690  0.500  0.431208  5.663727  3.679859  1.049692
  20605.522  20605.490  0.500  0.430983  5.651692  3.672865  1.052059
  20610.355  20610.300  0.500  0.430490  5.637118  3.665202  1.055366
  20615.208  20615.130  0.500  0.430101  5.625792  3.659259  1.059676
  20620.044  20619.990  0.500  0.429208  5.610855  3.652804  1.063639
  20624.902  20624.860  0.500  0.427420  5.571707  3.633809  1.062920
  20629.799  20629.750  0.500  0.427707  5.448408  3.552375  1.041479
  20634.680  20634.660  0.500  0.426482  5.583146  3.644687  1.069370
  20639.694  20639.590  0.500  0.425783  5.570898  3.639234  1.068641
  20644.580  20644.530  0.500  0.424901  5.557091  3.633419  1.068837
  20649.562  20649.500  0.500  0.424668  5.544577  3.626081  1.069642
  20654.508  20654.490  0.500  0.424213  5.531470  3.619154  1.069590
  20659.495  20659.490  0.500  0.423958  5.515977  3.609938  1.066391
  20664.577  20664.520  0.500  0.423467  5.503013  3.603222  1.061276
  20669.625  20669.560  0.500  0.423430  5.487807  3.593400  1.056926
  20674.638  20674.620  0.500  0.422887  5.464995  3.580408  1.052202
  20679.746  20679.700  0.500  0.423181  5.312276  3.479329  1.022209
  20684.858  20684.800  0.500  0.421234  5.456168  3.580535  1.051764
  20690.028  20689.920  0.500  0.420522  5.448044  3.577751  1.052502
  20695.107  20695.060  0.500  0.419338  5.435288  3.573602  1.051732
  20700.264  20700.220  0.500  0.418636  5.421095  3.566774  1.050651
  20705.442  20705.400  0.500  0.417207  5.407402  3.562855  1.048456
  20710.623  20710.590  0.500  0.416623  5.395589  3.557148  1.046678
  20715.901  20715.810  0.500  0.415690  5.381085  3.550898  1.044257
  20721.087  20721.040  0.500  0.414772  5.367532  3.545206  1.042383
  20726.351  20726.290  0.500  0.413983  5.354158  3.539165  1.041242
  20731.599  20731.560  0.500  0.413573  5.341827  3.532460  1.042746
  20736.887  20736.850  0.500  0.412667  5.329414  3.527448  1.043854
  20742.216  20742.160  0.500  0.411612  5.316004  3.522284  1.044631
  20747.548  20747.490  0.500  0.410602  5.301601  3.516291  1.045604
  20752.901  20752.840  0.500  0.409594  5.287841  3.510700  1.047900
  20758.238  20758.210  0.500  0.409067  5.274360  3.503597  1.048602
  20763.616  20763.590  0.500  0.408637  5.262581  3.497277  1.048316
  20769.016  20769.000  0.500  0.407740  5.249832  3.491934  1.048065
  20774.494  20774.420  0.500  0.406976  5.236137  3.485487  1.048257
  20779.975  20779.870  0.500  0.406445  5.220706  3.477060  1.049395
  20785.364  20785.330  0.500  0.405594  5.209250  3.472385  1.049306
  20790.813  20790.810  0.500  0.405328  5.195279  3.463993  1.048530
  20796.379  20796.310  0.500  0.404955  5.183995  3.457761  1.045273
  20801.891  20801.830  0.500  0.404133  5.170150  3.451360  1.041764
  20807.406  20807.370  0.500  0.403403  5.156730  3.444916  1.037111
  20812.904  20812.920  0.500  0.403123  5.143885  3.437298  1.032778
  20818.558  20818.500  0.500  0.402169  5.127637  3.429711  1.029323
  20824.215  20824.100  0.500  0.401441  5.114672  3.423532  1.030034
  20829.761  20829.710  0.500  0.400738  5.100979  3.416767  1.029854
  20835.424  20835.350  0.500  0.399715  5.084386  3.409136  1.028137
  20841.071  20841.000  0.500  0.398797  5.066689  3.400390  1.026053
  20846.664  20846.670  0.500  0.397575  5.057142  3.398133  1.024450
  20852.451  20852.360  0.500  0.397616  5.046124  3.390593  1.022914