File: xdidata/Mo/Mo-K-MolybdenumDisulfide.xdi
# XDI/1.0 BlueSky/1.10.0 BMM/2023-1.0-py310-tiled
# Beamline.name: BMM (06BM) -- Beamline for Materials Measurement (NIST)
# Beamline.xray_source: NSLS-II three-pole wiggler
# Beamline.collimation: paraboloid mirror, 5 nm Rh on 30 nm Pt
# Beamline.focusing: not in use
# Beamline.harmonic_rejection: flat mirror, Pt stripe, pitch = 7.0 mrad relative to beam
# Beamline.software: Bluesky 1.10.0, Ophyd 1.7.0, DataBroker 2.0.0b13, Python 3.10.8, 2023-1.0-py310-tiled
# Detector.I0: 10 cm N2
# Detector.I1: 25 cm N2
# Detector.I2: 25 cm N2
# Element.symbol: Mo
# Element.edge: K
# Element.reference: Mo
# Element.reference_material: Mo foil
# Facility.name: NSLS-II
# Facility.energy: 3.0
# Facility.current: 400.6
# Facility.mode: top-off
# Facility.GUP: 301027
# Facility.SAF: 310583
# Facility.cycle: 2023-2
# Mono.name: Si(111)
# Mono.d_spacing: 3.13519
# Mono.encoder_resolution: 0.0000050 deg/ct
# Mono.angle_offset: 16.0754 deg
# Mono.scan_mode: pseudo channel cut
# Mono.scan_type: step
# Mono.direction: forward in energy
# Sample.name: MoS2
# Sample.prep: powder in PEG pellet
# Sample.x: 143.785 mm
# Sample.y: 114.695 mm
# Sample.SDD_position: 205.000 mm
# Scan.experimenters: Bruce Ravel
# Scan.edge_energy: 19999.5
# Scan.start_time: 2023-06-23T21:14:15
# Scan.end_time: 2023-06-23T21:21:52
# Scan.transient_id: 85038
# Scan.uid: 01e31c8f-5ee1-40f0-9a1e-525d4b3168d9
# Scan.plot_hint: ln(I0/It)  --  ln($5/$6)
# Column.1: energy eV
# Column.2: requested_energy eV
# Column.3: measurement_time seconds
# Column.4: xmu
# Column.5: I0 nA
# Column.6: It nA
# Column.7: Ir nA
# ///////////
# sample courtesy Martin Stennett, University of Sheffield
# -----------
# energy  requested_energy  measurement_time  xmu  I0  It  Ir
  19799.273  19799.500  0.500  -0.249885  7.668670  9.845635  7.563196
  19809.452  19809.500  0.500  -0.250122  7.645854  9.818666  7.545438
  19819.503  19819.500  0.500  -0.250525  7.621708  9.791607  7.525408
  19829.514  19829.500  0.500  -0.250934  7.597408  9.764381  7.507274
  19839.499  19839.500  0.500  -0.251340  7.571860  9.735499  7.486676
  19849.512  19849.500  0.500  -0.251898  7.543654  9.704649  7.465514
  19859.518  19859.500  0.500  -0.252365  7.518386  9.676658  7.443984
  19869.604  19869.500  0.500  -0.252588  7.493558  9.646851  7.422032
  19879.560  19879.500  0.500  -0.252879  7.468249  9.617068  7.398208
  19889.562  19889.500  0.500  -0.253053  7.353414  9.470841  7.286857
  19899.556  19899.500  0.500  -0.253238  7.418297  9.556177  7.352010
  19909.596  19909.500  0.500  -0.253211  7.394913  9.525799  7.326701
  19919.593  19919.500  0.500  -0.253256  7.368913  9.492725  7.300683
  19929.530  19929.500  0.500  -0.253132  7.344190  9.459704  7.267885
  19939.548  19939.500  0.500  -0.252913  7.316691  9.422224  7.235595
  19949.558  19949.500  0.500  -0.251903  7.292007  9.380956  7.194133
  19959.508  19959.500  0.500  -0.250667  7.266534  9.336641  7.143357
  19969.468  19969.500  0.500  -0.248388  7.240522  9.282044  7.080467
  19971.499  19971.500  0.500  -0.247751  7.236403  9.270852  7.066064
  19973.514  19973.500  0.500  -0.247092  7.231225  9.258115  7.048848
  19975.512  19975.500  0.500  -0.246430  7.225146  9.244210  7.027824
  19977.597  19977.500  0.500  -0.245258  7.219939  9.226728  7.007103
  19979.490  19979.500  0.500  -0.244365  7.214726  9.211836  6.986908
  19981.489  19981.500  0.500  -0.243200  7.208620  9.193319  6.960515
  19983.453  19983.500  0.500  -0.241706  7.203178  9.172669  6.931445
  19985.488  19985.500  0.500  -0.240112  7.199470  9.153340  6.898924
  19987.435  19987.500  0.500  -0.238147  7.191653  9.125460  6.861017
  19989.664  19989.500  0.500  -0.235530  7.185556  9.093889  6.808757
  19989.699  19989.800  0.500  -0.235270  7.184898  9.090698  6.807582
  19989.979  19990.100  0.500  -0.235210  7.182729  9.087410  6.800249
  19990.278  19990.400  0.500  -0.234652  7.183592  9.083432  6.792364
  19990.576  19990.700  0.500  -0.234381  7.182911  9.080108  6.783751
  19990.857  19991.000  0.500  -0.233791  7.181726  9.073250  6.776225
  19991.155  19991.300  0.500  -0.233495  7.180236  9.068689  6.769205
  19991.471  19991.600  0.500  -0.232706  7.181009  9.062513  6.760347
  19991.787  19991.900  0.500  -0.232445  7.179525  9.058269  6.749404
  19992.086  19992.200  0.500  -0.231963  7.176987  9.050709  6.739986
  19992.402  19992.500  0.500  -0.231435  7.176795  9.045689  6.728609
  19992.735  19992.800  0.500  -0.230653  7.177431  9.039413  6.718660
  19993.034  19993.100  0.500  -0.230539  7.173835  9.033852  6.707997
  19993.314  19993.400  0.500  -0.229550  7.174686  9.025994  6.697396
  19993.613  19993.700  0.500  -0.228875  7.175002  9.020305  6.685841
  19993.911  19994.000  0.500  -0.228287  7.174266  9.014077  6.676379
  19994.227  19994.300  0.500  -0.227921  7.171286  9.007035  6.663886
  19994.543  19994.600  0.500  -0.226945  7.170960  8.997838  6.650624
  19994.807  19994.900  0.500  -0.226296  7.170507  8.991437  6.637795
  19995.123  19995.200  0.500  -0.225880  7.167873  8.984396  6.623336
  19995.456  19995.500  0.500  -0.225043  7.167435  8.976324  6.608099
  19995.755  19995.800  0.500  -0.224122  7.166836  8.967317  6.595192
  19996.089  19996.100  0.500  -0.223556  7.165760  8.960894  6.578583
  19996.352  19996.400  0.500  -0.222556  7.164792  8.950726  6.564005
  19996.615  19996.700  0.500  -0.221670  7.164276  8.942159  6.546835
  19996.931  19997.000  0.500  -0.221037  7.162685  8.934513  6.531960
  19997.230  19997.300  0.500  -0.220192  7.160927  8.924774  6.514532
  19997.546  19997.600  0.500  -0.219435  7.159700  8.916499  6.494231
  19997.845  19997.900  0.500  -0.217984  7.159491  8.903311  6.474602
  19998.161  19998.200  0.500  -0.216777  7.159433  8.892498  6.452190
  19998.495  19998.500  0.500  -0.215480  7.158026  8.879221  6.427210
  19998.793  19998.800  0.500  -0.214354  7.157082  8.868064  6.402443
  19999.109  19999.100  0.500  -0.212905  7.157354  8.855558  6.377425
  19999.355  19999.400  0.500  -0.211615  7.156427  8.842992  6.350891
  19999.689  19999.700  0.500  -0.209846  7.156414  8.827348  6.321619
  19999.953  20000.000  0.500  -0.208478  7.154798  8.813296  6.293394
  20000.251  20000.300  0.500  -0.207207  7.151638  8.798211  6.260101
  20000.585  20000.600  0.500  -0.205364  7.150993  8.781218  6.222308
  20000.884  20000.900  0.500  -0.203392  7.149791  8.762444  6.182516
  20001.200  20001.200  0.500  -0.201269  7.149686  8.743739  6.138848
  20001.499  20001.500  0.500  -0.198804  7.149475  8.721955  6.091523
  20001.797  20001.800  0.500  -0.195955  7.148679  8.696166  6.037251
  20002.114  20002.100  0.500  -0.193677  7.146854  8.674163  5.984832
  20002.412  20002.400  0.500  -0.191098  7.145088  8.649686  5.926519
  20002.693  20002.700  0.500  -0.187804  7.146270  8.622670  5.864132
  20002.992  20003.000  0.500  -0.184307  7.145646  8.591815  5.794988
  20003.273  20003.300  0.500  -0.180784  7.143307  8.558796  5.716526
  20003.590  20003.600  0.500  -0.176662  7.142007  8.522041  5.631151
  20003.888  20003.900  0.500  -0.171737  7.142898  8.481229  5.539974
  20004.205  20004.200  0.500  -0.166744  7.141096  8.436859  5.444017
  20004.539  20004.500  0.500  -0.161326  7.138582  8.388320  5.343065
  20004.820  20004.800  0.500  -0.155078  7.138744  8.336263  5.235121
  20005.101  20005.100  0.500  -0.148730  7.137054  8.281547  5.127534
  20005.400  20005.400  0.500  -0.142380  7.137053  8.229131  5.020523
  20005.699  20005.700  0.500  -0.135380  7.136065  8.170596  4.910889
  20005.980  20006.000  0.500  -0.128397  7.134448  8.111900  4.803925
  20006.279  20006.300  0.500  -0.120493  7.134037  8.047569  4.687675
  20006.595  20006.600  0.500  -0.111450  7.132951  7.973911  4.562760
  20006.929  20006.900  0.500  -0.102878  7.130177  7.902774  4.445594
  20007.193  20007.200  0.500  -0.093546  7.130722  7.829968  4.328030
  20007.527  20007.500  0.500  -0.084195  7.128299  7.754458  4.214070
  20007.826  20007.800  0.500  -0.075045  7.126305  7.681675  4.104147
  20008.107  20008.100  0.500  -0.065625  7.126063  7.609396  4.005499
  20008.388  20008.400  0.500  -0.056361  7.138169  7.552035  3.914021
  20008.687  20008.700  0.500  -0.046882  7.139556  7.482245  3.822875
  20008.969  20009.000  0.500  -0.036615  7.137949  7.404148  3.723382
  20009.285  20009.300  0.500  -0.024505  7.136994  7.314049  3.621953
  20009.602  20009.600  0.500  -0.012721  7.135780  7.227133  3.522571
  20009.936  20009.900  0.500  0.000517  7.135704  7.132017  3.424973
  20010.217  20010.200  0.500  0.014022  7.133706  7.034375  3.329520
  20010.534  20010.500  0.500  0.029392  7.132877  6.926277  3.229751
  20010.832  20010.800  0.500  0.044190  7.133237  6.824885  3.142024
  20011.096  20011.100  0.500  0.060037  7.131315  6.715773  3.050867
  20011.395  20011.400  0.500  0.077902  7.131933  6.597430  2.956553
  20011.712  20011.700  0.500  0.097034  7.130001  6.470658  2.858740
  20012.011  20012.000  0.500  0.117212  7.129658  6.341093  2.765498
  20012.292  20012.300  0.500  0.139005  7.128550  6.203433  2.666981
  20012.626  20012.600  0.500  0.161999  7.128835  6.062661  2.569653
  20012.925  20012.900  0.500  0.185557  7.125370  5.918630  2.472785
  20013.207  20013.200  0.500  0.210426  7.125138  5.773062  2.377888
  20013.541  20013.500  0.500  0.236840  7.125572  5.622915  2.280644
  20013.805  20013.800  0.500  0.261699  7.123912  5.483582  2.190630
  20014.122  20014.100  0.500  0.285408  7.121695  5.353433  2.107539
  20014.368  20014.400  0.500  0.309173  7.123440  5.228991  2.027681
  20014.685  20014.700  0.500  0.333176  7.121552  5.103618  1.949437
  20015.001  20015.000  0.500  0.357470  7.118698  4.979131  1.867676
  20015.283  20015.300  0.500  0.380163  7.119203  4.867753  1.792707
  20015.582  20015.600  0.500  0.401403  7.117851  4.764550  1.722857
  20015.899  20015.900  0.500  0.422715  7.116753  4.663363  1.653305
  20016.233  20016.200  0.500  0.442591  7.116492  4.571419  1.585368
  20016.497  20016.500  0.500  0.459688  7.115225  4.493125  1.525680
  20016.796  20016.800  0.500  0.474746  7.113100  4.424656  1.471151
  20017.095  20017.100  0.500  0.488518  7.112256  4.363618  1.419085
  20017.394  20017.400  0.500  0.500166  7.112161  4.313030  1.373405
  20017.676  20017.700  0.500  0.509976  7.111446  4.270495  1.329915
  20017.975  20018.000  0.500  0.519201  7.110599  4.230775  1.286536
  20018.292  20018.300  0.500  0.526683  7.107165  4.197210  1.249207
  20018.591  20018.600  0.500  0.532981  7.107437  4.171022  1.213738
  20018.873  20018.900  0.500  0.538219  7.105198  4.147922  1.180937
  20019.189  20019.200  0.500  0.542509  7.105935  4.130594  1.152878
  20019.489  20019.500  0.500  0.545841  7.104727  4.116153  1.125653
  20019.806  20019.800  0.500  0.548621  7.101057  4.102608  1.101943
  20020.087  20020.100  0.500  0.550804  7.101238  4.093766  1.081687
  20020.369  20020.400  0.500  0.552488  7.100443  4.086419  1.064379
  20020.668  20020.700  0.500  0.554260  7.100209  4.079049  1.049157
  20020.967  20021.000  0.500  0.555320  7.096672  4.072698  1.035531
  20021.231  20021.300  0.500  0.557156  7.096495  4.065126  1.022778
  20021.566  20021.600  0.500  0.558917  7.096393  4.057918  1.013406
  20021.883  20021.900  0.500  0.560488  7.095982  4.051313  1.004151
  20022.200  20022.200  0.500  0.562259  7.093411  4.042676  0.997805
  20022.517  20022.500  0.500  0.564786  7.093376  4.032453  0.992451
  20022.781  20022.800  0.500  0.566760  7.091830  4.023624  0.988379
  20023.098  20023.100  0.500  0.569427  7.090645  4.012239  0.986500
  20023.362  20023.400  0.500  0.572648  7.090856  3.999455  0.985368
  20023.644  20023.700  0.500  0.575574  7.089041  3.986747  0.984660
  20023.961  20024.000  0.500  0.579474  7.088543  3.970950  0.985352
  20024.277  20024.300  0.500  0.583786  7.086696  3.952835  0.985378
  20024.471  20024.500  0.500  0.586806  7.086524  3.940820  0.985974
  20025.493  20025.490  0.500  0.605229  7.083300  3.867124  0.988725
  20026.461  20026.490  0.500  0.626341  7.081089  3.785154  0.988165
  20027.536  20027.510  0.500  0.649938  7.079191  3.695889  0.978469
  20028.593  20028.560  0.500  0.672940  7.076703  3.610579  0.960586
  20029.632  20029.620  0.500  0.692816  7.076314  3.539328  0.937929
  20030.725  20030.700  0.500  0.710890  7.073141  3.474374  0.912589
  20031.835  20031.800  0.500  0.727323  7.072495  3.417435  0.887010
  20032.928  20032.920  0.500  0.740380  7.070180  3.372000  0.866560
  20034.109  20034.060  0.500  0.753426  7.066223  3.326433  0.849273
  20035.255  20035.210  0.500  0.764658  7.065221  3.288812  0.837447
  20036.418  20036.390  0.500  0.773477  7.061518  3.258228  0.829971
  20037.652  20037.580  0.500  0.777338  7.057970  3.244041  0.825194
  20038.816  20038.800  0.500  0.775397  7.054613  3.248796  0.824334
  20040.086  20040.030  0.500  0.765990  7.050237  3.277467  0.825149
  20041.339  20041.280  0.500  0.750333  7.046995  3.327656  0.828214
  20042.591  20042.550  0.500  0.730599  7.043304  3.392198  0.833504
  20043.897  20043.840  0.500  0.709628  7.039307  3.462123  0.837520
  20045.203  20045.150  0.500  0.690315  7.037353  3.528657  0.840982
  20046.544  20046.480  0.500  0.674268  7.033362  3.583705  0.840376
  20047.850  20047.830  0.500  0.661967  7.028303  3.625449  0.837309
  20049.209  20049.200  0.500  0.651570  7.024281  3.661244  0.835284
  20050.586  20050.580  0.500  0.642712  7.022211  3.692729  0.839488
  20051.999  20051.990  0.500  0.632498  7.017871  3.728334  0.853862
  20053.429  20053.410  0.500  0.621082  7.013134  3.768595  0.880134
  20054.842  20054.850  0.500  0.608100  7.009865  3.816060  0.914866
  20056.291  20056.310  0.500  0.593662  7.006935  3.869937  0.952856
  20057.793  20057.790  0.500  0.579901  7.002860  3.921278  0.989086
  20059.277  20059.290  0.500  0.569621  7.000199  3.960291  1.015877
  20060.832  20060.810  0.500  0.563576  6.996895  3.982424  1.031144
  20062.335  20062.350  0.500  0.563306  6.993377  3.981495  1.033413
  20063.961  20063.910  0.500  0.568318  6.987992  3.958539  1.024780
  20065.517  20065.480  0.500  0.577026  6.983590  3.921748  1.008165
  20067.091  20067.080  0.500  0.587534  6.979775  3.878632  0.988436
  20068.718  20068.690  0.500  0.597433  6.976328  3.838531  0.971407
  20070.381  20070.330  0.500  0.606284  6.972300  3.802510  0.958073
  20071.991  20071.980  0.500  0.614751  6.967008  3.767588  0.949199
  20073.708  20073.650  0.500  0.624963  6.958756  3.724893  0.940889
  20075.354  20075.340  0.500  0.639446  6.957338  3.670584  0.932216
  20077.124  20077.050  0.500  0.656877  6.953907  3.605379  0.921332
  20078.824  20078.780  0.500  0.674287  6.948916  3.540607  0.910335
  20080.577  20080.530  0.500  0.690302  6.946196  3.482992  0.899711
  20082.348  20082.290  0.500  0.700211  6.940299  3.445725  0.891316
  20084.102  20084.080  0.500  0.704263  6.933887  3.428620  0.884598
  20085.927  20085.880  0.500  0.702991  6.929629  3.430875  0.877362
  20087.681  20087.710  0.500  0.698140  6.923852  3.444685  0.868245
  20089.560  20089.550  0.500  0.692102  6.920516  3.463877  0.857850
  20091.386  20091.410  0.500  0.686269  6.915921  3.481828  0.850583
  20093.230  20093.290  0.500  0.681360  6.908935  3.495429  0.845832
  20095.216  20095.190  0.500  0.678826  6.902696  3.501132  0.847117
  20097.096  20097.110  0.500  0.678557  6.898063  3.499721  0.855805
  20099.047  20099.050  0.500  0.679149  6.894897  3.496045  0.869806
  20101.017  20101.010  0.500  0.678039  6.888115  3.496488  0.887123
  20103.023  20102.980  0.500  0.673511  6.882610  3.509548  0.904709
  20105.011  20104.980  0.500  0.664948  6.878880  3.537808  0.920789
  20107.017  20106.990  0.500  0.652439  6.872798  3.579174  0.934800
  20109.059  20109.020  0.500  0.637317  6.866159  3.630199  0.946262
  20111.049  20111.080  0.500  0.623733  6.861702  3.677461  0.955351
  20113.127  20113.150  0.500  0.611486  6.855478  3.719397  0.962502
  20115.242  20115.240  0.500  0.600846  6.851039  3.756751  0.970232
  20117.357  20117.350  0.500  0.591617  6.843460  3.787389  0.976884
  20119.508  20119.480  0.500  0.582555  6.840114  3.819996  0.984670
  20121.659  20121.620  0.500  0.573590  6.832490  3.850101  0.990761
  20123.847  20123.790  0.500  0.566381  6.827744  3.875264  0.994170
  20126.017  20125.980  0.500  0.563035  6.821186  3.884515  0.990961
  20128.223  20128.180  0.500  0.564991  6.814927  3.873368  0.980536
  20130.430  20130.400  0.500  0.572916  6.810620  3.840365  0.963510
  20132.708  20132.650  0.500  0.584348  6.805448  3.793827  0.944368
  20134.898  20134.910  0.500  0.598053  6.799198  3.738751  0.926177
  20137.213  20137.190  0.500  0.612405  6.793367  3.682316  0.914187
  20139.475  20139.490  0.500  0.624139  6.787863  3.636410  0.908152
  20141.809  20141.810  0.500  0.634207  6.780320  3.595982  0.906971
  20144.144  20144.150  0.500  0.642839  6.775595  3.562591  0.909600
  20146.532  20146.500  0.500  0.649225  6.768259  3.536082  0.914490
  20148.886  20148.880  0.500  0.653353  6.763011  3.518784  0.923342
  20151.293  20151.270  0.500  0.653787  6.756844  3.514050  0.933786
  20153.719  20153.690  0.500  0.652168  6.750013  3.516186  0.942156
  20156.128  20156.120  0.500  0.649524  6.743784  3.522239  0.947462
  20158.608  20158.570  0.500  0.646710  6.738525  3.529411  0.951716
  20161.036  20161.050  0.500  0.641097  6.730479  3.545040  0.957545
  20163.553  20163.540  0.500  0.634515  6.724054  3.565045  0.963563
  20166.018  20166.050  0.500  0.628376  6.717557  3.583532  0.966802
  20168.572  20168.570  0.500  0.623199  6.711014  3.598622  0.964855
  20171.128  20171.120  0.500  0.621463  6.704458  3.601354  0.959429
  20173.737  20173.690  0.500  0.621087  6.698461  3.599485  0.953849
  20176.311  20176.270  0.500  0.621548  6.692398  3.594569  0.949150
  20178.922  20178.880  0.500  0.619232  6.684938  3.598887  0.947854
  20181.569  20181.500  0.500  0.613563  6.678784  3.616017  0.951960
  20184.182  20184.150  0.500  0.606218  6.671793  3.638860  0.959818
  20186.812  20186.810  0.500  0.598040  6.664417  3.664685  0.965976
  20189.444  20189.490  0.500  0.591958  6.654972  3.681817  0.963893
  20192.183  20192.190  0.500  0.587493  6.651044  3.696111  0.954959
  20194.959  20194.910  0.500  0.584972  6.644935  3.702037  0.940064
  20197.718  20197.650  0.500  0.583791  6.638973  3.703085  0.925781
  20200.442  20200.400  0.500  0.583491  6.629066  3.698668  0.918379
  20203.203  20203.180  0.500  0.584012  6.624084  3.693964  0.918181
  20206.036  20205.970  0.500  0.584137  6.615516  3.688726  0.926442
  20208.798  20208.790  0.500  0.584057  6.609076  3.685428  0.942247
  20211.632  20211.620  0.500  0.582770  6.601964  3.686202  0.964731
  20214.432  20214.470  0.500  0.580492  6.594497  3.690433  0.992062
  20217.376  20217.350  0.500  0.577627  6.584971  3.695674  1.020689
  20220.249  20220.240  0.500  0.575237  6.577788  3.700478  1.043718
  20223.212  20223.150  0.500  0.574517  6.572923  3.700403  1.053583
  20226.123  20226.070  0.500  0.576286  6.564351  3.689047  1.049785
  20229.070  20229.020  0.500  0.579913  6.558652  3.672497  1.036394
  20231.982  20231.990  0.500  0.583612  6.550149  3.654193  1.022472
  20235.003  20234.970  0.500  0.588140  6.542553  3.633467  1.011077
  20237.953  20237.980  0.500  0.592739  6.535155  3.612705  1.003173
  20241.012  20241.000  0.500  0.598200  6.526814  3.588444  0.994132
  20244.107  20244.050  0.500  0.604157  6.518813  3.562761  0.983017
  20247.186  20247.110  0.500  0.608386  6.508239  3.541971  0.969424
  20250.229  20250.190  0.500  0.612275  6.503783  3.525806  0.955260
  20253.382  20253.290  0.500  0.614885  6.497525  3.513232  0.940406
  20256.409  20256.410  0.500  0.614516  6.489117  3.509981  0.929727
  20259.564  20259.550  0.500  0.611363  6.481453  3.516905  0.923781
  20262.719  20262.700  0.500  0.606634  6.473460  3.529218  0.922504
  20265.894  20265.880  0.500  0.601278  6.465886  3.544022  0.925733
  20269.123  20269.070  0.500  0.595642  6.457031  3.559173  0.929827
  20272.300  20272.290  0.500  0.589314  6.448389  3.576970  0.934060
  20275.604  20275.520  0.500  0.581889  6.438075  3.597863  0.940580
  20278.800  20278.770  0.500  0.573919  6.430848  3.622585  0.950197
  20282.070  20282.050  0.500  0.566180  6.425653  3.647779  0.961648
  20285.359  20285.340  0.500  0.560586  6.416740  3.663154  0.972907
  20288.649  20288.650  0.500  0.557534  6.407111  3.668838  0.984719
  20291.995  20291.970  0.500  0.556762  6.401322  3.668354  0.997702
  20295.323  20295.320  0.500  0.557090  6.390514  3.660956  1.010383
  20298.761  20298.690  0.500  0.556987  6.405011  3.669639  1.024006
  20302.146  20302.070  0.500  0.557164  6.395147  3.663341  1.031756
  20305.478  20305.480  0.500  0.557053  6.385084  3.657981  1.037328
  20308.938  20308.900  0.500  0.557780  6.379465  3.652106  1.043107
  20312.344  20312.350  0.500  0.559758  6.370667  3.639862  1.042153
  20315.879  20315.810  0.500  0.563041  6.361531  3.622730  1.033240
  20319.306  20319.290  0.500  0.567478  6.350262  3.600302  1.018458
  20322.879  20322.790  0.500  0.572809  6.343103  3.577124  1.002549
  20326.363  20326.310  0.500  0.578047  6.334375  3.553539  0.986541
  20329.902  20329.850  0.500  0.582127  6.325941  3.534357  0.972541
  20333.443  20333.400  0.500  0.586048  6.317949  3.516080  0.959386
  20336.949  20336.980  0.500  0.588662  6.307226  3.500947  0.948980
  20340.601  20340.580  0.500  0.589688  6.300982  3.493895  0.942884
  20344.255  20344.190  0.500  0.587438  6.288795  3.494995  0.939698
  20347.855  20347.820  0.500  0.584041  6.280808  3.502433  0.941467
  20351.547  20351.480  0.500  0.578006  6.271330  3.518316  0.946472
  20355.169  20355.150  0.500  0.572281  6.263062  3.533853  0.953316
  20358.846  20358.840  0.500  0.567603  6.254153  3.545370  0.961155
  20362.560  20362.550  0.500  0.565346  6.242016  3.546485  0.966176
  20366.313  20366.280  0.500  0.565560  6.236701  3.542707  0.968882
  20370.049  20370.020  0.500  0.564802  6.224541  3.538483  0.969652
  20373.877  20373.790  0.500  0.561062  6.213273  3.545312  0.973518
  20377.634  20377.580  0.500  0.557210  6.202431  3.552783  0.980175
  20381.410  20381.380  0.500  0.553475  6.192797  3.560537  0.991842
  20385.206  20385.210  0.500  0.550996  6.186197  3.565571  1.001963
  20389.077  20389.050  0.500  0.549490  6.177244  3.565777  1.006391
  20392.949  20392.910  0.500  0.548680  6.166425  3.562419  1.005772
  20396.804  20396.790  0.500  0.548923  6.158384  3.556907  1.003565
  20400.752  20400.690  0.500  0.549952  6.147231  3.546814  1.000886
  20404.647  20404.610  0.500  0.551586  6.136453  3.534816  0.999492
  20408.580  20408.550  0.500  0.553743  6.129449  3.523172  0.998840
  20412.532  20412.510  0.500  0.555085  6.118935  3.512414  0.996563
  20416.523  20416.480  0.500  0.555875  6.108937  3.503904  0.990544
  20420.534  20420.480  0.500  0.555972  6.096982  3.496706  0.984582
  20424.528  20424.490  0.500  0.555352  6.085869  3.492499  0.979400
  20428.542  20428.530  0.500  0.554810  6.077658  3.489678  0.977656
  20432.539  20432.580  0.500  0.553918  6.069533  3.488122  0.978777
  20436.666  20436.650  0.500  0.552023  6.058293  3.488267  0.979970
  20440.795  20440.740  0.500  0.550878  6.043395  3.483676  0.981815
  20444.907  20444.850  0.500  0.548991  6.035049  3.485437  0.982406
  20449.021  20448.980  0.500  0.547164  6.025949  3.486545  0.981316
  20453.136  20453.130  0.500  0.545272  6.013300  3.485815  0.977676
  20457.290  20457.290  0.500  0.544101  6.005367  3.485293  0.972829
  20461.556  20461.480  0.500  0.542888  5.995218  3.483627  0.969896
  20465.731  20465.680  0.500  0.542677  5.984337  3.478038  0.970023
  20469.946  20469.910  0.500  0.542658  5.971978  3.470920  0.971290
  20474.162  20474.150  0.500  0.542949  5.962714  3.464531  0.971814
  20478.453  20478.410  0.500  0.543065  5.951300  3.457497  0.971809
  20482.801  20482.690  0.500  0.542807  5.940962  3.452382  0.974475
  20487.078  20486.990  0.500  0.543658  5.931295  3.443831  0.977528
  20491.393  20491.310  0.500  0.544563  5.920999  3.434744  0.980646
  20495.674  20495.650  0.500  0.545697  5.908315  3.423501  0.981065
  20500.048  20500.010  0.500  0.546430  5.895122  3.413354  0.978195
  20504.443  20504.390  0.500  0.546255  5.882094  3.406407  0.976027
  20508.821  20508.780  0.500  0.544896  5.873661  3.406149  0.974932
  20513.238  20513.200  0.500  0.541534  5.858915  3.409039  0.974542
  20517.601  20517.630  0.500  0.538022  5.846346  3.413695  0.977364
  20522.077  20522.080  0.500  0.535208  5.835652  3.417052  0.978503
  20526.611  20526.550  0.500  0.533461  5.811815  3.409044  0.978152
  20531.110  20531.040  0.500  0.530844  5.656712  3.326759  0.955780
  20535.610  20535.550  0.500  0.530260  5.790050  3.407164  0.981128
  20540.094  20540.080  0.500  0.528441  5.802150  3.420502  0.986205
  20544.618  20544.630  0.500  0.526454  5.789207  3.419662  0.986391
  20549.254  20549.200  0.500  0.524410  5.774990  3.418242  0.985043
  20553.818  20553.780  0.500  0.523083  5.763068  3.415716  0.982417
  20558.440  20558.390  0.500  0.521735  5.749182  3.412083  0.981152
  20563.027  20563.010  0.500  0.522155  5.738350  3.404224  0.980850
  20567.672  20567.660  0.500  0.522779  5.722313  3.392590  0.979168
  20572.356  20572.320  0.500  0.523197  5.708173  3.382793  0.977062
  20577.080  20577.000  0.500  0.523738  5.667854  3.357083  0.969850
  20581.750  20581.700  0.500  0.525239  5.551730  3.283370  0.947101
  20586.422  20586.420  0.500  0.526404  5.683004  3.357093  0.966373
  20591.133  20591.160  0.500  0.527625  5.672281  3.346672  0.959434
  20595.958  20595.910  0.500  0.529273  5.658728  3.333179  0.952325
  20600.804  20600.690  0.500  0.529754  5.645514  3.323796  0.950303
  20605.560  20605.490  0.500  0.528503  5.632782  3.320451  0.951753
  20610.317  20610.300  0.500  0.528095  5.620496  3.314561  0.955238
  20615.133  20615.130  0.500  0.525801  5.607038  3.314219  0.960664
  20620.063  20619.990  0.500  0.523597  5.590472  3.311717  0.966157
  20624.902  20624.860  0.500  0.521318  5.545786  3.292740  0.964796
  20629.762  20629.750  0.500  0.520219  5.446906  3.237587  0.949898
  20634.699  20634.660  0.500  0.517821  5.563834  3.315029  0.973275
  20639.638  20639.590  0.500  0.516308  5.553245  3.313730  0.973652
  20644.599  20644.530  0.500  0.514744  5.538461  3.310081  0.974433
  20649.543  20649.500  0.500  0.513210  5.525230  3.307242  0.976318
  20654.546  20654.490  0.500  0.511320  5.512319  3.305758  0.977516
  20659.476  20659.490  0.500  0.508900  5.497168  3.304659  0.976059
  20664.559  20664.520  0.500  0.506891  5.480198  3.301082  0.973084
  20669.569  20669.560  0.500  0.505792  5.468857  3.297873  0.970373
  20674.694  20674.620  0.500  0.504284  5.440920  3.285976  0.965762
  20679.765  20679.700  0.500  0.504493  5.295040  3.197207  0.939845
  20684.820  20684.800  0.500  0.504720  5.442158  3.285293  0.966363
  20689.934  20689.920  0.500  0.504711  5.429102  3.277441  0.964294
  20695.107  20695.060  0.500  0.505411  5.415648  3.267030  0.962538
  20700.321  20700.220  0.500  0.506201  5.401047  3.255650  0.959459
  20705.423  20705.400  0.500  0.506837  5.387565  3.245459  0.956420
  20710.567  20710.590  0.500  0.506040  5.373042  3.239290  0.953254
  20715.863  20715.810  0.500  0.505395  5.362371  3.234943  0.951426
  20721.106  20721.040  0.500  0.503982  5.348555  3.231171  0.950593
  20726.370  20726.290  0.500  0.503475  5.336629  3.225600  0.949911
  20731.618  20731.560  0.500  0.502197  5.321410  3.220514  0.950756
  20736.887  20736.850  0.500  0.501988  5.307022  3.212478  0.951700
  20742.216  20742.160  0.500  0.500418  5.296436  3.211110  0.951971
  20747.529  20747.490  0.500  0.499345  5.282007  3.205797  0.954284
  20752.920  20752.840  0.500  0.498429  5.270340  3.201649  0.957016
  20758.257  20758.210  0.500  0.496802  5.252640  3.196093  0.957303
  20763.597  20763.590  0.500  0.496153  5.243120  3.192371  0.957264
  20769.054  20769.000  0.500  0.494648  5.230437  3.189444  0.957840
  20774.475  20774.420  0.500  0.493154  5.215951  3.185368  0.958992
  20779.918  20779.870  0.500  0.491456  5.202011  3.182253  0.960901
  20785.345  20785.330  0.500  0.490396  5.191153  3.178977  0.962078
  20790.870  20790.810  0.500  0.488929  5.176667  3.174760  0.961216
  20796.360  20796.310  0.500  0.488282  5.162335  3.168020  0.958447
  20801.910  20801.830  0.500  0.488010  5.150043  3.161338  0.955041
  20807.406  20807.370  0.500  0.487561  5.136989  3.154740  0.949640
  20812.942  20812.920  0.500  0.487394  5.121447  3.145721  0.946003
  20818.577  20818.500  0.500  0.486852  5.109431  3.140040  0.943801
  20824.177  20824.100  0.500  0.485828  5.095802  3.134873  0.944006
  20829.799  20829.710  0.500  0.484087  5.078848  3.129888  0.944052
  20835.367  20835.350  0.500  0.483595  5.062550  3.121380  0.942451
  20841.052  20841.000  0.500  0.483209  5.049212  3.114358  0.940815
  20846.797  20846.670  0.500  0.482224  5.038765  3.110977  0.939222
  20852.432  20852.360  0.500  0.481292  5.025093  3.105430  0.938032