File: xdidata/Mo/Mo-K-MolybdenumFoil.xdi
# XDI/1.0 BlueSky/1.10.0 BMM/2023-1.0-py310-tiled
# Beamline.name: BMM (06BM) -- Beamline for Materials Measurement (NIST)
# Beamline.xray_source: NSLS-II three-pole wiggler
# Beamline.collimation: paraboloid mirror, 5 nm Rh on 30 nm Pt
# Beamline.focusing: not in use
# Beamline.harmonic_rejection: flat mirror, Pt stripe, pitch = 7.0 mrad relative to beam
# Beamline.software: Bluesky 1.10.0, Ophyd 1.7.0, DataBroker 2.0.0b13, Python 3.10.8, 2023-1.0-py310-tiled
# Detector.I0: 10 cm N2
# Detector.I1: 25 cm N2
# Detector.I2: 25 cm N2
# Element.symbol: Mo
# Element.edge: K
# Element.reference: Mo
# Element.reference_material: Mo foil
# Facility.name: NSLS-II
# Facility.energy: 3.0
# Facility.current: 400.2
# Facility.mode: top-off
# Facility.GUP: 301027
# Facility.SAF: 310583
# Facility.cycle: 2023-2
# Mono.name: Si(111)
# Mono.d_spacing: 3.13519
# Mono.encoder_resolution: 0.0000050 deg/ct
# Mono.angle_offset: 16.0754 deg
# Mono.scan_mode: pseudo channel cut
# Mono.scan_type: step
# Mono.direction: forward in energy
# Sample.name: Mo foil
# Sample.prep: reference foil
# Sample.x: 109.138 mm
# Sample.y: 153.150 mm
# Sample.SDD_position: 205.000 mm
# Scan.experimenters: Bruce Ravel
# Scan.edge_energy: 19999.5
# Scan.start_time: 2023-05-28T22:39:28
# Scan.end_time: 2023-05-28T22:46:53
# Scan.transient_id: 79078
# Scan.uid: 1e5cfc4a-a739-4433-bf42-e1fb60af53aa
# Scan.plot_hint: ln(It/Ir)  --  ln($6/$7)
# Column.1: energy eV
# Column.2: requested_energy eV
# Column.3: measurement_time seconds
# Column.4: xmu
# Column.5: I0 nA
# Column.6: It nA
# Column.7: Ir nA
# ///////////
# standard reference foil
# -----------
# energy  requested_energy  measurement_time  xmu  I0  It  Ir
  19799.462  19799.500  0.500  0.272870  7.215482  13.6435  10.3853
  19809.573  19809.500  0.500  0.272709  7.200087  13.6153  10.3655
  19819.555  19819.500  0.500  0.272289  7.175082  13.5676  10.3335
  19829.617  19829.500  0.500  0.272171  7.160785  13.5411  10.3146
  19839.568  19839.500  0.500  0.271915  7.134521  13.4918  10.2796
  19849.633  19849.500  0.500  0.271768  7.109659  13.4442  10.2449
  19859.570  19859.500  0.500  0.271553  7.086421  13.4016  10.2146
  19869.586  19869.500  0.500  0.271536  7.072239  13.3763  10.1955
  19879.526  19879.500  0.500  0.271560  7.040689  13.3187  10.1514
  19889.597  19889.500  0.500  0.271343  6.952972  13.1539  10.0279
  19899.556  19899.500  0.500  0.271508  7.003972  13.2525  10.1015
  19909.613  19909.500  0.500  0.271545  6.970225  13.1864  10.0507
  19919.610  19919.500  0.500  0.271991  6.953039  13.1556  10.0227
  19929.600  19929.500  0.500  0.272293  6.931377  13.112  9.986527
  19939.583  19939.500  0.500  0.273355  6.906654  13.073  9.946216
  19949.593  19949.500  0.500  0.274409  6.885486  13.0278  9.901366
  19959.578  19959.500  0.500  0.276513  6.862384  12.9878  9.850254
  19969.538  19969.500  0.500  0.279570  6.843028  12.9528  9.793719
  19971.447  19971.500  0.500  0.280028  6.838007  12.9418  9.780904
  19973.497  19973.500  0.500  0.281122  6.826921  12.9204  9.754063
  19975.477  19975.500  0.500  0.282394  6.823527  12.9201  9.741417
  19977.475  19977.500  0.500  0.283394  6.827769  12.9226  9.733638
  19979.490  19979.500  0.500  0.284839  6.809922  12.8886  9.693965
  19981.524  19981.500  0.500  0.286410  6.806457  12.8841  9.675373
  19983.541  19983.500  0.500  0.288236  6.803043  12.8773  9.652615
  19985.488  19985.500  0.500  0.290180  6.808589  12.8856  9.640082
  19987.470  19987.500  0.500  0.293162  6.796666  12.8653  9.596251
  19989.471  19989.500  0.500  0.296280  6.789168  12.8487  9.554023
  19989.751  19989.800  0.500  0.296660  6.792374  12.8565  9.556168
  19990.050  19990.100  0.500  0.297091  6.789662  12.8509  9.547896
  19990.348  19990.400  0.500  0.297686  6.789505  12.8494  9.541159
  19990.664  19990.700  0.500  0.298629  6.788793  12.8474  9.530659
  19990.962  19991.000  0.500  0.299152  6.783514  12.84  9.520162
  19991.296  19991.300  0.500  0.299837  6.781199  12.8368  9.511258
  19991.594  19991.600  0.500  0.300582  6.784125  12.8392  9.505967
  19991.875  19991.900  0.500  0.301081  6.783907  12.8409  9.502533
  19992.173  19992.200  0.500  0.301769  6.782858  12.8409  9.495952
  19992.472  19992.500  0.500  0.302433  6.780700  12.8352  9.485460
  19992.753  19992.800  0.500  0.303001  6.782197  12.8364  9.480934
  19993.051  19993.100  0.500  0.304187  6.778376  12.8301  9.465087
  19993.350  19993.400  0.500  0.304789  6.777579  12.8285  9.458183
  19993.666  19993.700  0.500  0.305645  6.780111  12.8342  9.454321
  19993.964  19994.000  0.500  0.306563  6.781517  12.8374  9.447943
  19994.298  19994.300  0.500  0.307476  6.773222  12.8223  9.428232
  19994.578  19994.600  0.500  0.308798  6.771264  12.8206  9.414533
  19994.877  19994.900  0.500  0.309188  6.771683  12.82  9.410459
  19995.158  19995.200  0.500  0.310236  6.772130  12.8185  9.399456
  19995.439  19995.500  0.500  0.311218  6.779759  12.8322  9.400289
  19995.737  19995.800  0.500  0.312399  6.775981  12.8246  9.383645
  19996.053  19996.100  0.500  0.313454  6.770455  12.8154  9.367041
  19996.369  19996.400  0.500  0.315098  6.765969  12.8063  9.344968
  19996.703  19996.700  0.500  0.316217  6.759890  12.7956  9.326738
  19997.002  19997.000  0.500  0.318095  6.771179  12.8184  9.325827
  19997.283  19997.300  0.500  0.319075  6.760341  12.7981  9.301958
  19997.581  19997.600  0.500  0.320496  6.766792  12.8106  9.297825
  19997.862  19997.900  0.500  0.322007  6.767510  12.811  9.284060
  19998.161  19998.200  0.500  0.324031  6.758535  12.7989  9.256508
  19998.424  19998.500  0.500  0.325507  6.758479  12.7951  9.240103
  19998.758  19998.800  0.500  0.327341  6.755681  12.789  9.218792
  19999.039  19999.100  0.500  0.329624  6.756764  12.7913  9.199423
  19999.373  19999.400  0.500  0.331656  6.757210  12.7902  9.179958
  19999.671  19999.700  0.500  0.334092  6.755401  12.7854  9.154165
  20000.005  20000.000  0.500  0.336964  6.752120  12.7815  9.125177
  20000.269  20000.300  0.500  0.339424  6.753625  12.7863  9.106161
  20000.567  20000.600  0.500  0.342515  6.753977  12.7848  9.077002
  20000.866  20000.900  0.500  0.345819  6.754676  12.7852  9.047316
  20001.165  20001.200  0.500  0.349423  6.751409  12.7814  9.012120
  20001.446  20001.500  0.500  0.352647  6.757165  12.7914  8.990121
  20001.780  20001.800  0.500  0.357581  6.754194  12.7857  8.941896
  20002.096  20002.100  0.500  0.362667  6.747943  12.775  8.889055
  20002.412  20002.400  0.500  0.368216  6.745270  12.7724  8.838099
  20002.711  20002.700  0.500  0.374144  6.745009  12.7713  8.785094
  20002.975  20003.000  0.500  0.380116  6.744473  12.7632  8.727266
  20003.273  20003.300  0.500  0.387258  6.743969  12.7671  8.667805
  20003.572  20003.600  0.500  0.394829  6.745006  12.768  8.603003
  20003.871  20003.900  0.500  0.403491  6.743295  12.7624  8.525095
  20004.170  20004.200  0.500  0.413231  6.738969  12.7609  8.441469
  20004.503  20004.500  0.500  0.424470  6.739002  12.7587  8.345678
  20004.785  20004.800  0.500  0.435543  6.748148  12.7727  8.262823
  20005.119  20005.100  0.500  0.449157  6.756818  12.7939  8.164599
  20005.417  20005.400  0.500  0.461773  6.750147  12.7806  8.053911
  20005.699  20005.700  0.500  0.475290  6.750504  12.7779  7.944073
  20006.015  20006.000  0.500  0.490321  6.747905  12.778  7.825659
  20006.296  20006.300  0.500  0.505529  6.750740  12.7838  7.710999
  20006.595  20006.600  0.500  0.521447  6.751519  12.7833  7.588953
  20006.912  20006.900  0.500  0.538865  6.750918  12.7825  7.457457
  20007.210  20007.200  0.500  0.556004  6.752479  12.786  7.332696
  20007.527  20007.500  0.500  0.574137  6.746910  12.7726  7.193401
  20007.826  20007.800  0.500  0.590928  6.746046  12.7728  7.073763
  20008.125  20008.100  0.500  0.607098  6.747381  12.7746  6.961240
  20008.423  20008.400  0.500  0.623266  6.744671  12.7713  6.847868
  20008.722  20008.700  0.500  0.639828  6.744596  12.768  6.733609
  20009.004  20009.000  0.500  0.655504  6.745160  12.7689  6.629374
  20009.303  20009.300  0.500  0.671776  6.744579  12.7757  6.525814
  20009.619  20009.600  0.500  0.687149  6.743392  12.7667  6.421740
  20009.918  20009.900  0.500  0.703243  6.739529  12.7604  6.316127
  20010.217  20010.200  0.500  0.719100  6.738462  12.7597  6.216405
  20010.534  20010.500  0.500  0.733799  6.739004  12.7581  6.124919
  20010.815  20010.800  0.500  0.747039  6.735702  12.7543  6.042582
  20011.079  20011.100  0.500  0.761170  6.732313  12.7498  5.955676
  20011.413  20011.400  0.500  0.776406  6.733099  12.7519  5.866605
  20011.712  20011.700  0.500  0.791419  6.732809  12.7482  5.777477
  20012.028  20012.000  0.500  0.805930  6.725678  12.7421  5.691556
  20012.345  20012.300  0.500  0.821044  6.735711  12.7558  5.612198
  20012.662  20012.600  0.500  0.836316  6.725682  12.7402  5.520393
  20012.943  20012.900  0.500  0.850012  6.728452  12.7412  5.445704
  20013.225  20013.200  0.500  0.865072  6.726780  12.7358  5.362030
  20013.524  20013.500  0.500  0.878351  6.722147  12.7274  5.287813
  20013.787  20013.800  0.500  0.893120  6.724422  12.7331  5.212649
  20014.086  20014.100  0.500  0.907857  6.727971  12.7452  5.141249
  20014.386  20014.400  0.500  0.922794  6.723220  12.7368  5.061688
  20014.702  20014.700  0.500  0.938293  6.720965  12.7283  4.980535
  20015.001  20015.000  0.500  0.953689  6.723154  12.7326  4.906082
  20015.336  20015.300  0.500  0.971823  6.722640  12.7311  4.817354
  20015.600  20015.600  0.500  0.988234  6.722820  12.7305  4.738718
  20015.916  20015.900  0.500  1.004012  6.722089  12.7277  4.663501
  20016.198  20016.200  0.500  1.022092  6.720829  12.7286  4.580272
  20016.497  20016.500  0.500  1.041102  6.720482  12.7308  4.494789
  20016.814  20016.800  0.500  1.060513  6.716732  12.7235  4.405874
  20017.095  20017.100  0.500  1.080045  6.715093  12.7159  4.318072
  20017.430  20017.400  0.500  1.101975  6.710606  12.7124  4.223233
  20017.729  20017.700  0.500  1.123420  6.714101  12.7176  4.135328
  20018.010  20018.000  0.500  1.144846  6.712263  12.7154  4.046961
  20018.309  20018.300  0.500  1.166740  6.707567  12.7076  3.956902
  20018.591  20018.600  0.500  1.187046  6.709138  12.7057  3.876777
  20018.908  20018.900  0.500  1.208382  6.713410  12.7179  3.798592
  20019.207  20019.200  0.500  1.230638  6.702222  12.6969  3.708857
  20019.506  20019.500  0.500  1.251756  6.704779  12.7009  3.632473
  20019.788  20019.800  0.500  1.272666  6.704498  12.6964  3.556043
  20020.105  20020.100  0.500  1.291842  6.704007  12.6947  3.488034
  20020.404  20020.400  0.500  1.310646  6.710007  12.7117  3.427658
  20020.686  20020.700  0.500  1.326600  6.699443  12.6918  3.368125
  20020.985  20021.000  0.500  1.341901  6.700740  12.6967  3.318275
  20021.267  20021.300  0.500  1.356451  6.700953  12.6943  3.269719
  20021.584  20021.600  0.500  1.369194  6.699027  12.6926  3.227887
  20021.865  20021.900  0.500  1.380263  6.700367  12.6914  3.192046
  20022.200  20022.200  0.500  1.390386  6.697904  12.685  3.158288
  20022.499  20022.500  0.500  1.397593  6.695366  12.6826  3.135033
  20022.798  20022.800  0.500  1.403937  6.703223  12.698  3.118977
  20023.062  20023.100  0.500  1.407731  6.697148  12.6893  3.105041
  20023.397  20023.400  0.500  1.409909  6.697916  12.6877  3.097906
  20023.679  20023.700  0.500  1.410512  6.693652  12.6781  3.093698
  20023.961  20024.000  0.500  1.410111  6.693827  12.6811  3.095651
  20024.260  20024.300  0.500  1.407862  6.692172  12.6793  3.102190
  20024.489  20024.500  0.500  1.406070  6.692604  12.6808  3.108130
  20025.493  20025.490  0.500  1.388815  6.699121  12.6915  3.164892
  20026.479  20026.490  0.500  1.366357  6.690239  12.671  3.231544
  20027.553  20027.510  0.500  1.346094  6.693059  12.68  3.300039
  20028.505  20028.560  0.500  1.334323  6.687389  12.668  3.335956
  20029.632  20029.620  0.500  1.331705  6.679435  12.6511  3.340233
  20030.672  20030.700  0.500  1.337875  6.682100  12.6578  3.321449
  20031.835  20031.800  0.500  1.348441  6.675463  12.6487  3.284163
  20032.945  20032.920  0.500  1.360096  6.677570  12.65  3.246451
  20034.091  20034.060  0.500  1.368649  6.674520  12.6421  3.216793
  20035.219  20035.210  0.500  1.373245  6.676341  12.6466  3.203189
  20036.436  20036.390  0.500  1.375231  6.673740  12.6393  3.194983
  20037.600  20037.580  0.500  1.375150  6.671898  12.6404  3.195524
  20038.869  20038.800  0.500  1.376691  6.668530  12.6353  3.189296
  20040.051  20040.030  0.500  1.381097  6.663315  12.6225  3.172080
  20041.339  20041.280  0.500  1.390036  6.662446  12.6202  3.143277
  20042.573  20042.550  0.500  1.402109  6.654198  12.6091  3.102826
  20043.826  20043.840  0.500  1.415610  6.654614  12.6094  3.061280
  20045.203  20045.150  0.500  1.431358  6.645847  12.5914  3.009156
  20046.491  20046.480  0.500  1.446842  6.651188  12.6021  2.965437
  20047.832  20047.830  0.500  1.463620  6.640655  12.5816  2.911345
  20049.209  20049.200  0.500  1.478781  6.638238  12.5769  2.866477
  20050.551  20050.580  0.500  1.488083  6.636644  12.5726  2.838968
  20051.999  20051.990  0.500  1.488144  6.632179  12.5668  2.837472
  20053.429  20053.410  0.500  1.475322  6.627620  12.5551  2.871422
  20054.842  20054.850  0.500  1.452953  6.623374  12.5512  2.935456
  20056.326  20056.310  0.500  1.425012  6.625567  12.5537  3.019228
  20057.846  20057.790  0.500  1.397629  6.626818  12.5543  3.103202
  20059.312  20059.290  0.500  1.377448  6.620354  12.5431  3.163649
  20060.832  20060.810  0.500  1.363224  6.618767  12.5415  3.208553
  20062.370  20062.350  0.500  1.357320  6.613638  12.5311  3.224870
  20063.979  20063.910  0.500  1.357392  6.613228  12.5315  3.224736
  20065.517  20065.480  0.500  1.362095  6.607777  12.5185  3.206286
  20067.109  20067.080  0.500  1.370285  6.603327  12.5135  3.178865
  20068.683  20068.690  0.500  1.378090  6.600023  12.5027  3.151436
  20070.346  20070.330  0.500  1.384641  6.597293  12.5047  3.131340
  20071.991  20071.980  0.500  1.387220  6.589556  12.4868  3.118813
  20073.655  20073.650  0.500  1.385890  6.579768  12.469  3.118512
  20075.318  20075.340  0.500  1.381350  6.579848  12.4692  3.132745
  20077.053  20077.050  0.500  1.375316  6.583824  12.478  3.153931
  20078.806  20078.780  0.500  1.368699  6.572346  12.4509  3.167973
  20080.559  20080.530  0.500  1.362480  6.570257  12.449  3.187260
  20082.383  20082.290  0.500  1.359175  6.569281  12.449  3.197819
  20084.155  20084.080  0.500  1.359840  6.563148  12.4364  3.192459
  20085.909  20085.880  0.500  1.366312  6.560365  12.4317  3.170646
  20087.734  20087.710  0.500  1.379021  6.558295  12.4263  3.129251
  20089.595  20089.550  0.500  1.395456  6.557842  12.4278  3.078622
  20091.457  20091.410  0.500  1.412091  6.546945  12.4103  3.023560
  20093.283  20093.290  0.500  1.423092  6.543174  12.398  2.987530
  20095.198  20095.190  0.500  1.427096  6.545682  12.4052  2.977315
  20097.096  20097.110  0.500  1.421600  6.530459  12.3763  2.986748
  20099.101  20099.050  0.500  1.406428  6.527295  12.3719  3.031318
  20101.017  20101.010  0.500  1.387479  6.525370  12.3678  3.088290
  20103.040  20102.980  0.500  1.368939  6.518037  12.356  3.143083
  20105.011  20104.980  0.500  1.356302  6.515427  12.3471  3.180756
  20107.070  20106.990  0.500  1.350310  6.517576  12.3498  3.200573
  20109.041  20109.020  0.500  1.350603  6.506705  12.333  3.195294
  20111.137  20111.080  0.500  1.353908  6.503536  12.3272  3.183251
  20113.198  20113.150  0.500  1.357726  6.499967  12.3194  3.169100
  20115.295  20115.240  0.500  1.360216  6.491414  12.3034  3.157116
  20117.374  20117.350  0.500  1.361534  6.488563  12.2956  3.150953
  20119.508  20119.480  0.500  1.363213  6.482862  12.2846  3.142856
  20121.641  20121.620  0.500  1.364256  6.477510  12.2751  3.137160
  20123.811  20123.790  0.500  1.366626  6.474514  12.2736  3.129355
  20126.017  20125.980  0.500  1.371163  6.465500  12.2588  3.111414
  20128.223  20128.180  0.500  1.378698  6.462350  12.2474  3.085200
  20130.430  20130.400  0.500  1.387147  6.461265  12.2446  3.058549
  20132.655  20132.650  0.500  1.396354  6.454776  12.2345  3.028003
  20134.934  20134.910  0.500  1.401724  6.449460  12.2247  3.009388
  20137.213  20137.190  0.500  1.402207  6.446731  12.2195  3.006647
  20139.529  20139.490  0.500  1.397073  6.441562  12.2111  3.020050
  20141.774  20141.810  0.500  1.388531  6.429179  12.1867  3.039866
  20144.162  20144.150  0.500  1.377030  6.424299  12.1794  3.073188
  20146.514  20146.500  0.500  1.364148  6.421404  12.1728  3.111357
  20148.886  20148.880  0.500  1.350040  6.421144  12.1727  3.155524
  20151.364  20151.270  0.500  1.335709  6.410997  12.1512  3.195428
  20153.772  20153.690  0.500  1.326134  6.409643  12.148  3.225328
  20156.145  20156.120  0.500  1.321004  6.401703  12.1379  3.239210
  20158.608  20158.570  0.500  1.318545  6.390717  12.1179  3.241836
  20161.054  20161.050  0.500  1.316850  6.395724  12.1234  3.248816
  20163.553  20163.540  0.500  1.315788  6.381226  12.0996  3.245860
  20166.036  20166.050  0.500  1.316752  6.377220  12.0918  3.240643
  20168.590  20168.570  0.500  1.321620  6.372465  12.0821  3.222326
  20171.199  20171.120  0.500  1.328165  6.367295  12.0721  3.198657
  20173.701  20173.690  0.500  1.333448  6.360234  12.058  3.178089
  20176.347  20176.270  0.500  1.338494  6.355249  12.0493  3.159824
  20178.922  20178.880  0.500  1.341880  6.353491  12.044  3.147735
  20181.480  20181.500  0.500  1.342319  6.339800  12.0189  3.139806
  20184.164  20184.150  0.500  1.341116  6.333314  12.0076  3.140633
  20186.812  20186.810  0.500  1.340112  6.329206  11.9989  3.141514
  20189.515  20189.490  0.500  1.345534  6.327120  11.9995  3.124664
  20192.255  20192.190  0.500  1.357330  6.312511  11.9703  3.080510
  20194.942  20194.910  0.500  1.373331  6.309353  11.9632  3.029827
  20197.718  20197.650  0.500  1.389673  6.305693  11.9563  2.978986
  20200.407  20200.400  0.500  1.399366  6.298846  11.9468  2.947922
  20203.203  20203.180  0.500  1.401172  6.298186  11.9445  2.942016
  20205.946  20205.970  0.500  1.393145  6.285222  11.9197  2.959585
  20208.816  20208.790  0.500  1.376706  6.280293  11.9104  3.006293
  20211.650  20211.620  0.500  1.354100  6.273860  11.8977  3.071732
  20214.540  20214.470  0.500  1.326703  6.289129  11.9249  3.164271
  20217.394  20217.350  0.500  1.300025  6.284499  11.9185  3.248082
  20220.285  20220.240  0.500  1.277448  6.273088  11.8972  3.316307
  20223.104  20223.150  0.500  1.263993  6.273125  11.8956  3.360787
  20226.069  20226.070  0.500  1.262823  6.266753  11.8869  3.362273
  20229.052  20229.020  0.500  1.270011  6.260152  11.8715  3.333870
  20232.000  20231.990  0.500  1.279450  6.253767  11.8559  3.298187
  20235.057  20234.970  0.500  1.285348  6.246563  11.8473  3.276434
  20238.007  20237.980  0.500  1.288063  6.241169  11.8358  3.264368
  20241.012  20241.000  0.500  1.289831  6.232206  11.8192  3.254029
  20244.089  20244.050  0.500  1.294351  6.224775  11.8073  3.236099
  20247.096  20247.110  0.500  1.300878  6.214888  11.7882  3.209845
  20250.229  20250.190  0.500  1.311186  6.212444  11.7827  3.175449
  20253.346  20253.290  0.500  1.322861  6.204848  11.7691  3.134954
  20256.427  20256.410  0.500  1.333840  6.198101  11.758  3.097814
  20259.618  20259.550  0.500  1.343010  6.192267  11.7457  3.066328
  20262.683  20262.700  0.500  1.348314  6.184431  11.7324  3.046640
  20265.876  20265.880  0.500  1.350093  6.179733  11.7253  3.039397
  20269.087  20269.070  0.500  1.349571  6.173121  11.7098  3.036968
  20272.318  20272.290  0.500  1.349874  6.163850  11.6923  3.031504
  20275.531  20275.520  0.500  1.349872  6.153522  11.6738  3.026702
  20278.782  20278.770  0.500  1.347726  6.148933  11.6646  3.030806
  20282.070  20282.050  0.500  1.342137  6.144559  11.6587  3.046263
  20285.359  20285.340  0.500  1.334401  6.132605  11.6352  3.063742
  20288.577  20288.650  0.500  1.325101  6.126788  11.6237  3.089315
  20291.959  20291.970  0.500  1.311676  6.121758  11.6106  3.127524
  20295.377  20295.320  0.500  1.296661  6.119035  11.6074  3.173960
  20298.689  20298.690  0.500  1.285283  6.102738  11.5778  3.202093
  20302.056  20302.070  0.500  1.276390  6.094752  11.5654  3.227233
  20305.514  20305.480  0.500  1.268995  6.090231  11.5541  3.248029
  20308.865  20308.900  0.500  1.262169  6.084982  11.5452  3.267742
  20312.381  20312.350  0.500  1.258331  6.065488  11.5074  3.269561
  20315.825  20315.810  0.500  1.260758  6.062257  11.4995  3.259395
  20319.342  20319.290  0.500  1.269166  6.057661  11.4963  3.231230
  20322.843  20322.790  0.500  1.278088  6.047878  11.4751  3.196621
  20326.345  20326.310  0.500  1.287560  6.037686  11.4576  3.161660
  20329.794  20329.850  0.500  1.296476  6.036984  11.457  3.133416
  20333.407  20333.400  0.500  1.304964  6.027863  11.44  3.102318
  20337.003  20336.980  0.500  1.311697  6.016521  11.4171  3.075335
  20340.619  20340.580  0.500  1.316768  6.012497  11.4092  3.057667
  20344.291  20344.190  0.500  1.320424  6.004093  11.3936  3.042352
  20347.855  20347.820  0.500  1.321294  5.995218  11.3761  3.035031
  20351.456  20351.480  0.500  1.320831  5.992935  11.371  3.035062
  20355.150  20355.150  0.500  1.318430  5.983076  11.3535  3.037671
  20358.864  20358.840  0.500  1.313545  5.967949  11.326  3.045158
  20362.597  20362.550  0.500  1.308061  5.960189  11.3093  3.057397
  20366.331  20366.280  0.500  1.304668  5.954098  11.3017  3.065724
  20370.049  20370.020  0.500  1.302216  5.944149  11.2799  3.067335
  20373.822  20373.790  0.500  1.300591  5.938280  11.2711  3.069917
  20377.597  20377.580  0.500  1.295014  5.926008  11.2462  3.080257
  20381.447  20381.380  0.500  1.286482  5.915278  11.227  3.101347
  20385.297  20385.210  0.500  1.277623  5.911516  11.2191  3.126749
  20389.131  20389.050  0.500  1.272540  5.904452  11.2052  3.138797
  20392.930  20392.910  0.500  1.271903  5.894900  11.1888  3.136200
  20396.786  20396.790  0.500  1.272348  5.884349  11.1704  3.129652
  20400.770  20400.690  0.500  1.272664  5.876337  11.1552  3.124397
  20404.702  20404.610  0.500  1.270926  5.868706  11.1417  3.126041
  20408.634  20408.550  0.500  1.268883  5.861007  11.1266  3.128184
  20412.532  20412.510  0.500  1.267421  5.852914  11.1084  3.127657
  20416.505  20416.480  0.500  1.269761  5.846760  11.1008  3.118190
  20420.497  20420.480  0.500  1.273974  5.831866  11.0724  3.097155
  20424.546  20424.490  0.500  1.277774  5.829013  11.0662  3.083677
  20428.578  20428.530  0.500  1.278785  5.816162  11.0423  3.073911
  20432.612  20432.580  0.500  1.278809  5.804207  11.022  3.068191
  20436.684  20436.650  0.500  1.276146  5.794160  11.0018  3.070713
  20440.758  20440.740  0.500  1.274562  5.784931  10.9848  3.070852
  20444.907  20444.850  0.500  1.273699  5.778295  10.9722  3.069965
  20449.094  20448.980  0.500  1.274828  5.766228  10.9516  3.060743
  20453.209  20453.130  0.500  1.278291  5.762542  10.9408  3.047145
  20457.363  20457.290  0.500  1.282685  5.752322  10.9205  3.028168
  20461.519  20461.480  0.500  1.285549  5.742209  10.9028  3.014624
  20465.750  20465.680  0.500  1.284913  5.731866  10.8856  3.011768
  20469.982  20469.910  0.500  1.281395  5.725071  10.8743  3.019248
  20474.217  20474.150  0.500  1.278456  5.713213  10.8484  3.020922
  20478.471  20478.410  0.500  1.276042  5.702897  10.8302  3.023141
  20482.709  20482.690  0.500  1.272558  5.697814  10.8183  3.030355
  20487.060  20486.990  0.500  1.266730  5.684370  10.7937  3.041134
  20491.338  20491.310  0.500  1.261255  5.674850  10.781  3.054253
  20495.692  20495.650  0.500  1.257568  5.665944  10.7577  3.058892
  20500.066  20500.010  0.500  1.256942  5.657474  10.7451  3.057214
  20504.406  20504.390  0.500  1.256846  5.644417  10.7178  3.049744
  20508.728  20508.780  0.500  1.258124  5.638176  10.7066  3.042682
  20513.256  20513.200  0.500  1.259013  5.620855  10.678  3.031857
  20517.675  20517.630  0.500  1.258568  5.613760  10.663  3.028949
  20522.133  20522.080  0.500  1.257800  5.606920  10.6486  3.027168
  20526.592  20526.550  0.500  1.255998  5.586552  10.6128  3.022432
  20531.072  20531.040  0.500  1.254068  5.468790  10.3879  2.964102
  20535.555  20535.550  0.500  1.252258  5.544824  10.5337  3.011147
  20540.113  20540.080  0.500  1.250847  5.569252  10.5785  3.028235
  20544.673  20544.630  0.500  1.250544  5.559017  10.5617  3.024337
  20549.235  20549.200  0.500  1.251631  5.547471  10.537  3.013980
  20553.837  20553.780  0.500  1.253462  5.538217  10.5233  3.004568
  20558.422  20558.390  0.500  1.253264  5.521615  10.4901  2.995659
  20563.065  20563.010  0.500  1.251733  5.512445  10.4717  2.994999
  20567.709  20567.660  0.500  1.249748  5.496553  10.4428  2.992667
  20572.301  20572.320  0.500  1.249103  5.483755  10.4194  2.987897
  20577.024  20577.000  0.500  1.249240  5.446800  10.3507  2.967771
  20581.712  20581.700  0.500  1.249833  5.323689  10.1144  2.898320
  20586.496  20586.420  0.500  1.252777  5.469712  10.3935  2.969537
  20591.282  20591.160  0.500  1.256605  5.464269  10.384  2.955483
  20595.977  20595.910  0.500  1.260257  5.446417  10.3499  2.935042
  20600.693  20600.690  0.500  1.260054  5.433503  10.3247  2.928495
  20605.504  20605.490  0.500  1.256410  5.418669  10.2978  2.931513
  20610.355  20610.300  0.500  1.251516  5.409644  10.2825  2.941535
  20615.189  20615.130  0.500  1.245416  5.397504  10.2603  2.953137
  20620.100  20619.990  0.500  1.239404  5.380441  10.2298  2.962115
  20624.939  20624.860  0.500  1.235063  5.338653  10.1479  2.951176
  20629.799  20629.750  0.500  1.232989  5.235029  9.949094  2.899367
  20634.755  20634.660  0.500  1.232670  5.364250  10.1995  2.973291
  20639.694  20639.590  0.500  1.231755  5.356074  10.1808  2.970556
  20644.674  20644.530  0.500  1.229784  5.341332  10.1528  2.968217
  20649.618  20649.500  0.500  1.226978  5.328374  10.1272  2.969064
  20654.602  20654.490  0.500  1.225275  5.316960  10.1052  2.967676
  20659.570  20659.490  0.500  1.225999  5.304549  10.0846  2.959463
  20664.615  20664.520  0.500  1.228783  5.289723  10.0602  2.944100
  20669.738  20669.560  0.500  1.230506  5.278349  10.0359  2.931926
  20674.769  20674.620  0.500  1.231395  5.257255  9.996994  2.917974
  20679.934  20679.700  0.500  1.231568  5.118739  9.733582  2.840596
  20684.651  20684.800  0.500  1.230470  5.243433  9.969923  2.912766
  20689.822  20689.920  0.500  1.229362  5.237404  9.956364  2.912028
  20694.976  20695.060  0.500  1.228986  5.225353  9.935329  2.906970
  20700.151  20700.220  0.500  1.228643  5.215548  9.914731  2.901937
  20705.329  20705.400  0.500  1.229362  5.197960  9.887279  2.891823
  20710.510  20710.590  0.500  1.229717  5.187863  9.866528  2.884728
  20715.750  20715.810  0.500  1.230445  5.176094  9.843108  2.875786
  20721.011  20721.040  0.500  1.230837  5.162378  9.816768  2.866968
  20726.257  20726.290  0.500  1.229437  5.153311  9.800529  2.866236
  20731.486  20731.560  0.500  1.226540  5.139565  9.773962  2.866759
  20736.774  20736.850  0.500  1.224448  5.128778  9.755183  2.867242
  20742.178  20742.160  0.500  1.221817  5.117327  9.732129  2.868002
  20747.491  20747.490  0.500  1.218700  5.103314  9.708955  2.870104
  20752.844  20752.840  0.500  1.214971  5.092310  9.685213  2.873783
  20758.219  20758.210  0.500  1.212720  5.084923  9.670810  2.875975
  20763.559  20763.590  0.500  1.211336  5.068374  9.640643  2.870975
  20768.940  20769.000  0.500  1.210151  5.057626  9.620233  2.868293
  20774.380  20774.420  0.500  1.207133  5.044545  9.595413  2.869543
  20779.842  20779.870  0.500  1.204314  5.031607  9.571775  2.870552
  20785.364  20785.330  0.500  1.201794  5.021759  9.551854  2.871807
  20790.832  20790.810  0.500  1.201462  5.007844  9.526430  2.865114
  20796.341  20796.310  0.500  1.202125  4.994976  9.503246  2.856246
  20801.853  20801.830  0.500  1.204191  4.985658  9.485524  2.845036
  20807.349  20807.370  0.500  1.207318  4.972958  9.464010  2.829720
  20812.942  20812.920  0.500  1.209651  4.959369  9.437738  2.815289
  20818.558  20818.500  0.500  1.209174  4.947522  9.411266  2.808734
  20824.158  20824.100  0.500  1.207265  4.934114  9.389471  2.807583
  20829.723  20829.710  0.500  1.205400  4.923538  9.368363  2.806501
  20835.367  20835.350  0.500  1.204484  4.907988  9.338246  2.800043
  20840.995  20841.000  0.500  1.203898  4.890693  9.307979  2.792604
  20846.702  20846.670  0.500  1.204341  4.883204  9.294537  2.787334
  20852.412  20852.360  0.500  1.204029  4.870068  9.268104  2.780275