File: xdidata/Data/Mn/Mn-K-Mn3O4.xdi
# XDI/1.0 BlueSky/1.5.3
# Beamline.name: 6BM
# Beamline.xray_source: NSLS-II three-pole wiggler
# Beamline.collimation: paraboloid mirror, 5 nm Rh on 30 nm Pt
# Beamline.focusing: not in use
# Beamline.harmonic_rejection: flat mirror, Si stripe, pitch = 7.0 mrad relative to beam
# Detector.i0: 10 cm N2
# Detector.I1: 25 cm N2
# Detector.I2: 25 cm N2
# Element.symbol: Mn
# Element.edge: K
# Facility.name: NSLS-II
# Facility.energy: 3.0
# Facility.current: 400.7
# Facility.mode: top-off
# Facility.GUP: 305832
# Facility.SAF: 305669
# Facility.cycle: 2020-1
# Mono.name: Si(111)
# Mono.d_spacing: 3.13532
# Mono.encoder_resolution: 0.0000050 deg/ct
# Mono.angle_offset: 16.0581 deg
# Mono.scan_mode: fixed exit
# Mono.scan_type: step
# Mono.direction: forward in energy
# Sample.name: Mn3O4
# Sample.prep: Powder in polyethylene glycol pellet
# Sample.x_position: -2.106 mm
# Sample.y_position: 103.734 mm
# Scan.experimenters: Neil Hyatt, Martin Stennett, Dan Austin, Seb Lawson
# Scan.edge_energy: 6539.0
# Scan.start_time: 2020-03-03T18:49:47
# Scan.end_time: 2020-03-03T19:01:39
# Scan.transient_id: 22670
# Scan.uid: c353bdda-aa47-43ee-b046-8776d13863b4
# Scan.plot_hint: ln(i0/itrans)  --  ln($5/$6)
# Column.1: energy eV
# Column.2: requested_energy eV
# Column.3: measurement_time seconds
# Column.4: mutrans
# Column.5: i0
# Column.6: itrans
# Column.7: irefer
# ///////////
#
# -----------
#  energy  requested_energy  measurement_time  mutrans  i0  itrans  irefer
6339.005  6339.000  1.000  1.891328  127.513  19.2381  1.498419
6349.007  6349.000  1.000  1.879413  127.594  19.481  1.534711
6359.010  6359.000  1.000  1.867597  127.691  19.7275  1.567994
6369.012  6369.000  1.000  1.856104  127.734  19.9623  1.595750
6379.017  6379.000  1.000  1.844274  127.807  20.2113  1.644618
6389.014  6389.000  1.000  1.832741  127.876  20.4569  1.679976
6399.012  6399.000  1.000  1.821232  127.954  20.7063  1.713251
6409.014  6409.000  1.000  1.809755  127.979  20.9495  1.759400
6419.012  6419.000  1.000  1.798409  128.031  21.1972  1.801812
6429.013  6429.000  1.000  1.787041  128.056  21.4436  1.835252
6439.005  6439.000  1.000  1.775870  128.103  21.6924  1.873704
6449.002  6449.000  1.000  1.764624  127.144  21.7735  1.909194
6459.011  6459.000  1.000  1.753946  126.973  21.9778  1.940713
6469.004  6469.000  1.000  1.743680  128.076  22.3974  1.991110
6479.003  6479.000  1.000  1.733390  128.093  22.632  2.035023
6489.003  6489.000  1.000  1.723913  128.151  22.8579  2.065228
6499.004  6499.000  1.000  1.714993  128.14  23.0607  2.113843
6508.999  6509.000  1.000  1.708096  128.186  23.2286  2.119237
6511.002  6511.000  1.000  1.707070  128.132  23.2427  2.128933
6512.996  6513.000  1.000  1.706183  128.13  23.263  2.127874
6514.998  6515.000  1.000  1.705470  128.143  23.282  2.123802
6516.998  6517.000  1.000  1.705139  128.136  23.2884  2.119936
6518.999  6519.000  1.000  1.704755  128.135  23.297  2.130624
6521.001  6521.000  1.000  1.705117  128.103  23.2829  2.109765
6522.998  6523.000  1.000  1.705744  128.071  23.2624  2.096800
6525.003  6525.000  1.000  1.707075  128.059  23.2293  2.092250
6526.998  6527.000  1.000  1.709137  128.078  23.185  2.059420
6529.000  6529.000  1.000  1.712531  128.064  23.1038  2.026847
6529.243  6529.250  1.000  1.713124  128.016  23.0815  2.027345
6529.490  6529.500  1.000  1.713613  127.983  23.0642  2.020556
6529.736  6529.750  1.000  1.714237  127.933  23.0408  2.008710
6529.985  6530.000  1.000  1.714909  127.952  23.0288  2.010452
6530.236  6530.250  1.000  1.715649  127.89  23.0006  2.005649
6530.491  6530.500  1.000  1.716363  127.849  22.9768  2.003089
6530.740  6530.750  1.000  1.717046  127.854  22.9621  1.988879
6530.990  6531.000  1.000  1.717823  127.83  22.9398  1.973437
6531.237  6531.250  1.000  1.718647  127.78  22.912  1.969735
6531.488  6531.500  1.000  1.719509  127.777  22.8919  1.958644
6531.741  6531.750  1.000  1.720482  127.728  22.8608  1.947738
6531.991  6532.000  1.000  1.721418  127.751  22.8434  1.946249
6532.240  6532.250  1.000  1.722483  127.711  22.812  1.936440
6532.490  6532.500  1.000  1.723593  127.707  22.786  1.921591
6532.745  6532.750  1.000  1.724739  127.679  22.7548  1.910777
6533.000  6533.000  1.000  1.725880  127.683  22.7296  1.897078
6533.246  6533.250  1.000  1.727272  127.657  22.6934  1.881721
6533.497  6533.500  1.000  1.728715  127.624  22.6548  1.863497
6533.747  6533.750  1.000  1.730454  127.609  22.6129  1.849070
6534.000  6534.000  1.000  1.731978  127.599  22.5766  1.829135
6534.250  6534.250  1.000  1.733743  127.581  22.5336  1.812966
6534.498  6534.500  1.000  1.735659  127.546  22.4843  1.785141
6534.747  6534.750  1.000  1.737662  127.509  22.4329  1.763998
6534.995  6535.000  1.000  1.739945  127.504  22.3808  1.737188
6535.248  6535.250  1.000  1.742395  127.509  22.3268  1.707709
6535.498  6535.500  1.000  1.745144  127.499  22.2638  1.665645
6535.746  6535.750  1.000  1.748213  127.432  22.184  1.620607
6535.996  6536.000  1.000  1.751755  127.434  22.1059  1.572096
6536.248  6536.250  1.000  1.755734  127.567  22.041  1.518118
6536.497  6536.500  1.000  1.760056  127.575  21.9473  1.450747
6536.754  6536.750  1.000  1.765583  127.738  21.8543  1.356979
6537.002  6537.000  1.000  1.771984  127.711  21.7103  1.253246
6537.254  6537.250  1.000  1.780397  127.707  21.5277  1.108666
6537.500  6537.500  1.000  1.790931  127.716  21.3037  0.942809
6537.750  6537.750  1.000  1.805171  127.674  20.9955  0.769960
6538.002  6538.000  1.000  1.825000  127.642  20.5782  0.600554
6538.247  6538.250  1.000  1.853433  127.605  19.9955  0.468883
6538.497  6538.500  1.000  1.894861  127.653  19.1913  0.361277
6538.749  6538.750  1.000  1.951312  127.65  18.1374  0.292529
6538.999  6539.000  1.000  2.017682  127.618  16.9685  0.228239
6539.252  6539.250  1.000  2.076317  127.62  16.0025  0.195181
6539.506  6539.500  1.000  2.103595  127.637  15.5739  0.169621
6539.754  6539.750  1.000  2.093711  127.593  15.7231  0.154354
6540.001  6540.000  1.000  2.064193  127.552  16.189  0.146545
6540.258  6540.250  1.000  2.036136  127.58  16.6533  0.137430
6540.506  6540.500  1.000  2.025067  127.607  16.8422  0.131199
6540.755  6540.750  1.000  2.030202  127.602  16.7553  0.124996
6541.003  6541.000  1.000  2.045568  127.594  16.4988  0.111677
6541.255  6541.250  1.000  2.065897  127.548  16.1609  0.102715
6541.502  6541.500  1.000  2.087111  127.552  15.8222  0.116469
6541.752  6541.750  1.000  2.108567  127.576  15.4893  0.101689
6542.002  6542.000  1.000  2.130541  127.527  15.1468  0.103418
6542.253  6542.250  1.000  2.154441  127.571  14.7941  0.098788
6542.503  6542.500  1.000  2.180653  127.55  14.409  0.103283
6542.755  6542.750  1.000  2.210646  127.533  13.9814  0.096999
6543.007  6543.000  1.000  2.244640  127.544  13.5153  0.085778
6543.277  6543.250  1.000  2.286890  127.528  12.9546  0.079126
6543.488  6543.500  1.000  2.325561  127.505  12.4608  0.071741
6543.748  6543.750  1.000  2.378566  127.539  11.8207  0.073256
6544.068  6544.000  1.000  2.449387  127.527  11.0115  0.051631
6544.281  6544.250  1.000  2.518583  127.514  10.2743  0.050926
6544.504  6544.500  1.000  2.596780  127.487  9.499485  0.056288
6544.751  6544.750  1.000  2.691545  127.493  8.640953  0.047790
6544.996  6545.000  1.000  2.800929  127.521  7.747327  0.037247
6545.243  6545.250  1.000  2.925249  127.501  6.840606  0.041535
6545.492  6545.500  1.000  3.067964  127.52  5.931711  0.030855
6545.743  6545.750  1.000  3.232115  127.52  5.033706  0.026302
6545.999  6546.000  1.000  3.407846  127.511  4.222213  0.025495
6546.249  6546.250  1.000  3.584578  127.494  3.537755  0.019632
6546.500  6546.500  1.000  3.750147  127.489  2.997808  0.022485
6546.750  6546.750  1.000  3.898941  127.51  2.583781  0.016267
6546.999  6547.000  1.000  4.022235  127.494  2.283791  0.014998
6547.252  6547.250  1.000  4.130681  127.475  2.048775  0.011195
6547.499  6547.500  1.000  4.225339  127.495  1.864027  0.013377
6547.750  6547.750  1.000  4.319008  127.496  1.697371  0.010423
6547.999  6548.000  1.000  4.412717  127.49  1.545459  0.014705
6548.249  6548.250  1.000  4.508000  127.488  1.404979  0.014174
6548.500  6548.500  1.000  4.605582  127.48  1.274275  0.009265
6548.751  6548.750  1.000  4.702360  127.453  1.156492  0.018856
6548.996  6549.000  1.000  4.800542  127.423  1.048093  0.016545
6549.249  6549.250  1.000  4.905012  127.474  0.944501  0.007823
6549.505  6549.500  1.000  5.009536  127.466  0.850706  0.009698
6549.751  6549.750  1.000  5.113549  127.456  0.766609  -0.000585
6550.000  6550.000  1.000  5.216263  127.469  0.691848  0.000931
6550.249  6550.250  1.000  5.316942  127.45  0.625490  0.001604
6550.504  6550.500  1.000  5.413826  127.478  0.567858  0.010402
6550.755  6550.750  1.000  5.504463  127.467  0.518610  0.009671
6551.002  6551.000  1.000  5.584435  127.483  0.478809  0.005521
6551.248  6551.250  1.000  5.650901  127.485  0.448028  0.010024
6551.499  6551.500  1.000  5.704588  127.5  0.424659  0.010857
6551.750  6551.750  1.000  5.744891  127.472  0.407794  0.001990
6551.999  6552.000  1.000  5.773480  127.457  0.396255  0.011934
6552.248  6552.250  1.000  5.797506  127.431  0.386768  0.008508
6552.494  6552.500  1.000  5.819277  127.461  0.378528  0.007461
6552.747  6552.750  1.000  5.842915  127.459  0.369678  0.006301
6553.002  6553.000  1.000  5.871614  127.441  0.359168  -0.001545
6553.253  6553.250  1.000  5.904523  127.461  0.347597  0.001290
6553.500  6553.500  1.000  5.940688  127.478  0.335295  0.013451
6553.750  6553.750  1.000  5.987364  127.458  0.319954  0.004628
6553.999  6554.000  1.000  6.033895  127.399  0.305267  0.009812
6554.256  6554.250  1.000  6.091147  127.467  0.288433  0.009299
6554.502  6554.500  1.000  6.147507  127.434  0.272556  0.012321
6554.749  6554.750  1.000  6.216473  127.447  0.254418  0.008049
6554.999  6555.000  1.000  6.295900  127.47  0.235035  0.010281
6555.247  6555.250  1.000  6.380108  127.453  0.216025  0.008417
6555.500  6555.500  1.000  6.479388  127.464  0.195626  0.010771
6555.751  6555.750  1.000  6.573187  127.425  0.178056  0.002704
6555.995  6556.000  1.000  6.669718  127.432  0.161681  0.009178
6556.249  6556.250  1.000  6.769219  127.426  0.146360  0.000538
6556.502  6556.500  1.000  6.862025  127.841  0.133823  0.002742
6556.755  6556.750  1.000  6.950402  127.852  0.122514  0.013835
6557.005  6557.000  1.000  7.041200  127.847  0.111876  0.007901
6557.253  6557.250  1.000  7.118730  127.854  0.103536  0.015428
6557.502  6557.500  1.000  7.179136  127.843  0.097458  0.011566
6557.752  6557.750  1.000  7.212582  127.836  0.094247  0.009093
6558.004  6558.000  1.000  7.233106  127.828  0.092327  0.006621
6558.250  6558.250  1.000  7.233822  127.833  0.092264  0.007465
6558.500  6558.500  1.000  7.223482  127.821  0.093214  0.010947
6558.749  6558.750  1.000  7.178640  127.827  0.097494  0.009674
6559.001  6559.000  1.000  7.123833  127.865  0.103018  0.012375
6559.253  6559.250  1.000  7.057234  127.819  0.110072  0.004760
6559.499  6559.500  1.000  6.974163  127.833  0.119620  0.009588
6559.747  6559.750  1.000  6.888309  127.848  0.130358  0.008938
6560.001  6560.000  1.000  6.802066  127.834  0.142084  0.004075
6560.252  6560.250  1.000  6.706521  127.841  0.156339  0.013409
6560.502  6560.500  1.000  6.623245  127.752  0.169797  0.008966
6560.750  6560.750  1.000  6.544052  127.714  0.183735  0.005748
6560.999  6561.000  1.000  6.468554  127.626  0.198007  0.006790
6561.256  6561.250  1.000  6.402350  127.585  0.211493  0.006272
6561.502  6561.500  1.000  6.341920  127.565  0.224632  0.014956
6561.751  6561.750  1.000  6.287280  127.67  0.237443  0.014068
6562.001  6562.000  1.000  6.235660  127.772  0.250221  0.006232
6562.245  6562.250  1.000  6.190194  127.787  0.261891  0.008532
6562.501  6562.500  1.000  6.143404  127.759  0.274376  0.012777
6562.749  6562.750  1.000  6.103300  127.778  0.285645  0.006927
6562.999  6563.000  1.000  6.068532  127.804  0.295811  0.009919
6563.251  6563.250  1.000  6.040946  127.778  0.304024  0.011296
6563.500  6563.500  1.000  6.020168  127.802  0.310464  0.008395
6563.753  6563.750  1.000  6.006290  127.792  0.314778  0.008273
6564.002  6564.000  1.000  5.998265  127.8  0.317335  0.009149
6564.250  6564.250  1.000  5.995921  127.807  0.318095  0.009602
6564.502  6564.500  1.000  5.995874  127.795  0.318082  0.009241
6564.756  6564.750  1.000  6.001216  127.75  0.316276  0.010118
6565.005  6565.000  1.000  6.008228  127.778  0.314135  0.007155
6565.250  6565.250  1.000  6.018927  127.782  0.310802  0.012639
6565.498  6565.500  1.000  6.030085  127.777  0.307341  0.006487
6565.749  6565.750  1.000  6.042475  127.806  0.303626  0.009914
6566.001  6566.000  1.000  6.058716  127.781  0.298674  0.009346
6566.249  6566.250  1.000  6.073399  127.79  0.294343  0.007702
6566.496  6566.500  1.000  6.090281  127.776  0.289384  0.009201
6566.747  6566.750  1.000  6.106257  127.792  0.284833  0.010052
6567.004  6567.000  1.000  6.123159  127.755  0.279977  0.008445
6567.255  6567.250  1.000  6.139032  127.812  0.275692  0.008863
6567.502  6567.500  1.000  6.153055  127.78  0.271785  0.014653
6567.754  6567.750  1.000  6.168042  127.797  0.267776  0.004601
6568.003  6568.000  1.000  6.177990  127.768  0.265066  0.009271
6568.257  6568.250  1.000  6.187834  127.761  0.262456  0.008682
6568.500  6568.500  1.000  6.193573  127.767  0.260966  0.006356
6568.751  6568.750  1.000  6.197572  127.784  0.259960  0.008195
6569.002  6569.000  1.000  6.196997  127.809  0.260159  0.008809
6570.097  6570.080  1.000  6.164959  127.817  0.268647  0.010143
6571.198  6571.180  1.000  6.084710  127.824  0.291109  0.009027
6572.316  6572.290  1.000  6.009938  127.807  0.313670  0.009389
6573.427  6573.430  1.000  5.951606  127.83  0.332571  0.010218
6574.582  6574.580  1.000  5.905075  127.837  0.348431  0.009587
6575.763  6575.760  1.000  5.865940  127.827  0.362306  0.009843
6576.952  6576.950  1.000  5.810506  127.821  0.382940  0.010885
6578.172  6578.160  1.000  5.732662  127.82  0.413937  0.009032
6579.397  6579.390  1.000  5.643938  127.88  0.452554  0.010815
6580.653  6580.640  1.000  5.548694  127.882  0.497786  0.007527
6581.920  6581.910  1.000  5.460350  127.871  0.543717  0.009180
6583.208  6583.200  1.000  5.398250  127.886  0.578617  0.008089
6584.516  6584.510  1.000  5.372804  127.885  0.593525  0.006594
6585.834  6585.830  1.000  5.380109  127.887  0.589215  0.008790
6587.189  6587.180  1.000  5.404247  127.681  0.574239  0.009717
6588.543  6588.540  1.000  5.419814  127.885  0.566272  0.008781
6589.940  6589.930  1.000  5.424108  127.878  0.563815  0.009593
6591.335  6591.330  1.000  5.434572  127.907  0.558072  0.012815
6592.759  6592.750  1.000  5.473894  127.941  0.536697  0.007567
6594.201  6594.190  1.000  5.548829  127.944  0.497958  0.011037
6595.662  6595.650  1.000  5.629699  127.938  0.459254  0.011700
6597.137  6597.130  1.000  5.697063  127.961  0.429412  0.008568
6598.640  6598.630  1.000  5.729292  128  0.415919  0.009469
6600.146  6600.140  1.000  5.736001  128.017  0.413194  0.009570
6601.693  6601.680  1.000  5.737333  127.853  0.412117  0.007078
6603.248  6603.240  1.000  5.741711  128.033  0.410891  0.008433
6604.822  6604.810  1.000  5.756482  128.066  0.404974  0.008523
6606.409  6606.400  1.000  5.777924  128.1  0.396488  0.010149
6608.022  6608.010  1.000  5.809567  128.131  0.384231  0.007542
6609.659  6609.650  1.000  5.839312  128.172  0.373089  0.007348
6611.313  6611.300  1.000  5.861739  128.209  0.364919  0.003596
6612.978  6612.970  1.000  5.872629  128.237  0.361048  0.010380
6614.664  6614.650  1.000  5.875184  128.244  0.360144  0.005927
6616.369  6616.360  1.000  5.862397  128.25  0.364796  0.008299
6618.099  6618.090  1.000  5.842946  128.289  0.372075  0.007674
6619.839  6619.830  1.000  5.822567  128.653  0.380812  0.009168
6621.606  6621.600  1.000  5.803174  128.741  0.388534  0.013072
6623.392  6623.380  1.000  5.786353  128.823  0.395378  0.005386
6625.187  6625.180  1.000  5.771475  128.86  0.401418  0.014053
6627.011  6627.000  1.000  5.760463  128.896  0.405977  0.014350
6628.846  6628.840  1.000  5.754131  128.721  0.408002  0.009412
6630.709  6630.700  1.000  5.745315  128.929  0.412280  0.012213
6632.590  6632.580  1.000  5.734861  128.951  0.416684  0.006425
6634.486  6634.480  1.000  5.731463  129.036  0.418379  0.011509
6636.408  6636.400  1.000  5.735955  129.068  0.416607  0.006754
6638.338  6638.330  1.000  5.741648  129.059  0.414210  0.009094
6640.296  6640.290  1.000  5.734522  129.093  0.417283  0.015757
6642.270  6642.260  1.000  5.710466  129.133  0.427577  0.015681
6644.267  6644.260  1.000  5.678811  129.154  0.441398  0.008717
6646.275  6646.270  1.000  5.645571  129.194  0.456458  0.008249
6648.310  6648.300  1.000  5.620206  129.208  0.468236  0.008936
6650.354  6650.350  1.000  5.598763  129.266  0.478599  0.010166
6652.427  6652.420  1.000  5.586605  129.272  0.484476  0.014606
6654.520  6654.510  1.000  5.585282  129.298  0.485217  0.013371
6656.615  6656.610  1.000  5.591187  129.311  0.482406  0.011454
6658.744  6658.740  1.000  5.605116  129.329  0.475799  0.006895
6660.898  6660.890  1.000  5.611376  129.351  0.472912  0.003977
6663.058  6663.050  1.000  5.613529  129.385  0.472019  0.008604
6665.231  6665.230  1.000  5.608177  129.416  0.474664  0.005770
6667.447  6667.440  1.000  5.597166  129.444  0.480025  0.015621
6669.668  6669.660  1.000  5.585170  129.442  0.485812  0.012264
6671.904  6671.900  1.000  5.564469  129.464  0.496056  0.004541
6674.166  6674.160  1.000  5.536947  129.471  0.509926  0.009128
6676.447  6676.440  1.000  5.503879  129.491  0.527150  0.008085
6678.748  6678.740  1.000  5.483077  129.469  0.538141  0.017366
6681.056  6681.050  1.000  5.479390  129.491  0.540222  0.014769
6683.398  6683.390  1.000  5.488517  129.497  0.535336  0.013139
6685.747  6685.740  1.000  5.505233  129.498  0.526468  0.017890
6688.124  6688.120  1.000  5.522860  129.505  0.517294  0.008659
6690.513  6690.510  1.000  5.537065  129.471  0.509865  0.009936
6692.930  6692.920  1.000  5.543113  129.464  0.506765  0.009918
6695.361  6695.350  1.000  5.543652  129.438  0.506391  0.009253
6697.805  6697.800  1.000  5.545175  129.432  0.505594  0.010504
6700.276  6700.270  1.000  5.551741  129.4  0.502164  0.011680
6702.770  6702.760  1.000  5.560427  129.369  0.497700  0.001571
6705.288  6705.270  1.000  5.565427  129.351  0.495148  0.008365
6707.799  6707.790  1.000  5.569177  129.305  0.493120  0.008796
6710.351  6710.340  1.000  5.573135  129.294  0.491129  0.008811
6712.912  6712.900  1.000  5.575633  129.261  0.489782  0.008614
6715.501  6715.490  1.000  5.568158  129.254  0.493429  0.008897
6718.097  6718.090  1.000  5.555382  129.222  0.499648  0.010249
6720.718  6720.710  1.000  5.537539  129.147  0.508349  0.007815
6723.365  6723.350  1.000  5.515138  129.095  0.519654  0.008504
6726.027  6726.010  1.000  5.486350  129.043  0.534619  0.010787
6728.699  6728.690  1.000  5.456101  129.003  0.550863  0.008841
6731.401  6731.390  1.000  5.426568  128.954  0.567160  0.011081
6734.121  6734.110  1.000  5.400248  128.875  0.581928  0.003482
6736.856  6736.840  1.000  5.379436  128.796  0.593802  0.010958
6739.596  6739.600  1.000  5.374702  128.706  0.596206  0.014415
6742.385  6742.370  1.000  5.378344  128.602  0.593555  0.014014
6745.183  6745.170  1.000  5.386066  128.567  0.588830  0.009078
6747.978  6747.980  1.000  5.388571  128.463  0.586883  0.001102
6750.823  6750.810  1.000  5.385827  128.379  0.588110  0.009853
6753.671  6753.660  1.000  5.384267  128.291  0.588627  0.012558
6756.544  6756.530  1.000  5.383058  128.207  0.588949  0.009437
6759.435  6759.420  1.000  5.382718  128.108  0.588696  0.010161
6762.331  6762.320  1.000  5.379426  127.992  0.590102  0.006409
6765.260  6765.250  1.000  5.364732  127.868  0.598258  0.007037
6768.216  6768.200  1.000  5.343655  127.75  0.610437  0.000090
6771.158  6771.160  1.000  5.321344  127.644  0.623693  0.007361
6774.134  6774.140  1.000  5.304698  127.49  0.633396  0.007020
6777.146  6777.150  1.000  5.290745  127.374  0.641710  0.010456
6780.182  6780.170  1.000  5.278703  127.231  0.648757  0.013486
6783.224  6783.210  1.000  5.268773  127.081  0.654456  -0.000563
6786.283  6786.270  1.000  5.257667  126.951  0.661089  0.010251
6789.367  6789.350  1.000  5.251897  126.808  0.664168  0.016555
6792.449  6792.450  1.000  5.250166  126.537  0.663892  0.010255
6795.554  6795.560  1.000  5.253392  125.113  0.654311  -0.002224
6798.689  6798.700  1.000  5.253554  126.01  0.658895  0.014170
6801.870  6801.850  1.000  5.250955  125.966  0.660378  0.011228
6805.018  6805.030  1.000  5.245448  125.882  0.663581  0.016049
6808.205  6808.220  1.000  5.241705  125.694  0.665073  0.016061
6811.413  6811.430  1.000  5.245034  119.88  0.632204  0.014688
6814.644  6814.660  1.000  5.251660  124.801  0.653809  0.005126
6817.906  6817.920  1.000  5.255605  124.889  0.651696  0.016096
6821.167  6821.180  1.000  5.254787  123.911  0.647119  0.013018
6824.462  6824.470  1.000  5.245958  123.801  0.652281  0.013036
6827.765  6827.780  1.000  5.231588  124.05  0.663049  -0.001312
6831.097  6831.110  1.000  5.214838  123.886  0.673359  0.010056
6834.442  6834.450  1.000  5.199560  123.631  0.682318  0.007828
6837.803  6837.820  1.000  5.184577  123.331  0.690937  0.008062
6841.183  6841.200  1.000  5.167333  114.573  0.653037  0.010582
6844.600  6844.600  1.000  5.152234  122.786  0.710497  0.007874
6848.016  6848.030  1.000  5.134350  122.604  0.722243  0.008832
6851.452  6851.470  1.000  5.118058  122.358  0.732638  0.019585
6854.915  6854.930  1.000  5.110618  122.017  0.736048  0.003283
6858.388  6858.400  1.000  5.103756  121.854  0.740130  0.012751
6861.889  6861.900  1.000  5.097357  121.345  0.741766  0.007295
6865.403  6865.420  1.000  5.094930  121.035  0.741674  0.010506
6868.953  6868.960  1.000  5.094186  120.84  0.741027  0.016367
6872.499  6872.510  1.000  5.092014  120.61  0.741226  0.006867
6876.083  6876.090  1.000  5.087263  120.422  0.743594  0.003680
6879.664  6879.680  1.000  5.081450  120.233  0.746754  0.005570
6883.282  6883.290  1.000  5.073248  119.942  0.751081  0.015685
6886.911  6886.920  1.000  5.070436  119.716  0.751776  0.002871
6890.557  6890.570  1.000  5.067960  119.463  0.752047  0.007719
6894.232  6894.240  1.000  5.061427  119.186  0.755224  0.008084
6897.922  6897.930  1.000  5.053828  118.878  0.759020  0.010442
6901.634  6901.640  1.000  5.038974  118.561  0.768320  0.006885
6905.352  6905.360  1.000  5.021115  118.258  0.780169  0.006720
6909.095  6909.110  1.000  5.004138  117.89  0.791056  0.006048
6912.856  6912.870  1.000  4.987196  117.486  0.801814  0.016617
6916.646  6916.660  1.000  4.974888  117.116  0.809191  -0.001471
6920.450  6920.460  1.000  4.965272  116.724  0.814270  0.010058
6924.266  6924.280  1.000  4.959335  116.348  0.816483  0.008751
6928.104  6928.120  1.000  4.952218  116.011  0.819935  0.011489
6931.970  6931.980  1.000  4.945933  115.644  0.822489  0.012184
6935.844  6935.860  1.000  4.942727  115.244  0.822276  0.007285
6939.740  6939.760  1.000  4.938611  114.881  0.823070  0.009515
6943.666  6943.680  1.000  4.933888  114.523  0.824389  0.004472
6947.601  6947.610  1.000  4.931793  114.157  0.823478  0.018753
6951.558  6951.570  1.000  4.931766  113.778  0.820769  0.004590
6955.527  6955.540  1.000  4.928924  113.4  0.820366  0.002775
6959.558  6959.540  1.000  4.924699  113.043  0.821250  0.004902
6963.568  6963.550  1.000  4.916209  112.651  0.825380  0.008093
6967.574  6967.580  1.000  4.907538  112.26  0.829675  0.008467
6971.628  6971.630  1.000  4.897755  111.893  0.835095  0.012652
6975.697  6975.700  1.000  4.889692  111.49  0.838824  0.012992
6979.776  6979.790  1.000  4.881525  111.147  0.843097  0.011537
6983.894  6983.900  1.000  4.870646  110.725  0.849086  0.005217
6988.005  6988.020  1.000  4.859572  110.366  0.855753  0.001441
6992.157  6992.170  1.000  4.848209  109.992  0.862601  0.010875
6996.320  6996.330  1.000  4.835795  109.584  0.870134  0.009575
7000.521  7000.520  1.000  4.822933  109.209  0.878389  0.008235
7004.706  7004.720  1.000  4.810687  108.822  0.886055  0.004475
7008.937  7008.940  1.000  4.798696  108.442  0.893612  0.018941
7013.195  7013.180  1.000  4.789918  108.085  0.898529  0.006726
7017.439  7017.440  1.000  4.781491  107.69  0.902821  0.007908
7021.710  7021.720  1.000  4.772367  107.342  0.908152  0.013052
7026.033  7026.020  1.000  4.765470  106.926  0.910892  0.006817
7030.328  7030.340  1.000  4.757720  106.576  0.914974  0.014295
7034.687  7034.670  1.000  4.750837  106.195  0.917995  0.007198
7039.046  7039.030  1.000  4.745986  105.8  0.919027  0.016440
7043.404  7043.400  1.000  4.739742  105.392  0.921225  0.011496
7047.822  7047.800  1.000  4.734572  105.054  0.923024  0.009536
7052.231  7052.210  1.000  4.730307  104.645  0.923366  0.007082
7056.627  7056.640  1.000  4.723822  104.296  0.926272  0.010729
7061.105  7061.090  1.000  4.715849  103.99  0.930949  0.008878
7065.572  7065.560  1.000  4.705006  103.63  0.937833  0.009359
7070.046  7070.050  1.000  4.695210  102.468  0.936447  0.008990
7074.548  7074.560  1.000  4.685364  102.269  0.943882  0.005723
7079.067  7079.080  1.000  4.675338  102.597  0.956450  0.009902
7083.649  7083.630  1.000  4.666783  101.767  0.956858  0.012522
7088.188  7088.190  1.000  4.658313  101.959  0.966821  0.013358
7092.763  7092.780  1.000  4.650680  101.588  0.970685  0.006265
7097.370  7097.380  1.000  4.642744  101.34  0.976032  0.008403
7101.985  7102.000  1.000  4.633846  101.008  0.981523  0.008961
7106.626  7106.640  1.000  4.624100  100.688  0.988001  0.007331
7111.288  7111.300  1.000  4.613967  100.22  0.993420  0.011190
7115.969  7115.980  1.000  4.603038  99.7669  0.999799  0.015869
7120.666  7120.680  1.000  4.594859  99.1349  1.001624  0.016934
7125.390  7125.400  1.000  4.586858  97.2291  0.990260  0.007917
7130.134  7130.130  1.000  4.579223  94.5274  0.970122  0.004392
7134.874  7134.890  1.000  4.571026  93.6907  0.969449  0.014815
7139.637  7139.660  1.000  4.563982  94.4085  0.983782  0.011484
7144.444  7144.460  1.000  4.555651  94.5349  0.993340  0.008433
7149.268  7149.270  1.000  4.549793  94.4775  0.998570  0.011203
7154.106  7154.100  1.000  4.542830  94.5865  1.006707  0.012221
7158.940  7158.950  1.000  4.536051  94.5845  1.013533  0.006809
7163.800  7163.820  1.000  4.528014  94.2111  1.017679  0.009521
7168.691  7168.710  1.000  4.519317  93.8416  1.022542  0.012100
7173.609  7173.620  1.000  4.509564  93.5541  1.029399  0.012343
7178.523  7178.540  1.000  4.499980  93.1968  1.035343  0.008293
7183.474  7183.490  1.000  4.489561  92.9589  1.043517  0.008095
7188.430  7188.450  1.000  4.479527  92.7483  1.051653  0.013146
7193.433  7193.440  1.000  4.469562  92.5476  1.059885  0.008601
7198.419  7198.440  1.000  4.460503  92.3234  1.066940  0.011072
7203.439  7203.460  1.000  4.451315  92.2018  1.075370  0.007521
7208.484  7208.500  1.000  4.441629  92.1912  1.085712  0.010859
7213.544  7213.560  1.000  4.433429  92.242  1.095254  0.008887
7218.619  7218.640  1.000  4.423979  92.0028  1.102786  0.009656
7223.730  7223.740  1.000  4.415207  91.8357  1.110481  0.009511
7228.840  7228.860  1.000  4.405635  91.7708  1.120371  0.012448
7233.970  7233.990  1.000  4.397235  91.4445  1.125804  0.009784
7239.131  7239.150  1.000  4.387813  91.2005  1.133429  0.008971
7244.301  7244.320  1.000  4.378733  91.0401  1.141755  0.010719
7249.510  7249.520  1.000  4.370136  90.7932  1.148491  0.014119
7254.712  7254.730  1.000  4.362468  90.3928  1.152227  0.015041
7259.939  7259.960  1.000  4.354666  90.4335  1.161774  0.015084
7265.189  7265.210  1.000  4.342353  84.7203  1.101862  0.004578
7270.457  7270.480  1.000  4.340082  90.4437  1.178975  0.007962
7275.748  7275.770  1.000  4.332059  90.4224  1.188192  0.017059
7281.070  7281.080  1.000  4.324770  89.6905  1.187196  0.012403