File: xdidata/Data/Mn/Mn-K-Piemonite.xdi
# XDI/1.0 BlueSky/1.5.3
# Beamline.name: 6BM
# Beamline.xray_source: NSLS-II three-pole wiggler
# Beamline.collimation: paraboloid mirror, 5 nm Rh on 30 nm Pt
# Beamline.focusing: not in use
# Beamline.harmonic_rejection: flat mirror, Si stripe, pitch = 7.0 mrad relative to beam
# Detector.i0: 10 cm N2
# Detector.i1: 25 cm N2
# Detector.i2: 25 cm N2
# Element.symbol: Mn
# Element.edge: K
# Facility.name: NSLS-II
# Facility.energy: 3.0
# Facility.current: 400.4
# Facility.mode: top-off
# Facility.gup: 305081
# Facility.saf: 305123
# Mono.name: Si(111)
# Mono.d_spacing: 3.13532
# Mono.encoder_resolution: 0.0000050 deg/ct
# Mono.angle_offset: 16.0581 deg
# Mono.scan_mode: fixed exit
# Mono.scan_type: step
# Mono.direction: forward in energy
# Sample.name: Ca2(Al,Mn3+,Fe3+)3(SiO4)(Si2O7)O(OH)
# Sample.prep: Powder in polyethylene glycol pellet
# Sample.x_position: -120.140 mm
# Sample.y_position: 112.312 mm
# Scan.experimenters: Neil Hyatt, Martin Stennett, Lucy Mottram
# Scan.edge_energy: 6539.0
# Scan.start_time: 2019-11-11T19:53:30
# Scan.end_time: 2019-11-11T20:31:41
# Scan.transient_id: 17913
# Scan.uid: 48b966b6-211f-4913-8b46-9dd479bb4812
# Scan.plot_hint: ln(I0/It)  --  ln($5/$6)
# Scan.sequence: merge of 2 scans
# Column.1: energy eV
# Column.2: requested_energy eV
# Column.3: measurement_time seconds
# Column.4: mutrans
# Column.5: i0
# Column.6: itrans
# Column.7: irefer
# /////
#  nr Pilar, Taos Co., NM
# -----
# energy   requested_energy   measurement_time   mutrans   i0   itrans   irefer
6339 6339 0.500000 4.078109 90.0287 1.525075 0.350185
6349.01 6349 0.500000 4.062660 90.1901 1.551621 0.358932
6359.01 6359 0.500000 4.041790 90.3629 1.587335 0.369615
6369.02 6369 0.500000 4.021075 90.5357 1.623642 0.380682
6379.02 6379 0.500000 4.000742 90.7175 1.660320 0.392311
6389.02 6389 0.500000 3.980371 90.8862 1.697645 0.403744
6399.02 6399 0.500000 3.960109 91.0191 1.734922 0.414900
6409.02 6409 0.500000 3.940241 91.1859 1.772971 0.426769
6419.02 6419 0.500000 3.919675 91.3614 1.813308 0.439893
6429.01 6429 0.500000 3.899610 91.4931 1.852721 0.451922
6439.01 6439 0.500000 3.879854 91.6335 1.892578 0.464595
6449.01 6449 0.500000 3.860644 91.6271 1.929158 0.476379
6459.01 6459 0.500000 3.840980 91.6154 1.967205 0.489319
6469 6469 0.500000 3.821753 92.0389 2.014671 0.504027
6479.01 6479 0.500000 3.802355 92.1788 2.057264 0.517951
6489.01 6489 0.500000 3.783132 92.3674 2.101475 0.532195
6499.01 6499 0.500000 3.764358 92.5415 2.145341 0.546697
6508.96 6509 0.500000 3.744474 92.6119 2.190099 0.561460
6510.99 6511 0.500000 3.741374 92.7141 2.199316 0.564408
6512.99 6513 0.500000 3.737761 92.7343 2.207759 0.567118
6514.99 6515 0.500000 3.733884 92.765 2.217070 0.570047
6516.99 6517 0.500000 3.730224 92.8066 2.226184 0.573241
6518.99 6519 0.500000 3.726006 92.8198 2.234946 0.575509
6521.41 6521 0.500000 3.722315 92.8533 2.245088 0.578821
6522.98 6523 0.500000 3.719005 92.8567 2.252470 0.580445
6525.24 6525 0.500000 3.715315 92.9076 2.262629 0.583564
6526.99 6527 0.500000 3.711567 92.9393 2.271361 0.585935
6528.99 6529 0.500000 3.707898 92.9629 2.280287 0.588357
6529.09 6529.1 0.500000 3.707559 92.9458 2.280650 0.588479
6529.27 6529.2 0.500000 3.707311 92.9406 2.281468 0.588928
6529.28 6529.3 0.500000 3.707289 92.9207 2.280633 0.588960
6529.38 6529.4 0.500000 3.707258 92.9168 2.280620 0.588138
6529.48 6529.5 0.500000 3.707104 92.9274 2.281233 0.588713
6529.58 6529.6 0.500000 3.706800 92.9025 2.281304 0.589223
6529.68 6529.7 0.500000 3.706726 92.8856 2.281065 0.588458
6529.79 6529.8 0.500000 3.706580 92.8994 2.281756 0.588635
6529.89 6529.9 0.500000 3.706399 92.9009 2.282178 0.588829
6529.98 6530 0.500000 3.706029 92.8897 2.282755 0.588588
6530.09 6530.1 0.500000 3.705883 92.884 2.282949 0.589108
6530.18 6530.2 0.500000 3.705739 92.8963 2.283572 0.589179
6530.28 6530.3 0.500000 3.705715 92.8657 2.282882 0.588723
6530.39 6530.4 0.500000 3.705132 92.8924 2.284869 0.589205
6530.48 6530.5 0.500000 3.705338 92.8826 2.284159 0.589346
6530.59 6530.6 0.500000 3.704925 92.8829 2.285111 0.589277
6530.69 6530.7 0.500000 3.704721 92.8969 2.285934 0.589395
6530.79 6530.8 0.500000 3.704584 92.8992 2.286297 0.589709
6530.89 6530.9 0.500000 3.704194 92.8853 2.286845 0.589662
6530.99 6531 0.500000 3.704180 92.8816 2.286796 0.589536
6531.09 6531.1 0.500000 3.704112 92.8704 2.286673 0.589451
6531.19 6531.2 0.500000 3.703827 92.8785 2.287538 0.589739
6531.3 6531.3 0.500000 3.703609 92.8788 2.288021 0.589821
6531.4 6531.4 0.500000 3.703511 92.8798 2.288280 0.590048
6531.49 6531.5 0.500000 3.703272 92.8739 2.288667 0.590044
6531.6 6531.6 0.500000 3.703298 92.8639 2.288357 0.590064
6531.69 6531.7 0.500000 3.703023 92.8699 2.289154 0.589875
6531.8 6531.8 0.500000 3.702811 92.8856 2.290014 0.590223
6531.9 6531.9 0.500000 3.702412 92.871 2.290566 0.590803
6532 6532 0.500000 3.702507 92.8618 2.290127 0.590087
6532.1 6532.1 0.500000 3.702403 92.8671 2.290512 0.590408
6532.2 6532.2 0.500000 3.702135 92.8706 2.291203 0.590355
6532.31 6532.3 0.500000 3.701855 92.8718 2.291836 0.590340
6532.4 6532.4 0.500000 3.701949 92.8645 2.291495 0.590053
6532.51 6532.5 0.500000 3.701620 92.8517 2.291853 0.589488
6532.6 6532.6 0.500000 3.701603 92.8495 2.291962 0.589759
6532.7 6532.7 0.500000 3.701172 92.8562 2.293056 0.589933
6532.8 6532.8 0.500000 3.701097 92.862 2.293350 0.590379
6532.9 6532.9 0.500000 3.700860 92.8682 2.294057 0.590300
6533.01 6533 0.500000 3.700607 92.8536 2.294316 0.590227
6533.11 6533.1 0.500000 3.700169 92.8436 2.295016 0.589828
6533.21 6533.2 0.500000 3.700471 92.8415 2.294304 0.589682
6533.3 6533.3 0.500000 3.700044 92.8577 2.295687 0.590341
6533.4 6533.4 0.500000 3.699987 92.8665 2.296021 0.589943
6533.5 6533.5 0.500000 3.699883 92.8596 2.296114 0.589975
6533.6 6533.6 0.500000 3.699334 92.8454 2.296995 0.590254
6533.7 6533.7 0.500000 3.699078 92.8484 2.297649 0.590456
6533.8 6533.8 0.500000 3.699270 92.8461 2.297177 0.589681
6533.9 6533.9 0.500000 3.699220 92.8606 2.297645 0.589708
6534 6534 0.500000 3.698969 92.8361 2.297614 0.589729
6534.1 6534.1 0.500000 3.698616 92.8358 2.298401 0.589746
6534.2 6534.2 0.500000 3.698405 92.8336 2.298827 0.589988
6534.3 6534.3 0.500000 3.698342 93.0311 2.303894 0.590729
6534.4 6534.4 0.500000 3.698243 93.0405 2.304343 0.590398
6534.5 6534.5 0.500000 3.698016 93.0365 2.304763 0.590827
6534.6 6534.6 0.500000 3.697749 93.0402 2.305481 0.590589
6534.69 6534.7 0.500000 3.697452 93.0294 2.305853 0.590111
6534.8 6534.8 0.500000 3.697725 93.0357 2.305419 0.589605
6534.9 6534.9 0.500000 3.697310 93.0281 2.306190 0.589903
6535 6535 0.500000 3.697203 93.0302 2.306477 0.589288
6535.1 6535.1 0.500000 3.696988 93.0322 2.307020 0.588656
6535.2 6535.2 0.500000 3.696849 93.0227 2.307123 0.588760
6535.3 6535.3 0.500000 3.696512 93.0138 2.307643 0.588578
6535.4 6535.4 0.500000 3.696574 93.0257 2.307820 0.587762
6535.5 6535.5 0.500000 3.696127 93.0315 2.308993 0.587270
6535.6 6535.6 0.500000 3.696298 93.0192 2.308292 0.586573
6535.7 6535.7 0.500000 3.695704 93.0169 2.309606 0.586204
6535.8 6535.8 0.500000 3.695880 93.02 2.309326 0.585465
6535.9 6535.9 0.500000 3.695306 93.028 2.310799 0.585067
6536 6536 0.500000 3.695429 93.0157 2.310217 0.583737
6536.1 6536.1 0.500000 3.695285 93.0145 2.310513 0.583560
6536.2 6536.2 0.500000 3.695008 93.0237 2.311383 0.581852
6536.3 6536.3 0.500000 3.694887 93.0258 2.311708 0.580900
6536.4 6536.4 0.500000 3.694805 93.0428 2.312344 0.579963
6536.5 6536.5 0.500000 3.694387 93.1692 2.316437 0.579136
6536.6 6536.6 0.500000 3.694509 93.1666 2.316090 0.577595
6536.7 6536.7 0.500000 3.694277 93.1764 2.316877 0.575198
6536.8 6536.8 0.500000 3.694026 93.1751 2.317442 0.572408
6536.9 6536.9 0.500000 3.693669 93.1876 2.318559 0.570120
6537 6537 0.500000 3.693797 93.1691 2.317799 0.566601
6537.1 6537.1 0.500000 3.693726 93.1585 2.317724 0.562879
6537.2 6537.2 0.500000 3.693327 93.1532 2.318475 0.558837
6537.3 6537.3 0.500000 3.693201 93.1709 2.319233 0.554937
6537.4 6537.4 0.500000 3.693383 93.163 2.318619 0.548865
6537.5 6537.5 0.500000 3.693167 93.1658 2.319163 0.544484
6537.6 6537.6 0.500000 3.692868 93.1604 2.319735 0.539530
6537.7 6537.7 0.500000 3.692903 93.1544 2.319500 0.534277
6537.8 6537.8 0.500000 3.693129 93.1523 2.318950 0.529285
6537.9 6537.9 0.500000 3.693045 93.1528 2.319149 0.523835
6538 6538 0.500000 3.692827 93.16 2.319818 0.519379
6538.1 6538.1 0.500000 3.692802 93.1707 2.320155 0.516068
6538.19 6538.2 0.500000 3.692756 93.1593 2.319972 0.512136
6538.3 6538.3 0.500000 3.692858 93.1513 2.319537 0.508757
6538.4 6538.4 0.500000 3.692845 93.1514 2.319573 0.505054
6538.5 6538.5 0.500000 3.693170 93.1424 2.318597 0.501938
6538.6 6538.6 0.500000 3.692841 93.1331 2.319127 0.499178
6538.7 6538.7 0.500000 3.692862 93.1335 2.319085 0.496941
6538.8 6538.8 0.500000 3.692749 93.1388 2.319477 0.494385
6538.9 6538.9 0.500000 3.692515 93.1358 2.319942 0.492566
6539 6539 0.500000 3.692648 93.1354 2.319628 0.490358
6539.1 6539.1 0.500000 3.692680 93.148 2.319866 0.488298
6539.2 6539.2 0.500000 3.692407 93.1381 2.320246 0.486579
6539.3 6539.3 0.500000 3.692217 93.1243 2.320348 0.484681
6539.4 6539.4 0.500000 3.691995 93.1296 2.320987 0.483248
6539.5 6539.5 0.500000 3.691767 93.1285 2.321481 0.481982
6539.6 6539.6 0.500000 3.692018 93.1231 2.320792 0.479731
6539.7 6539.7 0.500000 3.691432 93.1175 2.321974 0.478714
6539.81 6539.8 0.500000 3.691171 93.1111 2.322472 0.477090
6539.9 6539.9 0.500000 3.690844 93.1309 2.323702 0.476184
6540 6540 0.500000 3.690762 93.1347 2.323988 0.474538
6540.1 6540.1 0.500000 3.690341 93.1338 2.324945 0.474066
6540.2 6540.2 0.500000 3.690359 93.1233 2.324655 0.472781
6540.3 6540.3 0.500000 3.689936 93.102 2.325078 0.471576
6540.4 6540.4 0.500000 3.689939 93.1104 2.325300 0.470068
6540.5 6540.5 0.500000 3.689815 93.1411 2.326341 0.468915
6540.6 6540.6 0.500000 3.689713 93.1409 2.326582 0.468236
6540.7 6540.7 0.500000 3.689626 93.1103 2.326028 0.467411
6540.8 6540.8 0.500000 3.689353 93.1103 2.326661 0.466757
6540.9 6540.9 0.500000 3.689138 93.118 2.327343 0.466826
6541 6541 0.500000 3.689084 93.1294 2.327753 0.466672
6541.1 6541.1 0.500000 3.688874 93.1177 2.327975 0.466283
6541.2 6541.2 0.500000 3.688681 93.1093 2.328189 0.465543
6541.3 6541.3 0.500000 3.688509 93.1059 2.328507 0.465278
6541.4 6541.4 0.500000 3.688664 93.1196 2.328528 0.465543
6541.5 6541.5 0.500000 3.688211 93.1171 2.329453 0.465605
6541.6 6541.6 0.500000 3.688349 93.1264 2.329403 0.465380
6541.7 6541.7 0.500000 3.688090 93.1328 2.330159 0.465814
6541.8 6541.8 0.500000 3.687924 93.1243 2.330334 0.465630
6541.9 6541.9 0.500000 3.687717 93.1071 2.330377 0.464921
6542 6542 0.500000 3.687487 93.0997 2.330728 0.464717
6542.1 6542.1 0.500000 3.687455 93.1128 2.331140 0.464126
6542.2 6542.2 0.500000 3.687427 93.107 2.331058 0.463678
6542.3 6542.3 0.500000 3.687364 93.1139 2.331392 0.463378
6542.4 6542.4 0.500000 3.687064 93.1309 2.332504 0.463257
6542.5 6542.5 0.500000 3.687052 93.1276 2.332450 0.462190
6542.6 6542.6 0.500000 3.687060 93.1149 2.332112 0.461294
6542.7 6542.7 0.500000 3.686826 93.107 2.332460 0.460472
6542.8 6542.8 0.500000 3.686840 93.102 2.332315 0.459763
6542.9 6542.9 0.500000 3.686885 93.1188 2.332617 0.458618
6543 6543 0.500000 3.686671 93.1107 2.332917 0.457779
6543.1 6543.1 0.500000 3.686723 93.116 2.332926 0.456874
6543.2 6543.2 0.500000 3.686511 93.1126 2.333331 0.455990
6543.3 6543.3 0.500000 3.686594 93.1022 2.332881 0.455201
6543.4 6543.4 0.500000 3.686531 93.0997 2.332967 0.453504
6543.5 6543.5 0.500000 3.686480 93.0999 2.333081 0.452267
6543.6 6543.6 0.500000 3.686647 93.1061 2.332856 0.451741
6543.7 6543.7 0.500000 3.686830 93.107 2.332451 0.450913
6543.8 6543.8 0.500000 3.686849 93.1018 2.332276 0.449694
6543.9 6543.9 0.500000 3.686751 93.1043 2.332568 0.449451
6544 6544 0.500000 3.686852 93.1004 2.332232 0.448134
6544.1 6544.1 0.500000 3.687189 93.0968 2.331358 0.447678
6544.2 6544.2 0.500000 3.687024 93.0956 2.331666 0.446305
6544.3 6544.3 0.500000 3.687175 93.0998 2.331465 0.445816
6544.39 6544.4 0.500000 3.687197 93.1102 2.331677 0.444233
6544.5 6544.5 0.500000 3.687423 93.1084 2.331089 0.443855
6544.6 6544.6 0.500000 3.687931 93.0916 2.329513 0.442100
6544.69 6544.7 0.500000 3.688109 93.0977 2.329248 0.441461
6544.8 6544.8 0.500000 3.688442 93.091 2.328291 0.440140
6544.9 6544.9 0.500000 3.688402 93.0841 2.328213 0.439348
6545 6545 0.500000 3.689086 93.0963 2.326948 0.437942
6545.1 6545.1 0.500000 3.689358 93.1067 2.326548 0.436864
6545.2 6545.2 0.500000 3.689736 93.1043 2.325614 0.435163
6545.29 6545.3 0.500000 3.689926 93.0837 2.324678 0.434572
6545.4 6545.4 0.500000 3.690284 93.0733 2.323589 0.432530
6545.5 6545.5 0.500000 3.690611 93.0775 2.322915 0.431254
6545.6 6545.6 0.500000 3.691050 93.0959 2.322351 0.430194
6545.7 6545.7 0.500000 3.691460 93.1136 2.321840 0.428944
6545.8 6545.8 0.500000 3.692210 93.0832 2.319342 0.427429
6545.9 6545.9 0.500000 3.692373 93.0848 2.319004 0.425984
6546 6546 0.500000 3.692690 93.076 2.318076 0.424797
6546.1 6546.1 0.500000 3.693613 93.0783 2.315957 0.423060
6546.2 6546.2 0.500000 3.693993 93.0936 2.315494 0.421624
6546.3 6546.3 0.500000 3.694488 93.0837 2.314110 0.420101
6546.4 6546.4 0.500000 3.694853 93.0657 2.312787 0.418869
6546.5 6546.5 0.500000 3.695839 93.0727 2.310698 0.416468
6546.6 6546.6 0.500000 3.696220 93.0718 2.309793 0.415180
6546.7 6546.7 0.500000 3.697026 93.077 2.308038 0.413364
6546.8 6546.8 0.500000 3.697672 93.0792 2.306586 0.411612
6546.9 6546.9 0.500000 3.698307 93.0716 2.304956 0.410029
6547 6547 0.500000 3.698944 93.0679 2.303369 0.408758
6547.1 6547.1 0.500000 3.699842 93.0656 2.301271 0.406770
6547.2 6547.2 0.500000 3.700662 93.0689 2.299475 0.405348
6547.3 6547.3 0.500000 3.701323 93.0697 2.297969 0.403308
6547.4 6547.4 0.500000 3.702203 93.2578 2.300565 0.402463
6547.5 6547.5 0.500000 3.703038 93.229 2.298004 0.400848
6547.6 6547.6 0.500000 3.704174 93.2267 2.295274 0.399055
6547.7 6547.7 0.500000 3.704789 93.2358 2.294071 0.397241
6547.8 6547.8 0.500000 3.705899 93.2555 2.292129 0.395452
6547.9 6547.9 0.500000 3.706807 93.2432 2.289661 0.393950
6548 6548 0.500000 3.707769 93.233 2.287211 0.392518
6548.1 6548.1 0.500000 3.708363 93.207 2.285236 0.390713
6548.2 6548.2 0.500000 3.709512 93.2179 2.282809 0.388452
6548.3 6548.3 0.500000 3.710460 93.234 2.281072 0.386620
6548.4 6548.4 0.500000 3.711105 93.2431 2.279863 0.384917
6548.5 6548.5 0.500000 3.712057 93.2535 2.277933 0.383018
6548.6 6548.6 0.500000 3.712440 93.2217 2.276274 0.381358
6548.7 6548.7 0.500000 3.713148 93.2188 2.274617 0.380235
6548.8 6548.8 0.500000 3.713621 93.2138 2.273394 0.378321
6548.9 6548.9 0.500000 3.714228 93.235 2.272548 0.377671
6549 6549 0.500000 3.714830 93.2441 2.271399 0.375486
6549.1 6549.1 0.500000 3.715009 93.2388 2.270849 0.374860
6549.2 6549.2 0.500000 3.715706 93.2235 2.268898 0.372655
6549.3 6549.3 0.500000 3.716652 93.2054 2.266332 0.370846
6549.4 6549.4 0.500000 3.716992 93.2108 2.265673 0.369685
6549.5 6549.5 0.500000 3.717403 93.3329 2.267706 0.368568
6549.6 6549.6 0.500000 3.718056 93.3405 2.266412 0.367109
6549.7 6549.7 0.500000 3.718615 93.3331 2.264989 0.365339
6549.8 6549.8 0.500000 3.719079 93.3323 2.263878 0.364644
6549.9 6549.9 0.500000 3.720058 93.3344 2.261751 0.363083
6550 6550 0.500000 3.720540 93.3411 2.260821 0.360857
6550.1 6550.1 0.500000 3.721083 93.3372 2.259462 0.360312
6550.2 6550.2 0.500000 3.721647 93.3313 2.258074 0.358892
6550.3 6550.3 0.500000 3.722356 93.3181 2.256167 0.357249
6550.4 6550.4 0.500000 3.723105 93.3432 2.255052 0.355890
6550.5 6550.5 0.500000 3.723680 93.3385 2.253620 0.354332
6550.6 6550.6 0.500000 3.724580 93.3232 2.251274 0.353782
6550.7 6550.7 0.500000 3.724832 93.3233 2.250696 0.352475
6550.8 6550.8 0.500000 3.725735 93.3183 2.248518 0.351244
6550.9 6550.9 0.500000 3.726564 93.3321 2.247031 0.349809
6551 6551 0.500000 3.727100 93.3358 2.245897 0.348786
6551.1 6551.1 0.500000 3.728016 93.3358 2.243831 0.346844
6551.2 6551.2 0.500000 3.728471 93.3249 2.242565 0.345909
6551.3 6551.3 0.500000 3.729349 93.3095 2.240220 0.344503
6551.4 6551.4 0.500000 3.729869 93.3135 2.239151 0.343679
6551.5 6551.5 0.500000 3.730601 93.3251 2.237800 0.342695
6551.59 6551.6 0.500000 3.731275 93.3219 2.236250 0.341487
6551.7 6551.7 0.500000 3.731919 93.3043 2.234345 0.340030
6551.8 6551.8 0.500000 3.732191 93.2932 2.233469 0.339460
6551.9 6551.9 0.500000 3.732901 93.3037 2.232163 0.338826
6552 6552 0.500000 3.733486 93.3259 2.231344 0.337319
6552.1 6552.1 0.500000 3.733957 93.3248 2.230285 0.336456
6552.19 6552.2 0.500000 3.734184 93.3045 2.229325 0.335588
6552.3 6552.3 0.500000 3.734635 93.2937 2.228036 0.334218
6552.4 6552.4 0.500000 3.735199 93.2899 2.226679 0.333216
6552.5 6552.5 0.500000 3.735307 93.2993 2.226675 0.332683
6552.6 6552.6 0.500000 3.735513 93.3033 2.226294 0.331778
6552.7 6552.7 0.500000 3.735543 93.301 2.226176 0.331254
6552.8 6552.8 0.500000 3.735705 93.3014 2.225837 0.330448
6552.9 6552.9 0.500000 3.735900 93.2883 2.225090 0.329503
6553 6553 0.500000 3.736098 93.2937 2.224766 0.329078
6553.1 6553.1 0.500000 3.736287 93.2985 2.224477 0.327845
6553.2 6553.2 0.500000 3.736228 93.2922 2.224446 0.327410
6553.3 6553.3 0.500000 3.736309 93.2926 2.224285 0.326980
6553.4 6553.4 0.500000 3.736048 93.2796 2.224539 0.326282
6553.5 6553.5 0.500000 3.736156 93.285 2.224445 0.325727
6553.6 6553.6 0.500000 3.736284 93.277 2.223963 0.325376
6553.7 6553.7 0.500000 3.736314 93.2947 2.224307 0.324863
6553.8 6553.8 0.500000 3.736143 93.2956 2.224705 0.324573
6553.9 6553.9 0.500000 3.736460 93.2879 2.223845 0.324094
6554 6554 0.500000 3.736068 93.2548 2.223911 0.323599
6554.1 6554.1 0.500000 3.736098 93.2763 2.224356 0.323421
6554.2 6554.2 0.500000 3.736324 93.2766 2.223862 0.323817
6554.3 6554.3 0.500000 3.736480 93.2871 2.223765 0.322687
6554.4 6554.4 0.500000 3.736515 93.3103 2.224242 0.322847
6554.5 6554.5 0.500000 3.736449 93.2967 2.224060 0.322932
6554.6 6554.6 0.500000 3.736624 93.2719 2.223083 0.322648
6554.7 6554.7 0.500000 3.736554 93.2675 2.223153 0.323115
6554.8 6554.8 0.500000 3.736773 93.2724 2.222761 0.322714
6554.9 6554.9 0.500000 3.736735 93.2902 2.223267 0.322803
6555 6555 0.500000 3.737155 93.2869 2.222269 0.323088
6555.1 6555.1 0.500000 3.737159 93.2772 2.222022 0.322781
6555.2 6555.2 0.500000 3.737281 93.2603 2.221348 0.322639
6555.3 6555.3 0.500000 3.737398 93.2738 2.221416 0.322836
6555.4 6555.4 0.500000 3.737815 93.2853 2.220768 0.323135
6555.5 6555.5 0.500000 3.738138 93.2914 2.220158 0.323368
6555.6 6555.6 0.500000 3.738545 93.2733 2.218862 0.323394
6555.7 6555.7 0.500000 3.739002 93.272 2.217802 0.323404
6555.8 6555.8 0.500000 3.738861 93.2844 2.218406 0.324440
6555.9 6555.9 0.500000 3.739165 93.2807 2.217660 0.324754
6556 6556 0.500000 3.739430 93.2578 2.216524 0.324633
6556.1 6556.1 0.500000 3.739740 93.2514 2.215665 0.324949
6556.2 6556.2 0.500000 3.739988 93.2636 2.215418 0.325695
6556.3 6556.3 0.500000 3.740101 93.2758 2.215462 0.325767
6556.4 6556.4 0.500000 3.740496 93.2748 2.214548 0.326149
6556.5 6556.5 0.500000 3.740765 93.2581 2.213579 0.326756
6556.6 6556.6 0.500000 3.741217 93.2397 2.212143 0.326662
6556.7 6556.7 0.500000 3.741494 93.2499 2.211754 0.327751
6556.8 6556.8 0.500000 3.741550 93.2576 2.211821 0.328148
6556.9 6556.9 0.500000 3.741855 93.2686 2.211408 0.328418
6557 6557 0.500000 3.742429 93.2754 2.210287 0.328554
6557.1 6557.1 0.500000 3.742474 93.244 2.209447 0.329360
6557.2 6557.2 0.500000 3.742891 93.2267 2.208129 0.329469
6557.3 6557.3 0.500000 3.743436 93.2349 2.207115 0.329732
6557.4 6557.4 0.500000 3.743480 93.2626 2.207659 0.331013
6557.5 6557.5 0.500000 3.743886 93.2621 2.206767 0.331114
6557.6 6557.6 0.500000 3.743958 93.2383 2.206031 0.331321
6557.7 6557.7 0.500000 3.744554 93.2331 2.204607 0.331573
6557.8 6557.8 0.500000 3.744762 93.2293 2.204058 0.332302
6557.9 6557.9 0.500000 3.744935 93.243 2.203994 0.332983
6558 6558 0.500000 3.745170 93.234 2.203256 0.332745
6558.1 6558.1 0.500000 3.745590 93.2246 2.202139 0.332470
6558.2 6558.2 0.500000 3.745465 93.2305 2.202525 0.332941
6558.3 6558.3 0.500000 3.745772 93.2231 2.201687 0.333562
6558.4 6558.4 0.500000 3.745896 93.2188 2.201314 0.333823
6558.5 6558.5 0.500000 3.745693 93.2238 2.201877 0.333850
6558.6 6558.6 0.500000 3.745647 93.2296 2.202107 0.334965
6558.7 6558.7 0.500000 3.745827 93.2249 2.201609 0.335385
6558.8 6558.8 0.500000 3.745909 93.2221 2.201356 0.335429
6558.9 6558.9 0.500000 3.745516 93.2244 2.202282 0.335650
6559 6559 0.500000 3.745332 93.206 2.202251 0.335966
6559.1 6559.1 0.500000 3.745483 93.2074 2.201955 0.335510
6559.2 6559.2 0.500000 3.745175 93.2149 2.202796 0.336139
6559.3 6559.3 0.500000 3.745222 93.2156 2.202724 0.336692
6559.4 6559.4 0.500000 3.745022 93.2051 2.202914 0.336618
6559.5 6559.5 0.500000 3.744553 93.2132 2.204143 0.337193
6559.6 6559.6 0.500000 3.744177 93.205 2.204800 0.337293
6559.7 6559.7 0.500000 3.743806 93.2069 2.205635 0.337600
6559.8 6559.8 0.500000 3.743327 93.1912 2.206315 0.338093
6559.9 6559.9 0.500000 3.742887 93.18 2.207062 0.337895
6560 6560 0.500000 3.742307 93.1628 2.207885 0.337971
6560.1 6560.1 0.500000 3.742209 93.1434 2.207716 0.338322
6560.2 6560.2 0.500000 3.741510 93.135 2.209011 0.338219
6560.3 6560.3 0.500000 3.740855 93.1074 2.209843 0.338522
6560.4 6560.4 0.500000 3.740008 93.0629 2.210617 0.339046
6560.5 6560.5 0.500000 3.739462 93.1931 2.214974 0.339057
6560.61 6560.6 0.500000 3.738568 93.2038 2.217220 0.339596
6560.7 6560.7 0.500000 3.738087 93.192 2.217959 0.339518
6560.8 6560.8 0.500000 3.737083 93.1733 2.219727 0.340105
6560.9 6560.9 0.500000 3.736397 93.139 2.220449 0.340384
6561 6561 0.500000 3.735442 93.1413 2.222589 0.340824
6561.1 6561.1 0.500000 3.734850 93.2013 2.225330 0.341406
6561.2 6561.2 0.500000 3.734108 93.2448 2.228045 0.341019
6561.3 6561.3 0.500000 3.733194 93.2697 2.230655 0.341151
6561.4 6561.4 0.500000 3.732551 93.2914 2.232611 0.341352
6561.5 6561.5 0.500000 3.731809 93.3127 2.234787 0.342056
6561.6 6561.6 0.500000 3.731042 93.3387 2.237089 0.342448
6561.7 6561.7 0.500000 3.730307 93.3455 2.238876 0.342338
6561.8 6561.8 0.500000 3.730057 93.3522 2.239645 0.342620
6561.9 6561.9 0.500000 3.729235 93.3488 2.241348 0.342640
6562 6562 0.500000 3.728651 93.3294 2.242214 0.343255
6562.1 6562.1 0.500000 3.728090 93.333 2.243586 0.342895
6562.2 6562.2 0.500000 3.727537 93.3457 2.245121 0.343137
6562.29 6562.3 0.500000 3.726593 93.3544 2.247345 0.343360
6562.4 6562.4 0.500000 3.726445 93.3526 2.247758 0.342904
6562.5 6562.5 0.500000 3.725853 93.3564 2.249194 0.343575
6562.6 6562.6 0.500000 3.725430 93.5634 2.255124 0.344426
6562.7 6562.7 0.500000 3.725142 93.534 2.255087 0.344200
6562.8 6562.8 0.500000 3.724458 93.5271 2.256449 0.344270
6562.9 6562.9 0.500000 3.723873 93.5456 2.258217 0.344699
6563 6563 0.500000 3.723526 93.5501 2.259110 0.344524
6563.1 6563.1 0.500000 3.723358 93.5425 2.259317 0.344192
6563.2 6563.2 0.500000 3.722949 93.5129 2.259533 0.343947
6563.3 6563.3 0.500000 3.722462 93.5433 2.261355 0.344305
6563.4 6563.4 0.500000 3.722308 93.5413 2.261675 0.344392
6563.5 6563.5 0.500000 3.721631 93.5367 2.263072 0.344930
6563.6 6563.6 0.500000 3.721756 93.5443 2.262997 0.344649
6563.7 6563.7 0.500000 3.721244 93.5464 2.264182 0.344844
6563.8 6563.8 0.500000 3.721147 93.5566 2.264706 0.344410
6563.9 6563.9 0.500000 3.720474 93.5335 2.265606 0.344463
6564 6564 0.500000 3.720351 93.5325 2.265883 0.345087
6564.1 6564.1 0.500000 3.720016 93.5556 2.267192 0.345017
6564.2 6564.2 0.500000 3.719846 93.5691 2.267897 0.344745
6564.3 6564.3 0.500000 3.719350 93.5502 2.268552 0.345256
6564.4 6564.4 0.500000 3.719174 93.5165 2.268155 0.345022
6564.5 6564.5 0.500000 3.718778 93.5224 2.269169 0.345007
6564.59 6564.6 0.500000 3.718544 93.526 2.269777 0.345035
6564.7 6564.7 0.500000 3.718110 93.5438 2.271215 0.344778
6564.8 6564.8 0.500000 3.717987 93.5164 2.270841 0.345309
6564.9 6564.9 0.500000 3.717710 93.512 2.271363 0.345028
6564.99 6565 0.500000 3.717436 93.5078 2.271874 0.345137
6565.1 6565.1 0.500000 3.717136 93.5232 2.272931 0.345194
6565.2 6565.2 0.500000 3.716816 93.5328 2.273887 0.345208
6565.3 6565.3 0.500000 3.716695 93.5213 2.273895 0.345856
6565.4 6565.4 0.500000 3.716481 93.4984 2.273826 0.345624
6565.5 6565.5 0.500000 3.716216 93.5004 2.274463 0.345431
6565.6 6565.6 0.500000 3.715634 93.5113 2.276085 0.345716
6565.7 6565.7 0.500000 3.715752 93.5245 2.276122 0.345687
6565.8 6565.8 0.500000 3.715152 93.5111 2.277158 0.345972
6565.9 6565.9 0.500000 3.714975 93.4922 2.277100 0.345305
6566 6566 0.500000 3.714453 93.499 2.278446 0.346299
6566.11 6566.1 0.500000 3.714339 93.5101 2.279009 0.346161
6566.2 6566.2 0.500000 3.714018 93.4919 2.279270 0.346449
6566.3 6566.3 0.500000 3.714119 93.5036 2.279353 0.346272
6566.4 6566.4 0.500000 3.713770 93.4979 2.280031 0.346191
6566.5 6566.5 0.500000 3.713165 93.4919 2.281216 0.346740
6566.6 6566.6 0.500000 3.713000 93.4953 2.281701 0.347116
6566.7 6566.7 0.500000 3.712298 93.4877 2.283094 0.347011
6566.8 6566.8 0.500000 3.712390 93.4872 2.282878 0.347004
6566.9 6566.9 0.500000 3.712170 93.4793 2.283191 0.346676
6566.99 6567 0.500000 3.711857 93.4797 2.283878 0.346910
6567.1 6567.1 0.500000 3.711524 93.4919 2.284963 0.347328
6567.2 6567.2 0.500000 3.711398 93.4927 2.285272 0.347592
6567.3 6567.3 0.500000 3.711037 93.487 2.285947 0.347390
6567.4 6567.4 0.500000 3.710831 93.4848 2.286376 0.347777
6567.5 6567.5 0.500000 3.710694 93.4841 2.286658 0.347774
6567.59 6567.6 0.500000 3.710247 93.4724 2.287372 0.347871
6567.7 6567.7 0.500000 3.709824 93.4696 2.288294 0.348082
6567.8 6567.8 0.500000 3.709523 93.4746 2.289097 0.348398
6567.9 6567.9 0.500000 3.709062 93.4672 2.289985 0.348294
6568 6568 0.500000 3.708998 93.4595 2.289950 0.348229
6568.1 6568.1 0.500000 3.708988 93.4507 2.289802 0.348489
6568.2 6568.2 0.500000 3.708565 93.4701 2.291188 0.348687
6568.3 6568.3 0.500000 3.708298 93.4707 2.291829 0.348766
6568.4 6568.4 0.500000 3.708060 93.4675 2.292295 0.349333
6568.5 6568.5 0.500000 3.707756 93.4548 2.292665 0.348852
6568.61 6568.6 0.500000 3.707836 93.4629 2.292746 0.348954
6568.7 6568.7 0.500000 3.707358 93.4767 2.294117 0.349025
6568.81 6568.8 0.500000 3.707156 93.4895 2.294940 0.349139
6568.9 6568.9 0.500000 3.707134 93.8651 2.304185 0.351177
6569 6569 0.700000 3.706668 130.834 3.213208 0.489164
6570.09 6570.08 0.710000 3.704668 132.733 3.266312 0.498822
6571.2 6571.18 0.730000 3.702493 136.526 3.366998 0.513938
6572.29 6572.29 0.740000 3.700610 138.373 3.419004 0.522469
6573.43 6573.43 0.750000 3.698145 140.213 3.473021 0.530195
6574.59 6574.58 0.760000 3.695269 142.139 3.530929 0.537726
6575.77 6575.76 0.780000 3.691426 145.891 3.638024 0.553032
6576.96 6576.95 0.790000 3.687451 147.78 3.699776 0.560909
6578.17 6578.16 0.800000 3.683301 149.668 3.762686 0.569111
6579.4 6579.39 0.810000 3.679407 151.531 3.824326 0.576594
6580.65 6580.64 0.830000 3.675942 155.323 3.933681 0.590902
6581.92 6581.91 0.840000 3.672612 157.225 3.995087 0.598456
6583.21 6583.2 0.850000 3.669069 159.085 4.056733 0.606281
6584.52 6584.51 0.860000 3.665921 160.963 4.117533 0.615263
6585.84 6585.83 0.880000 3.663253 164.745 4.225544 0.632552
6587.19 6587.18 0.890000 3.660764 166.356 4.277477 0.643770
6588.55 6588.54 0.900000 3.657926 168.5 4.344908 0.656627
6589.94 6589.93 0.910000 3.655196 170.388 4.405655 0.671060
6591.34 6591.33 0.930000 3.653112 174.174 4.512896 0.690742
6592.76 6592.75 0.940000 3.651070 176.055 4.571005 0.702008
6594.2 6594.19 0.950000 3.649270 177.961 4.628758 0.713044
6595.66 6595.65 0.960000 3.647709 179.919 4.687039 0.726033
6597.14 6597.13 0.980000 3.646354 183.647 4.790622 0.745557
6598.64 6598.63 0.990000 3.644509 185.512 4.848232 0.757540
6600.15 6600.14 1.000000 3.642580 187.4 4.907013 0.767697
6601.69 6601.68 1.010000 3.640178 188.961 4.959802 0.778127
6603.25 6603.24 1.030000 3.638279 193.112 5.078384 0.795158
6604.82 6604.81 1.040000 3.635611 195.218 5.147476 0.806538
6606.41 6606.4 1.050000 3.633265 197.273 5.213858 0.815600
6608.02 6608.01 1.060000 3.630940 199.215 5.277452 0.823775
6609.66 6609.65 1.080000 3.627932 202.973 5.393244 0.840152
6611.31 6611.3 1.090000 3.625071 204.862 5.459058 0.849657
6612.97 6612.97 1.100000 3.622053 206.74 5.525679 0.857816
6614.66 6614.65 1.110000 3.618701 208.667 5.595957 0.868627
6616.37 6616.36 1.130000 3.615789 212.417 5.713129 0.885524
6618.11 6618.09 1.140000 3.612449 214.283 5.782631 0.898146
6619.84 6619.83 1.150000 3.609354 216.61 5.863454 0.910983
6621.61 6621.6 1.160000 3.605948 218.543 5.936017 0.923962
6623.39 6623.38 1.180000 3.602707 222.275 6.056970 0.944792
6625.19 6625.18 1.190000 3.599333 224.209 6.130314 0.958399
6627.01 6627 1.200000 3.595918 226.123 6.203823 0.972268
6628.85 6628.84 1.210000 3.592666 227.795 6.270051 0.985790
6630.71 6630.7 1.230000 3.589472 231.796 6.400567 1.008515
6632.59 6632.58 1.240000 3.586331 233.757 6.474996 1.022370
6634.49 6634.48 1.250000 3.583238 235.578 6.545701 1.034194
6636.41 6636.4 1.260000 3.580070 237.482 6.619487 1.047250
6638.34 6638.33 1.280000 3.576534 241.321 6.750376 1.067793
6640.3 6640.29 1.290000 3.572667 243.151 6.827909 1.081295
6642.26 6642.26 1.300000 3.568825 245.027 6.907008 1.095473
6644.27 6644.26 1.310000 3.564792 246.935 6.988947 1.110258
6646.28 6646.27 1.330000 3.560906 250.727 7.123887 1.135147
6648.31 6648.3 1.340000 3.556874 252.691 7.208738 1.152018
6650.36 6650.35 1.350000 3.552951 254.586 7.291370 1.168001
6652.43 6652.42 1.360000 3.548926 256.488 7.375427 1.184922
6654.52 6654.51 1.380000 3.544920 260.289 7.514792 1.210187
6656.62 6656.61 1.390000 3.541181 262.217 7.598797 1.227150
6658.75 6658.74 1.400000 3.537305 264.115 7.683555 1.243068
6660.9 6660.89 1.410000 3.533418 266.061 7.770282 1.257904
6663.06 6663.05 1.430000 3.529676 269.837 7.910132 1.282039
6665.24 6665.23 1.440000 3.525806 271.783 7.998052 1.296465
6667.45 6667.44 1.450000 3.521802 273.706 8.086962 1.310659
6669.67 6669.66 1.460000 3.518000 275.596 8.173878 1.324487
6671.91 6671.9 1.480000 3.513759 279.408 8.322163 1.348334
6674.16 6674.16 1.490000 3.509816 281.357 8.413164 1.364274
6676.44 6676.44 1.500000 3.505732 283.281 8.505444 1.380043
6678.75 6678.74 1.510000 3.501746 285.197 8.597267 1.396739
6681.05 6681.05 1.530000 3.497636 288.963 8.746513 1.421966
6683.39 6683.39 1.540000 3.493823 290.893 8.838637 1.439395
6685.74 6685.74 1.550000 3.489729 292.78 8.932496 1.457922
6688.12 6688.12 1.560000 3.485832 294.644 9.024427 1.476328
6690.51 6690.51 1.580000 3.481637 298.436 9.179001 1.506026
6692.92 6692.92 1.590000 3.477436 300.275 9.274476 1.525808
6695.35 6695.35 1.600000 3.473100 302.258 9.376279 1.548034
6697.8 6697.8 1.610000 3.468853 304.09 9.473156 1.568970
6700.27 6700.27 1.630000 3.464465 307.906 9.634261 1.600453
6702.76 6702.76 1.640000 3.460300 309.724 9.731630 1.621758
6705.27 6705.27 1.650000 3.456086 311.709 9.835315 1.643597
6707.79 6707.79 1.660000 3.451815 313.522 9.934880 1.664296
6710.35 6710.34 1.680000 3.447417 317.307 10.0993 1.695335
6712.9 6712.9 1.690000 3.443127 319.152 10.2016 1.714782
6715.49 6715.49 1.700000 3.438830 321.043 10.3062 1.734654
6718.09 6718.09 1.710000 3.434527 322.907 10.4107 1.754950
6720.71 6720.71 1.730000 3.430410 326.716 10.577 1.785604
6723.35 6723.35 1.740000 3.425930 328.573 10.6849 1.805348
6726.01 6726.01 1.750000 3.421998 330.458 10.7885 1.825775
6728.69 6728.69 1.760000 3.417184 332.358 10.9029 1.847491
6731.39 6731.39 1.780000 3.412033 336.052 11.081 1.880200
6734.11 6734.11 1.790000 3.407186 337.915 11.1966 1.902293
6736.84 6736.84 1.800000 3.402299 339.882 11.3169 1.925715
6739.6 6739.6 1.810000 3.397505 341.617 11.4294 1.947460
6742.37 6742.37 1.830000 3.392460 345.507 11.6179 1.983394
6745.16 6745.17 1.840000 3.387763 347.146 11.7279 2.006331
6747.98 6747.98 1.850000 3.382853 349.109 11.8524 2.033295
6750.81 6750.81 1.860000 3.377915 350.904 11.9724 2.058889
6753.66 6753.66 1.880000 3.373163 355.201 12.1767 2.099328
6756.54 6756.53 1.890000 3.368189 357.183 12.3057 2.127812
6759.42 6759.42 1.900000 3.363265 358.819 12.423 2.152058
6762.32 6762.32 1.910000 3.358225 360.66 12.5499 2.180011
6765.25 6765.25 1.930000 3.353122 364.291 12.741 2.217189
6768.2 6768.2 1.940000 3.348062 366.431 12.881 2.248434
6771.16 6771.16 1.950000 3.343105 368.683 13.0246 2.278368
6774.14 6774.14 1.960000 3.338046 370.572 13.1576 2.307604
6777.15 6777.15 1.980000 3.333095 374.23 13.3535 2.348819
6780.17 6780.17 1.990000 3.328091 376.052 13.4857 2.377685
6783.21 6783.21 2.000000 3.323053 377.794 13.6167 2.407502
6786.27 6786.27 2.010000 3.317844 379.791 13.7601 2.439075
6789.35 6789.35 2.030000 3.312709 383.294 13.9586 2.479848
6792.45 6792.45 2.040000 3.307573 382.124 13.9876 2.490800
6795.56 6795.56 2.050000 3.302512 385.524 14.1837 2.531232
6798.71 6798.7 2.060000 3.297225 388.713 14.377 2.569951
6801.85 6801.85 2.080000 3.292160 392.53 14.5917 2.613682
6805.03 6805.03 2.090000 3.287040 394.314 14.7332 2.643946
6808.22 6808.22 2.100000 3.281840 396.595 14.8958 2.678271
6811.43 6811.43 2.110000 3.276616 373.146 14.0884 2.537230
6814.66 6814.66 2.130000 3.271326 400.019 15.1831 2.739453
6817.92 6817.92 2.140000 3.266162 402.692 15.3638 2.777304
6821.18 6821.18 2.150000 3.260934 391.457 15.0134 2.718594
6824.47 6824.47 2.160000 3.255636 403.901 15.5729 2.824923
6827.78 6827.78 2.180000 3.250159 408.711 15.8449 2.881740
6831.11 6831.11 2.190000 3.244853 410.819 16.0113 2.919664
6834.45 6834.45 2.200000 3.239366 412.355 16.1596 2.953238
6837.83 6837.82 2.210000 3.233871 413.672 16.3007 2.986355
6841.21 6841.2 2.230000 3.228061 408.343 16.1845 2.973723
6844.61 6844.6 2.240000 3.222676 418.506 16.6768 3.070159
6848.03 6848.03 2.250000 3.217193 420.685 16.8556 3.111286
6851.47 6851.47 2.260000 3.211619 422.043 17.0046 3.148620
6854.93 6854.93 2.280000 3.206071 425.76 17.2498 3.201321
6858.4 6858.4 2.290000 3.200484 427.452 17.4154 3.240838
6861.91 6861.9 2.300000 3.194743 428.269 17.5492 3.275251
6865.43 6865.42 2.310000 3.189194 430.466 17.7374 3.319048
6868.97 6868.96 2.330000 3.183698 434.403 17.9983 3.375108
6872.52 6872.51 2.340000 3.177976 436.209 18.1768 3.416812
6876.1 6876.09 2.350000 3.172236 438.275 18.368 3.461844
6879.69 6879.68 2.360000 3.166525 439.856 18.5399 3.503772
6883.3 6883.29 2.380000 3.160901 444.103 18.8245 3.565485
6886.93 6886.92 2.390000 3.155293 446.018 19.0119 3.609159
6890.57 6890.57 2.400000 3.149580 447.767 19.1958 3.652720
6894.24 6894.24 2.410000 3.143994 449.574 19.3812 3.696696
6897.93 6897.93 2.430000 3.138216 453.372 19.6583 3.757457
6901.64 6901.64 2.440000 3.132461 454.769 19.8327 3.799992
6905.36 6905.36 2.450000 3.126592 456.82 20.0393 3.849038
6909.11 6909.11 2.460000 3.120672 458.237 20.2209 3.891916
6912.87 6912.87 2.480000 3.114955 461.517 20.4823 3.951116
6916.66 6916.66 2.490000 3.108936 463.103 20.6768 3.997367
6920.46 6920.46 2.500000 3.103105 464.821 20.8749 4.046636
6924.28 6924.28 2.510000 3.097202 467.311 21.111 4.103455
6928.13 6928.12 2.530000 3.091378 470.639 21.3856 4.166060
6931.98 6931.98 2.540000 3.085281 472.552 21.6037 4.219254
6935.86 6935.86 2.550000 3.079276 473.869 21.7945 4.266268
6939.76 6939.76 2.560000 3.073274 476.431 22.0441 4.326618
6943.68 6943.68 2.580000 3.067286 479.958 22.3407 4.395807
6947.61 6947.61 2.590000 3.061160 481.695 22.5594 4.450948
6951.57 6951.57 2.600000 3.055166 483.07 22.7597 4.500267
6955.54 6955.54 2.610000 3.049237 484.792 22.9767 4.555938
6959.54 6959.54 2.630000 3.043062 488.362 23.2893 4.629855
6963.55 6963.55 2.640000 3.037157 489.708 23.4918 4.683414
6967.59 6967.58 2.650000 3.030963 491.347 23.717 4.739341
6971.63 6971.63 2.660000 3.025046 492.929 23.9345 4.795129
6975.7 6975.7 2.680000 3.018842 496.391 24.2525 4.873052
6979.79 6979.79 2.690000 3.012705 497.789 24.4706 4.929478
6983.91 6983.9 2.700000 3.006724 499.399 24.697 4.989591
6988.02 6988.02 2.710000 3.000487 500.966 24.9294 5.048471
6992.18 6992.17 2.730000 2.994217 504.338 25.2551 5.127769
6996.33 6996.33 2.740000 2.988091 505.967 25.4923 5.187490
7000.53 7000.52 2.750000 2.982028 507.433 25.7218 5.248905
7004.73 7004.72 2.760000 2.975667 509.065 25.9691 5.312145
7008.95 7008.94 2.780000 2.969385 512.312 26.2996 5.393575
7013.19 7013.18 2.790000 2.963099 513.898 26.5472 5.458319
7017.44 7017.44 2.800000 2.956824 515.442 26.7945 5.522688
7021.73 7021.72 2.810000 2.950490 516.754 27.0336 5.584590
7026.02 7026.02 2.830000 2.944195 520.06 27.3782 5.671228
7030.34 7030.34 2.840000 2.937908 521.526 27.6285 5.737931
7034.68 7034.67 2.850000 2.931525 522.766 27.8717 5.803703
7039.03 7039.03 2.860000 2.925140 524.491 28.1428 5.874318
7043.4 7043.4 2.880000 2.918928 527.637 28.488 5.962176
7047.81 7047.8 2.890000 2.912559 529.037 28.7461 6.032656
7052.21 7052.21 2.900000 2.906210 530.405 29.0039 6.102047
7056.65 7056.64 2.910000 2.899825 531.811 29.2671 6.175016
7061.1 7061.09 2.930000 2.893594 533.532 29.5453 6.249258
7065.57 7065.56 2.940000 2.887250 536.715 29.9107 6.343830
7070.06 7070.05 2.950000 2.880915 534.343 29.9678 6.374905
7074.56 7074.56 2.960000 2.874623 535.033 30.1959 6.437739
7079.08 7079.08 2.980000 2.868216 542.64 30.8219 6.588786
7083.63 7083.63 2.990000 2.861911 543.856 31.0864 6.663499
7088.19 7088.19 3.000000 2.855651 545.746 31.3904 6.746818
7092.78 7092.78 3.010000 2.849397 547.222 31.6727 6.826773
7097.38 7097.38 3.030000 2.843343 550.502 32.0561 6.926742
7102 7102 3.040000 2.837475 552.719 32.3747 7.015153
7106.65 7106.64 3.050000 2.832064 554.382 32.6482 7.093602
7111.31 7111.3 3.060000 2.832441 554.859 32.664 7.110393
7115.98 7115.98 3.080000 2.832147 557.234 32.8134 7.158538
7120.69 7120.68 3.090000 2.873964 556.926 31.451 6.872571
7125.4 7125.4 3.100000 3.074693 547.486 25.2959 5.534420
7130.13 7130.13 3.110000 3.205008 535.787 21.7308 4.761043
7134.9 7134.89 3.130000 3.274690 538.513 20.3712 4.475729
7139.67 7139.66 3.140000 3.190554 544.484 22.4056 4.935772
7144.47 7144.46 3.150000 3.128935 547.347 23.9543 5.292971
7149.28 7149.27 3.160000 3.109539 550.523 24.5652 5.442871
7154.1 7154.1 3.180000 3.067834 556.446 25.8871 5.751101
7158.95 7158.95 3.190000 3.049250 558.526 26.471 5.896712
7163.83 7163.82 3.200000 3.047106 559.453 26.5718 5.936442
7168.72 7168.71 3.210000 3.052647 559.89 26.4457 5.924157
7173.63 7173.62 3.230000 3.068115 562.63 26.1672 5.877445
7178.55 7178.54 3.240000 3.070151 563.334 26.1467 5.888069
7183.49 7183.49 3.250000 3.065544 564.266 26.3108 5.939761
7188.45 7188.45 3.260000 3.058600 565.333 26.5443 6.010897
7193.44 7193.44 3.280000 3.051004 568.849 26.913 6.110425
7198.45 7198.44 3.290000 3.042947 569.969 27.1842 6.189186
7203.47 7203.46 3.300000 3.033430 572.233 27.5531 6.289952
7208.51 7208.5 3.310000 3.026850 573.849 27.8134 6.366925
7213.56 7213.56 3.330000 3.017959 576.971 28.2145 6.475691
7218.64 7218.64 3.340000 3.004263 578.421 28.6755 6.600283
7223.74 7223.74 3.350000 2.993437 578.755 29.0044 6.694909
7228.87 7228.86 3.360000 2.983999 581.366 29.4114 6.808598
7233.99 7233.99 3.380000 2.973903 583.769 29.8326 6.924915
7239.15 7239.15 3.390000 2.966319 584.569 30.1009 7.006257
7244.32 7244.32 3.400000 2.960886 586.209 30.3498 7.083026
7249.52 7249.52 3.410000 2.957521 586.279 30.4558 7.126610
7254.73 7254.73 3.430000 2.954271 584.506 30.4625 7.148345
7259.96 7259.96 3.440000 2.949968 589.789 30.8704 7.263802
7265.21 7265.21 3.450000 2.943962 589.356 31.0335 7.322694
7270.48 7270.48 3.460000 2.935134 595.144 31.6162 7.478769
7275.77 7275.77 3.480000 2.925318 598.422 32.1041 7.616606
7281.08 7281.08 3.490000 2.916616 588.786 31.8631 7.579146