File: xdidata/Data/Mn/Mn-K-Spessartine.xdi
# XDI/1.0 BlueSky/1.5.3
# Beamline.name: 6BM
# Beamline.xray_source: NSLS-II three-pole wiggler
# Beamline.collimation: paraboloid mirror, 5 nm Rh on 30 nm Pt
# Beamline.focusing: not in use
# Beamline.harmonic_rejection: flat mirror, Si stripe, pitch = 7.0 mrad relative to beam
# Detector.i0: 10 cm N2
# Detector.i1: 25 cm N2
# Detector.i2: 25 cm N2
# Element.symbol: Mn
# Element.edge: K
# Facility.name: NSLS-II
# Facility.energy: 3.0
# Facility.current: 399.7
# Facility.mode: top-off
# Facility.gup: 305081
# Facility.saf: 305123
# Mono.name: Si(111)
# Mono.d_spacing: 3.13532
# Mono.encoder_resolution: 0.0000050 deg/ct
# Mono.angle_offset: 16.0581 deg
# Mono.scan_mode: fixed exit
# Mono.scan_type: step
# Mono.direction: forward in energy
# Sample.name: Mn3Al2(SiO4)3
# Sample.prep: Powder in polyethylene glycol pellet
# Sample.x_position: -120.140 mm
# Sample.y_position: 112.312 mm
# Scan.experimenters: Neil Hyatt, Martin Stennett, Lucy Mottram
# Scan.edge_energy: 6539.0
# Scan.start_time: 2019-11-11T13:41:31
# Scan.end_time: 2019-11-11T22:48:03
# Scan.transient_id: 17894
# Scan.uid: 3c3b56e0-f380-49fa-96db-2a242cd35bb5
# Scan.plot_hint: ln(I0/It)  --  ln($5/$6)
# Scan.sequence: merge of 3 scans
# Column.1: energy eV
# Column.2: requested_energy eV
# Column.3: measurement_time seconds
# Column.4: mutrans
# Column.5: i0
# Column.6: itrans
# Column.7: irefer
# /////
#  Grants Mining District; New Mexico
# -----
# energy   requested_energy   measurement_time   mutrans   i0   itrans   irefer
6339 6339 0.500000 3.012415 44.7813 2.202049 0.510457
6349.01 6349 0.500000 2.995362 44.8955 2.245634 0.524337
6359.01 6359 0.500000 2.978057 45.0155 2.290927 0.538443
6369.02 6369 0.500000 2.960919 45.136 2.336777 0.552829
6379.02 6379 0.500000 2.944209 45.2621 2.382794 0.568138
6389.01 6389 0.500000 2.927416 45.3811 2.429478 0.582554
6399.01 6399 0.500000 2.910518 45.481 2.476330 0.598699
6409.01 6409 0.500000 2.893767 45.6374 2.526809 0.614394
6419.01 6419 0.500000 2.877738 45.7742 2.575340 0.629780
6429.01 6429 0.500000 2.861234 45.8667 2.623484 0.646080
6439.01 6439 0.500000 2.844949 45.9457 2.671153 0.662457
6449.01 6449 0.500000 2.828828 45.9495 2.714776 0.677330
6459.01 6459 0.500000 2.812716 45.955 2.759214 0.693118
6469 6469 0.500000 2.796831 46.1636 2.816084 0.711984
6479.01 6479 0.500000 2.780932 46.2334 2.865570 0.728666
6489.01 6489 0.500000 2.765739 46.3338 2.915748 0.745673
6498.97 6499 0.500000 2.750257 46.4205 2.966684 0.763072
6508.99 6509 0.500000 2.735854 46.5202 3.016285 0.781044
6510.99 6511 0.500000 2.732926 46.5267 3.025533 0.783380
6512.99 6513 0.500000 2.729856 46.5333 3.035283 0.786999
6514.99 6515 0.500000 2.727270 46.5528 3.044424 0.790487
6516.99 6517 0.500000 2.724626 46.5658 3.053318 0.793324
6518.99 6519 0.500000 2.721895 46.5825 3.062758 0.796641
6520.99 6521 0.500000 2.719301 46.6061 3.072269 0.799032
6522.99 6523 0.500000 2.716548 46.6277 3.081729 0.802519
6525 6525 0.500000 2.714422 46.6465 3.089525 0.804667
6526.99 6527 0.500000 2.712271 46.6583 3.097434 0.807237
6528.99 6529 0.500000 2.710536 46.6749 3.103918 0.808625
6529.09 6529.1 0.500000 2.710440 46.6752 3.104238 0.808813
6529.19 6529.2 0.500000 2.710216 46.6727 3.104717 0.808918
6529.29 6529.3 0.500000 2.710216 46.7226 3.108169 0.809853
6529.38 6529.4 0.500000 2.710112 46.7299 3.108894 0.809890
6529.48 6529.5 0.500000 2.710080 46.7187 3.108258 0.809846
6529.58 6529.6 0.500000 2.709952 46.7502 3.110755 0.810520
6529.68 6529.7 0.500000 2.709729 46.751 3.111499 0.810586
6529.78 6529.8 0.500000 2.709703 46.7527 3.111686 0.810485
6529.89 6529.9 0.500000 2.709596 46.7499 3.111829 0.810864
6529.98 6530 0.500000 2.709700 46.748 3.111392 0.810270
6530.09 6530.1 0.500000 2.709629 46.7551 3.112087 0.810693
6530.19 6530.2 0.500000 2.709454 46.7519 3.112409 0.810506
6530.28 6530.3 0.500000 2.709402 46.7509 3.112515 0.810721
6530.39 6530.4 0.500000 2.709194 46.7505 3.113122 0.810348
6530.49 6530.5 0.500000 2.709196 46.7501 3.113105 0.810563
6530.58 6530.6 0.500000 2.709242 46.7464 3.112723 0.810821
6530.69 6530.7 0.500000 2.709148 46.7447 3.112875 0.810351
6530.79 6530.8 0.500000 2.709124 46.7533 3.113528 0.811011
6530.89 6530.9 0.500000 2.709138 46.7506 3.113315 0.810629
6530.99 6531 0.500000 2.709047 46.7501 3.113538 0.810310
6531.09 6531.1 0.500000 2.708821 46.7478 3.114082 0.810381
6531.19 6531.2 0.500000 2.708878 46.7492 3.114066 0.810161
6531.29 6531.3 0.500000 2.708833 46.749 3.114133 0.810569
6531.39 6531.4 0.500000 2.708857 46.7466 3.113914 0.810331
6531.49 6531.5 0.500000 2.708717 46.7439 3.114166 0.810339
6531.59 6531.6 0.500000 2.708730 46.7445 3.114186 0.810888
6531.69 6531.7 0.500000 2.708581 46.7463 3.114741 0.810509
6531.8 6531.8 0.500000 2.708466 46.7506 3.115389 0.810273
6531.89 6531.9 0.500000 2.708482 46.7492 3.115265 0.810543
6531.99 6532 0.500000 2.708306 46.749 3.115765 0.810429
6532.1 6532.1 0.500000 2.708433 46.7473 3.115314 0.810049
6532.2 6532.2 0.500000 2.708238 46.7457 3.115788 0.809989
6532.3 6532.3 0.500000 2.708235 46.7454 3.115775 0.810107
6532.4 6532.4 0.500000 2.708299 46.7439 3.115492 0.809586
6532.5 6532.5 0.500000 2.708324 46.7422 3.115277 0.809587
6532.6 6532.6 0.500000 2.708184 46.7433 3.115790 0.809900
6532.7 6532.7 0.500000 2.708123 46.7519 3.116552 0.809723
6532.8 6532.8 0.500000 2.708227 46.7443 3.115742 0.809255
6532.9 6532.9 0.500000 2.708018 46.7444 3.116378 0.809387
6533 6533 0.500000 2.708048 46.7452 3.116350 0.809626
6533.1 6533.1 0.500000 2.707921 46.7436 3.116638 0.809146
6533.2 6533.2 0.500000 2.708045 46.7416 3.116116 0.808836
6533.3 6533.3 0.500000 2.707932 46.737 3.116160 0.808880
6533.4 6533.4 0.500000 2.708012 46.7425 3.116277 0.808657
6533.5 6533.5 0.500000 2.708195 46.7418 3.115691 0.808253
6533.6 6533.6 0.500000 2.707808 46.7432 3.116908 0.808429
6533.7 6533.7 0.500000 2.707973 46.7383 3.116136 0.807634
6533.8 6533.8 0.500000 2.708102 46.7383 3.115721 0.807337
6533.89 6533.9 0.500000 2.708016 46.7419 3.116216 0.807195
6534 6534 0.500000 2.707956 46.7396 3.116265 0.807175
6534.1 6534.1 0.500000 2.708089 46.7401 3.115884 0.806826
6534.2 6534.2 0.500000 2.708014 46.7399 3.116079 0.806335
6534.3 6534.3 0.500000 2.707976 46.7377 3.116071 0.806489
6534.39 6534.4 0.500000 2.708237 46.7351 3.115105 0.806220
6534.5 6534.5 0.500000 2.708105 46.7387 3.115716 0.805491
6534.6 6534.6 0.500000 2.708230 46.7335 3.115017 0.804986
6534.7 6534.7 0.500000 2.708205 46.7349 3.115155 0.804979
6534.8 6534.8 0.500000 2.708347 46.7334 3.114651 0.804193
6534.9 6534.9 0.500000 2.708358 46.7298 3.114349 0.803645
6535 6535 0.500000 2.708521 46.7294 3.113820 0.802864
6535.1 6535.1 0.500000 2.708478 46.7287 3.113904 0.802860
6535.2 6535.2 0.500000 2.708503 46.7337 3.114151 0.801977
6535.3 6535.3 0.500000 2.708622 46.7347 3.113855 0.801183
6535.4 6535.4 0.500000 2.708664 46.7309 3.113483 0.800273
6535.5 6535.5 0.500000 2.708658 46.7302 3.113446 0.799520
6535.6 6535.6 0.500000 2.708984 46.7232 3.111969 0.798454
6535.7 6535.7 0.500000 2.708970 46.7256 3.112168 0.797961
6535.8 6535.8 0.500000 2.708928 46.7279 3.112435 0.796556
6535.9 6535.9 0.500000 2.709098 46.7286 3.111968 0.795456
6536 6536 0.500000 2.709294 46.7295 3.111421 0.794321
6536.1 6536.1 0.500000 2.709480 46.7255 3.110598 0.792485
6536.2 6536.2 0.500000 2.709548 46.7265 3.110428 0.790973
6536.3 6536.3 0.500000 2.709728 46.732 3.110234 0.788865
6536.4 6536.4 0.500000 2.709736 46.7267 3.109865 0.786760
6536.5 6536.5 0.500000 2.710054 46.7211 3.108517 0.784256
6536.6 6536.6 0.500000 2.710332 46.7231 3.107774 0.781487
6536.7 6536.7 0.500000 2.710580 46.7259 3.107188 0.778709
6536.8 6536.8 0.500000 2.710636 46.7266 3.107079 0.775331
6536.9 6536.9 0.500000 2.711041 46.7299 3.106013 0.770784
6537 6537 0.500000 2.711413 46.7202 3.104234 0.765842
6537.1 6537.1 0.500000 2.711777 46.7233 3.103325 0.760865
6537.2 6537.2 0.500000 2.712172 46.7196 3.101839 0.754471
6537.3 6537.3 0.500000 2.712550 46.7214 3.100816 0.748055
6537.4 6537.4 0.500000 2.713049 46.7202 3.099184 0.741170
6537.5 6537.5 0.500000 2.713855 46.7251 3.096957 0.732928
6537.6 6537.6 0.500000 2.714409 46.7191 3.094870 0.725752
6537.7 6537.7 0.500000 2.715207 46.7167 3.092246 0.717832
6537.8 6537.8 0.500000 2.716329 46.7177 3.088777 0.710506
6537.9 6537.9 0.500000 2.717573 46.7163 3.084976 0.703423
6538 6538 0.500000 2.718808 46.7148 3.080978 0.696526
6538.1 6538.1 0.500000 2.720190 46.7169 3.076786 0.690033
6538.2 6538.2 0.500000 2.721895 46.7163 3.071612 0.683777
6538.3 6538.3 0.500000 2.723646 46.7191 3.066517 0.678140
6538.4 6538.4 0.500000 2.725448 46.7114 3.060334 0.672195
6538.5 6538.5 0.500000 2.727569 46.7136 3.053974 0.666952
6538.6 6538.6 0.500000 2.729599 46.7093 3.047654 0.661871
6538.7 6538.7 0.500000 2.731545 46.717 3.042107 0.657425
6538.8 6538.8 0.500000 2.733322 46.7137 3.036533 0.653458
6538.9 6538.9 0.500000 2.734812 46.7158 3.032183 0.649617
6539 6539 0.500000 2.735806 46.7151 3.029102 0.645856
6539.1 6539.1 0.500000 2.736777 46.743 3.027906 0.643028
6539.2 6539.2 0.500000 2.737190 46.7725 3.028605 0.640691
6539.3 6539.3 0.500000 2.737043 46.774 3.029129 0.638318
6539.4 6539.4 0.500000 2.736580 46.7766 3.030719 0.636454
6539.5 6539.5 0.500000 2.735636 46.7718 3.033238 0.634732
6539.6 6539.6 0.500000 2.734748 46.7731 3.036025 0.633171
6539.71 6539.7 0.500000 2.733558 46.7767 3.040007 0.631835
6539.8 6539.8 0.500000 2.732010 46.778 3.044712 0.631142
6539.9 6539.9 0.500000 2.730720 46.7749 3.048372 0.629796
6540 6540 0.500000 2.729592 46.7773 3.051984 0.628970
6540.1 6540.1 0.500000 2.728618 46.7803 3.055165 0.627974
6540.2 6540.2 0.500000 2.727677 46.7798 3.057967 0.626963
6540.3 6540.3 0.500000 2.726937 46.7772 3.060085 0.625796
6540.4 6540.4 0.500000 2.726511 46.7805 3.061656 0.624492
6540.5 6540.5 0.500000 2.726179 46.7804 3.062636 0.623059
6540.6 6540.6 0.500000 2.726179 46.7818 3.062736 0.622435
6540.7 6540.7 0.500000 2.726261 46.7806 3.062409 0.621098
6540.8 6540.8 0.500000 2.726387 46.7829 3.062187 0.620406
6540.9 6540.9 0.500000 2.726748 46.7797 3.060869 0.618685
6541 6541 0.500000 2.727340 46.787 3.059519 0.618591
6541.1 6541.1 0.500000 2.727756 46.831 3.061124 0.618535
6541.2 6541.2 0.500000 2.728588 46.8318 3.058593 0.617172
6541.3 6541.3 0.500000 2.729419 46.8361 3.056347 0.616471
6541.4 6541.4 0.500000 2.730214 46.8353 3.053916 0.615882
6541.5 6541.5 0.500000 2.731049 46.8331 3.051223 0.615099
6541.6 6541.6 0.500000 2.732125 46.8333 3.047855 0.614384
6541.7 6541.7 0.500000 2.733141 46.8304 3.044627 0.613434
6541.8 6541.8 0.500000 2.734374 46.8343 3.041177 0.612694
6541.9 6541.9 0.500000 2.735651 46.8351 3.037269 0.611691
6542 6542 0.500000 2.737201 46.8326 3.032525 0.609853
6542.1 6542.1 0.500000 2.738600 46.899 3.032567 0.609794
6542.2 6542.2 0.500000 2.740460 46.8997 3.026787 0.608006
6542.3 6542.3 0.500000 2.742359 46.9044 3.021467 0.605805
6542.4 6542.4 0.500000 2.744278 46.903 3.015650 0.603665
6542.5 6542.5 0.500000 2.746428 46.9038 3.009148 0.601364
6542.6 6542.6 0.500000 2.748713 46.906 3.002412 0.598754
6542.7 6542.7 0.500000 2.751369 46.9075 2.994804 0.596610
6542.8 6542.8 0.500000 2.754405 46.9027 2.984949 0.593064
6542.9 6542.9 0.500000 2.757881 46.9048 2.974988 0.589288
6543 6543 0.500000 2.761426 46.9079 2.964754 0.587071
6543.1 6543.1 0.500000 2.765305 46.911 2.953373 0.583159
6543.2 6543.2 0.500000 2.769629 46.9069 2.940581 0.579354
6543.3 6543.3 0.500000 2.774349 46.9056 2.926491 0.575261
6543.4 6543.4 0.500000 2.779711 46.9051 2.910921 0.571200
6543.5 6543.5 0.500000 2.785628 46.9014 2.893523 0.566469
6543.6 6543.6 0.500000 2.791933 46.9074 2.875552 0.562418
6543.7 6543.7 0.500000 2.798611 46.905 2.856772 0.557390
6543.8 6543.8 0.500000 2.806210 46.9084 2.834683 0.552216
6543.9 6543.9 0.500000 2.814662 46.9044 2.810740 0.546294
6544 6544 0.500000 2.823746 46.9059 2.785923 0.540671
6544.1 6544.1 0.500000 2.833670 46.9063 2.757453 0.534140
6544.2 6544.2 0.500000 2.844521 46.9054 2.728711 0.526885
6544.3 6544.3 0.500000 2.855951 46.9033 2.697404 0.520340
6544.4 6544.4 0.500000 2.868703 46.9067 2.663470 0.512446
6544.5 6544.5 0.500000 2.882147 46.8987 2.626762 0.504413
6544.6 6544.6 0.500000 2.896706 46.9005 2.589872 0.496456
6544.7 6544.7 0.500000 2.912286 46.9005 2.549378 0.487886
6544.8 6544.8 0.500000 2.928955 46.8987 2.507140 0.478345
6544.9 6544.9 0.500000 2.946284 46.8988 2.464104 0.468936
6545 6545 0.500000 2.964529 46.9008 2.418160 0.459496
6545.1 6545.1 0.500000 2.983854 46.8918 2.372009 0.449673
6545.2 6545.2 0.500000 3.003670 46.8966 2.327221 0.440126
6545.3 6545.3 0.500000 3.024455 46.8951 2.279018 0.429433
6545.4 6545.4 0.500000 3.047101 46.8968 2.226609 0.418669
6545.5 6545.5 0.500000 3.070153 46.8951 2.175225 0.407587
6545.6 6545.6 0.500000 3.094158 46.8914 2.124809 0.397952
6545.7 6545.7 0.500000 3.119731 46.8926 2.071202 0.386198
6545.8 6545.8 0.500000 3.146006 46.8908 2.017427 0.375231
6545.9 6545.9 0.500000 3.173070 46.8871 1.963762 0.364233
6546 6546 0.500000 3.201378 46.8916 1.907503 0.352341
6546.1 6546.1 0.500000 3.230794 46.8924 1.852584 0.341504
6546.2 6546.2 0.500000 3.260283 46.8868 1.798875 0.330429
6546.3 6546.3 0.500000 3.290916 46.8841 1.744512 0.319573
6546.4 6546.4 0.500000 3.321137 46.8848 1.692602 0.309085
6546.5 6546.5 0.500000 3.351596 46.8899 1.643333 0.298970
6546.6 6546.6 0.500000 3.381143 46.8839 1.593871 0.289275
6546.7 6546.7 0.500000 3.410432 46.8835 1.548434 0.280032
6546.8 6546.8 0.500000 3.437818 46.8861 1.506836 0.271539
6546.9 6546.9 0.500000 3.464285 46.8858 1.467859 0.263711
6547 6547 0.500000 3.489557 46.8802 1.431015 0.256314
6547.1 6547.1 0.500000 3.512066 46.8816 1.398733 0.249639
6547.2 6547.2 0.500000 3.534193 46.8736 1.368505 0.243035
6547.3 6547.3 0.500000 3.554412 46.8801 1.340358 0.237587
6547.4 6547.4 0.500000 3.573896 46.8758 1.314706 0.232421
6547.5 6547.5 0.500000 3.592045 46.8702 1.290912 0.227223
6547.6 6547.6 0.500000 3.609408 46.8745 1.268945 0.222312
6547.7 6547.7 0.500000 3.625623 46.8758 1.248845 0.218383
6547.8 6547.8 0.500000 3.641721 46.8753 1.228477 0.214026
6547.9 6547.9 0.500000 3.657789 46.8753 1.208701 0.209532
6548 6548 0.500000 3.674396 46.8751 1.188908 0.205614
6548.1 6548.1 0.500000 3.690710 46.8732 1.169278 0.201571
6548.19 6548.2 0.500000 3.709438 46.8645 1.148334 0.196679
6548.3 6548.3 0.500000 3.729087 46.8665 1.125801 0.192241
6548.4 6548.4 0.500000 3.749473 46.869 1.103068 0.188046
6548.5 6548.5 0.500000 3.772373 46.8698 1.077471 0.182578
6548.6 6548.6 0.500000 3.796904 46.8685 1.051566 0.178202
6548.7 6548.7 0.500000 3.822531 46.8694 1.024719 0.172908
6548.8 6548.8 0.500000 3.850004 46.8658 0.998183 0.168080
6548.9 6548.9 0.500000 3.878392 46.8657 0.969009 0.162447
6549 6549 0.500000 3.908328 46.8678 0.941401 0.156738
6549.1 6549.1 0.500000 3.937770 46.8643 0.913474 0.152036
6549.2 6549.2 0.500000 3.969089 46.8612 0.884711 0.146641
6549.3 6549.3 0.500000 3.999447 46.8559 0.858436 0.141809
6549.4 6549.4 0.500000 4.029800 46.8604 0.833090 0.137270
6549.5 6549.5 0.500000 4.060741 46.8551 0.807172 0.132290
6549.6 6549.6 0.500000 4.089864 46.8568 0.784539 0.128345
6549.7 6549.7 0.500000 4.118994 46.8545 0.761765 0.123744
6549.81 6549.8 0.500000 4.147898 46.8554 0.739814 0.120321
6549.9 6549.9 0.500000 4.174994 46.8541 0.720608 0.116533
6550 6550 0.500000 4.200915 46.8528 0.701831 0.113182
6550.1 6550.1 0.500000 4.226883 46.8525 0.684026 0.109691
6550.2 6550.2 0.500000 4.250625 46.8533 0.667505 0.107158
6550.3 6550.3 0.500000 4.274009 46.8513 0.652657 0.103857
6550.4 6550.4 0.500000 4.294797 46.8488 0.638872 0.101662
6550.5 6550.5 0.500000 4.313811 46.8504 0.626904 0.099592
6550.6 6550.6 0.500000 4.330646 46.8527 0.616689 0.097546
6550.7 6550.7 0.500000 4.345787 46.8508 0.607437 0.095924
6550.81 6550.8 0.500000 4.358589 46.8472 0.599270 0.094340
6550.9 6550.9 0.500000 4.369405 46.8478 0.593249 0.093321
6551 6551 0.500000 4.378115 46.8428 0.587908 0.091912
6551.1 6551.1 0.500000 4.385055 46.8424 0.583763 0.091253
6551.2 6551.2 0.500000 4.388134 46.8402 0.581970 0.090781
6551.3 6551.3 0.500000 4.390117 46.8383 0.580770 0.090250
6551.4 6551.4 0.500000 4.389290 46.8391 0.581299 0.090120
6551.5 6551.5 0.500000 4.385532 46.8386 0.583415 0.089919
6551.6 6551.6 0.500000 4.379282 46.8363 0.587063 0.090447
6551.7 6551.7 0.500000 4.370173 46.8386 0.592548 0.091051
6551.8 6551.8 0.500000 4.359881 46.8366 0.598617 0.092012
6551.9 6551.9 0.500000 4.346944 46.8341 0.606228 0.092653
6552 6552 0.500000 4.332322 46.8369 0.615179 0.093582
6552.1 6552.1 0.500000 4.317318 46.8348 0.624476 0.094773
6552.2 6552.2 0.500000 4.302932 46.8694 0.633938 0.096285
6552.3 6552.3 0.500000 4.287592 46.8865 0.644358 0.097506
6552.4 6552.4 0.500000 4.273603 46.8881 0.653385 0.098461
6552.5 6552.5 0.500000 4.260420 46.883 0.661899 0.099532
6552.6 6552.6 0.500000 4.247868 46.8897 0.670132 0.100987
6552.7 6552.7 0.500000 4.236524 46.8926 0.678050 0.101711
6552.8 6552.8 0.500000 4.227162 46.8877 0.684341 0.102347
6552.9 6552.9 0.500000 4.219096 46.8878 0.689733 0.102978
6553.01 6553 0.500000 4.211017 46.8891 0.695519 0.103529
6553.1 6553.1 0.500000 4.205606 46.8918 0.699257 0.103930
6553.2 6553.2 0.500000 4.199816 46.891 0.703310 0.104535
6553.3 6553.3 0.500000 4.195269 46.8888 0.706467 0.104233
6553.4 6553.4 0.500000 4.190350 46.8851 0.709861 0.105021
6553.5 6553.5 0.500000 4.185322 46.8883 0.713487 0.105454
6553.6 6553.6 0.500000 4.179421 46.8888 0.717700 0.106061
6553.7 6553.7 0.500000 4.173188 46.8874 0.722222 0.106456
6553.8 6553.8 0.500000 4.164492 46.8891 0.728498 0.107135
6553.9 6553.9 0.500000 4.154898 46.8887 0.735539 0.107933
6554 6554 0.500000 4.144258 46.8864 0.743342 0.109075
6554.1 6554.1 0.500000 4.132135 46.8804 0.752240 0.109955
6554.2 6554.2 0.500000 4.117580 46.9379 0.764185 0.111901
6554.3 6554.3 0.500000 4.101928 46.9434 0.776247 0.113496
6554.4 6554.4 0.500000 4.085580 46.9416 0.789334 0.115779
6554.5 6554.5 0.500000 4.068057 46.9403 0.802896 0.117357
6554.6 6554.6 0.500000 4.048497 46.9421 0.819073 0.120072
6554.69 6554.7 0.500000 4.028352 46.9415 0.835284 0.122339
6554.8 6554.8 0.500000 4.007051 46.9419 0.853925 0.125252
6554.9 6554.9 0.500000 3.983932 46.937 0.873886 0.128331
6555 6555 0.500000 3.960630 46.9327 0.894514 0.130846
6555.1 6555.1 0.500000 3.935273 46.998 0.918054 0.134473
6555.2 6555.2 0.500000 3.909124 46.9997 0.942563 0.137745
6555.3 6555.3 0.500000 3.882287 46.9988 0.967830 0.141983
6555.4 6555.4 0.500000 3.855674 47.0019 0.994753 0.145770
6555.5 6555.5 0.500000 3.825745 47.0042 1.025174 0.150890
6555.6 6555.6 0.500000 3.797943 47.0022 1.054178 0.154999
6555.7 6555.7 0.500000 3.769366 46.9989 1.083711 0.159442
6555.8 6555.8 0.500000 3.740822 47.0035 1.115610 0.164343
6555.9 6555.9 0.500000 3.712507 47.0007 1.147863 0.169698
6556 6556 0.500000 3.686580 47.0023 1.177778 0.174055
6556.1 6556.1 0.500000 3.659380 47.0022 1.210444 0.179005
6556.2 6556.2 0.500000 3.634264 47.0027 1.241541 0.184084
6556.3 6556.3 0.500000 3.610781 47.001 1.270471 0.188601
6556.4 6556.4 0.500000 3.586879 46.9996 1.300860 0.193141
6556.5 6556.5 0.500000 3.565577 46.9974 1.329493 0.197588
6556.6 6556.6 0.500000 3.545070 46.9975 1.356824 0.202191
6556.7 6556.7 0.500000 3.525826 46.9945 1.382343 0.206441
6556.8 6556.8 0.500000 3.507780 46.9912 1.408179 0.210377
6556.9 6556.9 0.500000 3.491781 46.9941 1.430662 0.214064
6557 6557 0.500000 3.476420 46.998 1.452499 0.217906
6557.11 6557.1 0.500000 3.462665 46.9967 1.473522 0.221166
6557.2 6557.2 0.500000 3.450629 46.9929 1.490764 0.224531
6557.3 6557.3 0.500000 3.440109 46.9892 1.506425 0.226952
6557.4 6557.4 0.500000 3.430709 46.9952 1.521037 0.229646
6557.5 6557.5 0.500000 3.422642 46.9923 1.533314 0.231572
6557.6 6557.6 0.500000 3.415783 46.9922 1.543658 0.233846
6557.7 6557.7 0.500000 3.410177 46.9887 1.552173 0.235271
6557.8 6557.8 0.500000 3.405458 46.9888 1.559634 0.236945
6557.9 6557.9 0.500000 3.401888 46.9877 1.565072 0.237792
6558 6558 0.500000 3.398242 46.9862 1.570882 0.239349
6558.1 6558.1 0.500000 3.395262 46.9835 1.575443 0.240185
6558.2 6558.2 0.500000 3.392365 46.9816 1.579928 0.241361
6558.3 6558.3 0.500000 3.390050 46.9841 1.583722 0.241589
6558.4 6558.4 0.500000 3.387532 46.981 1.587642 0.242903
6558.5 6558.5 0.500000 3.384515 46.9823 1.592425 0.243265
6558.6 6558.6 0.500000 3.381292 46.9789 1.597347 0.244686
6558.7 6558.7 0.500000 3.378315 46.9784 1.602230 0.245423
6558.8 6558.8 0.500000 3.375252 46.9757 1.607018 0.246883
6558.9 6558.9 0.500000 3.371998 46.9768 1.612293 0.247915
6559 6559 0.500000 3.368589 46.9762 1.617776 0.248705
6559.1 6559.1 0.500000 3.365269 46.9753 1.623046 0.249660
6559.19 6559.2 0.500000 3.362591 46.9804 1.627560 0.250449
6559.3 6559.3 0.500000 3.359150 46.9774 1.633238 0.251476
6559.4 6559.4 0.500000 3.356536 46.9777 1.637546 0.252085
6559.5 6559.5 0.500000 3.353339 46.9714 1.642436 0.253011
6559.6 6559.6 0.500000 3.350956 46.9711 1.646441 0.253887
6559.7 6559.7 0.500000 3.348911 46.9647 1.649503 0.253897
6559.8 6559.8 0.500000 3.346267 46.9657 1.653829 0.255331
6559.9 6559.9 0.500000 3.344363 46.9607 1.656957 0.255836
6560 6560 0.500000 3.341961 46.9551 1.660791 0.256492
6560.1 6560.1 0.500000 3.339739 46.9443 1.663952 0.256823
6560.2 6560.2 0.500000 3.337318 46.9315 1.667602 0.257485
6560.3 6560.3 0.500000 3.334641 46.9123 1.671309 0.258078
6560.4 6560.4 0.500000 3.332199 46.9002 1.675088 0.258512
6560.5 6560.5 0.500000 3.329281 46.8898 1.679515 0.259571
6560.6 6560.6 0.500000 3.326583 46.884 1.683903 0.259831
6560.7 6560.7 0.500000 3.323923 46.8696 1.687865 0.260978
6560.8 6560.8 0.500000 3.321348 46.8585 1.691735 0.261665
6560.9 6560.9 0.500000 3.318950 46.8513 1.695511 0.261953
6561 6561 0.500000 3.316404 46.8548 1.700015 0.262519
6561.1 6561.1 0.500000 3.314048 46.8748 1.704692 0.263195
6561.2 6561.2 0.500000 3.312282 46.9 1.708663 0.263730
6561.3 6561.3 0.500000 3.310481 46.9263 1.712747 0.264564
6561.4 6561.4 0.500000 3.309161 46.9371 1.715322 0.264760
6561.5 6561.5 0.500000 3.307586 46.9528 1.718647 0.265144
6561.59 6561.6 0.500000 3.306735 46.9571 1.720243 0.265733
6561.7 6561.7 0.500000 3.306009 46.9597 1.721650 0.265468
6561.8 6561.8 0.500000 3.305427 46.9538 1.722402 0.265639
6561.9 6561.9 0.500000 3.305005 46.9554 1.723232 0.265619
6561.99 6562 0.500000 3.304700 46.9582 1.723841 0.265886
6562.1 6562.1 0.500000 3.304897 46.9571 1.723462 0.265370
6562.2 6562.2 0.500000 3.304882 46.9559 1.723449 0.265613
6562.3 6562.3 0.500000 3.305180 46.9568 1.722981 0.264987
6562.4 6562.4 0.500000 3.305565 46.9612 1.722465 0.265175
6562.5 6562.5 0.500000 3.305515 46.9588 1.722449 0.265120
6562.6 6562.6 0.500000 3.306289 46.9612 1.721221 0.264957
6562.7 6562.7 0.500000 3.306785 46.9571 1.720189 0.264883
6562.8 6562.8 0.500000 3.307415 46.9513 1.718914 0.264600
6562.9 6562.9 0.500000 3.308265 46.9534 1.717477 0.264037
6563 6563 0.500000 3.309192 46.9576 1.716083 0.263756
6563.1 6563.1 0.500000 3.310732 46.9555 1.713321 0.263187
6563.2 6563.2 0.500000 3.312026 46.9571 1.711183 0.262955
6563.3 6563.3 0.500000 3.313402 46.9594 1.708971 0.262470
6563.4 6563.4 0.500000 3.315155 46.959 1.705922 0.262041
6563.5 6563.5 0.500000 3.317377 46.9557 1.702019 0.261224
6563.6 6563.6 0.500000 3.319781 46.9544 1.697936 0.260577
6563.7 6563.7 0.500000 3.322372 46.9525 1.693477 0.260044
6563.8 6563.8 0.500000 3.325088 46.9568 1.689011 0.259245
6563.9 6563.9 0.500000 3.328376 46.96 1.683686 0.258102
6563.99 6564 0.500000 3.331323 46.9606 1.678821 0.257521
6564.1 6564.1 0.500000 3.335168 46.96 1.672272 0.256584
6564.2 6564.2 0.500000 3.338674 46.9597 1.666340 0.255224
6564.3 6564.3 0.500000 3.342040 46.9576 1.660778 0.254685
6564.4 6564.4 0.500000 3.345630 46.9539 1.654680 0.253631
6564.5 6564.5 0.500000 3.348957 46.9565 1.649255 0.252697
6564.59 6564.6 0.500000 3.352468 46.9577 1.643751 0.251783
6564.7 6564.7 0.500000 3.355222 46.9593 1.638876 0.251082
6564.8 6564.8 0.500000 3.357859 46.9553 1.634479 0.250471
6564.9 6564.9 0.500000 3.360771 46.9543 1.629742 0.249720
6565.01 6565 0.500000 3.362626 46.9519 1.626545 0.249301
6565.1 6565.1 0.500000 3.364966 46.9548 1.622900 0.248427
6565.2 6565.2 0.500000 3.366534 46.9513 1.620332 0.248572
6565.3 6565.3 0.500000 3.367759 47.0074 1.620127 0.248366
6565.4 6565.4 0.500000 3.368727 47.0031 1.618445 0.247886
6565.5 6565.5 0.500000 3.369642 47.0063 1.617131 0.247830
6565.6 6565.6 0.500000 3.370094 47.0094 1.616483 0.247843
6565.7 6565.7 0.500000 3.370455 47.0048 1.615739 0.247585
6565.8 6565.8 0.500000 3.370428 47.0023 1.615687 0.247518
6565.9 6565.9 0.500000 3.370687 47.0011 1.615239 0.247682
6566 6566 0.500000 3.370352 47.0031 1.615847 0.247509
6566.1 6566.1 0.500000 3.369790 47.0026 1.616728 0.247758
6566.2 6566.2 0.500000 3.369243 46.9983 1.617486 0.247564
6566.3 6566.3 0.500000 3.368693 46.9992 1.618392 0.247643
6566.4 6566.4 0.500000 3.367721 46.9996 1.620047 0.248136
6566.5 6566.5 0.500000 3.366797 46.9962 1.621385 0.248437
6566.6 6566.6 0.500000 3.365783 46.9989 1.623092 0.248979
6566.7 6566.7 0.500000 3.364636 47.0005 1.624996 0.248973
6566.8 6566.8 0.500000 3.363704 46.9971 1.626385 0.249455
6566.9 6566.9 0.500000 3.362836 46.9931 1.627684 0.248933
6567 6567 0.500000 3.361162 47.0001 1.630671 0.250159
6567.1 6567.1 0.500000 3.360472 46.9996 1.631756 0.250184
6567.2 6567.2 0.500000 3.359154 47.0573 1.635935 0.250367
6567.29 6567.3 0.500000 3.357876 47.0561 1.637881 0.251265
6567.4 6567.4 0.500000 3.356361 47.0505 1.640245 0.251411
6567.5 6567.5 0.500000 3.355315 47.0554 1.642164 0.251544
6567.6 6567.6 0.500000 3.354102 47.0545 1.644116 0.252403
6567.7 6567.7 0.500000 3.352823 47.0537 1.646174 0.252369
6567.8 6567.8 0.500000 3.351434 47.0576 1.648651 0.252868
6567.9 6567.9 0.500000 3.350530 47.0551 1.650032 0.252767
6568 6568 0.500000 3.348784 47.0556 1.652905 0.253599
6568.1 6568.1 0.500000 3.347752 47.0626 1.654886 0.253780
6568.2 6568.2 0.500000 3.346477 47.1066 1.658525 0.254418
6568.3 6568.3 0.500000 3.345416 47.1065 1.660283 0.254830
6568.4 6568.4 0.500000 3.343742 47.1032 1.662972 0.255401
6568.5 6568.5 0.500000 3.342664 47.1062 1.664871 0.255243
6568.6 6568.6 0.500000 3.341276 47.1034 1.667061 0.255921
6568.7 6568.7 0.500000 3.340245 47.0994 1.668670 0.256268
6568.8 6568.8 0.500000 3.339051 47.1022 1.670734 0.256635
6568.9 6568.9 0.500000 3.338282 47.3582 1.681174 0.257914
6569 6569 0.700000 3.337186 65.8152 2.338844 0.359310
6570.1 6570.08 0.710000 3.327937 66.8985 2.399462 0.368954
6571.21 6571.18 0.730000 3.326727 68.7897 2.470267 0.380097
6572.29 6572.29 0.740000 3.332837 69.7271 2.488688 0.383173
6573.43 6573.43 0.750000 3.345005 70.6783 2.492131 0.384219
6574.58 6574.58 0.760000 3.351614 71.6237 2.508919 0.385905
6575.77 6575.76 0.780000 3.353287 73.5272 2.571201 0.394222
6576.96 6576.95 0.790000 3.367156 74.4912 2.569047 0.392812
6578.17 6578.16 0.800000 3.400424 75.4439 2.516889 0.383586
6579.4 6579.39 0.810000 3.445777 76.4004 2.435865 0.370203
6580.65 6580.64 0.830000 3.495098 78.2964 2.376074 0.360064
6581.92 6581.91 0.840000 3.540870 79.2551 2.297629 0.346817
6583.21 6583.2 0.850000 3.571605 80.2144 2.254997 0.339910
6584.52 6584.51 0.860000 3.576752 81.1706 2.270078 0.342350
6585.84 6585.83 0.880000 3.568593 83.0651 2.342066 0.353487
6587.19 6587.18 0.890000 3.561553 83.8665 2.381371 0.361041
6588.55 6588.54 0.900000 3.554856 84.9671 2.428835 0.370002
6589.94 6589.93 0.910000 3.543507 85.931 2.484438 0.381010
6591.34 6591.33 0.930000 3.531374 87.8334 2.570375 0.396592
6592.76 6592.75 0.940000 3.526787 88.804 2.610774 0.404479
6594.2 6594.19 0.950000 3.526114 89.7746 2.641083 0.410739
6595.66 6595.65 0.960000 3.506262 90.7276 2.722576 0.425719
6597.14 6597.13 0.980000 3.476442 92.625 2.863635 0.449598
6598.64 6598.63 0.990000 3.454382 93.5907 2.958099 0.466558
6600.14 6600.14 1.000000 3.439973 94.5494 3.031669 0.478105
6601.69 6601.68 1.010000 3.433259 95.3227 3.077152 0.485793
6603.24 6603.24 1.030000 3.432760 97.4222 3.146514 0.497024
6604.82 6604.81 1.040000 3.432840 98.3967 3.177734 0.501507
6606.4 6606.4 1.050000 3.427933 99.3659 3.224799 0.508371
6608.02 6608.01 1.060000 3.417308 100.335 3.291063 0.518681
6609.65 6609.65 1.080000 3.405424 102.246 3.393730 0.532776
6611.31 6611.3 1.090000 3.394509 103.226 3.463933 0.543921
6612.98 6612.97 1.100000 3.385609 104.2 3.527887 0.552935
6614.66 6614.65 1.110000 3.378732 105.158 3.584899 0.560656
6616.37 6616.36 1.130000 3.376850 107.067 3.656865 0.572280
6618.1 6618.09 1.140000 3.378033 108.037 3.685630 0.576928
6619.84 6619.83 1.150000 3.377361 108.997 3.720885 0.583350
6621.6 6621.6 1.160000 3.375489 109.985 3.761621 0.590554
6623.39 6623.38 1.180000 3.372156 111.907 3.840163 0.603799
6625.19 6625.18 1.190000 3.364876 112.869 3.901435 0.614818
6627.01 6627 1.200000 3.355933 113.842 3.970360 0.627214
6628.85 6628.84 1.210000 3.349483 114.729 4.027256 0.638358
6630.71 6630.7 1.230000 3.350015 116.728 4.095262 0.650256
6632.59 6632.58 1.240000 3.355665 117.71 4.106453 0.653511
6634.48 6634.48 1.250000 3.362876 118.68 4.110622 0.654622
6636.41 6636.4 1.260000 3.369246 119.642 4.117584 0.656552
6638.34 6638.33 1.280000 3.374295 121.545 4.161988 0.664165
6640.3 6640.29 1.290000 3.379237 122.499 4.173967 0.666096
6642.27 6642.26 1.300000 3.383671 123.465 4.188267 0.669354
6644.26 6644.26 1.310000 3.385943 124.441 4.211797 0.674504
6646.28 6646.27 1.330000 3.383761 126.368 4.286360 0.688629
6648.31 6648.3 1.340000 3.378397 127.345 4.342691 0.699388
6650.35 6650.35 1.350000 3.372286 128.308 4.402328 0.711361
6652.43 6652.42 1.360000 3.364570 129.27 4.469775 0.724708
6654.51 6654.51 1.380000 3.355977 131.189 4.575187 0.742766
6656.61 6656.61 1.390000 3.347234 132.296 4.654293 0.757513
6658.75 6658.74 1.400000 3.340315 133.285 4.721682 0.770246
6660.89 6660.89 1.410000 3.337575 134.254 4.769039 0.778224
6663.06 6663.05 1.430000 3.338430 136.164 4.832792 0.789463
6665.24 6665.23 1.440000 3.338583 137.105 4.865447 0.794680
6667.44 6667.44 1.450000 3.336225 138.075 4.911372 0.802094
6669.67 6669.66 1.460000 3.331092 139.045 4.971421 0.812197
6671.91 6671.9 1.480000 3.324070 140.945 5.074858 0.828907
6674.16 6674.16 1.490000 3.315585 141.932 5.153837 0.842723
6676.45 6676.44 1.500000 3.307045 142.91 5.234017 0.856004
6678.75 6678.74 1.510000 3.298633 144.02 5.319161 0.870550
6681.06 6681.05 1.530000 3.290484 145.956 5.434817 0.891084
6683.4 6683.39 1.540000 3.283685 146.894 5.507054 0.904578
6685.75 6685.74 1.550000 3.278993 147.868 5.569631 0.916558
6688.13 6688.12 1.560000 3.275636 148.939 5.628835 0.928325
6690.52 6690.51 1.580000 3.272183 150.911 5.723129 0.947221
6692.93 6692.92 1.590000 3.267616 151.85 5.785076 0.960327
6695.36 6695.35 1.600000 3.262399 152.834 5.853033 0.974677
6697.81 6697.8 1.610000 3.257602 153.769 5.917163 0.988144
6700.28 6700.27 1.630000 3.253755 155.672 6.013461 1.006874
6702.77 6702.76 1.640000 3.251804 156.642 6.062673 1.018117
6705.28 6705.27 1.650000 3.252004 157.579 6.097744 1.026314
6707.8 6707.79 1.660000 3.252514 158.552 6.132263 1.035410
6710.34 6710.34 1.680000 3.251856 160.452 6.209863 1.050161
6712.91 6712.9 1.690000 3.247301 161.392 6.274865 1.063111
6715.48 6715.49 1.700000 3.238287 162.332 6.368325 1.080015
6718.09 6718.09 1.710000 3.227440 163.286 6.475785 1.100455
6720.72 6720.71 1.730000 3.216775 165.197 6.621976 1.126419
6723.36 6723.35 1.740000 3.208789 166.153 6.713562 1.143614
6726.02 6726.01 1.750000 3.204126 167.099 6.783268 1.157258
6728.69 6728.69 1.760000 3.202254 168.051 6.834653 1.167235
6731.4 6731.39 1.780000 3.202670 169.927 6.908074 1.181758
6734.12 6734.11 1.790000 3.203937 170.889 6.938384 1.188178
6736.84 6736.84 1.800000 3.204227 171.829 6.974569 1.195917
6739.59 6739.6 1.810000 3.202431 172.751 7.024539 1.206515
6742.37 6742.37 1.830000 3.198146 174.641 7.131893 1.227326
6745.17 6745.17 1.840000 3.191598 175.6 7.218227 1.245046
6747.98 6747.98 1.850000 3.182748 176.507 7.320117 1.265249
6750.8 6750.81 1.860000 3.173774 177.449 7.425274 1.286882
6753.65 6753.66 1.880000 3.167242 179.276 7.550967 1.311878
6756.53 6756.53 1.890000 3.163172 180.25 7.622920 1.327735
6759.42 6759.42 1.900000 3.160276 181.161 7.683743 1.341736
6762.32 6762.32 1.910000 3.156343 182.06 7.752349 1.357460
6765.25 6765.25 1.930000 3.149995 183.92 7.881360 1.382824
6768.19 6768.2 1.940000 3.142576 184.871 7.981091 1.403540
6771.16 6771.16 1.950000 3.135602 185.804 8.077446 1.423515
6774.14 6774.14 1.960000 3.129936 186.706 8.162897 1.443041
6777.15 6777.15 1.980000 3.124061 188.528 8.291067 1.469262
6780.17 6780.17 1.990000 3.117357 189.446 8.387520 1.490189
6783.2 6783.21 2.000000 3.109721 190.368 8.492930 1.512792
6786.27 6786.27 2.010000 3.102174 191.306 8.599496 1.535890
6789.34 6789.35 2.030000 3.095676 193.142 8.738542 1.564098
6792.45 6792.45 2.040000 3.090232 192.502 8.757131 1.570794
6795.55 6795.56 2.050000 3.085485 194.297 8.880747 1.597206
6798.71 6798.7 2.060000 3.081699 195.782 8.982712 1.618603
6801.85 6801.85 2.080000 3.079053 197.765 9.097678 1.642561
6805.03 6805.03 2.090000 3.076598 198.724 9.164279 1.657136
6808.22 6808.22 2.100000 3.073870 199.725 9.235603 1.673678
6811.43 6811.43 2.110000 3.069333 188.018 8.733831 1.585430
6814.66 6814.66 2.130000 3.063674 201.61 9.418316 1.712502
6817.92 6817.92 2.140000 3.057444 203.178 9.550879 1.739792
6821.18 6821.18 2.150000 3.052061 197.375 9.328176 1.702447
6824.47 6824.47 2.160000 3.047268 203.806 9.678245 1.769722
6827.78 6827.78 2.180000 3.042989 206.256 9.836614 1.802790
6831.11 6831.11 2.190000 3.038032 207.292 9.935222 1.825056
6834.45 6834.45 2.200000 3.032136 208.408 10.0478 1.850600
6837.82 6837.82 2.210000 3.025110 209.023 10.1486 1.873801
6841.2 6841.2 2.230000 3.017968 206.416 10.0938 1.867734
6844.6 6844.6 2.240000 3.011760 211.586 10.411 1.931623
6848.03 6848.03 2.250000 3.005920 212.581 10.5212 1.958140
6851.48 6851.47 2.260000 3.000694 213.66 10.63 1.983051
6854.93 6854.93 2.280000 2.995796 215.436 10.7709 2.014119
6858.4 6858.4 2.290000 2.990339 216.414 10.8791 2.040677
6861.9 6861.9 2.300000 2.984121 217.193 10.9863 2.065882
6865.43 6865.42 2.310000 2.977880 217.966 11.0945 2.091504
6868.97 6868.96 2.330000 2.971405 219.806 11.2609 2.127375
6872.51 6872.51 2.340000 2.964997 220.624 11.3753 2.154892
6876.1 6876.09 2.350000 2.959104 221.474 11.4867 2.181760
6879.68 6879.68 2.360000 2.953564 222.185 11.5876 2.206384
6883.29 6883.29 2.380000 2.947678 224.268 11.7652 2.245223
6886.92 6886.92 2.390000 2.942058 225.115 11.8763 2.272297
6890.57 6890.57 2.400000 2.936743 226.015 11.9872 2.298299
6894.24 6894.24 2.410000 2.932100 226.965 12.0937 2.322963
6897.93 6897.93 2.430000 2.927271 228.749 12.2477 2.358644
6901.64 6901.64 2.440000 2.922280 229.591 12.3544 2.384706
6905.36 6905.36 2.450000 2.917113 230.457 12.4652 2.411910
6909.11 6909.11 2.460000 2.911712 231.268 12.5768 2.439073
6912.88 6912.87 2.480000 2.905790 232.875 12.7395 2.475792
6916.66 6916.66 2.490000 2.898992 233.688 12.8711 2.507399
6920.46 6920.46 2.500000 2.891835 234.452 13.006 2.539618
6924.28 6924.28 2.510000 2.885175 235.257 13.1378 2.571324
6928.12 6928.12 2.530000 2.879558 237.005 13.3099 2.612081
6931.98 6931.98 2.540000 2.874174 237.887 13.4316 2.641725
6935.86 6935.86 2.550000 2.868538 238.698 13.5536 2.673742
6939.76 6939.76 2.560000 2.862914 239.537 13.6779 2.703948
6943.68 6943.68 2.580000 2.857224 241.262 13.855 2.745770
6947.61 6947.61 2.590000 2.851333 242.114 13.9862 2.780155
6951.57 6951.57 2.600000 2.845399 242.847 14.1119 2.812169
6955.54 6955.54 2.610000 2.839031 243.636 14.2482 2.846325
6959.54 6959.54 2.630000 2.832166 245.382 14.4493 2.893895
6963.55 6963.55 2.640000 2.825621 246.243 14.5951 2.930480
6967.58 6967.58 2.650000 2.819517 246.941 14.7262 2.965447
6971.63 6971.63 2.660000 2.813834 247.752 14.8586 2.998865
6975.7 6975.7 2.680000 2.808466 249.403 15.0382 3.043351
6979.79 6979.79 2.690000 2.803094 250.33 15.1755 3.079034
6983.9 6983.9 2.700000 2.797759 251.323 15.317 3.116270
6988.02 6988.02 2.710000 2.792525 252.099 15.445 3.150875
6992.17 6992.17 2.730000 2.787167 253.767 15.6307 3.197354
6996.33 6996.33 2.740000 2.781308 254.612 15.7749 3.234457
7000.52 7000.52 2.750000 2.775087 255.326 15.9178 3.271462
7004.72 7004.72 2.760000 2.768649 256.128 16.0709 3.311705
7008.94 7008.94 2.780000 2.761863 258.031 16.3007 3.366271
7013.19 7013.18 2.790000 2.755012 258.854 16.465 3.409255
7017.44 7017.44 2.800000 2.748553 259.567 16.6174 3.450129
7021.72 7021.72 2.810000 2.742268 260.686 16.7943 3.494754
7026.02 7026.02 2.830000 2.736049 262.266 17.0015 3.547234
7030.35 7030.34 2.840000 2.729844 262.925 17.1503 3.587545
7034.67 7034.67 2.850000 2.723654 263.71 17.3083 3.629371
7039.03 7039.03 2.860000 2.717512 264.428 17.4624 3.671559
7043.41 7043.4 2.880000 2.711514 266.076 17.677 3.726321
7047.8 7047.8 2.890000 2.705675 266.763 17.8263 3.768165
7052.22 7052.21 2.900000 2.699800 267.467 17.9788 3.809832
7056.64 7056.64 2.910000 2.693541 268.217 18.1424 3.854393
7061.09 7061.09 2.930000 2.687377 269.033 18.31 3.901445
7065.56 7065.56 2.940000 2.681114 270.619 18.5336 3.959312
7070.05 7070.05 2.950000 2.674945 269.458 18.5683 3.977421
7074.56 7074.56 2.960000 2.668885 269.761 18.7022 4.016760
7079.08 7079.08 2.980000 2.663048 273.579 19.0779 4.107077
7083.63 7083.63 2.990000 2.657344 274.23 19.2327 4.152549
7088.19 7088.19 3.000000 2.651654 275.118 19.4051 4.201027
7092.78 7092.78 3.010000 2.646048 275.832 19.5649 4.247317
7097.39 7097.38 3.030000 2.640518 277.484 19.7913 4.307087
7102 7102 3.040000 2.635308 278.253 19.9497 4.353153
7106.64 7106.64 3.050000 2.630439 278.933 20.096 4.397052
7111.3 7111.3 3.060000 2.632825 279.274 20.0727 4.400554
7115.98 7115.98 3.080000 2.633058 280.564 20.1607 4.430051
7120.68 7120.68 3.090000 2.834255 279.976 16.4511 3.620105
7125.4 7125.4 3.100000 3.223730 275.616 10.9724 2.415482
7130.13 7130.13 3.110000 2.973745 269.73 13.7866 3.041373
7134.89 7134.89 3.130000 2.850724 271.122 15.6709 3.467867
7139.66 7139.66 3.140000 2.858976 274.13 15.7151 3.486128
7144.46 7144.46 3.150000 2.844384 275.869 16.047 3.569181
7149.27 7149.27 3.160000 2.842953 277.868 16.1865 3.610960
7154.1 7154.1 3.180000 2.877770 280.452 15.7782 3.529381
7158.95 7158.95 3.190000 2.906350 281.311 15.3805 3.448728
7163.82 7163.82 3.200000 2.894569 281.957 15.5984 3.507219
7168.72 7168.71 3.210000 2.880126 282.144 15.8358 3.571199
7173.62 7173.62 3.230000 2.865140 283.305 16.1409 3.649361
7178.54 7178.54 3.240000 2.849810 283.63 16.4089 3.720668
7183.49 7183.49 3.250000 2.838061 284.196 16.6363 3.781537
7188.45 7188.45 3.260000 2.827316 284.776 16.8504 3.840066
7193.44 7193.44 3.280000 2.819105 286.701 17.1042 3.909146
7198.44 7198.44 3.290000 2.810920 287.493 17.2922 3.962694
7203.46 7203.46 3.300000 2.803734 288.885 17.5014 4.022540
7208.5 7208.5 3.310000 2.804608 289.798 17.5413 4.041394
7213.56 7213.56 3.330000 2.803886 291.454 17.6543 4.079118
7218.64 7218.64 3.340000 2.801320 292.122 17.7404 4.109900
7223.74 7223.74 3.350000 2.792902 292.485 17.9125 4.161203
7228.87 7228.86 3.360000 2.782125 293.757 18.1853 4.237287
7233.99 7233.99 3.380000 2.774045 295.187 18.4221 4.303346
7239.15 7239.15 3.390000 2.770883 295.782 18.5176 4.338250
7244.33 7244.32 3.400000 2.764809 296.627 18.6838 4.388755
7249.52 7249.52 3.410000 2.755111 296.812 18.8776 4.445398
7254.74 7254.73 3.430000 2.745594 295.865 18.9972 4.487281
7259.96 7259.96 3.440000 2.737562 298.709 19.3345 4.577674
7265.21 7265.21 3.450000 2.730595 298.844 19.4784 4.625482
7270.48 7270.48 3.460000 2.723325 301.646 19.8046 4.716439
7275.77 7275.77 3.480000 2.716995 303.501 20.0529 4.788309
7281.08 7281.08 3.490000 2.712514 298.683 19.8232 4.746379