File: xdidata/Data/Mn/Mn-K-Johannsonite.xdi
# XDI/1.0 BlueSky/1.5.3
# Beamline.name: 6BM
# Beamline.xray_source: NSLS-II three-pole wiggler
# Beamline.collimation: paraboloid mirror, 5 nm Rh on 30 nm Pt
# Beamline.focusing: not in use
# Beamline.harmonic_rejection: flat mirror, Si stripe, pitch = 7.0 mrad relative to beam
# Detector.i0: 10 cm N2
# Detector.i1: 25 cm N2
# Detector.i2: 25 cm N2
# Element.symbol: Mn
# Element.edge: K
# Facility.name: NSLS-II
# Facility.energy: 3.0
# Facility.current: 399.4
# Facility.mode: top-off
# Facility.gup: 305081
# Facility.saf: 305123
# Mono.name: Si(111)
# Mono.d_spacing: 3.13532
# Mono.encoder_resolution: 0.0000050 deg/ct
# Mono.angle_offset: 16.0581 deg
# Mono.scan_mode: fixed exit
# Mono.scan_type: step
# Mono.direction: forward in energy
# Sample.name: CaMnSi2O6 - LT
# Sample.prep: Powder in polyethylene glycol pellet
# Sample.x_position: -120.140 mm
# Sample.y_position: 112.312 mm
# Scan.experimenters: Neil Hyatt, Martin Stennett, Lucy Mottram
# Scan.edge_energy: 6539.0
# Scan.start_time: 2019-11-11T13:22:12
# Scan.end_time: 2019-11-11T22:09:21
# Scan.transient_id: 17893
# Scan.uid: a6dae641-e6e0-43e5-a9c2-374a0dabe858
# Scan.plot_hint: ln(I0/It)  --  ln($5/$6)
# Scan.sequence: merge of 3 scans
# Column.1: energy eV
# Column.2: requested_energy eV
# Column.3: measurement_time seconds
# Column.4: mutrans
# Column.5: i0
# Column.6: itrans
# Column.7: irefer
# /////
#  B â€“ Iron Cap Mine; Graham Country, Arizona
# -----
# energy   requested_energy   measurement_time   mutrans   i0   itrans   irefer
6339 6339 0.500000 3.664017 44.9079 1.150974 0.267033
6349.01 6349 0.500000 3.644947 45.0228 1.176109 0.274630
6359.01 6359 0.500000 3.625350 45.1393 1.202504 0.283161
6369.02 6369 0.500000 3.606268 45.2595 1.228944 0.291047
6379.02 6379 0.500000 3.587255 45.3853 1.256012 0.299810
6389.01 6389 0.500000 3.568508 45.5036 1.283087 0.308022
6399.01 6399 0.500000 3.549472 45.6068 1.310732 0.316474
6409.01 6409 0.500000 3.530888 45.712 1.338392 0.325485
6419.01 6419 0.500000 3.512454 45.8801 1.368311 0.334534
6429.01 6429 0.500000 3.493571 45.9695 1.397113 0.344584
6439.01 6439 0.500000 3.475243 46.0584 1.425704 0.353467
6449.01 6449 0.500000 3.457335 46.0553 1.451366 0.362054
6459.01 6459 0.500000 3.438862 46.0665 1.478789 0.371557
6469.01 6469 0.500000 3.420950 46.2806 1.512511 0.382288
6479 6479 0.500000 3.403088 46.3487 1.542027 0.392213
6489 6489 0.500000 3.385236 46.4454 1.573074 0.402389
6498.96 6499 0.500000 3.367727 46.5285 1.603644 0.412525
6508.99 6509 0.500000 3.350280 46.5477 1.632672 0.422337
6510.99 6511 0.500000 3.347098 46.6299 1.640734 0.425120
6512.99 6513 0.500000 3.343734 46.6419 1.646686 0.427278
6514.99 6515 0.500000 3.340200 46.6592 1.653130 0.429372
6516.99 6517 0.500000 3.336691 46.6761 1.659537 0.431455
6518.99 6519 0.500000 3.333502 46.6883 1.665254 0.432900
6520.99 6521 0.500000 3.330449 46.7142 1.671318 0.434959
6522.99 6523 0.500000 3.327094 46.7283 1.677305 0.436927
6524.99 6525 0.500000 3.324252 46.7474 1.682867 0.438521
6526.99 6527 0.500000 3.321260 46.7592 1.688353 0.439690
6529 6529 0.500000 3.318290 46.7714 1.693823 0.441552
6529.09 6529.1 0.500000 3.318333 46.7663 1.693563 0.441276
6529.19 6529.2 0.500000 3.318067 46.7681 1.694052 0.441538
6529.28 6529.3 0.500000 3.317835 46.7659 1.694335 0.441635
6529.39 6529.4 0.500000 3.317998 46.7636 1.694127 0.441350
6529.48 6529.5 0.500000 3.317883 46.7552 1.693930 0.441734
6529.58 6529.6 0.500000 3.317263 46.7548 1.694934 0.441813
6529.68 6529.7 0.500000 3.317393 46.754 1.694712 0.441437
6529.79 6529.8 0.500000 3.317105 46.7495 1.695029 0.441439
6529.89 6529.9 0.500000 3.317183 46.7476 1.694827 0.441631
6529.98 6530 0.500000 3.317186 46.7531 1.695028 0.441384
6530.09 6530.1 0.500000 3.317002 46.7489 1.695181 0.441693
6530.19 6530.2 0.500000 3.316558 46.7438 1.695744 0.441919
6530.28 6530.3 0.500000 3.316579 46.7478 1.695862 0.441760
6530.39 6530.4 0.500000 3.316501 46.7529 1.696157 0.442169
6530.49 6530.5 0.500000 3.316016 46.7507 1.696871 0.441877
6530.58 6530.6 0.500000 3.316157 46.7479 1.696584 0.441587
6530.69 6530.7 0.500000 3.316262 46.7432 1.696237 0.441761
6530.79 6530.8 0.500000 3.315994 46.738 1.696478 0.441610
6530.89 6530.9 0.500000 3.315757 46.7368 1.696842 0.441868
6530.99 6531 0.500000 3.315828 46.7395 1.696856 0.441772
6531.09 6531.1 0.500000 3.315749 46.7441 1.697130 0.441677
6531.19 6531.2 0.500000 3.315270 46.7392 1.697727 0.441975
6531.29 6531.3 0.500000 3.315211 46.7394 1.697874 0.441997
6531.39 6531.4 0.500000 3.315072 46.7402 1.698133 0.441995
6531.49 6531.5 0.500000 3.315103 46.735 1.697912 0.441879
6531.59 6531.6 0.500000 3.315157 46.7405 1.698005 0.441933
6531.69 6531.7 0.500000 3.314751 46.7424 1.698750 0.442093
6531.8 6531.8 0.500000 3.314717 46.7408 1.698789 0.441901
6531.89 6531.9 0.500000 3.314701 46.7339 1.698523 0.442079
6532 6532 0.500000 3.314617 46.7338 1.698683 0.441642
6532.1 6532.1 0.500000 3.314072 46.7347 1.699634 0.442042
6532.2 6532.2 0.500000 3.314011 46.7372 1.699830 0.442154
6532.3 6532.3 0.500000 3.314214 46.7874 1.701315 0.442404
6532.4 6532.4 0.500000 3.314149 46.7914 1.701559 0.442320
6532.5 6532.5 0.500000 3.313864 46.7896 1.701990 0.442646
6532.6 6532.6 0.500000 3.313923 46.7892 1.701874 0.442369
6532.7 6532.7 0.500000 3.313617 46.7948 1.702598 0.442311
6532.8 6532.8 0.500000 3.313578 46.8566 1.704904 0.442953
6532.9 6532.9 0.500000 3.313697 46.8549 1.704654 0.442747
6533 6533 0.500000 3.313600 46.8498 1.704638 0.442877
6533.1 6533.1 0.500000 3.313290 46.849 1.705119 0.442813
6533.2 6533.2 0.500000 3.312897 46.8512 1.705865 0.442642
6533.3 6533.3 0.500000 3.313045 46.8491 1.705554 0.442639
6533.4 6533.4 0.500000 3.313227 46.8455 1.705116 0.442490
6533.5 6533.5 0.500000 3.312958 46.8511 1.705777 0.442794
6533.6 6533.6 0.500000 3.313097 46.8519 1.705559 0.442372
6533.7 6533.7 0.500000 3.312769 46.8506 1.706055 0.442454
6533.8 6533.8 0.500000 3.312731 46.8521 1.706217 0.442191
6533.9 6533.9 0.500000 3.312508 46.8489 1.706421 0.441865
6534 6534 0.500000 3.312441 46.8477 1.706517 0.441983
6534.1 6534.1 0.500000 3.312409 46.8463 1.706532 0.441774
6534.19 6534.2 0.500000 3.312330 46.8499 1.706784 0.441979
6534.3 6534.3 0.500000 3.312401 46.8483 1.706627 0.441445
6534.4 6534.4 0.500000 3.312187 46.847 1.706906 0.441796
6534.5 6534.5 0.500000 3.312165 46.846 1.706966 0.441602
6534.6 6534.6 0.500000 3.312346 46.8439 1.706551 0.441320
6534.7 6534.7 0.500000 3.311993 46.8451 1.707180 0.440945
6534.8 6534.8 0.500000 3.311882 46.8377 1.707123 0.440845
6534.9 6534.9 0.500000 3.312011 46.8408 1.707009 0.440242
6535 6535 0.500000 3.311927 46.8401 1.707127 0.440175
6535.1 6535.1 0.500000 3.311821 46.8429 1.707410 0.440104
6535.2 6535.2 0.500000 3.311695 46.8405 1.707535 0.439749
6535.3 6535.3 0.500000 3.311424 46.8364 1.707846 0.439504
6535.4 6535.4 0.500000 3.311270 46.8403 1.708262 0.439653
6535.5 6535.5 0.500000 3.311277 46.8332 1.707985 0.438298
6535.6 6535.6 0.500000 3.311497 46.8374 1.707763 0.437942
6535.7 6535.7 0.500000 3.311527 46.8366 1.707700 0.437633
6535.8 6535.8 0.500000 3.311183 46.8394 1.708366 0.437647
6535.9 6535.9 0.500000 3.311367 46.8354 1.707912 0.436507
6536 6536 0.500000 3.311387 46.8337 1.707836 0.435892
6536.1 6536.1 0.500000 3.311338 46.835 1.707942 0.435309
6536.2 6536.2 0.500000 3.311143 46.8362 1.708326 0.434096
6536.3 6536.3 0.500000 3.311375 46.8412 1.708111 0.433590
6536.4 6536.4 0.500000 3.311365 46.8371 1.707973 0.431865
6536.5 6536.5 0.500000 3.311463 46.833 1.707661 0.431144
6536.6 6536.6 0.500000 3.311260 46.8325 1.707979 0.429785
6536.7 6536.7 0.500000 3.311569 46.8331 1.707504 0.427730
6536.8 6536.8 0.500000 3.311459 46.8303 1.707562 0.425947
6536.9 6536.9 0.500000 3.311597 46.8309 1.707362 0.423889
6536.99 6537 0.500000 3.311682 46.8297 1.707165 0.421379
6537.1 6537.1 0.500000 3.312100 46.8285 1.706421 0.418124
6537.2 6537.2 0.500000 3.312157 46.8335 1.706497 0.415494
6537.3 6537.3 0.500000 3.312314 46.8334 1.706217 0.411486
6537.4 6537.4 0.500000 3.312740 46.8288 1.705352 0.407512
6537.5 6537.5 0.500000 3.313045 46.8295 1.704843 0.403729
6537.59 6537.6 0.500000 3.313081 46.827 1.704675 0.399873
6537.7 6537.7 0.500000 3.313814 46.8282 1.703477 0.395429
6537.8 6537.8 0.500000 3.314460 46.8288 1.702400 0.391913
6537.9 6537.9 0.500000 3.315135 46.8234 1.701060 0.388093
6538 6538 0.500000 3.315865 46.8234 1.699817 0.384761
6538.1 6538.1 0.500000 3.316483 46.8214 1.698659 0.381372
6538.2 6538.2 0.500000 3.317692 46.825 1.696781 0.377702
6538.3 6538.3 0.500000 3.318606 46.8249 1.695225 0.374752
6538.4 6538.4 0.500000 3.319434 46.8233 1.693735 0.372667
6538.5 6538.5 0.500000 3.319978 46.823 1.692796 0.369916
6538.6 6538.6 0.500000 3.320994 46.8211 1.691071 0.367720
6538.7 6538.7 0.500000 3.321538 46.8237 1.690209 0.365507
6538.8 6538.8 0.500000 3.321914 46.8208 1.689466 0.363576
6538.9 6538.9 0.500000 3.322160 46.8223 1.689109 0.361719
6539 6539 0.500000 3.322406 46.8223 1.688690 0.360667
6539.1 6539.1 0.500000 3.322640 46.8251 1.688400 0.358663
6539.2 6539.2 0.500000 3.322748 46.8216 1.688093 0.356927
6539.3 6539.3 0.500000 3.322733 46.8765 1.690098 0.356320
6539.4 6539.4 0.500000 3.322708 46.8774 1.690169 0.355426
6539.5 6539.5 0.500000 3.322756 46.8758 1.690037 0.353735
6539.6 6539.6 0.500000 3.322709 46.8763 1.690126 0.352770
6539.7 6539.7 0.500000 3.322182 46.8756 1.691015 0.351576
6539.8 6539.8 0.500000 3.321763 46.8729 1.691579 0.350709
6539.9 6539.9 0.500000 3.321217 46.8733 1.692546 0.350054
6540 6540 0.500000 3.320596 46.8762 1.693693 0.349290
6540.1 6540.1 0.500000 3.320186 46.8764 1.694387 0.348448
6540.2 6540.2 0.500000 3.319465 46.8799 1.695737 0.347603
6540.3 6540.3 0.500000 3.318922 46.8804 1.696692 0.346726
6540.4 6540.4 0.500000 3.318127 46.8745 1.697837 0.346577
6540.5 6540.5 0.500000 3.317906 46.8737 1.698169 0.345358
6540.6 6540.6 0.500000 3.317785 46.8699 1.698237 0.345036
6540.7 6540.7 0.500000 3.317728 46.8734 1.698460 0.344810
6540.8 6540.8 0.500000 3.317291 46.8714 1.699123 0.344387
6540.9 6540.9 0.500000 3.317720 46.8725 1.698448 0.343440
6541 6541 0.500000 3.317509 46.8708 1.698724 0.343345
6541.1 6541.1 0.500000 3.317834 46.8672 1.698077 0.343162
6541.2 6541.2 0.500000 3.318299 46.8713 1.697402 0.342752
6541.3 6541.3 0.500000 3.318908 46.8722 1.696415 0.341949
6541.4 6541.4 0.500000 3.318941 46.8698 1.696275 0.342482
6541.5 6541.5 0.500000 3.319746 46.8715 1.694957 0.341899
6541.6 6541.6 0.500000 3.320224 46.8693 1.694076 0.341767
6541.7 6541.7 0.500000 3.320657 46.8655 1.693209 0.341446
6541.8 6541.8 0.500000 3.321631 46.8635 1.691508 0.340778
6541.9 6541.9 0.500000 3.322544 46.8648 1.689957 0.340383
6542 6542 0.500000 3.323521 46.861 1.688200 0.339587
6542.1 6542.1 0.500000 3.324514 46.8582 1.686425 0.338877
6542.2 6542.2 0.500000 3.325388 46.86 1.684934 0.338536
6542.3 6542.3 0.500000 3.326745 46.8641 1.682868 0.337624
6542.4 6542.4 0.500000 3.328202 46.865 1.680458 0.336827
6542.5 6542.5 0.500000 3.329992 46.8581 1.677128 0.335286
6542.6 6542.6 0.500000 3.331601 46.8619 1.674686 0.333957
6542.7 6542.7 0.500000 3.333794 46.8656 1.671194 0.333264
6542.8 6542.8 0.500000 3.335899 46.8627 1.667415 0.331348
6542.9 6542.9 0.500000 3.338430 46.8646 1.663318 0.330138
6543 6543 0.500000 3.341336 46.8613 1.658487 0.328685
6543.1 6543.1 0.500000 3.344308 46.8601 1.653374 0.326879
6543.2 6543.2 0.500000 3.347592 46.8586 1.647927 0.325253
6543.3 6543.3 0.500000 3.351397 46.8603 1.641875 0.323560
6543.4 6543.4 0.500000 3.355515 46.8547 1.634828 0.320764
6543.5 6543.5 0.500000 3.359879 46.8482 1.627394 0.318811
6543.6 6543.6 0.500000 3.364919 46.8505 1.619515 0.316481
6543.7 6543.7 0.500000 3.370124 46.8571 1.611359 0.314372
6543.8 6543.8 0.500000 3.376242 46.8613 1.601301 0.311782
6543.9 6543.9 0.500000 3.382699 46.8558 1.591304 0.309599
6544 6544 0.500000 3.389822 46.8497 1.579953 0.306718
6544.1 6544.1 0.500000 3.397430 46.8475 1.567385 0.303321
6544.2 6544.2 0.500000 3.406066 46.85 1.554534 0.300663
6544.3 6544.3 0.500000 3.415178 46.8482 1.540026 0.297060
6544.4 6544.4 0.500000 3.425458 46.8448 1.523875 0.293448
6544.5 6544.5 0.500000 3.435586 46.8406 1.508574 0.289651
6544.6 6544.6 0.500000 3.446926 46.842 1.491722 0.286225
6544.7 6544.7 0.500000 3.458952 46.8399 1.473583 0.281895
6544.8 6544.8 0.500000 3.471734 46.8374 1.455037 0.277594
6544.9 6544.9 0.500000 3.484635 46.8359 1.436592 0.273768
6545 6545 0.500000 3.498029 46.8316 1.416851 0.269317
6545.1 6545.1 0.500000 3.511910 46.8843 1.399016 0.265029
6545.19 6545.2 0.500000 3.526233 46.8852 1.379683 0.260747
6545.3 6545.3 0.500000 3.540578 46.8811 1.359255 0.256329
6545.4 6545.4 0.500000 3.555788 46.8743 1.338251 0.251875
6545.5 6545.5 0.500000 3.570232 46.8706 1.319482 0.247806
6545.6 6545.6 0.500000 3.585059 46.8691 1.299990 0.243213
6545.7 6545.7 0.500000 3.599552 46.8612 1.280871 0.239410
6545.8 6545.8 0.500000 3.613836 46.8661 1.262960 0.235075
6545.9 6545.9 0.500000 3.626892 46.9164 1.248131 0.231833
6546 6546 0.500000 3.640115 46.9137 1.231020 0.227626
6546.1 6546.1 0.500000 3.652084 46.9108 1.216683 0.224585
6546.2 6546.2 0.500000 3.662810 46.9081 1.203774 0.221790
6546.31 6546.3 0.500000 3.672766 46.906 1.191254 0.218317
6546.4 6546.4 0.500000 3.682358 46.9038 1.180383 0.215416
6546.5 6546.5 0.500000 3.690650 46.8975 1.170530 0.212985
6546.6 6546.6 0.500000 3.698495 46.8966 1.160966 0.210785
6546.7 6546.7 0.500000 3.705672 46.8964 1.152837 0.208237
6546.8 6546.8 0.500000 3.712638 46.8916 1.144889 0.206114
6546.9 6546.9 0.500000 3.718165 46.8918 1.138463 0.204683
6547 6547 0.500000 3.723367 46.8892 1.132465 0.202938
6547.1 6547.1 0.500000 3.729420 46.888 1.125680 0.200913
6547.2 6547.2 0.500000 3.733923 46.8834 1.120540 0.199548
6547.3 6547.3 0.500000 3.738814 46.8809 1.114799 0.197784
6547.4 6547.4 0.500000 3.743267 46.871 1.109884 0.196301
6547.5 6547.5 0.500000 3.747581 46.8742 1.105015 0.194716
6547.6 6547.6 0.500000 3.751777 46.8739 1.100412 0.193103
6547.7 6547.7 0.500000 3.756160 46.8704 1.095651 0.191716
6547.8 6547.8 0.500000 3.760834 46.8669 1.090425 0.190149
6547.9 6547.9 0.500000 3.765758 46.8651 1.084806 0.188245
6548 6548 0.500000 3.771330 46.8695 1.079105 0.186671
6548.1 6548.1 0.500000 3.776894 46.8685 1.072952 0.184940
6548.2 6548.2 0.500000 3.783652 46.8632 1.065773 0.183422
6548.3 6548.3 0.500000 3.791111 46.861 1.057620 0.181000
6548.4 6548.4 0.500000 3.799330 46.8579 1.048950 0.178907
6548.5 6548.5 0.500000 3.808182 46.8585 1.039500 0.176726
6548.6 6548.6 0.500000 3.817366 46.8528 1.030090 0.174166
6548.7 6548.7 0.500000 3.827162 46.8579 1.020109 0.171961
6548.8 6548.8 0.500000 3.838277 46.8536 1.008517 0.169209
6548.9 6548.9 0.500000 3.848840 46.8504 0.997827 0.167127
6549 6549 0.500000 3.859629 46.8517 0.987510 0.164553
6549.1 6549.1 0.500000 3.871244 46.8472 0.975863 0.162314
6549.2 6549.2 0.500000 3.883348 46.8487 0.964118 0.159578
6549.3 6549.3 0.500000 3.895614 46.8414 0.952436 0.157419
6549.4 6549.4 0.500000 3.908294 46.8466 0.940285 0.154638
6549.51 6549.5 0.500000 3.920641 46.8443 0.928690 0.152684
6549.6 6549.6 0.500000 3.932956 46.8433 0.917740 0.150129
6549.7 6549.7 0.500000 3.945639 46.8436 0.906052 0.147896
6549.81 6549.8 0.500000 3.958670 46.8429 0.893942 0.145138
6549.9 6549.9 0.500000 3.970831 46.8384 0.883483 0.143216
6550 6550 0.500000 3.982661 46.8424 0.872953 0.141242
6550.1 6550.1 0.500000 3.995217 46.8413 0.862110 0.139042
6550.2 6550.2 0.500000 4.006459 46.845 0.852408 0.136863
6550.3 6550.3 0.500000 4.017252 46.8404 0.843298 0.134887
6550.4 6550.4 0.500000 4.027559 46.8371 0.834434 0.133140
6550.5 6550.5 0.500000 4.036771 46.8401 0.826985 0.131405
6550.6 6550.6 0.500000 4.045153 46.8383 0.820043 0.130101
6550.7 6550.7 0.500000 4.051677 46.8392 0.814721 0.128804
6550.8 6550.8 0.500000 4.057804 46.8383 0.809690 0.127556
6550.9 6550.9 0.500000 4.062091 46.8356 0.806289 0.126597
6551 6551 0.500000 4.064424 46.8318 0.804238 0.125956
6551.1 6551.1 0.500000 4.065277 46.832 0.803556 0.125706
6551.2 6551.2 0.500000 4.064788 46.828 0.803881 0.125545
6551.3 6551.3 0.500000 4.062447 46.8267 0.805718 0.125387
6551.4 6551.4 0.500000 4.057676 46.8314 0.809696 0.125487
6551.49 6551.5 0.500000 4.052098 46.8289 0.814021 0.126131
6551.6 6551.6 0.500000 4.045308 46.8273 0.819647 0.126386
6551.7 6551.7 0.500000 4.036610 46.8264 0.826878 0.127354
6551.8 6551.8 0.500000 4.028296 46.8261 0.833752 0.127782
6551.9 6551.9 0.500000 4.018521 46.8237 0.841989 0.128616
6552 6552 0.500000 4.008164 46.826 0.850681 0.130013
6552.1 6552.1 0.500000 3.998106 46.8249 0.859169 0.130682
6552.2 6552.2 0.500000 3.988932 46.8216 0.867224 0.131810
6552.3 6552.3 0.500000 3.979725 46.8189 0.875284 0.132320
6552.4 6552.4 0.500000 3.971192 46.8493 0.883312 0.133487
6552.5 6552.5 0.500000 3.963127 46.8471 0.890326 0.134275
6552.6 6552.6 0.500000 3.956414 46.849 0.896261 0.134628
6552.7 6552.7 0.500000 3.949641 46.8469 0.902386 0.135444
6552.8 6552.8 0.500000 3.943664 46.849 0.907658 0.135923
6552.9 6552.9 0.500000 3.938380 46.8549 0.912713 0.136174
6553.01 6553 0.500000 3.933164 46.8526 0.917564 0.137022
6553.1 6553.1 0.500000 3.928857 46.8467 0.921327 0.137397
6553.2 6553.2 0.500000 3.925077 46.8472 0.924790 0.137597
6553.3 6553.3 0.500000 3.921765 46.8497 0.927898 0.137817
6553.4 6553.4 0.500000 3.919506 46.8494 0.929993 0.137751
6553.5 6553.5 0.500000 3.917070 46.8501 0.932252 0.138220
6553.6 6553.6 0.500000 3.916043 46.8539 0.933334 0.138193
6553.7 6553.7 0.500000 3.915800 46.8496 0.933452 0.137860
6553.8 6553.8 0.500000 3.916814 46.8518 0.932552 0.137477
6553.9 6553.9 0.500000 3.918383 46.8506 0.931070 0.136632
6554 6554 0.500000 3.920391 46.8554 0.929344 0.136636
6554.1 6554.1 0.500000 3.923574 46.8541 0.926336 0.136560
6554.2 6554.2 0.500000 3.927542 46.8504 0.922573 0.135194
6554.3 6554.3 0.500000 3.931942 46.8461 0.918414 0.134967
6554.4 6554.4 0.500000 3.936963 46.8464 0.913814 0.133649
6554.5 6554.5 0.500000 3.942554 46.8505 0.908879 0.133053
6554.6 6554.6 0.500000 3.948530 46.8517 0.903429 0.132578
6554.7 6554.7 0.500000 3.954570 46.8487 0.897911 0.131747
6554.8 6554.8 0.500000 3.960627 46.8424 0.892442 0.130417
6554.9 6554.9 0.500000 3.966269 46.8479 0.887487 0.130028
6555 6555 0.500000 3.971038 46.8501 0.883258 0.129376
6555.1 6555.1 0.500000 3.976625 46.8525 0.878494 0.128831
6555.2 6555.2 0.500000 3.980824 46.8498 0.874724 0.128164
6555.3 6555.3 0.500000 3.983459 46.8477 0.872365 0.128234
6555.4 6555.4 0.500000 3.986251 46.8478 0.869929 0.127570
6555.5 6555.5 0.500000 3.987257 46.8517 0.869111 0.127487
6555.6 6555.6 0.500000 3.987762 46.8477 0.868638 0.127650
6555.7 6555.7 0.500000 3.986503 46.85 0.869745 0.128093
6555.8 6555.8 0.500000 3.984194 46.8513 0.871764 0.128959
6555.9 6555.9 0.500000 3.981889 46.8475 0.873742 0.128882
6556 6556 0.500000 3.977820 46.8428 0.877139 0.129457
6556.1 6556.1 0.500000 3.972509 46.8471 0.881899 0.130754
6556.2 6556.2 0.500000 3.967444 46.8469 0.886550 0.131279
6556.3 6556.3 0.500000 3.960594 46.8474 0.892531 0.132665
6556.4 6556.4 0.500000 3.953293 46.8436 0.898875 0.133902
6556.51 6556.5 0.500000 3.945892 46.8437 0.905922 0.135035
6556.6 6556.6 0.500000 3.938018 46.841 0.912839 0.136265
6556.7 6556.7 0.500000 3.929695 46.8442 0.920530 0.137709
6556.8 6556.8 0.500000 3.920959 46.8432 0.928674 0.138948
6556.9 6556.9 0.500000 3.911910 46.8438 0.936988 0.140372
6557 6557 0.500000 3.902587 46.8407 0.945701 0.141870
6557.1 6557.1 0.500000 3.893402 46.8378 0.954338 0.143750
6557.2 6557.2 0.500000 3.885029 46.8367 0.962372 0.144906
6557.3 6557.3 0.500000 3.876137 46.8363 0.970933 0.146342
6557.4 6557.4 0.500000 3.867445 46.8411 0.979583 0.148105
6557.5 6557.5 0.500000 3.859588 46.8365 0.987165 0.149507
6557.6 6557.6 0.500000 3.851259 46.842 0.995536 0.151089
6557.7 6557.7 0.500000 3.843123 46.8377 1.003605 0.152546
6557.8 6557.8 0.500000 3.835360 46.8396 1.011491 0.154168
6557.9 6557.9 0.500000 3.828407 46.8376 1.018353 0.155167
6558 6558 0.500000 3.820957 46.8348 1.025820 0.156430
6558.1 6558.1 0.500000 3.813845 46.8399 1.033539 0.157743
6558.2 6558.2 0.500000 3.807107 46.8572 1.040833 0.158795
6558.3 6558.3 0.500000 3.800019 46.8582 1.048051 0.160261
6558.4 6558.4 0.500000 3.793047 46.8749 1.055998 0.161440
6558.5 6558.5 0.500000 3.786674 46.8765 1.062688 0.162975
6558.6 6558.6 0.500000 3.780076 46.876 1.069621 0.164154
6558.7 6558.7 0.500000 3.773731 46.8759 1.076608 0.165301
6558.8 6558.8 0.500000 3.767655 46.8911 1.083531 0.166290
6558.9 6558.9 0.500000 3.762068 46.9312 1.090318 0.167699
6559 6559 0.500000 3.756281 46.9324 1.096936 0.168733
6559.1 6559.1 0.500000 3.750874 46.9301 1.102685 0.169750
6559.19 6559.2 0.500000 3.745718 46.9285 1.108233 0.170627
6559.3 6559.3 0.500000 3.741124 46.9247 1.113410 0.171741
6559.4 6559.4 0.500000 3.736759 46.9239 1.118333 0.172577
6559.5 6559.5 0.500000 3.732598 46.9255 1.122788 0.173557
6559.6 6559.6 0.500000 3.728967 46.9191 1.126860 0.173776
6559.7 6559.7 0.500000 3.725220 46.9162 1.131047 0.174536
6559.8 6559.8 0.500000 3.721882 46.9181 1.134716 0.175113
6559.9 6559.9 0.500000 3.719360 46.9102 1.137526 0.176044
6560 6560 0.500000 3.716387 46.903 1.140811 0.176059
6560.1 6560.1 0.500000 3.713551 46.8995 1.143968 0.177014
6560.2 6560.2 0.500000 3.711117 46.888 1.146438 0.176816
6560.3 6560.3 0.500000 3.708622 46.8737 1.148955 0.177629
6560.4 6560.4 0.500000 3.706920 46.8578 1.150466 0.177910
6560.5 6560.5 0.500000 3.704614 46.8439 1.152826 0.178391
6560.6 6560.6 0.500000 3.702900 46.8294 1.154481 0.178856
6560.7 6560.7 0.500000 3.700955 46.8226 1.156538 0.179028
6560.8 6560.8 0.500000 3.699347 46.811 1.158085 0.179062
6560.9 6560.9 0.500000 3.698087 46.806 1.159418 0.179144
6561 6561 0.500000 3.696580 46.8172 1.161444 0.179675
6561.1 6561.1 0.500000 3.695352 46.836 1.163325 0.179916
6561.2 6561.2 0.500000 3.694776 46.86 1.164619 0.180016
6561.3 6561.3 0.500000 3.693455 46.8846 1.166737 0.180336
6561.4 6561.4 0.500000 3.692700 46.8958 1.167922 0.180402
6561.5 6561.5 0.500000 3.691905 46.903 1.169024 0.180386
6561.6 6561.6 0.500000 3.690766 46.9093 1.170505 0.180794
6561.7 6561.7 0.500000 3.690371 46.9163 1.171144 0.181065
6561.8 6561.8 0.500000 3.689918 46.9204 1.171791 0.181224
6561.9 6561.9 0.500000 3.689608 46.9186 1.172111 0.181167
6562 6562 0.500000 3.689195 46.9158 1.172520 0.180991
6562.1 6562.1 0.500000 3.688561 46.9215 1.173390 0.181201
6562.2 6562.2 0.500000 3.688263 46.9195 1.173698 0.181138
6562.3 6562.3 0.500000 3.688011 46.9179 1.173964 0.180951
6562.4 6562.4 0.500000 3.687622 46.9205 1.174487 0.180905
6562.5 6562.5 0.500000 3.687787 46.9191 1.174253 0.181191
6562.6 6562.6 0.500000 3.687544 46.918 1.174517 0.180800
6562.7 6562.7 0.500000 3.687210 46.9163 1.174866 0.180908
6562.8 6562.8 0.500000 3.687249 46.9168 1.174840 0.180846
6562.9 6562.9 0.500000 3.686853 46.9181 1.175324 0.180593
6563.01 6563 0.500000 3.687198 46.9206 1.174989 0.181072
6563.1 6563.1 0.500000 3.687208 46.9165 1.174878 0.180743
6563.21 6563.2 0.500000 3.687399 46.918 1.174670 0.180885
6563.3 6563.3 0.500000 3.687452 46.9176 1.174603 0.180776
6563.4 6563.4 0.500000 3.688165 46.9186 1.173801 0.180359
6563.5 6563.5 0.500000 3.688382 46.9192 1.173561 0.180369
6563.6 6563.6 0.500000 3.688779 46.922 1.173167 0.180616
6563.7 6563.7 0.500000 3.689141 46.9218 1.172735 0.180223
6563.8 6563.8 0.500000 3.689730 46.9202 1.172013 0.179915
6563.9 6563.9 0.500000 3.690586 46.9161 1.170912 0.179549
6564 6564 0.500000 3.691171 46.9154 1.170206 0.179305
6564.09 6564.1 0.500000 3.691513 46.9166 1.169839 0.179823
6564.2 6564.2 0.500000 3.691602 46.9156 1.169706 0.179774
6564.3 6564.3 0.500000 3.692299 46.9172 1.168960 0.179979
6564.4 6564.4 0.500000 3.693401 46.9155 1.167630 0.179015
6564.5 6564.5 0.500000 3.693556 46.9174 1.167458 0.179462
6564.6 6564.6 0.500000 3.694161 46.9153 1.166738 0.179048
6564.7 6564.7 0.500000 3.694944 46.9201 1.165911 0.178750
6564.8 6564.8 0.500000 3.695617 46.9176 1.165046 0.179126
6564.9 6564.9 0.500000 3.696233 46.9184 1.164376 0.178479
6565 6565 0.500000 3.696501 46.9172 1.164020 0.178880
6565.1 6565.1 0.500000 3.697031 46.9216 1.163513 0.178858
6565.2 6565.2 0.500000 3.697650 46.9163 1.162666 0.178476
6565.3 6565.3 0.500000 3.698113 46.9199 1.162208 0.178106
6565.4 6565.4 0.500000 3.698999 46.9211 1.161193 0.178038
6565.5 6565.5 0.500000 3.699687 46.9908 1.162155 0.178569
6565.6 6565.6 0.500000 3.700188 46.9909 1.161524 0.178031
6565.7 6565.7 0.500000 3.700857 46.9901 1.160763 0.178076
6565.8 6565.8 0.500000 3.701771 46.9892 1.159679 0.177348
6565.9 6565.9 0.500000 3.702302 46.9892 1.159033 0.177650
6566 6566 0.500000 3.703294 46.9903 1.157945 0.177364
6566.1 6566.1 0.500000 3.704122 46.9847 1.156844 0.177495
6566.2 6566.2 0.500000 3.704952 46.9888 1.155980 0.177057
6566.3 6566.3 0.500000 3.705898 46.9906 1.154953 0.176880
6566.4 6566.4 0.500000 3.706279 46.9931 1.154535 0.177512
6566.5 6566.5 0.500000 3.707727 46.9897 1.152818 0.177006
6566.6 6566.6 0.500000 3.708345 46.9842 1.151975 0.176762
6566.7 6566.7 0.500000 3.709058 46.9877 1.151233 0.176330
6566.8 6566.8 0.500000 3.709822 46.9882 1.150397 0.176237
6566.9 6566.9 0.500000 3.710820 46.9856 1.149157 0.176421
6567 6567 0.500000 3.711194 46.9838 1.148671 0.176195
6567.1 6567.1 0.500000 3.712667 46.9793 1.146899 0.175920
6567.2 6567.2 0.500000 3.712902 46.9733 1.146461 0.175844
6567.3 6567.3 0.500000 3.714066 46.9795 1.145274 0.175947
6567.4 6567.4 0.500000 3.715128 46.9834 1.144169 0.175544
6567.5 6567.5 0.500000 3.715413 46.9851 1.143836 0.175675
6567.6 6567.6 0.500000 3.716353 46.9815 1.142741 0.175142
6567.7 6567.7 0.500000 3.717386 46.9742 1.141373 0.174881
6567.8 6567.8 0.500000 3.717524 46.9747 1.141198 0.175423
6567.9 6567.9 0.500000 3.718535 46.9764 1.140129 0.174726
6568 6568 0.500000 3.719129 46.9806 1.139495 0.174998
6568.1 6568.1 0.500000 3.720056 46.9776 1.138385 0.174803
6568.2 6568.2 0.500000 3.720517 46.977 1.137858 0.174634
6568.3 6568.3 0.500000 3.720602 46.9759 1.137726 0.174895
6568.41 6568.4 0.500000 3.720839 46.9733 1.137399 0.174770
6568.5 6568.5 0.500000 3.721401 46.9768 1.136840 0.174293
6568.6 6568.6 0.500000 3.721504 46.9769 1.136724 0.175142
6568.71 6568.7 0.500000 3.721799 46.9755 1.136367 0.174895
6568.8 6568.8 0.500000 3.722140 46.9664 1.135770 0.174699
6568.9 6568.9 0.500000 3.721725 47.579 1.151035 0.177118
6569 6569 0.700000 3.721480 65.5275 1.585673 0.243830
6570.09 6570.08 0.710000 3.712675 66.7093 1.628507 0.250641
6571.22 6571.18 0.730000 3.691880 68.5961 1.710444 0.264246
6572.28 6572.29 0.740000 3.666342 69.5221 1.777401 0.274069
6573.43 6573.43 0.750000 3.639353 70.4829 1.851320 0.285226
6574.59 6574.58 0.760000 3.616704 71.4341 1.919409 0.294964
6575.77 6575.76 0.780000 3.601835 73.3227 1.999731 0.307201
6576.96 6576.95 0.790000 3.594296 74.2825 2.041284 0.312211
6578.17 6578.16 0.800000 3.593409 75.3221 2.071654 0.315936
6579.4 6579.39 0.810000 3.598067 76.2792 2.088188 0.317362
6580.65 6580.64 0.830000 3.605486 78.1657 2.124072 0.322185
6581.92 6581.91 0.840000 3.614417 79.1198 2.130897 0.322053
6583.21 6583.2 0.850000 3.624775 80.1642 2.136733 0.323039
6584.52 6584.51 0.860000 3.638311 81.1632 2.134279 0.321849
6585.84 6585.83 0.880000 3.655241 83.0536 2.147437 0.325049
6587.19 6587.18 0.890000 3.673431 83.8545 2.129102 0.323550
6588.55 6588.54 0.900000 3.688217 84.9655 2.125536 0.324637
6589.94 6589.93 0.910000 3.698572 85.9203 2.127310 0.327331
6591.33 6591.33 0.930000 3.705213 87.8297 2.160190 0.333553
6592.76 6592.75 0.940000 3.709574 88.7913 2.174314 0.337108
6594.2 6594.19 0.950000 3.715518 89.752 2.184831 0.340658
6595.66 6595.65 0.960000 3.713007 90.7222 2.214003 0.346408
6597.14 6597.13 0.980000 3.704964 92.6079 2.278274 0.358009
6598.64 6598.63 0.990000 3.699418 93.5577 2.314419 0.364765
6600.15 6600.14 1.000000 3.694046 94.5423 2.351362 0.371335
6601.69 6601.68 1.010000 3.688244 95.3083 2.384240 0.377244
6603.24 6603.24 1.030000 3.682778 97.3991 2.449842 0.387627
6604.82 6604.81 1.040000 3.676759 98.393 2.489837 0.393445
6606.4 6606.4 1.050000 3.672158 99.345 2.525473 0.398363
6608.02 6608.01 1.060000 3.669153 100.303 2.557533 0.403218
6609.66 6609.65 1.080000 3.665720 102.228 2.615578 0.411255
6611.31 6611.3 1.090000 3.658647 103.196 2.659127 0.417343
6612.98 6612.97 1.100000 3.648087 104.14 2.711894 0.424954
6614.66 6614.65 1.110000 3.635954 105.095 2.770107 0.434352
6616.37 6616.36 1.130000 3.624525 107.034 2.853722 0.447140
6618.1 6618.09 1.140000 3.615954 107.997 2.904141 0.455203
6619.84 6619.83 1.150000 3.609858 108.943 2.947530 0.462157
6621.61 6621.6 1.160000 3.604092 109.911 2.990875 0.470042
6623.39 6623.38 1.180000 3.597823 111.836 3.062441 0.481966
6625.19 6625.18 1.190000 3.591978 112.798 3.106860 0.490252
6627.01 6627 1.200000 3.587561 113.755 3.147103 0.497655
6628.85 6628.84 1.210000 3.583644 114.645 3.184173 0.505745
6630.7 6630.7 1.230000 3.581747 116.636 3.245624 0.516064
6632.59 6632.58 1.240000 3.581322 117.598 3.273795 0.520674
6634.48 6634.48 1.250000 3.580998 118.582 3.302251 0.526294
6636.41 6636.4 1.260000 3.579889 119.539 3.332594 0.532309
6638.34 6638.33 1.280000 3.579370 121.431 3.387097 0.540428
6640.3 6640.29 1.290000 3.578817 122.391 3.415785 0.546257
6642.27 6642.26 1.300000 3.578900 123.356 3.442437 0.551175
6644.26 6644.26 1.310000 3.578169 124.311 3.471612 0.556762
6646.27 6646.27 1.330000 3.575567 126.255 3.535080 0.568409
6648.31 6648.3 1.340000 3.571731 127.239 3.576338 0.576501
6650.35 6650.35 1.350000 3.566450 128.193 3.622214 0.585508
6652.43 6652.42 1.360000 3.560981 129.182 3.670193 0.594737
6654.52 6654.51 1.380000 3.555705 131.111 3.744648 0.608944
6656.62 6656.61 1.390000 3.550694 132.058 3.790695 0.617371
6658.75 6658.74 1.400000 3.546983 133.153 3.836318 0.626418
6660.89 6660.89 1.410000 3.544044 134.235 3.878876 0.633656
6663.06 6663.05 1.430000 3.541787 136.167 3.943590 0.644774
6665.24 6665.23 1.440000 3.540184 137.106 3.977178 0.650327
6667.44 6667.44 1.450000 3.538932 138.14 4.012169 0.656499
6669.66 6669.66 1.460000 3.538182 139.082 4.042583 0.661452
6671.91 6671.9 1.480000 3.537756 141.025 4.100822 0.670807
6674.17 6674.16 1.490000 3.536389 142.025 4.135530 0.677023
6676.45 6676.44 1.500000 3.535096 142.987 4.168948 0.682214
6678.75 6678.74 1.510000 3.531734 143.977 4.211978 0.690158
6681.06 6681.05 1.530000 3.528035 145.894 4.283893 0.702970
6683.4 6683.39 1.540000 3.523227 146.846 4.332583 0.712685
6685.75 6685.74 1.550000 3.518599 147.844 4.382294 0.721465
6688.13 6688.12 1.560000 3.512999 148.804 4.435506 0.732209
6690.51 6690.51 1.580000 3.506818 150.718 4.520342 0.748312
6692.93 6692.92 1.590000 3.500349 151.665 4.578328 0.760458
6695.35 6695.35 1.600000 3.493201 152.641 4.640828 0.773423
6697.8 6697.8 1.610000 3.485517 153.604 4.706084 0.786332
6700.28 6700.27 1.630000 3.477495 155.528 4.803536 0.804844
6702.76 6702.76 1.640000 3.470403 156.499 4.867783 0.818714
6705.27 6705.27 1.650000 3.464088 157.437 4.927975 0.830262
6707.79 6707.79 1.660000 3.457986 158.396 4.988384 0.842459
6710.35 6710.34 1.680000 3.451745 160.324 5.080761 0.860735
6712.9 6712.9 1.690000 3.446414 161.454 5.143894 0.872483
6715.48 6715.49 1.700000 3.441364 162.389 5.199799 0.882882
6718.08 6718.09 1.710000 3.436814 163.377 5.255364 0.893287
6720.71 6720.71 1.730000 3.432198 165.267 5.340780 0.909552
6723.35 6723.35 1.740000 3.427796 166.193 5.394347 0.919549
6726 6726.01 1.750000 3.423888 167.186 5.447798 0.929755
6728.69 6728.69 1.760000 3.421005 168.306 5.500150 0.939847
6731.39 6731.39 1.780000 3.418696 170.262 5.576941 0.954080
6734.11 6734.11 1.790000 3.416844 171.188 5.617697 0.962464
6736.84 6736.84 1.800000 3.414713 172.137 5.660869 0.971673
6739.59 6739.6 1.810000 3.412325 173.056 5.704670 0.980458
6742.37 6742.37 1.830000 3.409631 174.975 5.783559 0.995404
6745.17 6745.17 1.840000 3.406064 175.879 5.834170 1.007185
6747.98 6747.98 1.850000 3.401779 176.852 5.891633 1.019245
6750.81 6750.81 1.860000 3.396451 177.737 5.952757 1.032426
6753.66 6753.66 1.880000 3.390323 179.646 6.053671 1.052958
6756.53 6756.53 1.890000 3.383913 180.553 6.123329 1.067693
6759.42 6759.42 1.900000 3.377760 181.491 6.193171 1.082914
6762.32 6762.32 1.910000 3.372013 182.436 6.261295 1.096954
6765.25 6765.25 1.930000 3.366330 184.259 6.359915 1.115991
6768.19 6768.2 1.940000 3.360660 185.211 6.429122 1.131068
6771.16 6771.16 1.950000 3.355091 186.127 6.496952 1.145780
6774.14 6774.14 1.960000 3.349881 187.03 6.562620 1.161069
6777.15 6777.15 1.980000 3.344377 188.906 6.665032 1.181429
6780.17 6780.17 1.990000 3.338937 189.791 6.732811 1.196665
6783.21 6783.21 2.000000 3.333471 190.761 6.804352 1.212560
6786.26 6786.27 2.010000 3.327911 191.65 6.874102 1.228551
6789.35 6789.35 2.030000 3.322169 193.464 6.979157 1.249893
6792.45 6792.45 2.040000 3.316786 192.898 6.996315 1.255939
6795.56 6795.56 2.050000 3.311689 194.638 7.095405 1.276680
6798.71 6798.7 2.060000 3.307397 196.145 7.181178 1.294595
6801.85 6801.85 2.080000 3.303253 198.11 7.283214 1.315937
6805.03 6805.03 2.090000 3.299215 199.096 7.349108 1.329691
6808.22 6808.22 2.100000 3.294524 200.086 7.420355 1.344502
6811.42 6811.43 2.110000 3.289032 188.455 7.027542 1.275659
6814.66 6814.66 2.130000 3.283220 202.154 7.582360 1.378719
6817.92 6817.92 2.140000 3.276892 203.625 7.685979 1.400006
6821.18 6821.18 2.150000 3.270588 197.781 7.512598 1.371301
6824.47 6824.47 2.160000 3.264574 204.211 7.803599 1.427335
6827.79 6827.78 2.180000 3.258304 206.705 7.948712 1.456772
6831.11 6831.11 2.190000 3.252211 207.704 8.035863 1.476326
6834.45 6834.45 2.200000 3.246281 208.607 8.118726 1.495944
6837.82 6837.82 2.210000 3.240094 209.185 8.191799 1.512720
6841.2 6841.2 2.230000 3.234593 206.598 8.135041 1.506067
6844.6 6844.6 2.240000 3.229370 211.739 8.381184 1.555467
6848.03 6848.03 2.250000 3.224185 212.735 8.464415 1.575185
6851.48 6851.47 2.260000 3.219242 213.561 8.539363 1.593260
6854.93 6854.93 2.280000 3.214419 215.349 8.652458 1.618522
6858.41 6858.4 2.290000 3.209650 216.321 8.733070 1.638129
6861.9 6861.9 2.300000 3.204903 217.152 8.808271 1.656267
6865.43 6865.42 2.310000 3.200043 217.915 8.882349 1.674553
6868.96 6868.96 2.330000 3.195091 219.859 9.006077 1.702217
6872.51 6872.51 2.340000 3.189641 220.72 9.090679 1.722936
6876.09 6876.09 2.350000 3.184676 221.582 9.171650 1.742341
6879.68 6879.68 2.360000 3.178785 222.308 9.256046 1.762488
6883.29 6883.29 2.380000 3.173397 224.363 9.392143 1.793342
6886.92 6886.92 2.390000 3.167598 225.284 9.485520 1.814830
6890.57 6890.57 2.400000 3.161518 226.461 9.593216 1.839363
6894.24 6894.24 2.410000 3.155142 227.369 9.693272 1.862577
6897.93 6897.93 2.430000 3.149079 229.204 9.830974 1.894287
6901.64 6901.64 2.440000 3.142739 230.081 9.931321 1.916558
6905.36 6905.36 2.450000 3.136373 230.955 10.0327 1.941147
6909.11 6909.11 2.460000 3.130016 231.749 10.1314 1.965319
6912.88 6912.87 2.480000 3.123867 233.387 10.266 1.995323
6916.67 6916.66 2.490000 3.117708 234.164 10.3638 2.018874
6920.46 6920.46 2.500000 3.111744 234.959 10.4611 2.043205
6924.28 6924.28 2.510000 3.105739 235.776 10.5607 2.067896
6928.12 6928.12 2.530000 3.099910 237.52 10.7011 2.099917
6931.98 6931.98 2.540000 3.093910 238.335 10.8025 2.124866
6935.87 6935.86 2.550000 3.087942 239.167 10.905 2.150955
6939.76 6939.76 2.560000 3.082089 239.996 11.0071 2.176772
6943.69 6943.68 2.580000 3.076589 241.742 11.1483 2.209827
6947.61 6947.61 2.590000 3.071135 242.545 11.2465 2.235542
6951.57 6951.57 2.600000 3.065380 243.304 11.3468 2.260360
6955.54 6955.54 2.610000 3.059713 244.126 11.4498 2.287000
6959.54 6959.54 2.630000 3.053842 245.87 11.5995 2.323008
6963.55 6963.55 2.640000 3.048098 246.677 11.7046 2.350930
6967.58 6967.58 2.650000 3.042017 247.478 11.8143 2.379189
6971.63 6971.63 2.660000 3.035960 248.24 11.9226 2.406631
6975.71 6975.7 2.680000 3.029977 249.993 12.0789 2.445188
6979.79 6979.79 2.690000 3.023768 250.826 12.1945 2.474128
6983.9 6983.9 2.700000 3.017564 251.703 12.3134 2.506052
6988.02 6988.02 2.710000 3.011312 252.687 12.4391 2.537533
6992.17 6992.17 2.730000 3.005077 254.367 12.6001 2.576187
6996.33 6996.33 2.740000 2.998885 255.178 12.7187 2.607561
7000.52 7000.52 2.750000 2.992852 255.924 12.8331 2.637562
7004.72 7004.72 2.760000 2.986829 256.662 12.9478 2.667969
7008.94 7008.94 2.780000 2.980610 258.291 13.1113 2.707918
7013.19 7013.18 2.790000 2.974467 259.054 13.2311 2.740142
7017.44 7017.44 2.800000 2.968300 259.777 13.3501 2.771312
7021.72 7021.72 2.810000 2.961966 260.481 13.4713 2.803736
7026.02 7026.02 2.830000 2.955992 262.039 13.6331 2.844130
7030.34 7030.34 2.840000 2.949768 262.978 13.7674 2.879358
7034.68 7034.67 2.850000 2.943601 263.814 13.8966 2.914156
7039.03 7039.03 2.860000 2.937597 264.55 14.0193 2.947839
7043.41 7043.4 2.880000 2.931457 266.114 14.1891 2.991232
7047.81 7047.8 2.890000 2.925359 266.868 14.3163 3.025938
7052.21 7052.21 2.900000 2.919089 267.574 14.4444 3.060657
7056.64 7056.64 2.910000 2.912827 268.221 14.5703 3.094938
7061.09 7061.09 2.930000 2.906612 269.367 14.7237 3.136696
7065.56 7065.56 2.940000 2.900015 270.981 14.9099 3.184744
7070.05 7070.05 2.950000 2.893935 269.864 14.939 3.199382
7074.56 7074.56 2.960000 2.887553 270.121 15.0491 3.232095
7079.08 7079.08 2.980000 2.881167 273.985 15.3621 3.306960
7083.63 7083.63 2.990000 2.874805 274.653 15.4979 3.344952
7088.2 7088.19 3.000000 2.868501 275.594 15.6495 3.387841
7092.78 7092.78 3.010000 2.862299 276.383 15.7919 3.426452
7097.38 7097.38 3.030000 2.856250 278.035 15.9826 3.477838
7102 7102 3.040000 2.850563 278.845 16.1205 3.517174
7106.64 7106.64 3.050000 2.845511 279.603 16.2462 3.554000
7111.3 7111.3 3.060000 2.845094 279.904 16.2705 3.567102
7115.98 7115.98 3.080000 2.844233 281.211 16.3605 3.592957
7120.68 7120.68 3.090000 2.990043 280.699 14.1157 3.105455
7125.4 7125.4 3.100000 3.185437 276.458 11.4346 2.517441
7130.13 7130.13 3.110000 3.144569 270.535 11.6566 2.570455
7134.89 7134.89 3.130000 3.021895 271.994 13.2486 2.931193
7139.66 7139.66 3.140000 3.013713 275.164 13.513 2.997474
7144.46 7144.46 3.150000 3.016066 276.903 13.5665 3.017824
7149.27 7149.27 3.160000 2.966539 278.922 14.3587 3.202656
7154.1 7154.1 3.180000 2.953987 281.654 14.683 3.284230
7158.95 7158.95 3.190000 2.970489 282.587 14.4907 3.248884
7163.83 7163.82 3.200000 2.995564 283.338 14.1693 3.186220
7168.71 7168.71 3.210000 3.000821 283.422 14.0992 3.178999
7173.62 7173.62 3.230000 2.998554 284.625 14.1912 3.207480
7178.54 7178.54 3.240000 2.983909 284.995 14.4192 3.269672
7183.49 7183.49 3.250000 2.973666 285.633 14.6002 3.318219
7188.45 7188.45 3.260000 2.959461 286.087 14.8328 3.381613
7193.45 7193.44 3.280000 2.944278 287.869 15.1536 3.463632
7198.45 7198.44 3.290000 2.932931 288.619 15.3664 3.521970
7203.46 7203.46 3.300000 2.924005 289.744 15.5644 3.576501
7208.5 7208.5 3.310000 2.919751 290.704 15.6826 3.613313
7213.56 7213.56 3.330000 2.915974 292.73 15.8517 3.662560
7218.65 7218.64 3.340000 2.913216 293.42 15.933 3.691505
7223.75 7223.74 3.350000 2.906613 293.786 16.0587 3.730885
7228.87 7228.86 3.360000 2.896763 295.085 16.2892 3.794335
7233.99 7233.99 3.380000 2.888571 296.519 16.503 3.854758
7239.15 7239.15 3.390000 2.884029 297.105 16.6109 3.890781
7244.32 7244.32 3.400000 2.881280 298.301 16.7237 3.928866
7249.52 7249.52 3.410000 2.878266 298.487 16.7847 3.953590
7254.73 7254.73 3.430000 2.873050 297.54 16.8189 3.971430
7259.97 7259.96 3.440000 2.866373 300.351 17.0916 4.046272
7265.21 7265.21 3.450000 2.858172 300.535 17.2427 4.093873
7270.48 7270.48 3.460000 2.848483 303.254 17.5681 4.183029
7275.77 7275.77 3.480000 2.837810 305.147 17.8676 4.265798
7281.08 7281.08 3.490000 2.828207 300.236 17.7496 4.248657