File: xdidata/Data/Mn/Mn-K-WolframiteA.xdi
# XDI/1.0 BlueSky/1.5.3
# Beamline.name: 6BM
# Beamline.xray_source: NSLS-II three-pole wiggler
# Beamline.collimation: paraboloid mirror, 5 nm Rh on 30 nm Pt
# Beamline.focusing: not in use
# Beamline.harmonic_rejection: flat mirror, Si stripe, pitch = 7.0 mrad relative to beam
# Detector.i0: 10 cm N2
# Detector.i1: 25 cm N2
# Detector.i2: 25 cm N2
# Element.symbol: Mn
# Element.edge: K
# Facility.name: NSLS-II
# Facility.energy: 3.0
# Facility.current: 400.5
# Facility.mode: top-off
# Facility.gup: 305081
# Facility.saf: 305123
# Mono.name: Si(111)
# Mono.d_spacing: 3.13532
# Mono.encoder_resolution: 0.0000050 deg/ct
# Mono.angle_offset: 16.0581 deg
# Mono.scan_mode: fixed exit
# Mono.scan_type: step
# Mono.direction: forward in energy
# Sample.name: (Fe,Mn)WO4
# Sample.prep: Powder in polyethylene glycol pellet
# Sample.x_position: -120.140 mm
# Sample.y_position: 112.312 mm
# Scan.experimenters: Neil Hyatt, Martin Stennett, Lucy Mottram
# Scan.edge_energy: 6539.0
# Scan.start_time: 2019-11-11T16:36:13
# Scan.end_time: 2019-11-12T02:01:41
# Scan.transient_id: 17903
# Scan.uid: b79577cf-ac8c-48fa-a540-17be9d04a3cc
# Scan.plot_hint: ln(I0/It)  --  ln($5/$6)
# Scan.sequence: merge of 3 scans
# Column.1: energy eV
# Column.2: requested_energy eV
# Column.3: measurement_time seconds
# Column.4: mutrans
# Column.5: i0
# Column.6: itrans
# Column.7: irefer
# /////
#  Cumberland, Amber â€“ ID
# -----
# energy   requested_energy   measurement_time   mutrans   i0   itrans   irefer
6339 6339 0.500000 4.286224 89.701 1.234002 0.282870
6349.01 6349 0.500000 4.269278 89.8778 1.257570 0.290679
6359.01 6359 0.500000 4.252490 90.0435 1.281209 0.297973
6369.02 6369 0.500000 4.235490 90.2151 1.305647 0.305159
6379.02 6379 0.500000 4.219399 90.4037 1.329607 0.313500
6389.01 6389 0.500000 4.202659 90.6854 1.356259 0.322174
6399.01 6399 0.500000 4.186222 90.8529 1.381286 0.329883
6409.01 6409 0.500000 4.169746 91.0015 1.406529 0.338453
6419.01 6419 0.500000 4.153477 91.1531 1.431976 0.346573
6429.01 6429 0.500000 4.137153 91.2993 1.457878 0.355774
6439.01 6439 0.500000 4.120718 91.5206 1.485627 0.364654
6449.01 6449 0.500000 4.104944 91.5252 1.509330 0.372618
6459.01 6459 0.500000 4.089213 91.5119 1.533043 0.380708
6469 6469 0.500000 4.073402 91.9323 1.564620 0.391454
6479 6479 0.500000 4.057586 92.0803 1.592132 0.400763
6489 6489 0.500000 4.041778 92.2426 1.620336 0.410600
6499 6499 0.500000 4.026037 92.4146 1.649114 0.420060
6509.44 6509 0.500000 4.010821 92.5908 1.678340 0.429893
6510.99 6511 0.500000 4.007859 92.6015 1.682756 0.431468
6512.99 6513 0.500000 4.004986 92.6238 1.688020 0.433544
6514.99 6515 0.500000 4.002031 92.6547 1.693575 0.434947
6516.98 6517 0.500000 3.998778 92.6833 1.699601 0.437087
6518.99 6519 0.500000 3.995555 92.7119 1.705607 0.438874
6521.25 6521 0.500000 3.992400 92.759 1.712352 0.441305
6523.26 6523 0.500000 3.989090 92.7922 1.718331 0.442678
6524.99 6525 0.500000 3.985782 92.8121 1.723826 0.444620
6526.98 6527 0.500000 3.982726 92.8411 1.730055 0.446117
6528.98 6529 0.500000 3.979702 92.872 1.735875 0.447851
6529.09 6529.1 0.500000 3.979557 92.8792 1.736278 0.448317
6529.18 6529.2 0.500000 3.979392 92.8824 1.736423 0.447699
6529.28 6529.3 0.500000 3.979281 92.8822 1.736802 0.447432
6529.38 6529.4 0.500000 3.979004 92.8704 1.737072 0.448067
6529.49 6529.5 0.500000 3.978891 92.8576 1.737015 0.448131
6529.59 6529.6 0.500000 3.978817 92.8672 1.737343 0.447751
6529.69 6529.7 0.500000 3.978641 92.8538 1.737391 0.448049
6529.79 6529.8 0.500000 3.978314 92.8537 1.737966 0.448406
6529.89 6529.9 0.500000 3.978286 92.8594 1.738108 0.448232
6529.98 6530 0.500000 3.978229 92.8547 1.738134 0.448356
6530.08 6530.1 0.500000 3.978031 92.8464 1.738313 0.447691
6530.19 6530.2 0.500000 3.977842 92.8577 1.738852 0.448388
6530.28 6530.3 0.500000 3.977463 92.8639 1.739623 0.448774
6530.39 6530.4 0.500000 3.977666 92.8467 1.738946 0.448087
6530.49 6530.5 0.500000 3.977450 92.8508 1.739401 0.448311
6530.59 6530.6 0.500000 3.977222 92.843 1.739665 0.448489
6530.69 6530.7 0.500000 3.976920 92.8574 1.740440 0.448926
6530.78 6530.8 0.500000 3.976916 92.8509 1.740337 0.448701
6530.89 6530.9 0.500000 3.976698 92.8541 1.740775 0.448545
6530.99 6531 0.500000 3.976407 92.8473 1.741119 0.448629
6531.09 6531.1 0.500000 3.976293 92.8557 1.741503 0.448390
6531.19 6531.2 0.500000 3.976175 92.8627 1.741845 0.448852
6531.29 6531.3 0.500000 3.976209 92.853 1.741593 0.448695
6531.39 6531.4 0.500000 3.976033 92.8553 1.741959 0.448976
6531.49 6531.5 0.500000 3.975612 92.8651 1.742882 0.448591
6531.59 6531.6 0.500000 3.975168 92.9281 1.744808 0.449362
6531.69 6531.7 0.500000 3.975278 92.9728 1.745456 0.449614
6531.8 6531.8 0.500000 3.975344 92.9614 1.745147 0.449476
6531.89 6531.9 0.500000 3.975010 92.9636 1.745759 0.449527
6531.99 6532 0.500000 3.975006 92.9746 1.745991 0.449894
6532.1 6532.1 0.500000 3.974750 92.9735 1.746392 0.450017
6532.2 6532.2 0.500000 3.974597 92.9693 1.746578 0.449677
6532.3 6532.3 0.500000 3.974496 92.9656 1.746718 0.449559
6532.4 6532.4 0.500000 3.974123 92.9686 1.747371 0.449421
6532.5 6532.5 0.500000 3.974026 92.9687 1.747578 0.449586
6532.6 6532.6 0.500000 3.974171 92.9559 1.747094 0.449482
6532.7 6532.7 0.500000 3.973826 92.9567 1.747693 0.449408
6532.8 6532.8 0.500000 3.973697 92.9592 1.748000 0.449829
6532.9 6532.9 0.500000 3.973414 92.9527 1.748324 0.449733
6533 6533 0.500000 3.973488 92.9464 1.748114 0.449308
6533.1 6533.1 0.500000 3.973204 92.9474 1.748595 0.449557
6533.2 6533.2 0.500000 3.973272 92.9546 1.748642 0.448915
6533.3 6533.3 0.500000 3.972925 92.9563 1.749246 0.449527
6533.4 6533.4 0.500000 3.972521 92.9507 1.749851 0.449600
6533.5 6533.5 0.500000 3.972404 92.9558 1.750164 0.449349
6533.6 6533.6 0.500000 3.972533 92.9374 1.749617 0.449228
6533.7 6533.7 0.500000 3.972199 92.9461 1.750290 0.449468
6533.8 6533.8 0.500000 3.971924 92.9374 1.750642 0.449262
6533.9 6533.9 0.500000 3.972000 92.9345 1.750507 0.449137
6534 6534 0.500000 3.971938 92.9367 1.750617 0.448664
6534.1 6534.1 0.500000 3.971549 92.9361 1.751279 0.449208
6534.19 6534.2 0.500000 3.971573 92.931 1.751160 0.448958
6534.3 6534.3 0.500000 3.971491 92.9293 1.751266 0.448673
6534.4 6534.4 0.500000 3.971224 92.9263 1.751672 0.448004
6534.5 6534.5 0.500000 3.971052 92.9281 1.752025 0.448759
6534.6 6534.6 0.500000 3.970868 92.9373 1.752526 0.448254
6534.7 6534.7 0.500000 3.970665 92.9314 1.752760 0.448211
6534.8 6534.8 0.500000 3.970733 92.9262 1.752535 0.447674
6534.9 6534.9 0.500000 3.970418 92.9306 1.753169 0.447757
6535 6535 0.500000 3.970339 92.9195 1.753110 0.447497
6535.1 6535.1 0.500000 3.970334 92.9171 1.753066 0.447101
6535.2 6535.2 0.500000 3.970007 92.9143 1.753585 0.447272
6535.3 6535.3 0.500000 3.969710 92.9164 1.754151 0.446829
6535.4 6535.4 0.500000 3.969538 92.9152 1.754427 0.446344
6535.5 6535.5 0.500000 3.969557 92.9143 1.754377 0.446241
6535.6 6535.6 0.500000 3.969435 92.911 1.754531 0.445787
6535.7 6535.7 0.500000 3.969272 92.9045 1.754702 0.445330
6535.8 6535.8 0.500000 3.969221 92.8972 1.754643 0.445022
6535.9 6535.9 0.500000 3.968800 92.8977 1.755384 0.444612
6536 6536 0.500000 3.968900 92.8979 1.755232 0.443523
6536.1 6536.1 0.500000 3.968621 92.9007 1.755753 0.443128
6536.2 6536.2 0.500000 3.968458 92.8978 1.756003 0.442372
6536.3 6536.3 0.500000 3.968278 92.8803 1.755971 0.441480
6536.4 6536.4 0.500000 3.968136 92.888 1.756370 0.440453
6536.5 6536.5 0.500000 3.967937 92.8916 1.756793 0.439149
6536.6 6536.6 0.500000 3.967778 92.9951 1.759036 0.438260
6536.7 6536.7 0.500000 3.967642 92.9947 1.759260 0.436910
6536.8 6536.8 0.500000 3.967267 93.0018 1.760056 0.435233
6536.9 6536.9 0.500000 3.967465 92.9978 1.759653 0.432627
6537 6537 0.500000 3.967175 92.9977 1.760128 0.430533
6537.1 6537.1 0.500000 3.967301 92.9888 1.759751 0.427668
6537.2 6537.2 0.500000 3.967114 92.9923 1.760150 0.424240
6537.3 6537.3 0.500000 3.966848 92.9817 1.760417 0.421170
6537.4 6537.4 0.500000 3.966567 92.9786 1.760856 0.417574
6537.5 6537.5 0.500000 3.966638 92.9749 1.760654 0.413545
6537.6 6537.6 0.500000 3.966547 92.9737 1.760798 0.410070
6537.7 6537.7 0.500000 3.966372 92.9683 1.760995 0.405790
6537.8 6537.8 0.500000 3.965925 92.9762 1.761938 0.402305
6537.9 6537.9 0.500000 3.966109 92.9784 1.761663 0.398377
6538 6538 0.500000 3.965754 92.9765 1.762242 0.395111
6538.1 6538.1 0.500000 3.965711 92.9934 1.762641 0.392433
6538.2 6538.2 0.500000 3.965535 93.0637 1.764287 0.389768
6538.3 6538.3 0.500000 3.965160 93.0705 1.765072 0.386939
6538.4 6538.4 0.500000 3.965203 93.0719 1.765028 0.384330
6538.5 6538.5 0.500000 3.965051 93.0729 1.765317 0.382468
6538.6 6538.6 0.500000 3.964901 93.0655 1.765439 0.380767
6538.7 6538.7 0.500000 3.964685 93.0592 1.765702 0.378375
6538.8 6538.8 0.500000 3.964516 93.0761 1.766320 0.376690
6538.9 6538.9 0.500000 3.964601 93.0645 1.765952 0.375082
6539 6539 0.500000 3.964469 93.0613 1.766129 0.373262
6539.1 6539.1 0.500000 3.964062 93.0617 1.766843 0.372322
6539.2 6539.2 0.500000 3.963963 93.0555 1.766906 0.370946
6539.3 6539.3 0.500000 3.963802 93.0481 1.767053 0.369199
6539.4 6539.4 0.500000 3.963651 93.062 1.767581 0.367859
6539.5 6539.5 0.500000 3.963473 93.0536 1.767739 0.366956
6539.6 6539.6 0.500000 3.963465 93.0524 1.767724 0.365517
6539.71 6539.7 0.500000 3.963404 93.0592 1.767964 0.364373
6539.8 6539.8 0.500000 3.963136 93.0556 1.768366 0.363677
6539.9 6539.9 0.500000 3.963255 93.0418 1.767899 0.362277
6540 6540 0.500000 3.962788 93.0458 1.768795 0.361625
6540.1 6540.1 0.500000 3.962866 93.0462 1.768673 0.360116
6540.2 6540.2 0.500000 3.962396 93.0471 1.769518 0.359589
6540.3 6540.3 0.500000 3.962550 93.0423 1.769160 0.358358
6540.4 6540.4 0.500000 3.962039 93.0361 1.769938 0.358159
6540.5 6540.5 0.500000 3.961907 93.0546 1.770523 0.357368
6540.6 6540.6 0.500000 3.961776 93.0453 1.770578 0.356481
6540.7 6540.7 0.500000 3.961544 93.034 1.770760 0.356178
6540.8 6540.8 0.500000 3.961745 93.0366 1.770480 0.355380
6540.9 6540.9 0.500000 3.961367 93.0433 1.771279 0.355289
6541 6541 0.500000 3.961405 93.0321 1.770984 0.354648
6541.1 6541.1 0.500000 3.961316 93.0353 1.771207 0.354367
6541.2 6541.2 0.500000 3.960994 93.0233 1.771547 0.354128
6541.3 6541.3 0.500000 3.960945 93.025 1.771669 0.354096
6541.4 6541.4 0.500000 3.960545 93.0307 1.772488 0.354336
6541.5 6541.5 0.500000 3.960478 93.0355 1.772690 0.354130
6541.6 6541.6 0.500000 3.960442 93.0264 1.772586 0.354087
6541.7 6541.7 0.500000 3.960178 93.0285 1.773095 0.353975
6541.8 6541.8 0.500000 3.960092 93.0231 1.773151 0.354236
6541.9 6541.9 0.500000 3.959986 93.019 1.773255 0.353604
6542 6542 0.500000 3.959939 93.0258 1.773463 0.353377
6542.1 6542.1 0.500000 3.959631 93.0261 1.774021 0.353323
6542.2 6542.2 0.500000 3.959570 93.0286 1.774176 0.352940
6542.3 6542.3 0.500000 3.959431 93.0175 1.774204 0.352626
6542.4 6542.4 0.500000 3.959360 93.0123 1.774240 0.351909
6542.5 6542.5 0.500000 3.959268 93.0103 1.774355 0.351631
6542.6 6542.6 0.500000 3.959446 93.0089 1.774026 0.350694
6542.7 6542.7 0.500000 3.959044 93.0147 1.774848 0.350517
6542.81 6542.8 0.500000 3.958984 93.0108 1.774876 0.349772
6542.9 6542.9 0.500000 3.958623 93.0072 1.775450 0.349344
6543 6543 0.500000 3.958289 93.002 1.775934 0.348266
6543.1 6543.1 0.500000 3.958331 93.0031 1.775883 0.347269
6543.2 6543.2 0.500000 3.958336 92.9978 1.775776 0.347403
6543.3 6543.3 0.500000 3.958232 92.9947 1.775897 0.346393
6543.4 6543.4 0.500000 3.958107 93.0028 1.776278 0.345639
6543.5 6543.5 0.500000 3.958053 92.9988 1.776300 0.344562
6543.6 6543.6 0.500000 3.957907 92.9916 1.776419 0.344453
6543.7 6543.7 0.500000 3.957586 92.9877 1.776912 0.343970
6543.8 6543.8 0.500000 3.957756 92.9904 1.776674 0.343030
6543.9 6543.9 0.500000 3.957348 92.9862 1.777311 0.342586
6544 6544 0.500000 3.957257 92.9938 1.777608 0.341968
6544.1 6544.1 0.500000 3.957424 92.9866 1.777180 0.341176
6544.2 6544.2 0.500000 3.957318 92.9888 1.777417 0.340466
6544.3 6544.3 0.500000 3.957200 92.9836 1.777521 0.339845
6544.4 6544.4 0.500000 3.957152 92.9757 1.777461 0.338927
6544.49 6544.5 0.500000 3.957273 92.9536 1.776816 0.337939
6544.6 6544.6 0.500000 3.957036 92.9789 1.777726 0.337856
6544.7 6544.7 0.500000 3.956851 93.0206 1.778849 0.337468
6544.8 6544.8 0.500000 3.956865 93.0087 1.778607 0.336091
6544.9 6544.9 0.500000 3.956893 93.0124 1.778620 0.335585
6545 6545 0.500000 3.956869 93.0448 1.779274 0.335011
6545.1 6545.1 0.500000 3.956547 93.046 1.779863 0.334607
6545.19 6545.2 0.500000 3.956397 93.0476 1.780173 0.333409
6545.3 6545.3 0.500000 3.956429 93.0505 1.780169 0.332335
6545.4 6545.4 0.500000 3.956302 93.0433 1.780259 0.332252
6545.5 6545.5 0.500000 3.956486 93.0497 1.780060 0.330601
6545.6 6545.6 0.500000 3.956323 93.0499 1.780345 0.330166
6545.7 6545.7 0.500000 3.956154 93.0362 1.780381 0.329399
6545.8 6545.8 0.500000 3.955882 93.0371 1.780882 0.328775
6545.9 6545.9 0.500000 3.955982 93.0369 1.780730 0.327362
6546.01 6546 0.500000 3.956194 93.0332 1.780272 0.326159
6546.1 6546.1 0.500000 3.956082 93.0328 1.780447 0.325745
6546.2 6546.2 0.500000 3.955805 93.0307 1.780899 0.324392
6546.3 6546.3 0.500000 3.955954 93.034 1.780707 0.323534
6546.4 6546.4 0.500000 3.955743 93.0273 1.780938 0.322704
6546.5 6546.5 0.500000 3.955692 93.0336 1.781162 0.321462
6546.61 6546.6 0.500000 3.955484 93.0318 1.781490 0.320881
6546.7 6546.7 0.500000 3.955687 93.0325 1.781157 0.319319
6546.8 6546.8 0.500000 3.955595 93.0218 1.781096 0.318269
6546.9 6546.9 0.500000 3.955483 93.0178 1.781235 0.317426
6547 6547 0.500000 3.955436 93.0138 1.781243 0.316192
6547.1 6547.1 0.500000 3.955188 93.0217 1.781827 0.315069
6547.2 6547.2 0.500000 3.955245 93.0171 1.781633 0.314184
6547.3 6547.3 0.500000 3.955288 93.0158 1.781536 0.313037
6547.4 6547.4 0.500000 3.955122 93.0075 1.781666 0.312168
6547.5 6547.5 0.500000 3.955009 93.0078 1.781881 0.311166
6547.6 6547.6 0.500000 3.954939 93.0125 1.782097 0.309885
6547.7 6547.7 0.500000 3.954822 93.0125 1.782295 0.309100
6547.8 6547.8 0.500000 3.954558 93.0077 1.782664 0.308168
6547.9 6547.9 0.500000 3.954554 93.0069 1.782675 0.306642
6548 6548 0.500000 3.954389 93.0016 1.782872 0.305955
6548.1 6548.1 0.500000 3.954124 93.0071 1.783447 0.305305
6548.2 6548.2 0.500000 3.954508 93.0033 1.782706 0.303390
6548.3 6548.3 0.500000 3.954162 93.0021 1.783281 0.302988
6548.4 6548.4 0.500000 3.954324 92.9939 1.782844 0.301437
6548.5 6548.5 0.500000 3.954246 92.9799 1.782708 0.299809
6548.6 6548.6 0.500000 3.953833 92.9792 1.783432 0.299494
6548.7 6548.7 0.500000 3.953738 92.9874 1.783749 0.298759
6548.8 6548.8 0.500000 3.953708 92.9976 1.784012 0.297358
6548.9 6548.9 0.500000 3.953515 92.9971 1.784336 0.296232
6549 6549 0.500000 3.953586 92.9819 1.783920 0.294990
6549.1 6549.1 0.500000 3.953461 92.972 1.783960 0.294226
6549.2 6549.2 0.500000 3.953441 92.9692 1.783936 0.293121
6549.3 6549.3 0.500000 3.953396 92.9765 1.784160 0.292327
6549.4 6549.4 0.500000 3.953037 92.9759 1.784779 0.291020
6549.5 6549.5 0.500000 3.953224 92.9706 1.784358 0.289912
6549.6 6549.6 0.500000 3.952989 93.0352 1.786003 0.289781
6549.71 6549.7 0.500000 3.953007 93.0799 1.786850 0.288626
6549.8 6549.8 0.500000 3.952906 93.0751 1.786924 0.287921
6549.9 6549.9 0.500000 3.952772 93.0945 1.787545 0.286720
6550.01 6550 0.500000 3.952803 93.0792 1.787189 0.285812
6550.11 6550.1 0.500000 3.952896 93.0852 1.787164 0.285031
6550.2 6550.2 0.500000 3.952614 93.0853 1.787640 0.284550
6550.3 6550.3 0.500000 3.952545 93.0809 1.787686 0.283486
6550.4 6550.4 0.500000 3.952287 93.0761 1.788049 0.282706
6550.5 6550.5 0.500000 3.952401 93.0695 1.787741 0.281766
6550.6 6550.6 0.500000 3.952129 93.0647 1.788098 0.280989
6550.7 6550.7 0.500000 3.952018 93.0697 1.788409 0.279830
6550.8 6550.8 0.500000 3.951928 93.0702 1.788577 0.279746
6550.9 6550.9 0.500000 3.951699 93.0684 1.788958 0.278887
6551 6551 0.500000 3.951543 93.0585 1.789041 0.278097
6551.1 6551.1 0.500000 3.951702 93.0568 1.788734 0.277105
6551.2 6551.2 0.500000 3.951579 93.1077 1.789927 0.276959
6551.3 6551.3 0.500000 3.951022 93.154 1.791823 0.276511
6551.4 6551.4 0.500000 3.950927 93.1465 1.791831 0.275677
6551.49 6551.5 0.500000 3.950705 93.1526 1.792358 0.274955
6551.6 6551.6 0.500000 3.950712 93.1367 1.792040 0.274053
6551.7 6551.7 0.500000 3.950568 93.1372 1.792303 0.273690
6551.8 6551.8 0.500000 3.950291 93.1387 1.792833 0.272872
6551.9 6551.9 0.500000 3.950067 93.1301 1.793069 0.271998
6552 6552 0.500000 3.949917 93.1375 1.793499 0.271549
6552.1 6552.1 0.500000 3.949504 93.1291 1.794047 0.270672
6552.2 6552.2 0.500000 3.949230 93.1345 1.794655 0.270583
6552.3 6552.3 0.500000 3.949285 93.1296 1.794467 0.270076
6552.4 6552.4 0.500000 3.949081 93.1258 1.794738 0.268475
6552.5 6552.5 0.500000 3.948685 93.1244 1.795433 0.268651
6552.6 6552.6 0.500000 3.948598 93.1144 1.795401 0.267884
6552.7 6552.7 0.500000 3.948595 93.1201 1.795521 0.267169
6552.8 6552.8 0.500000 3.948344 93.1303 1.796162 0.267124
6552.91 6552.9 0.500000 3.948137 93.1303 1.796546 0.266720
6553 6553 0.500000 3.948008 93.1236 1.796643 0.265837
6553.1 6553.1 0.500000 3.947659 93.1143 1.797084 0.265610
6553.2 6553.2 0.500000 3.947572 93.1188 1.797330 0.265103
6553.3 6553.3 0.500000 3.947375 93.1144 1.797606 0.264639
6553.4 6553.4 0.500000 3.947073 93.1134 1.798114 0.264165
6553.5 6553.5 0.500000 3.946898 93.1159 1.798491 0.263964
6553.6 6553.6 0.500000 3.946611 93.1067 1.798820 0.263898
6553.7 6553.7 0.500000 3.946591 93.0984 1.798702 0.263258
6553.8 6553.8 0.500000 3.946437 93.0965 1.798945 0.262825
6553.9 6553.9 0.500000 3.946275 93.1144 1.799571 0.262573
6554 6554 0.500000 3.945887 93.1184 1.800339 0.262849
6554.1 6554.1 0.500000 3.945768 93.1137 1.800479 0.262031
6554.2 6554.2 0.500000 3.945646 93.1064 1.800554 0.262517
6554.3 6554.3 0.500000 3.945656 93.1111 1.800647 0.261896
6554.4 6554.4 0.500000 3.945420 93.1141 1.801109 0.261968
6554.5 6554.5 0.500000 3.945196 93.1119 1.801477 0.261744
6554.6 6554.6 0.500000 3.944960 93.1169 1.801990 0.261883
6554.7 6554.7 0.500000 3.945003 93.1145 1.801869 0.261611
6554.8 6554.8 0.500000 3.944456 93.117 1.802886 0.262312
6554.9 6554.9 0.500000 3.944649 93.1176 1.802576 0.261971
6555 6555 0.500000 3.944142 93.1096 1.803318 0.262390
6555.1 6555.1 0.500000 3.944222 93.1116 1.803237 0.262422
6555.19 6555.2 0.500000 3.943842 93.1115 1.803900 0.262907
6555.3 6555.3 0.500000 3.943720 93.1253 1.804395 0.262462
6555.4 6555.4 0.500000 3.943396 93.1276 1.805023 0.263283
6555.5 6555.5 0.500000 3.943460 93.1057 1.804483 0.263197
6555.6 6555.6 0.500000 3.943106 93.1034 1.805067 0.263370
6555.7 6555.7 0.500000 3.942883 93.1112 1.805636 0.263665
6555.8 6555.8 0.500000 3.942481 93.1257 1.806640 0.264313
6555.9 6555.9 0.500000 3.942338 93.1078 1.806547 0.264475
6556 6556 0.500000 3.942285 93.1142 1.806774 0.264765
6556.1 6556.1 0.500000 3.941932 93.1029 1.807186 0.265490
6556.2 6556.2 0.500000 3.942090 93.1023 1.806900 0.265602
6556.3 6556.3 0.500000 3.941658 93.1155 1.807933 0.266268
6556.4 6556.4 0.500000 3.941594 93.116 1.808054 0.266549
6556.5 6556.5 0.500000 3.941241 93.1125 1.808621 0.266822
6556.6 6556.6 0.500000 3.941105 93.1028 1.808680 0.267765
6556.7 6556.7 0.500000 3.941065 93.0892 1.808501 0.268085
6556.8 6556.8 0.500000 3.940678 93.1027 1.809453 0.268727
6556.9 6556.9 0.500000 3.940689 93.1047 1.809483 0.269199
6557.01 6557 0.500000 3.940549 93.1051 1.809758 0.269874
6557.1 6557.1 0.500000 3.940080 93.1057 1.810576 0.270439
6557.2 6557.2 0.500000 3.940006 93.0984 1.810569 0.270531
6557.3 6557.3 0.500000 3.939926 93.0888 1.810539 0.271038
6557.4 6557.4 0.500000 3.939712 93.0901 1.810945 0.271815
6557.5 6557.5 0.500000 3.939550 93.093 1.811309 0.271591
6557.6 6557.6 0.500000 3.939219 93.094 1.811934 0.272556
6557.7 6557.7 0.500000 3.939240 93.094 1.811888 0.272855
6557.8 6557.8 0.500000 3.939048 93.0869 1.812088 0.272871
6557.9 6557.9 0.500000 3.938972 93.2121 1.814673 0.274115
6558 6558 0.500000 3.938580 93.2113 1.815361 0.274647
6558.1 6558.1 0.500000 3.938464 93.219 1.815713 0.274607
6558.2 6558.2 0.500000 3.938507 93.2166 1.815595 0.274857
6558.3 6558.3 0.500000 3.938357 93.2131 1.815811 0.275446
6558.39 6558.4 0.500000 3.938086 93.2095 1.816198 0.275672
6558.5 6558.5 0.500000 3.937945 93.1999 1.816296 0.276324
6558.6 6558.6 0.500000 3.937617 93.209 1.817088 0.276235
6558.7 6558.7 0.500000 3.937303 93.2067 1.817579 0.276662
6558.8 6558.8 0.500000 3.937634 93.2245 1.817352 0.276472
6558.9 6558.9 0.500000 3.937098 93.2062 1.817957 0.277607
6559 6559 0.500000 3.937121 93.2015 1.817817 0.277651
6559.1 6559.1 0.500000 3.936796 93.199 1.818365 0.277805
6559.2 6559.2 0.500000 3.936546 93.2094 1.819017 0.278091
6559.3 6559.3 0.500000 3.936409 93.2096 1.819274 0.278115
6559.4 6559.4 0.500000 3.936119 93.2048 1.819702 0.278628
6559.5 6559.5 0.500000 3.936051 93.2065 1.819872 0.278636
6559.6 6559.6 0.500000 3.935830 93.2023 1.820178 0.278132
6559.7 6559.7 0.500000 3.935625 93.1921 1.820351 0.278989
6559.81 6559.8 0.500000 3.935705 93.1783 1.819953 0.278939
6559.9 6559.9 0.500000 3.935297 93.1786 1.820684 0.279218
6560 6560 0.500000 3.935101 93.1716 1.820906 0.279256
6560.11 6560.1 0.500000 3.934955 93.1379 1.820516 0.279212
6560.2 6560.2 0.500000 3.934956 93.1078 1.819930 0.278800
6560.3 6560.3 0.500000 3.935001 93.0904 1.819518 0.279043
6560.4 6560.4 0.500000 3.934299 93.0667 1.820314 0.279135
6560.5 6560.5 0.500000 3.934458 93.0419 1.819564 0.279174
6560.6 6560.6 0.500000 3.934024 93.0199 1.819894 0.279485
6560.7 6560.7 0.500000 3.934125 93.0024 1.819390 0.279233
6560.8 6560.8 0.500000 3.933764 92.9751 1.819501 0.279551
6560.9 6560.9 0.500000 3.933606 92.9693 1.819668 0.278861
6561 6561 0.500000 3.933578 92.9803 1.819949 0.279114
6561.1 6561.1 0.500000 3.933641 93.0206 1.820631 0.279181
6561.2 6561.2 0.500000 3.933328 93.0634 1.822021 0.279397
6561.3 6561.3 0.500000 3.933351 93.0997 1.822693 0.279101
6561.4 6561.4 0.500000 3.932686 93.138 1.824671 0.279816
6561.49 6561.5 0.500000 3.932751 93.163 1.825028 0.279970
6561.6 6561.6 0.500000 3.932468 93.1625 1.825526 0.279954
6561.7 6561.7 0.500000 3.932365 93.164 1.825739 0.279466
6561.8 6561.8 0.500000 3.932784 93.1549 1.824816 0.279604
6561.9 6561.9 0.500000 3.932377 93.1639 1.825728 0.279700
6562 6562 0.500000 3.932143 93.1763 1.826399 0.279560
6562.1 6562.1 0.500000 3.931756 93.181 1.827182 0.279557
6562.2 6562.2 0.500000 3.931790 93.1695 1.826901 0.279798
6562.3 6562.3 0.500000 3.931495 93.1765 1.827596 0.279634
6562.4 6562.4 0.500000 3.931273 93.1807 1.828056 0.279550
6562.5 6562.5 0.500000 3.931014 93.1748 1.828412 0.279332
6562.6 6562.6 0.500000 3.930901 93.2923 1.830949 0.279825
6562.7 6562.7 0.500000 3.930894 93.2901 1.830918 0.279631
6562.8 6562.8 0.500000 3.930789 93.2918 1.831138 0.279839
6562.9 6562.9 0.500000 3.930460 93.2961 1.831827 0.280189
6563 6563 0.500000 3.930419 93.2947 1.831883 0.279890
6563.1 6563.1 0.500000 3.930209 93.281 1.831987 0.279603
6563.2 6563.2 0.500000 3.930011 93.2716 1.832175 0.279903
6563.3 6563.3 0.500000 3.929953 93.28 1.832450 0.279924
6563.4 6563.4 0.500000 3.929722 93.2836 1.832936 0.279692
6563.5 6563.5 0.500000 3.929682 93.2855 1.833048 0.279538
6563.6 6563.6 0.500000 3.929315 93.2865 1.833738 0.279597
6563.7 6563.7 0.500000 3.929548 93.2773 1.833143 0.279508
6563.8 6563.8 0.500000 3.929222 93.2649 1.833475 0.279776
6563.9 6563.9 0.500000 3.929206 93.2744 1.833718 0.279225
6564 6564 0.500000 3.928825 93.2814 1.834528 0.279467
6564.1 6564.1 0.500000 3.928724 93.274 1.834576 0.279729
6564.2 6564.2 0.500000 3.928786 93.2674 1.834340 0.279039
6564.3 6564.3 0.500000 3.928592 93.372 1.836735 0.279867
6564.4 6564.4 0.500000 3.928258 93.3693 1.837305 0.280040
6564.49 6564.5 0.500000 3.928353 93.3714 1.837189 0.279184
6564.6 6564.6 0.500000 3.928069 93.3783 1.837825 0.279731
6564.69 6564.7 0.500000 3.928124 93.3742 1.837665 0.279629
6564.8 6564.8 0.500000 3.927458 93.3743 1.838860 0.280103
6564.9 6564.9 0.500000 3.927452 93.3726 1.838874 0.279985
6565 6565 0.500000 3.927398 93.3757 1.839016 0.279708
6565.1 6565.1 0.500000 3.927408 93.3666 1.838808 0.279383
6565.2 6565.2 0.500000 3.927429 93.3639 1.838730 0.279672
6565.3 6565.3 0.500000 3.927301 93.3706 1.839100 0.279709
6565.41 6565.4 0.500000 3.926740 93.3666 1.840061 0.279709
6565.5 6565.5 0.500000 3.926857 93.3639 1.839780 0.279616
6565.6 6565.6 0.500000 3.926651 93.3555 1.839991 0.279894
6565.7 6565.7 0.500000 3.926446 93.3548 1.840356 0.280070
6565.8 6565.8 0.500000 3.926165 93.3687 1.841154 0.280080
6565.91 6565.9 0.500000 3.925959 93.3693 1.841532 0.279963
6566 6566 0.500000 3.925952 93.3673 1.841516 0.279864
6566.1 6566.1 0.500000 3.925910 93.3568 1.841383 0.280019
6566.2 6566.2 0.500000 3.925461 93.376 1.842589 0.280187
6566.3 6566.3 0.500000 3.925290 93.3736 1.842852 0.280255
6566.4 6566.4 0.500000 3.925173 93.364 1.842883 0.280719
6566.5 6566.5 0.500000 3.925073 93.3716 1.843203 0.280001
6566.6 6566.6 0.500000 3.924872 93.379 1.843739 0.280670
6566.7 6566.7 0.500000 3.925058 93.3795 1.843400 0.280588
6566.8 6566.8 0.500000 3.924773 93.3765 1.843865 0.280569
6566.9 6566.9 0.500000 3.924533 93.3795 1.844352 0.280271
6567 6567 0.500000 3.924235 93.3815 1.844963 0.280707
6567.1 6567.1 0.500000 3.924071 93.3763 1.845154 0.281204
6567.2 6567.2 0.500000 3.924010 93.386 1.845461 0.280430
6567.29 6567.3 0.500000 3.923783 93.38 1.845748 0.281146
6567.4 6567.4 0.500000 3.923882 93.3768 1.845518 0.281017
6567.5 6567.5 0.500000 3.923486 93.3912 1.846533 0.281088
6567.6 6567.6 0.500000 3.923498 93.3809 1.846310 0.281038
6567.7 6567.7 0.500000 3.923197 93.38 1.846851 0.281111
6567.8 6567.8 0.500000 3.923087 93.3779 1.846996 0.280965
6567.9 6567.9 0.500000 3.923171 93.3801 1.846900 0.281342
6568 6568 0.500000 3.922673 93.39 1.848009 0.281639
6568.1 6568.1 0.500000 3.922530 93.3954 1.848379 0.281613
6568.2 6568.2 0.500000 3.922292 93.3907 1.848718 0.282006
6568.3 6568.3 0.500000 3.922332 93.3998 1.848842 0.281493
6568.4 6568.4 0.500000 3.921840 93.3911 1.849576 0.282169
6568.5 6568.5 0.500000 3.921804 93.3966 1.849746 0.282139
6568.6 6568.6 0.500000 3.921732 93.394 1.849838 0.282110
6568.7 6568.7 0.500000 3.921293 93.4014 1.850783 0.282387
6568.8 6568.8 0.500000 3.921628 93.4053 1.850252 0.282067
6568.9 6568.9 0.500000 3.921410 94.105 1.864556 0.284528
6569 6569 0.700000 3.921137 130.639 2.589057 0.394967
6570.09 6570.08 0.710000 3.919536 132.662 2.633380 0.402359
6571.21 6571.18 0.730000 3.917910 136.425 2.712479 0.414478
6572.28 6572.29 0.740000 3.916082 138.231 2.753417 0.421045
6573.43 6573.43 0.750000 3.914252 140.154 2.796837 0.427344
6574.59 6574.58 0.760000 3.912669 142.028 2.838722 0.432997
6575.77 6575.76 0.780000 3.910742 145.78 2.919312 0.444724
6576.96 6576.95 0.790000 3.909110 147.681 2.962233 0.449916
6578.17 6578.16 0.800000 3.907216 149.56 3.005622 0.454880
6579.4 6579.39 0.810000 3.905377 151.532 3.050820 0.460519
6580.65 6580.64 0.830000 3.903502 155.393 3.134448 0.471605
6581.92 6581.91 0.840000 3.901654 157.262 3.178004 0.476791
6583.21 6583.2 0.850000 3.899777 159.136 3.221910 0.482123
6584.51 6584.51 0.860000 3.897872 161.021 3.266282 0.489043
6585.84 6585.83 0.880000 3.895987 164.768 3.348613 0.502216
6587.19 6587.18 0.890000 3.894184 166.329 3.386444 0.509948
6588.55 6588.54 0.900000 3.891917 168.495 3.438327 0.521057
6589.94 6589.93 0.910000 3.889868 170.4 3.484340 0.531212
6591.34 6591.33 0.930000 3.887951 174.159 3.568024 0.546418
6592.76 6592.75 0.940000 3.885765 176.033 3.614324 0.555452
6594.19 6594.19 0.950000 3.883676 177.925 3.660802 0.565662
6595.66 6595.65 0.960000 3.881377 179.828 3.708474 0.575037
6597.14 6597.13 0.980000 3.879232 183.579 3.793956 0.590860
6598.64 6598.63 0.990000 3.877214 185.461 3.840605 0.600727
6600.15 6600.14 1.000000 3.874912 187.345 3.888562 0.609368
6601.69 6601.68 1.010000 3.872349 188.854 3.929946 0.616288
6603.24 6603.24 1.030000 3.870080 192.982 4.024954 0.631478
6604.82 6604.81 1.040000 3.867681 194.898 4.074698 0.638937
6606.4 6606.4 1.050000 3.865127 196.797 4.124909 0.646056
6608.02 6608.01 1.060000 3.862942 198.685 4.173597 0.652126
6609.66 6609.65 1.080000 3.860545 202.444 4.262759 0.665652
6611.31 6611.3 1.090000 3.858147 204.333 4.312882 0.671698
6612.98 6612.97 1.100000 3.855796 206.236 4.363282 0.678650
6614.66 6614.65 1.110000 3.853271 208.112 4.414132 0.686352
6616.37 6616.36 1.130000 3.850746 211.868 4.505127 0.699982
6618.1 6618.09 1.140000 3.848091 213.743 4.557072 0.708125
6619.84 6619.83 1.150000 3.845513 215.638 4.609360 0.717439
6621.61 6621.6 1.160000 3.842774 217.518 4.662292 0.726533
6623.39 6623.38 1.180000 3.840014 221.265 4.755682 0.742618
6625.19 6625.18 1.190000 3.837350 223.167 4.809383 0.752678
6627.01 6627 1.200000 3.834562 225.104 4.864671 0.763357
6628.84 6628.84 1.210000 3.831954 227.011 4.918682 0.774378
6630.71 6630.7 1.230000 3.828940 231.019 5.020639 0.792359
6632.59 6632.58 1.240000 3.826311 232.896 5.074752 0.802434
6634.49 6634.48 1.250000 3.823295 234.799 5.131691 0.811823
6636.41 6636.4 1.260000 3.820569 236.717 5.187716 0.821292
6638.34 6638.33 1.280000 3.817659 240.436 5.284592 0.837309
6640.3 6640.29 1.290000 3.814765 242.601 5.347643 0.847834
6642.27 6642.26 1.300000 3.811677 244.57 5.407730 0.858292
6644.27 6644.26 1.310000 3.808838 246.461 5.464990 0.869408
6646.28 6646.27 1.330000 3.805780 250.262 5.566283 0.888245
6648.31 6648.3 1.340000 3.802743 252.167 5.625719 0.899539
6650.36 6650.35 1.350000 3.799968 254.065 5.683809 0.912320
6652.43 6652.42 1.360000 3.796749 255.974 5.745007 0.924723
6654.52 6654.51 1.380000 3.793586 259.751 5.848205 0.943475
6656.62 6656.61 1.390000 3.790471 261.639 5.909118 0.955096
6658.75 6658.74 1.400000 3.787533 263.582 5.970548 0.966792
6660.9 6660.89 1.410000 3.784696 265.485 6.030695 0.977854
6663.06 6663.05 1.430000 3.781371 269.322 6.138300 0.995587
6665.23 6665.23 1.440000 3.777901 271.202 6.202555 1.006823
6667.45 6667.44 1.450000 3.774898 273.121 6.265268 1.016423
6669.67 6669.66 1.460000 3.771583 275.04 6.330257 1.027471
6671.91 6671.9 1.480000 3.768428 278.828 6.437681 1.044720
6674.17 6674.16 1.490000 3.765226 280.725 6.502331 1.054871
6676.45 6676.44 1.500000 3.761965 282.644 6.568166 1.067092
6678.74 6678.74 1.510000 3.758519 284.579 6.635890 1.078213
6681.06 6681.05 1.530000 3.755144 288.415 6.748125 1.099584
6683.39 6683.39 1.540000 3.751772 290.318 6.815594 1.111662
6685.74 6685.74 1.550000 3.748234 292.167 6.883255 1.125163
6688.12 6688.12 1.560000 3.744964 294.072 6.950835 1.138994
6690.52 6690.51 1.580000 3.741306 297.859 7.066263 1.161325
6692.92 6692.92 1.590000 3.737806 299.738 7.135695 1.176278
6695.35 6695.35 1.600000 3.734364 301.645 7.205836 1.191590
6697.8 6697.8 1.610000 3.730977 303.54 7.275734 1.206489
6700.27 6700.27 1.630000 3.727429 307.312 7.392355 1.229533
6702.76 6702.76 1.640000 3.723972 309.22 7.463937 1.245114
6705.27 6705.27 1.650000 3.720285 311.085 7.536685 1.260329
6707.79 6707.79 1.660000 3.716650 312.96 7.609783 1.276011
6710.34 6710.34 1.680000 3.712856 316.711 7.730217 1.299002
6712.9 6712.9 1.690000 3.709053 318.61 7.806167 1.313411
6715.49 6715.49 1.700000 3.705321 320.481 7.881366 1.328380
6718.09 6718.09 1.710000 3.701677 322.376 7.956979 1.343160
6720.71 6720.71 1.730000 3.697925 326.188 8.081284 1.365818
6723.34 6723.35 1.740000 3.694127 328.296 8.164429 1.381809
6726.01 6726.01 1.750000 3.690467 330.257 8.243290 1.397120
6728.7 6728.69 1.760000 3.686707 332.142 8.321647 1.411757
6731.39 6731.39 1.780000 3.682711 335.871 8.448650 1.434825
6734.11 6734.11 1.790000 3.678829 337.711 8.528069 1.449945
6736.84 6736.84 1.800000 3.674908 339.553 8.608245 1.466389
6739.6 6739.6 1.810000 3.670834 341.407 8.690576 1.482575
6742.37 6742.37 1.830000 3.666722 345.105 8.820898 1.507320
6745.17 6745.17 1.840000 3.662702 346.969 8.904249 1.525851
6747.98 6747.98 1.850000 3.658790 348.796 8.986264 1.543107
6750.81 6750.81 1.860000 3.654920 350.578 9.067161 1.561143
6753.66 6753.66 1.880000 3.650837 354.293 9.200795 1.588361
6756.53 6756.53 1.890000 3.646673 356.094 9.286145 1.607123
6759.42 6759.42 1.900000 3.642481 357.908 9.372652 1.626417
6762.32 6762.32 1.910000 3.638186 359.613 9.457836 1.644853
6765.25 6765.25 1.930000 3.634091 363.336 9.594894 1.672132
6768.2 6768.2 1.940000 3.629857 365.156 9.683927 1.692044
6771.16 6771.16 1.950000 3.625787 367.01 9.772770 1.711194
6774.14 6774.14 1.960000 3.621485 368.699 9.860058 1.730929
6777.15 6777.15 1.980000 3.617140 372.464 10.0041 1.761282
6780.17 6780.17 1.990000 3.612874 374.409 10.0994 1.782910
6783.21 6783.21 2.000000 3.608790 376.555 10.1988 1.804871
6786.27 6786.27 2.010000 3.604660 378.336 10.2895 1.825582
6789.35 6789.35 2.030000 3.600289 381.973 10.4339 1.854988
6792.45 6792.45 2.040000 3.595656 380.851 10.4516 1.863050
6795.56 6795.56 2.050000 3.591849 384.7 10.5975 1.892988
6798.7 6798.7 2.060000 3.587487 387.758 10.7284 1.920353
6801.86 6801.85 2.080000 3.582913 391.627 10.8853 1.952218
6805.03 6805.03 2.090000 3.578731 393.555 10.9845 1.973678
6808.22 6808.22 2.100000 3.574266 395.563 11.09 1.996474
6811.42 6811.43 2.110000 3.568947 372.464 10.498 1.892908
6814.66 6814.66 2.130000 3.565380 398.899 11.2834 2.037673
6817.92 6817.92 2.140000 3.561029 401.818 11.4156 2.065442
6821.18 6821.18 2.150000 3.555029 390.58 11.163 2.024535
6824.47 6824.47 2.160000 3.551984 402.889 11.5499 2.098333
6827.78 6827.78 2.180000 3.547470 407.781 11.743 2.137543
6831.11 6831.11 2.190000 3.542725 409.685 11.854 2.163609
6834.46 6834.45 2.200000 3.538413 411.355 11.9538 2.186094
6837.82 6837.82 2.210000 3.533990 412.597 12.0429 2.208883
6841.2 6841.2 2.230000 3.530344 407.203 11.9289 2.194065
6844.6 6844.6 2.240000 3.525031 417.47 12.2948 2.266667
6848.03 6848.03 2.250000 3.520527 419.49 12.4101 2.293684
6851.47 6851.47 2.260000 3.515645 420.978 12.5151 2.318926
6854.93 6854.93 2.280000 3.511578 424.556 12.6729 2.354121
6858.41 6858.4 2.290000 3.507131 426.346 12.7831 2.381962
6861.91 6861.9 2.300000 3.503360 427.219 12.8576 2.400994
6865.43 6865.42 2.310000 3.498575 429.202 12.9792 2.430092
6868.97 6868.96 2.330000 3.493357 433.209 13.169 2.472699
6872.51 6872.51 2.340000 3.488826 435.032 13.2844 2.500614
6876.1 6876.09 2.350000 3.484039 436.87 13.4046 2.528984
6879.68 6879.68 2.360000 3.479063 438.655 13.5264 2.558356
6883.29 6883.29 2.380000 3.474367 442.866 13.7206 2.601241
6886.92 6886.92 2.390000 3.469226 445.208 13.8642 2.634854
6890.57 6890.57 2.400000 3.464409 447.168 13.9924 2.665338
6894.24 6894.24 2.410000 3.459712 449.006 14.1162 2.694817
6897.93 6897.93 2.430000 3.454863 452.53 14.2961 2.735681
6901.64 6901.64 2.440000 3.449827 454.32 14.4252 2.766341
6905.36 6905.36 2.450000 3.444903 456.035 14.551 2.796470
6909.11 6909.11 2.460000 3.440156 457.625 14.6712 2.826187
6912.87 6912.87 2.480000 3.435041 460.945 14.8535 2.867635
6916.66 6916.66 2.490000 3.430008 462.53 14.9798 2.899167
6920.46 6920.46 2.500000 3.425011 464.076 15.1051 2.930745
6924.28 6924.28 2.510000 3.420220 465.743 15.2322 2.962622
6928.12 6928.12 2.530000 3.415316 469.236 15.4218 3.006566
6931.98 6931.98 2.540000 3.410265 470.871 15.5539 3.039716
6935.87 6935.86 2.550000 3.405426 472.552 15.6852 3.073807
6939.76 6939.76 2.560000 3.400784 474.176 15.8123 3.106576
6943.69 6943.68 2.580000 3.395152 477.55 16.0148 3.154220
6947.61 6947.61 2.590000 3.390018 479.249 16.1544 3.189652
6951.57 6951.57 2.600000 3.385168 480.808 16.2858 3.223563
6955.54 6955.54 2.610000 3.380260 482.949 16.4389 3.261884
6959.54 6959.54 2.630000 3.375376 486.502 16.6409 3.310810
6963.55 6963.55 2.640000 3.370242 487.915 16.7751 3.347661
6967.58 6967.58 2.650000 3.365069 490.168 16.9399 3.388728
6971.63 6971.63 2.660000 3.359854 491.604 17.0784 3.425700
6975.71 6975.7 2.680000 3.354826 495.078 17.2859 3.476425
6979.79 6979.79 2.690000 3.349912 496.712 17.4282 3.514446
6983.9 6983.9 2.700000 3.344914 497.987 17.5605 3.549601
6988.03 6988.02 2.710000 3.339861 499.695 17.7102 3.589619
6992.17 6992.17 2.730000 3.334597 502.849 17.9159 3.641147
6996.33 6996.33 2.740000 3.329267 504.487 18.0704 3.682012
7000.52 7000.52 2.750000 3.323871 505.954 18.2209 3.721244
7004.73 7004.72 2.760000 3.318759 507.415 18.3672 3.761695
7008.94 7008.94 2.780000 3.313368 510.773 18.5887 3.814895
7013.19 7013.18 2.790000 3.308121 512.245 18.7404 3.855983
7017.45 7017.44 2.800000 3.302529 513.608 18.8957 3.897022
7021.73 7021.72 2.810000 3.297340 515.19 19.0523 3.940354
7026.03 7026.02 2.830000 3.292201 518.457 19.2721 3.995850
7030.35 7030.34 2.840000 3.287188 519.742 19.4169 4.035759
7034.67 7034.67 2.850000 3.281754 521.305 19.5814 4.080332
7039.03 7039.03 2.860000 3.276667 522.985 19.7446 4.126231
7043.4 7043.4 2.880000 3.271265 526.209 19.9738 4.184073
7047.8 7047.8 2.890000 3.265962 527.856 20.1427 4.230801
7052.21 7052.21 2.900000 3.260495 529.406 20.3126 4.277243
7056.64 7056.64 2.910000 3.255410 531.277 20.4882 4.325936
7061.09 7061.09 2.930000 3.250036 533.316 20.6776 4.377176
7065.56 7065.56 2.940000 3.244726 536.695 20.9194 4.440724
7070.05 7070.05 2.950000 3.239515 534.514 20.9432 4.457203
7074.56 7074.56 2.960000 3.234069 535.186 21.0841 4.499501
7079.08 7079.08 2.980000 3.228127 542.744 21.5093 4.603099
7083.64 7083.63 2.990000 3.222711 543.954 21.6744 4.650624
7088.2 7088.19 3.000000 3.217332 545.905 21.8694 4.704630
7092.78 7092.78 3.010000 3.211916 547.212 22.0406 4.753672
7097.38 7097.38 3.030000 3.206117 550.502 22.3021 4.823823
7102 7102 3.040000 3.200470 551.975 22.4885 4.877253
7106.64 7106.64 3.050000 3.195246 553.247 22.6582 4.926611
7111.31 7111.3 3.060000 3.190654 553.706 22.7814 4.964328
7115.98 7115.98 3.080000 3.185917 556.005 22.9847 5.017672
7120.69 7120.68 3.090000 3.184133 554.44 22.9608 5.022297
7125.4 7125.4 3.100000 3.196657 545.322 22.3019 4.883514
7130.14 7130.13 3.110000 3.218297 533.546 21.3535 4.683478
7134.89 7134.89 3.130000 3.211151 536.865 21.6403 4.760160
7139.66 7139.66 3.140000 3.201681 542.633 22.081 4.870140
7144.46 7144.46 3.150000 3.189829 545.616 22.4669 4.968414
7149.27 7149.27 3.160000 3.180490 549.127 22.8239 5.063043
7154.11 7154.1 3.180000 3.171522 554.998 23.2759 5.176562
7158.95 7158.95 3.190000 3.163366 557.02 23.5519 5.252548
7163.82 7163.82 3.200000 3.158563 558.044 23.7087 5.301148
7168.71 7168.71 3.210000 3.155236 558.548 23.8092 5.338473
7173.62 7173.62 3.230000 3.152545 560.991 23.9779 5.390799
7178.55 7178.54 3.240000 3.148741 561.654 24.0978 5.431248
7183.5 7183.49 3.250000 3.143530 562.827 24.2743 5.487136
7188.45 7188.45 3.260000 3.137744 563.576 24.4476 5.541443
7193.44 7193.44 3.280000 3.131791 566.924 24.7395 5.621904
7198.44 7198.44 3.290000 3.125750 568.297 24.9496 5.685380
7203.46 7203.46 3.300000 3.119306 570.287 25.199 5.758842
7208.5 7208.5 3.310000 3.112796 571.88 25.4345 5.827285
7213.57 7213.56 3.330000 3.106273 574.948 25.7385 5.912992
7218.64 7218.64 3.340000 3.100177 575.952 25.9409 5.976691
7223.75 7223.74 3.350000 3.094176 576.354 26.1153 6.033541
7228.86 7228.86 3.360000 3.088215 578.639 26.3755 6.110538
7233.99 7233.99 3.380000 3.082609 581.327 26.6471 6.190253
7239.15 7239.15 3.390000 3.076566 582.684 26.8712 6.259401
7244.32 7244.32 3.400000 3.070876 584.209 27.0951 6.329880
7249.52 7249.52 3.410000 3.064934 584.464 27.2685 6.387795
7254.73 7254.73 3.430000 3.058794 582.323 27.3359 6.420356
7259.96 7259.96 3.440000 3.053458 587.629 27.7326 6.531112
7265.21 7265.21 3.450000 3.047937 587.608 27.8853 6.584462
7270.49 7270.48 3.460000 3.041707 592.95 28.3146 6.704233
7275.78 7275.77 3.480000 3.035514 596.354 28.6541 6.804673
7281.08 7281.08 3.490000 3.029633 586.61 28.3521 6.750503