File: xdidata/Data/Mn/Mn-Rhodocrosite.xdi
# XDI/1.0 BlueSky/1.10.0 BMM/2023-1.0-py310-tiled
# Beamline.name: BMM (06BM) -- Beamline for Materials Measurement (NIST)
# Beamline.xray_source: NSLS-II three-pole wiggler
# Beamline.collimation: paraboloid mirror, 5 nm Rh on 30 nm Pt
# Beamline.focusing: not in use
# Beamline.harmonic_rejection: flat mirror, Si stripe, pitch = 7.0 mrad relative to beam
# Beamline.software: Bluesky 1.10.0, Ophyd 1.7.0, DataBroker 2.0.0b13, Python 3.10.8, 2023-1.0-py310-tiled
# Detector.I0: 10 cm N2
# Detector.I1: 25 cm N2
# Detector.I2: 25 cm N2
# Element.symbol: Mn
# Element.edge: K
# Element.reference: Mn
# Element.reference_material: Mn metal powder
# Facility.name: NSLS-II
# Facility.energy: 3.0
# Facility.current: 400.7
# Facility.mode: top-off
# Facility.GUP: 123456
# Facility.SAF: 301027
# Facility.cycle: 2023-2
# Mono.name: Si(111)
# Mono.d_spacing: 3.13519
# Mono.encoder_resolution: 0.0000050 deg/ct
# Mono.angle_offset: 16.0754 deg
# Mono.scan_mode: pseudo channel cut
# Mono.scan_type: step
# Mono.direction: forward in energy
# Sample.name: MnCO3
# Sample.prep: PEG pellet
# Sample.x: 123.848 mm
# Sample.y: 114.690 mm
# Sample.SDD_position: 205.000 mm
# Scan.experimenters: Bruce Ravel
# Scan.edge_energy: 6539.0
# Scan.start_time: 2023-05-08T11:37:26
# Scan.end_time: 2023-05-08T11:45:39
# Scan.transient_id: 75370
# Scan.uid: ea835894-ed44-4bc1-af4c-7e9bb2443a09
# Scan.plot_hint: ln(I0/It)  --  ln($5/$6)
# Column.1: energy eV
# Column.2: requested_energy eV
# Column.3: measurement_time seconds
# Column.4: xmu
# Column.5: I0 nA
# Column.6: It nA
# Column.7: Ir nA
# ///////////
# Welcome to BMM
# -----------
# energy  requested_energy  measurement_time  xmu  I0  It  Ir
  6338.999  6339.000  0.500  2.566016  150.637  11.5751  0.591078
  6349.011  6349.000  0.500  2.550863  150.874  11.7704  0.609171
  6359.021  6359.000  0.500  2.536094  151.118  11.9648  0.627632
  6369.002  6369.000  0.500  2.521241  151.36  12.1632  0.646176
  6379.048  6379.000  0.500  2.506536  151.601  12.3631  0.665308
  6389.003  6389.000  0.500  2.491940  151.801  12.5614  0.684951
  6399.012  6399.000  0.500  2.477148  151.985  12.7641  0.705022
  6409.018  6409.000  0.500  2.462609  152.15  12.9651  0.725479
  6419.015  6419.000  0.500  2.448266  152.383  13.1725  0.746590
  6429.010  6429.000  0.500  2.433968  152.534  13.3755  0.767598
  6439.016  6439.000  0.500  2.419981  152.692  13.5779  0.788707
  6449.014  6449.000  0.500  2.406140  150.046  13.5286  0.795430
  6459.010  6459.000  0.500  2.391659  152.592  13.9588  0.830652
  6469.012  6469.000  0.500  2.377530  153.184  14.2123  0.855224
  6479.011  6479.000  0.500  2.363803  153.281  14.4179  0.877425
  6488.999  6489.000  0.500  2.349435  153.217  14.6204  0.898948
  6498.980  6499.000  0.500  2.337255  153.576  14.8343  0.919546
  6508.978  6509.000  0.500  2.324785  153.733  15.0358  0.936892
  6510.984  6511.000  0.500  2.322384  153.761  15.0747  0.939759
  6512.981  6513.000  0.500  2.319737  153.784  15.1169  0.942746
  6514.987  6515.000  0.500  2.317712  153.8  15.1491  0.944162
  6516.989  6517.000  0.500  2.315197  153.842  15.1914  0.946248
  6518.988  6519.000  0.500  2.313061  153.888  15.2284  0.946818
  6520.992  6521.000  0.500  2.311182  153.915  15.2598  0.946804
  6522.988  6523.000  0.500  2.309364  153.936  15.2897  0.945330
  6524.995  6525.000  0.500  2.307523  153.945  15.3186  0.942150
  6526.991  6527.000  0.500  2.306371  153.969  15.3387  0.936152
  6528.994  6529.000  0.500  2.304897  154.005  15.3649  0.927401
  6529.285  6529.300  0.500  2.304692  153.994  15.367  0.925695
  6529.583  6529.600  0.500  2.304862  153.995  15.3645  0.923242
  6529.884  6529.900  0.500  2.304978  153.991  15.3622  0.920384
  6530.182  6530.200  0.500  2.304899  153.991  15.3635  0.918376
  6530.487  6530.500  0.500  2.304669  153.993  15.3673  0.915817
  6530.784  6530.800  0.500  2.304650  153.986  15.3668  0.912969
  6531.086  6531.100  0.500  2.304265  153.985  15.3726  0.910211
  6531.387  6531.400  0.500  2.304079  153.99  15.376  0.907434
  6531.691  6531.700  0.500  2.304036  153.977  15.3754  0.903527
  6531.988  6532.000  0.500  2.304196  153.985  15.3737  0.899474
  6532.290  6532.300  0.500  2.304486  153.989  15.3697  0.894731
  6532.590  6532.600  0.500  2.303928  153.994  15.3787  0.891344
  6532.888  6532.900  0.500  2.304006  153.987  15.3768  0.885615
  6533.188  6533.200  0.500  2.304181  153.987  15.3742  0.879428
  6533.486  6533.500  0.500  2.304987  153.997  15.3627  0.872522
  6533.789  6533.800  0.500  2.305310  153.993  15.3574  0.865133
  6534.087  6534.100  0.500  2.305503  153.993  15.3544  0.857011
  6534.391  6534.400  0.500  2.305297  153.992  15.3575  0.848474
  6534.692  6534.700  0.500  2.305747  153.997  15.3511  0.837910
  6534.994  6535.000  0.500  2.305856  153.983  15.348  0.825600
  6535.292  6535.300  0.500  2.306071  153.986  15.345  0.810794
  6535.596  6535.600  0.500  2.306510  153.994  15.3391  0.793499
  6535.894  6535.900  0.500  2.307111  153.989  15.3294  0.773541
  6536.194  6536.200  0.500  2.307866  153.99  15.3179  0.748106
  6536.495  6536.500  0.500  2.308633  153.999  15.3071  0.716366
  6536.797  6536.800  0.500  2.309628  153.994  15.2913  0.673300
  6537.093  6537.100  0.500  2.310900  154.004  15.2728  0.616747
  6537.395  6537.400  0.500  2.312158  154.013  15.2546  0.540858
  6537.695  6537.700  0.500  2.314260  154.013  15.2225  0.450403
  6537.998  6538.000  0.500  2.317020  154.016  15.1809  0.352647
  6538.296  6538.300  0.500  2.321003  154.006  15.1195  0.266009
  6538.598  6538.600  0.500  2.327201  154.005  15.026  0.201780
  6538.899  6538.900  0.500  2.334887  154.002  14.9107  0.160902
  6539.199  6539.200  0.500  2.342280  153.993  14.8  0.135281
  6539.496  6539.500  0.500  2.347313  153.997  14.7261  0.117604
  6539.798  6539.800  0.500  2.349227  153.999  14.6981  0.104607
  6540.095  6540.100  0.500  2.348709  153.991  14.705  0.094347
  6540.394  6540.400  0.500  2.346233  153.989  14.7413  0.085858
  6540.692  6540.700  0.500  2.342543  153.99  14.7959  0.079014
  6540.993  6541.000  0.500  2.340552  153.996  14.8258  0.073999
  6541.297  6541.300  0.500  2.340423  154.002  14.8284  0.070565
  6541.596  6541.600  0.500  2.342556  154  14.7966  0.068779
  6541.902  6541.900  0.500  2.346527  154.002  14.7382  0.068036
  6542.197  6542.200  0.500  2.351847  153.997  14.6595  0.067675
  6542.502  6542.500  0.500  2.359015  154.002  14.5552  0.066180
  6542.801  6542.800  0.500  2.368451  153.995  14.4179  0.063934
  6543.101  6543.100  0.500  2.381292  153.998  14.2342  0.060518
  6543.397  6543.400  0.500  2.399332  154.003  13.9802  0.056314
  6543.699  6543.700  0.500  2.425742  154.004  13.6159  0.052046
  6543.995  6544.000  0.500  2.461909  154.001  13.132  0.047651
  6544.298  6544.300  0.500  2.510179  154.001  12.5131  0.043248
  6544.598  6544.600  0.500  2.565705  154.009  11.8379  0.039414
  6544.899  6544.900  0.500  2.624171  154.01  11.1657  0.036168
  6545.202  6545.200  0.500  2.680484  154.009  10.5543  0.033298
  6545.503  6545.500  0.500  2.735175  154.015  9.992875  0.030634
  6545.799  6545.800  0.500  2.790822  154.02  9.452299  0.027879
  6546.096  6546.100  0.500  2.855540  154.012  8.859522  0.024959
  6546.397  6546.400  0.500  2.932062  154.042  8.208426  0.022003
  6546.699  6546.700  0.500  3.022800  154.017  7.495185  0.018938
  6546.994  6547.000  0.500  3.123892  154.021  6.774694  0.016083
  6547.297  6547.300  0.500  3.238388  154.026  6.041991  0.013472
  6547.598  6547.600  0.500  3.362822  154.036  5.335393  0.010986
  6547.901  6547.900  0.500  3.497375  154.03  4.663530  0.009145
  6548.205  6548.200  0.500  3.636565  154.022  4.057345  0.007275
  6548.500  6548.500  0.500  3.774701  154.027  3.533978  0.006011
  6548.798  6548.800  0.500  3.910751  154.032  3.084567  0.005024
  6549.096  6549.100  0.500  4.035636  154.041  2.722579  0.004101
  6549.395  6549.400  0.500  4.136835  154.039  2.460517  0.003560
  6549.701  6549.700  0.500  4.203602  154.047  2.301712  0.002977
  6550.000  6550.000  0.500  4.235629  154.047  2.229165  0.002696
  6550.303  6550.300  0.500  4.246955  154.05  2.204111  0.002497
  6550.601  6550.600  0.500  4.248030  154.055  2.201812  0.002342
  6550.903  6550.900  0.500  4.242511  154.067  2.214164  0.002242
  6551.204  6551.200  0.500  4.230748  154.061  2.240278  0.002127
  6551.501  6551.500  0.500  4.210695  154.072  2.285815  0.002003
  6551.802  6551.800  0.500  4.182868  154.078  2.350413  0.001894
  6552.100  6552.100  0.500  4.148034  154.076  2.433697  0.002028
  6552.402  6552.400  0.500  4.106473  154.087  2.537154  0.001814
  6552.700  6552.700  0.500  4.057804  154.084  2.663640  0.001837
  6553.002  6553.000  0.500  4.002895  154.088  2.814059  0.001913
  6553.300  6553.300  0.500  3.943305  154.095  2.986976  0.001760
  6553.603  6553.600  0.500  3.878467  154.102  3.187225  0.001856
  6553.902  6553.900  0.500  3.813311  154.111  3.402000  0.001972
  6554.202  6554.200  0.500  3.747338  154.115  3.634091  0.001892
  6554.502  6554.500  0.500  3.686905  154.129  3.860844  0.001911
  6554.800  6554.800  0.500  3.636765  154.131  4.059403  0.002031
  6555.100  6555.100  0.500  3.598064  154.147  4.220025  0.002146
  6555.399  6555.400  0.500  3.569739  154.153  4.341449  0.002011
  6555.697  6555.700  0.500  3.550008  154.156  4.428030  0.002208
  6556.001  6556.000  0.500  3.535134  154.162  4.494563  0.002068
  6556.301  6556.300  0.500  3.523671  154.169  4.546594  0.002147
  6556.603  6556.600  0.500  3.515912  154.175  4.582198  0.002311
  6556.903  6556.900  0.500  3.511631  154.165  4.601544  0.002424
  6557.204  6557.200  0.500  3.512341  154.166  4.598314  0.002450
  6557.502  6557.500  0.500  3.518574  154.18  4.570142  0.002462
  6557.801  6557.800  0.500  3.530279  154.183  4.517070  0.002482
  6558.098  6558.100  0.500  3.548515  154.204  4.436026  0.002378
  6558.398  6558.400  0.500  3.572487  154.206  4.331024  0.002510
  6558.699  6558.700  0.500  3.599496  154.207  4.215633  0.002477
  6558.999  6559.000  0.500  3.629224  154.218  4.092439  0.002523
  6559.301  6559.300  0.500  3.657231  154.228  3.979671  0.002624
  6559.606  6559.600  0.500  3.683628  154.23  3.876049  0.002539
  6559.906  6559.900  0.500  3.706586  154.221  3.787853  0.002504
  6560.209  6560.200  0.500  3.725333  154.222  3.717531  0.002393
  6560.504  6560.500  0.500  3.737956  154.23  3.671097  0.002512
  6560.804  6560.800  0.500  3.745860  154.231  3.642205  0.002471
  6561.102  6561.100  0.500  3.749518  154.227  3.628820  0.002419
  6561.399  6561.400  0.500  3.750310  154.158  3.624319  0.002400
  6561.699  6561.700  0.500  3.748081  154.027  3.629318  0.002444
  6561.998  6562.000  0.500  3.741825  154.443  3.661960  0.002453
  6562.299  6562.300  0.500  3.731792  154.47  3.699527  0.002395
  6562.602  6562.600  0.500  3.717831  154.645  3.755797  0.002496
  6562.906  6562.900  0.500  3.701428  154.771  3.821034  0.002545
  6563.205  6563.200  0.500  3.683730  154.795  3.889850  0.002413
  6563.508  6563.500  0.500  3.664325  154.811  3.966490  0.002548
  6563.806  6563.800  0.500  3.644873  154.829  4.044860  0.002530
  6564.000  6564.000  0.500  3.631563  154.834  4.099199  0.002539
  6564.999  6564.990  0.500  3.552945  154.849  4.434892  0.002718
  6565.998  6565.990  0.500  3.457463  154.858  4.879499  0.002835
  6567.035  6567.010  0.500  3.378579  154.858  5.280017  0.003103
  6568.048  6568.060  0.500  3.310918  154.837  5.648860  0.003259
  6569.106  6569.120  0.500  3.242183  154.857  6.051582  0.003535
  6570.191  6570.200  0.500  3.184301  154.863  6.412447  0.003687
  6571.288  6571.300  0.500  3.148403  154.871  6.647164  0.003868
  6572.415  6572.420  0.500  3.130174  154.884  6.769993  0.003928
  6573.557  6573.560  0.500  3.124123  154.887  6.811247  0.003842
  6574.707  6574.710  0.500  3.127286  154.914  6.790910  0.003891
  6575.893  6575.890  0.500  3.140960  154.918  6.698852  0.003824
  6577.082  6577.080  0.500  3.161192  154.937  6.565493  0.003806
  6578.304  6578.300  0.500  3.187234  154.956  6.397500  0.003441
  6579.532  6579.530  0.500  3.220090  154.949  6.190440  0.003239
  6580.786  6580.780  0.500  3.262369  154.968  5.934914  0.003191
  6582.059  6582.050  0.500  3.311866  154.982  5.648797  0.002912
  6583.345  6583.340  0.500  3.362238  154.979  5.371211  0.002794
  6584.657  6584.650  0.500  3.399159  154.984  5.176665  0.002595
  6585.984  6585.980  0.500  3.416181  154.734  5.081082  0.002497
  6587.332  6587.330  0.500  3.423552  154.968  5.051394  0.002636
  6588.704  6588.700  0.500  3.435415  154.992  4.992607  0.002697
  6590.090  6590.080  0.500  3.453292  154.997  4.904310  0.002679
  6591.494  6591.490  0.500  3.471340  155.002  4.816753  0.002738
  6592.920  6592.910  0.500  3.492164  155.028  4.718254  0.002804
  6594.353  6594.350  0.500  3.518408  155.043  4.596484  0.002641
  6595.816  6595.810  0.500  3.526600  155.041  4.558943  0.002835
  6597.298  6597.290  0.500  3.501429  155.056  4.675587  0.002988
  6598.800  6598.790  0.500  3.471460  155.073  4.818374  0.003313
  6600.314  6600.310  0.500  3.440711  155.077  4.968960  0.003390
  6601.859  6601.850  0.500  3.417323  155.081  5.086694  0.003416
  6603.411  6603.410  0.500  3.406614  154.775  5.131302  0.003464
  6604.990  6604.980  0.500  3.402607  155.088  5.162321  0.003411
  6606.587  6606.580  0.500  3.399307  155.107  5.180000  0.003388
  6608.197  6608.190  0.500  3.396084  155.125  5.197356  0.003240
  6609.836  6609.830  0.500  3.394202  155.154  5.208116  0.003282
  6611.489  6611.480  0.500  3.388817  155.162  5.236491  0.003161
  6613.155  6613.150  0.500  3.377370  155.163  5.296829  0.003195
  6614.849  6614.840  0.500  3.361568  155.159  5.381054  0.003163
  6616.556  6616.550  0.500  3.341939  155.165  5.487927  0.003182
  6618.287  6618.280  0.500  3.319894  155.157  5.609958  0.003285
  6620.040  6620.030  0.500  3.298725  155.154  5.729873  0.003262
  6621.800  6621.790  0.500  3.283713  155.15  5.816374  0.003318
  6623.590  6623.580  0.500  3.276508  155.163  5.858943  0.003409
  6625.387  6625.380  0.500  3.276187  155.177  5.861327  0.003380
  6627.218  6627.210  0.500  3.280525  155.179  5.836065  0.003431
  6629.059  6629.050  0.500  3.286098  155.136  5.801998  0.003544
  6630.917  6630.910  0.500  3.287760  155.211  5.795169  0.003431
  6632.801  6632.790  0.500  3.284960  155.209  5.811352  0.003653
  6634.703  6634.690  0.500  3.281276  155.225  5.833390  0.003735
  6636.619  6636.610  0.500  3.280643  155.234  5.837435  0.003574
  6638.557  6638.550  0.500  3.284667  155.232  5.813910  0.003561
  6640.520  6640.510  0.500  3.289112  155.222  5.787748  0.003467
  6642.488  6642.480  0.500  3.290301  155.229  5.781131  0.003488
  6644.488  6644.480  0.500  3.287897  155.246  5.795670  0.003450
  6646.501  6646.490  0.500  3.284670  155.266  5.815154  0.003600
  6648.527  6648.520  0.500  3.283699  155.262  5.820659  0.003635
  6650.589  6650.580  0.500  3.285849  155.262  5.808154  0.003818
  6652.663  6652.650  0.500  3.287844  155.26  5.796520  0.003802
  6654.745  6654.740  0.500  3.287192  155.249  5.799898  0.003838
  6656.860  6656.850  0.500  3.284162  155.253  5.817652  0.003995
  6658.993  6658.980  0.500  3.280948  155.241  5.835897  0.003900
  6661.130  6661.120  0.500  3.278276  155.255  5.852074  0.004139
  6663.298  6663.290  0.500  3.276346  155.248  5.863098  0.004198
  6665.486  6665.480  0.500  3.275302  155.254  5.869462  0.004056
  6667.691  6667.680  0.500  3.275334  155.259  5.869429  0.003851
  6669.908  6669.900  0.500  3.277218  155.245  5.857864  0.003945
  6672.156  6672.150  0.500  3.280346  155.236  5.839254  0.003890
  6674.418  6674.410  0.500  3.282726  155.23  5.825130  0.003749
  6676.702  6676.690  0.500  3.280909  155.218  5.835265  0.003710
  6678.993  6678.990  0.500  3.273220  155.226  5.880618  0.003705
  6681.315  6681.310  0.500  3.261180  155.241  5.952407  0.003736
  6683.657  6683.650  0.500  3.247046  155.252  6.037585  0.003814
  6686.008  6686.000  0.500  3.232083  155.249  6.128472  0.003841
  6688.382  6688.380  0.500  3.217588  155.253  6.218132  0.004037
  6690.776  6690.770  0.500  3.204057  155.237  6.302171  0.004141
  6693.200  6693.190  0.500  3.192059  155.227  6.377830  0.004189
  6695.630  6695.620  0.500  3.183615  155.204  6.430978  0.004278
  6698.079  6698.070  0.500  3.179711  155.205  6.456177  0.004407
  6700.559  6700.550  0.500  3.180450  155.17  6.449950  0.004425
  6703.049  6703.040  0.500  3.182443  155.159  6.436647  0.004643
  6705.559  6705.550  0.500  3.182449  155.14  6.435837  0.004729
  6708.076  6708.070  0.500  3.179216  155.138  6.456591  0.004711
  6710.631  6710.620  0.500  3.173691  155.126  6.491838  0.004672
  6713.200  6713.190  0.500  3.168512  155.111  6.524912  0.004873
  6715.779  6715.770  0.500  3.165014  155.119  6.548130  0.004833
  6718.390  6718.380  0.500  3.161862  155.105  6.568186  0.004847
  6721.003  6721.000  0.500  3.157583  155.07  6.594864  0.004893
  6723.664  6723.650  0.500  3.151926  155.059  6.631829  0.004861
  6726.321  6726.310  0.500  3.146302  155.07  6.669714  0.004970
  6728.995  6728.990  0.500  3.140303  155.046  6.708810  0.004833
  6731.700  6731.690  0.500  3.133396  155.024  6.754346  0.004881
  6734.424  6734.410  0.500  3.126765  155  6.798227  0.004958
  6737.165  6737.150  0.500  3.122168  154.964  6.827960  0.005029
  6739.907  6739.900  0.500  3.120462  154.934  6.838287  0.005044
  6742.689  6742.680  0.500  3.119477  154.911  6.844007  0.004967
  6745.485  6745.470  0.500  3.117012  154.871  6.859151  0.005098
  6748.299  6748.290  0.500  3.112808  154.849  6.887034  0.005241
  6751.133  6751.120  0.500  3.108173  154.826  6.918020  0.005232
  6753.978  6753.970  0.500  3.104850  154.803  6.940023  0.005305
  6756.862  6756.850  0.500  3.102569  154.793  6.955401  0.005466
  6759.749  6759.740  0.500  3.100593  154.771  6.968195  0.005288
  6762.666  6762.650  0.500  3.097468  154.746  6.988836  0.005386
  6765.582  6765.570  0.500  3.092649  154.703  7.020647  0.005649
  6768.530  6768.520  0.500  3.086643  154.667  7.061318  0.005491
  6771.494  6771.490  0.500  3.080103  154.648  7.106764  0.005445
  6774.483  6774.470  0.500  3.072326  154.639  7.161865  0.005663
  6777.493  6777.480  0.500  3.063247  154.631  7.226786  0.005733
  6780.514  6780.500  0.500  3.053805  154.618  7.294736  0.005902
  6783.568  6783.550  0.500  3.044561  154.594  7.361356  0.006103
  6786.628  6786.610  0.500  3.036626  154.58  7.419294  0.006157
  6789.701  6789.690  0.500  3.030417  154.599  7.466442  0.006398
  6792.804  6792.790  0.500  3.025215  154.493  7.500215  0.006307
  6795.924  6795.910  0.500  3.019424  151.98  7.421061  0.006337
  6799.065  6799.050  0.500  3.014606  154.046  7.558292  0.006547
  6802.218  6802.200  0.500  3.009575  154.195  7.603766  0.006567
  6805.398  6805.380  0.500  3.003510  154.221  7.651317  0.006689
  6808.584  6808.570  0.500  2.997578  154.141  7.692843  0.006763
  6811.806  6811.790  0.500  2.990146  143.92  7.236330  0.006321
  6815.035  6815.020  0.500  2.986786  153.796  7.758882  0.006843
  6818.287  6818.270  0.500  2.982684  153.954  7.798825  0.006733
  6821.562  6821.550  0.500  2.978916  153.68  7.814304  0.006790
  6824.854  6824.840  0.500  2.975409  152.651  7.789245  0.006752
  6828.167  6828.150  0.500  2.971913  153.618  7.866028  0.006877
  6831.483  6831.470  0.500  2.968215  153.675  7.898142  0.006983
  6834.837  6834.820  0.500  2.964210  153.657  7.928876  0.007057
  6838.207  6838.190  0.500  2.958948  153.343  7.954412  0.007068
  6841.585  6841.570  0.500  2.951572  150.831  7.882052  0.007183
  6844.997  6844.980  0.500  2.944854  153.042  8.051494  0.007417
  6848.409  6848.400  0.500  2.938093  153.154  8.112047  0.007412
  6851.867  6851.850  0.500  2.931257  153.153  8.167666  0.007621
  6855.321  6855.310  0.500  2.925902  153.141  8.210872  0.007688
  6858.802  6858.790  0.500  2.920527  153.107  8.253296  0.007873
  6862.299  6862.290  0.500  2.915053  152.928  8.288848  0.007958
  6865.824  6865.810  0.500  2.909942  153.112  8.341391  0.008060
  6869.362  6869.350  0.500  2.904731  153.085  8.383476  0.008273
  6872.910  6872.900  0.500  2.899783  153.074  8.424429  0.008248
  6876.494  6876.480  0.500  2.894564  153.048  8.467097  0.008311
  6880.096  6880.080  0.500  2.889233  153.011  8.510320  0.008527
  6883.700  6883.690  0.500  2.883094  152.932  8.558274  0.008545
  6887.331  6887.320  0.500  2.877101  152.896  8.607673  0.008626
  6890.993  6890.980  0.500  2.871220  152.857  8.656247  0.008785
  6894.675  6894.650  0.500  2.865048  152.804  8.706825  0.008984
  6898.353  6898.340  0.500  2.858481  152.741  8.760568  0.009014
  6902.064  6902.050  0.500  2.851795  152.667  8.815100  0.009002
  6905.794  6905.780  0.500  2.845598  152.577  8.864628  0.009316
  6909.529  6909.520  0.500  2.839899  152.498  8.910697  0.009305
  6913.301  6913.290  0.500  2.833902  152.335  8.954704  0.009350
  6917.097  6917.080  0.500  2.828100  152.257  9.002195  0.009474
  6920.891  6920.880  0.500  2.821553  152.112  9.052716  0.009675
  6924.722  6924.710  0.500  2.815097  152.033  9.106603  0.009587
  6928.562  6928.550  0.500  2.809193  151.909  9.153091  0.009893
  6932.424  6932.410  0.500  2.803323  151.824  9.201818  0.010020
  6936.287  6936.290  0.500  2.797485  151.75  9.251190  0.010120
  6940.199  6940.190  0.500  2.791959  151.667  9.297318  0.009949
  6944.122  6944.110  0.500  2.786669  151.592  9.342016  0.010350
  6948.061  6948.050  0.500  2.781222  151.523  9.388779  0.010443
  6952.024  6952.010  0.500  2.775537  151.457  9.438166  0.010622
  6955.992  6955.980  0.500  2.770041  151.395  9.486349  0.010706
  6959.997  6959.980  0.500  2.764680  151.806  9.563180  0.010898
  6964.008  6963.990  0.500  2.758513  151.782  9.620864  0.011015
  6968.048  6968.030  0.500  2.752402  151.72  9.675852  0.011250
  6972.094  6972.080  0.500  2.746443  151.632  9.728066  0.011443
  6976.160  6976.150  0.500  2.740954  151.537  9.775467  0.011493
  6980.238  6980.240  0.500  2.734834  151.438  9.829057  0.011739
  6984.353  6984.350  0.500  2.728976  151.341  9.880447  0.011858
  6988.483  6988.480  0.500  2.723238  151.235  9.930326  0.012008
  6992.635  6992.630  0.500  2.717493  151.142  9.981414  0.012169
  6996.798  6996.790  0.500  2.711817  151.046  10.0319  0.012274
  7000.981  7000.980  0.500  2.705945  150.923  10.0828  0.012334
  7005.182  7005.180  0.500  2.699887  150.826  10.1375  0.012636
  7009.410  7009.410  0.500  2.693604  150.691  10.1922  0.012683
  7013.653  7013.650  0.500  2.687333  150.584  10.249  0.012902
  7017.915  7017.910  0.500  2.681295  150.49  10.3047  0.013072
  7022.195  7022.190  0.500  2.674863  150.375  10.3633  0.013122
  7026.496  7026.490  0.500  2.668772  150.238  10.4171  0.013352
  7030.812  7030.810  0.500  2.662418  150.156  10.4777  0.013553
  7035.159  7035.150  0.500  2.656289  150.02  10.5326  0.013780
  7039.518  7039.510  0.500  2.650077  149.924  10.5915  0.013774
  7043.897  7043.890  0.500  2.643841  149.792  10.6484  0.014234
  7048.284  7048.280  0.500  2.637989  149.663  10.7017  0.014198
  7052.707  7052.700  0.500  2.631720  149.548  10.7607  0.014488
  7057.137  7057.130  0.500  2.625905  149.442  10.8158  0.014581
  7061.592  7061.580  0.500  2.619643  149.335  10.8759  0.014705
  7066.067  7066.050  0.500  2.613178  149.19  10.9358  0.015086
  7070.555  7070.540  0.500  2.606820  148.467  10.9522  0.015319
  7075.066  7075.050  0.500  2.601001  147.856  10.9708  0.015395
  7079.594  7079.580  0.500  2.594818  148.773  11.1073  0.015610
  7084.142  7084.130  0.500  2.588795  148.483  11.1526  0.015822
  7088.720  7088.700  0.500  2.583062  148.473  11.216  0.016094
  7093.279  7093.280  0.500  2.577147  148.322  11.2711  0.016219
  7097.907  7097.890  0.500  2.571211  148.187  11.3278  0.016554
  7102.525  7102.510  0.500  2.564862  148.049  11.3894  0.016705
  7107.171  7107.160  0.500  2.558751  147.885  11.4465  0.016938
  7111.835  7111.820  0.500  2.552561  147.604  11.4957  0.017015
  7116.515  7116.500  0.500  2.546347  147.335  11.5463  0.017228
  7121.219  7121.200  0.500  2.540233  147.051  11.5947  0.017381
  7125.911  7125.920  0.500  2.534208  146.744  11.6404  0.017606
  7130.645  7130.660  0.500  2.528211  146.321  11.6766  0.017644
  7135.443  7135.410  0.500  2.522050  146.089  11.7302  0.017867
  7140.207  7140.190  0.500  2.515836  145.958  11.7927  0.018062
  7144.995  7144.990  0.500  2.509674  145.861  11.8577  0.018327
  7149.792  7149.800  0.500  2.503267  145.743  11.9243  0.018455
  7154.639  7154.630  0.500  2.497098  145.614  11.9875  0.018826
  7159.476  7159.490  0.500  2.490902  145.441  12.0476  0.019020
  7164.347  7164.360  0.500  2.484621  145.227  12.1057  0.019366
  7169.237  7169.250  0.500  2.478621  145.011  12.1605  0.019572
  7174.187  7174.160  0.500  2.472608  144.827  12.2183  0.019781
  7179.069  7179.090  0.500  2.466161  144.66  12.2831  0.020158
  7184.049  7184.030  0.500  2.459761  144.474  12.3461  0.020455
  7188.987  7189.000  0.500  2.453650  144.308  12.4075  0.020717
  7193.983  7193.990  0.500  2.447221  143.958  12.4572  0.020903
  7198.977  7198.990  0.500  2.441099  143.845  12.5239  0.021264
  7204.032  7204.020  0.500  2.434793  143.642  12.5854  0.021481
  7209.051  7209.060  0.500  2.428499  143.424  12.6456  0.021643
  7214.106  7214.120  0.500  2.422349  143.211  12.7047  0.022120
  7219.192  7219.200  0.500  2.416118  142.982  12.7637  0.022250
  7224.290  7224.300  0.500  2.409630  142.765  12.8272  0.022704
  7229.403  7229.420  0.500  2.403286  142.746  12.9071  0.023052
  7234.543  7234.560  0.500  2.397050  142.49  12.9646  0.023162
  7239.706  7239.720  0.500  2.390802  142.291  13.0277  0.023553
  7244.886  7244.900  0.500  2.385053  139.686  12.8628  0.023427
  7250.069  7250.090  0.500  2.378873  141.82  13.1403  0.024018
  7255.307  7255.310  0.500  2.372449  141.545  13.1994  0.024454
  7260.526  7260.540  0.500  2.366129  141.294  13.2595  0.024842
  7265.772  7265.790  0.500  2.359596  140.232  13.2461  0.024814
  7271.038  7271.060  0.500  2.354298  141.603  13.4466  0.025597
  7276.335  7276.350  0.500  2.348158  141.552  13.5246  0.025910
  7281.666  7281.660  0.500  2.341935  141.363  13.5908  0.026074
  7286.965  7286.990  0.500  2.335740  141.009  13.6411  0.026525
  7292.321  7292.340  0.500  2.329626  140.941  13.7181  0.026899
  7297.711  7297.710  0.500  2.323408  140.726  13.7826  0.027268
  7303.071  7303.090  0.500  2.316929  140.717  13.8713  0.027681
  7308.484  7308.500  0.500  2.311020  140.475  13.9295  0.027943
  7313.907  7313.920  0.500  2.304929  140.27  13.9941  0.028384
  7319.348  7319.370  0.500  2.298622  140.072  14.0629  0.028742
  7324.812  7324.830  0.500  2.292204  139.865  14.1325  0.029131
  7330.308  7330.310  0.500  2.285861  139.66  14.2015  0.029572
  7335.825  7335.810  0.500  2.279697  139.448  14.2677  0.029790
  7341.310  7341.330  0.500  2.273542  139.165  14.3266  0.030276
  7346.846  7346.870  0.500  2.267308  139.038  14.4031  0.030555
  7352.405  7352.420  0.500  2.261013  138.847  14.4741  0.031007
  7357.986  7358.000  0.500  2.254591  138.639  14.5455  0.031497
  7363.579  7363.600  0.500  2.248111  138.438  14.6188  0.031778
  7369.192  7369.210  0.500  2.241557  138.245  14.6945  0.032408
  7374.853  7374.850  0.500  2.235385  138.035  14.763  0.032862
  7380.490  7380.500  0.500  2.229158  137.816  14.8317  0.033249
  7386.151  7386.170  0.500  2.223019  137.581  14.8975  0.033621
  7391.846  7391.860  0.500  2.216480  137.397  14.9752  0.034109