File: xdidata/Zr/La-L3-LaPO4.xdi
# XDI/1.0 BlueSky/1.5.3
# Beamline.name: 6BM
# Beamline.xray_source: NSLS-II three-pole wiggler
# Beamline.collimation: paraboloid mirror, 5 nm Rh on 30 nm Pt
# Beamline.focusing: not in use
# Beamline.harmonic_rejection: flat mirror, Si stripe, pitch = 7.0 mrad relative to beam
# Detector.i0: 10 cm N2
# Detector.I1: 25 cm N2
# Detector.I2: 25 cm N2
# Element.symbol: La
# Element.edge: L3
# Facility.name: NSLS-II
# Facility.energy: 3.0
# Facility.current: 400.3
# Facility.mode: top-off
# Facility.GUP: 305832
# Facility.SAF: 305669
# Facility.cycle: 2020-1
# Mono.name: Si(111)
# Mono.d_spacing: 3.13532
# Mono.encoder_resolution: 0.0000050 deg/ct
# Mono.angle_offset: 16.0581 deg
# Mono.scan_mode: fixed exit
# Mono.scan_type: step
# Mono.direction: forward in energy
# Sample.name: LaPO4
# Sample.prep: Powder in polyethylene glycol pellet
# Sample.x_position: -3.945 mm
# Sample.y_position: 103.894 mm
# Scan.experimenters: Neil Hyatt, Martin Stennett, Dan Austin, Seb Lawson
# Scan.edge_energy: 5482.7
# Scan.start_time: 2020-03-03T02:52:05
# Scan.end_time: 2020-03-03T03:02:09
# Scan.transient_id: 22550
# Scan.uid: 9260ce99-9059-4f0b-97ac-93412e05e14e
# Scan.plot_hint: (DTC1 + DTC2 + DTC3 + DTC4) / i0  --  ($8+$9+$10+$11) / $5
# Column.1: energy eV
# Column.2: requested_energy eV
# Column.3: measurement_time seconds
# Column.4: mutrans
# Column.5: i0
# Column.6: itrans
# Column.7: irefer
# ///////////
#
# -----------
#  energy  requested_energy  measurement_time  mutrans  i0  itrans  irefer
5282.698  5282.700  1.000  0.018766  55.6729  0.554172  0.084576
5292.705  5292.700  1.000  0.018693  56.0027  0.573549  0.084623
5302.708  5302.700  1.000  0.018705  56.2276  0.592139  0.092086
5312.710  5312.700  1.000  0.000000  56.4903  0.614170  0.098272
5322.711  5322.700  1.000  0.018232  56.6191  0.632789  0.098403
5332.708  5332.700  1.000  0.000000  56.7493  0.651685  0.105394
5342.706  5342.700  1.000  0.036854  56.9376  0.672901  0.104478
5352.706  5352.700  1.000  0.040302  56.8619  0.690672  0.109017
5362.703  5362.700  1.000  0.059662  57.4738  0.717704  0.114357
5372.703  5372.700  1.000  0.000000  57.7501  0.742115  0.119790
5382.705  5382.700  1.000  0.072812  58.0577  0.765707  0.124767
5392.689  5392.700  1.000  0.000000  58.3692  0.791670  0.126953
5402.695  5402.700  1.000  0.017721  58.5993  0.816605  0.133347
5412.693  5412.700  1.000  0.000000  58.8117  0.840963  0.139111
5422.702  5422.700  1.000  0.052031  59.0641  0.866750  0.144047
5432.701  5432.700  1.000  0.059923  59.3351  0.892986  0.150487
5442.702  5442.700  1.000  0.000000  59.5767  0.918608  0.155600
5452.701  5452.700  1.000  0.037373  59.81  0.942459  0.159034
5454.696  5454.700  1.000  0.018938  59.8449  0.947444  0.162802
5456.694  5456.700  1.000  0.017226  59.8644  0.950320  0.159891
5458.689  5458.700  1.000  0.000000  59.9204  0.955244  0.162471
5460.694  5460.700  1.000  0.000000  59.946  0.959115  0.163556
5462.693  5462.700  1.000  0.000000  59.9554  0.961444  0.160293
5464.696  5464.700  1.000  0.000000  59.9654  0.962858  0.128595
5466.694  5466.700  1.000  0.000000  59.9971  0.963504  0.128390
5468.705  5468.700  1.000  0.061418  60.0185  0.964870  0.117768
5470.697  5470.700  1.000  0.017154  60.027  0.961905  0.111412
5472.705  5472.700  1.000  0.033307  60.0473  0.957144  0.105814
5472.946  5472.950  1.000  0.017260  60.0565  0.956752  0.102269
5473.192  5473.200  1.000  0.017271  60.0191  0.954922  0.102092
5473.444  5473.450  1.000  0.022206  60.0451  0.955021  0.099227
5473.693  5473.700  1.000  0.000000  60.0236  0.952983  0.098620
5473.944  5473.950  1.000  0.016985  60.0291  0.951699  0.095609
5474.192  5474.200  1.000  0.035346  60.0508  0.951495  0.095662
5474.443  5474.450  1.000  0.000000  60.0262  0.950086  0.087849
5474.694  5474.700  1.000  0.017035  60.0363  0.948030  0.086517
5474.945  5474.950  1.000  0.000000  60.0167  0.946373  0.089267
5475.196  5475.200  1.000  0.051064  59.9993  0.944335  0.087399
5475.446  5475.450  1.000  0.051691  60.0163  0.943570  0.091680
5475.697  5475.700  1.000  0.035358  59.9958  0.941148  0.087973
5475.947  5475.950  1.000  0.019044  60.0109  0.939725  0.091045
5476.196  5476.200  1.000  0.000000  59.9997  0.937115  0.083533
5476.448  5476.450  1.000  0.000000  60.0064  0.935242  0.085538
5476.695  5476.700  1.000  0.016993  60.0145  0.931795  0.080703
5476.944  5476.950  1.000  0.016865  59.9927  0.929434  0.086069
5477.197  5477.200  1.000  0.000000  59.9841  0.926892  0.079600
5477.448  5477.450  1.000  0.017036  60.002  0.923796  0.080203
5477.697  5477.700  1.000  0.017010  59.9876  0.919757  0.077591
5477.951  5477.950  1.000  0.017028  59.9888  0.916332  0.080343
5478.201  5478.200  1.000  0.017199  59.9969  0.913021  0.070705
5478.450  5478.450  1.000  0.000000  59.972  0.908660  0.074795
5478.700  5478.700  1.000  0.000000  59.959  0.903910  0.073006
5478.949  5478.950  1.000  0.019245  59.9561  0.899549  0.070685
5479.195  5479.200  1.000  0.034797  59.9491  0.894665  0.071801
5479.449  5479.450  1.000  0.027802  59.9476  0.888520  0.069899
5479.699  5479.700  1.000  0.017515  59.9472  0.883129  0.068910
5479.950  5479.950  1.000  0.017044  59.9489  0.876784  0.066506
5480.203  5480.200  1.000  0.017269  59.9265  0.869009  0.068528
5480.452  5480.450  1.000  0.053304  59.9399  0.861695  0.064739
5480.701  5480.700  1.000  0.017285  59.92  0.853628  0.064952
5480.949  5480.950  1.000  0.000000  59.9289  0.844603  0.064279
5481.199  5481.200  1.000  0.034829  59.9201  0.834836  0.062067
5481.448  5481.450  1.000  0.017081  60.1278  0.826136  0.059682
5481.701  5481.700  1.000  0.000000  60.1079  0.813695  0.059910
5481.952  5481.950  1.000  0.017243  60.1166  0.800055  0.058959
5482.199  5482.200  1.000  0.055220  60.1048  0.784804  0.056931
5482.453  5482.450  1.000  0.000000  60.1036  0.768839  0.056602
5482.703  5482.700  1.000  0.045866  60.1058  0.751497  0.055362
5482.952  5482.950  1.000  0.063999  60.0858  0.735014  0.054767
5483.200  5483.200  1.000  0.017053  60.0875  0.718490  0.052276
5483.448  5483.450  1.000  0.000000  60.099  0.702075  0.051414
5483.698  5483.700  1.000  0.033713  60.1159  0.686098  0.050356
5483.951  5483.950  1.000  0.027736  60.0902  0.668984  0.047581
5484.199  5484.200  1.000  0.017922  60.0879  0.651539  0.049274
5484.453  5484.450  1.000  0.051080  60.0661  0.632160  0.047816
5484.701  5484.700  1.000  0.017004  60.0604  0.611129  0.047344
5484.955  5484.950  1.000  0.000000  60.0571  0.586345  0.046633
5485.201  5485.200  1.000  0.017379  60.0689  0.559838  0.043531
5485.450  5485.450  1.000  0.035583  60.0252  0.529366  0.043701
5485.702  5485.700  1.000  0.017057  60.0405  0.497108  0.039912
5485.950  5485.950  1.000  0.035212  60.0455  0.462311  0.040148
5486.199  5486.200  1.000  0.029613  60.0336  0.423002  0.036707
5486.453  5486.450  1.000  0.000000  60.0329  0.380631  0.033341
5486.704  5486.700  1.000  0.000000  60.0257  0.338075  0.030503
5486.951  5486.950  1.000  0.034642  60.0132  0.296297  0.027717
5487.203  5487.200  1.000  0.000000  60.0057  0.251849  0.025513
5487.452  5487.450  1.000  0.053885  60.0046  0.210810  0.022314
5487.700  5487.700  1.000  0.017012  59.9938  0.173203  0.018842
5487.950  5487.950  1.000  0.017490  59.9637  0.140348  0.017910
5488.201  5488.200  1.000  0.045047  59.9799  0.112855  0.014352
5488.450  5488.450  1.000  0.017209  59.9839  0.090429  0.014379
5488.700  5488.700  1.000  0.033980  59.9793  0.073634  0.013935
5488.952  5488.950  1.000  0.000000  59.9795  0.061420  0.012570
5489.204  5489.200  1.000  0.052738  59.957  0.052667  0.009927
5489.451  5489.450  1.000  0.055183  59.9507  0.047050  0.009071
5489.702  5489.700  1.000  0.016858  59.9417  0.044594  0.009905
5489.951  5489.950  1.000  0.000000  59.9286  0.045044  0.010944
5490.199  5490.200  1.000  0.000000  59.9156  0.046787  0.010428
5490.449  5490.450  1.000  0.017147  59.9244  0.051755  0.010833
5490.703  5490.700  1.000  0.020391  59.9403  0.059081  0.011255
5490.953  5490.950  1.000  0.034144  59.9216  0.069168  0.011297
5491.202  5491.200  1.000  0.017094  59.9286  0.081017  0.013990
5491.454  5491.450  1.000  0.000000  59.9216  0.095556  0.014792
5491.701  5491.700  1.000  0.053055  59.9106  0.110723  0.014046
5491.949  5491.950  1.000  0.000000  59.912  0.127394  0.016735
5492.199  5492.200  1.000  0.053177  59.8788  0.144783  0.017185
5492.450  5492.450  1.000  0.000000  59.9033  0.162546  0.017619
5492.700  5492.700  1.000  0.000000  59.8877  0.181664  0.020420
5492.956  5492.950  1.000  0.017377  59.8957  0.199041  0.023267
5493.202  5493.200  1.000  0.000000  59.8962  0.215650  0.021874
5493.452  5493.450  1.000  0.034856  59.8736  0.232308  0.022480
5493.703  5493.700  1.000  0.073684  59.8674  0.248749  0.025511
5493.951  5493.950  1.000  0.000000  59.8661  0.264642  0.026150
5494.199  5494.200  1.000  0.000000  59.8395  0.278389  0.027516
5494.451  5494.450  1.000  0.043502  59.8395  0.292558  0.029242
5494.702  5494.700  1.000  0.035186  59.8473  0.305584  0.029024
5494.952  5494.950  1.000  0.000000  59.8378  0.316573  0.029224
5495.203  5495.200  1.000  0.017829  59.8283  0.328323  0.029837
5495.454  5495.450  1.000  0.035354  59.8215  0.338639  0.031280
5495.702  5495.700  1.000  0.037381  59.8096  0.348282  0.029513
5495.949  5495.950  1.000  0.000000  59.7967  0.357728  0.030953
5496.202  5496.200  1.000  0.017569  59.8213  0.368652  0.035433
5496.446  5496.450  1.000  0.047739  59.7984  0.376211  0.035002
5496.701  5496.700  1.000  0.000000  59.7919  0.385493  0.033821
5496.953  5496.950  1.000  0.085320  59.7747  0.393257  0.035836
5497.202  5497.200  1.000  0.033466  59.7625  0.400356  0.032395
5497.454  5497.450  1.000  0.034141  59.7646  0.406957  0.035243
5497.705  5497.700  1.000  0.017246  59.7592  0.411736  0.035595
5497.949  5497.950  1.000  0.017689  59.7621  0.416755  0.039416
5498.198  5498.200  1.000  0.035288  59.7468  0.419776  0.037075
5498.452  5498.450  1.000  0.017117  59.7341  0.422782  0.040905
5498.700  5498.700  1.000  0.000000  59.7344  0.423927  0.037084
5498.952  5498.950  1.000  0.000000  59.7313  0.425598  0.034090
5499.206  5499.200  1.000  0.020607  59.7262  0.427046  0.036283
5499.452  5499.450  1.000  0.048615  59.7097  0.427221  0.040532
5499.703  5499.700  1.000  0.053380  59.6827  0.427458  0.035847
5499.954  5499.950  1.000  0.076603  59.677  0.428382  0.036881
5500.200  5500.200  1.000  0.017561  59.6882  0.429865  0.035243
5500.448  5500.450  1.000  0.044791  59.6784  0.430081  0.036704
5500.701  5500.700  1.000  0.017497  59.6649  0.432228  0.036083
5500.951  5500.950  1.000  0.018051  59.6602  0.433096  0.035650
5501.200  5501.200  1.000  0.000000  59.6357  0.434162  0.036129
5501.453  5501.450  1.000  0.034572  59.6586  0.435603  0.038408
5501.704  5501.700  1.000  0.000000  59.6124  0.436093  0.038080
5501.952  5501.950  1.000  0.017357  59.6224  0.437262  0.037355
5502.203  5502.200  1.000  0.034331  59.5958  0.438306  0.033865
5502.450  5502.450  1.000  0.017129  59.6109  0.439358  0.035953
5502.700  5502.700  1.000  0.017689  59.6046  0.441289  0.038163
5502.952  5502.950  1.000  0.091290  59.5631  0.442266  0.037016
5503.203  5503.200  1.000  0.037308  59.5645  0.443861  0.033610
5503.452  5503.450  1.000  0.017358  59.5509  0.445273  0.035281
5503.702  5503.700  1.000  0.000000  59.5976  0.446799  0.036692
5503.953  5503.950  1.000  0.043339  59.7441  0.449686  0.037191
5504.202  5504.200  1.000  0.000000  59.7337  0.450677  0.035147
5504.449  5504.450  1.000  0.034228  59.7444  0.451949  0.032939
5504.700  5504.700  1.000  0.000000  59.73  0.452516  0.040608
5504.950  5504.950  1.000  0.000000  59.7193  0.453900  0.039893
5505.201  5505.200  1.000  0.017247  59.7047  0.453910  0.036519
5505.453  5505.450  1.000  0.016747  59.7124  0.454472  0.038027
5505.705  5505.700  1.000  0.091995  59.6817  0.454239  0.037776
5505.951  5505.950  1.000  0.017852  59.6697  0.454409  0.037684
5506.200  5506.200  1.000  0.000000  59.6752  0.454151  0.037060
5506.448  5506.450  1.000  0.063226  59.6705  0.454040  0.037477
5506.699  5506.700  1.000  0.000000  59.6568  0.452528  0.036871
5506.948  5506.950  1.000  0.019159  59.6526  0.451698  0.037562
5507.202  5507.200  1.000  0.080794  59.6326  0.450538  0.035009
5507.449  5507.450  1.000  0.000000  59.6343  0.448843  0.039712
5507.703  5507.700  1.000  0.017243  59.6345  0.447437  0.038524
5507.955  5507.950  1.000  0.000000  59.6109  0.444718  0.038301
5508.202  5508.200  1.000  0.052648  59.5941  0.442678  0.034813
5508.451  5508.450  1.000  0.089770  59.5993  0.440517  0.033501
5508.701  5508.700  1.000  0.050998  59.5904  0.438303  0.037165
5508.949  5508.950  1.000  0.000000  59.5756  0.435750  0.036160
5509.200  5509.200  1.000  0.017365  59.5739  0.433309  0.034794
5509.451  5509.450  1.000  0.035324  59.5447  0.431352  0.039833
5509.703  5509.700  1.000  0.000000  59.5441  0.428968  0.034866
5509.953  5509.950  1.000  0.000000  59.5269  0.426099  0.033493
5510.202  5510.200  1.000  0.063462  59.5286  0.424544  0.034479
5510.451  5510.450  1.000  0.000000  59.4984  0.421372  0.034791
5510.701  5510.700  1.000  0.065626  59.4837  0.419902  0.034377
5510.949  5510.950  1.000  0.017507  59.5009  0.416889  0.034164
5511.198  5511.200  1.000  0.016815  59.469  0.414815  0.033403
5511.453  5511.450  1.000  0.029894  59.47  0.412832  0.036997
5511.702  5511.700  1.000  0.053052  59.449  0.410284  0.029926
5511.954  5511.950  1.000  0.000000  59.436  0.408002  0.032025
5512.203  5512.200  1.000  0.034700  59.4192  0.405555  0.032908
5512.454  5512.450  1.000  0.000000  59.419  0.402637  0.033485
5512.701  5512.700  1.000  0.034281  59.4218  0.400827  0.035444
5513.797  5513.780  1.000  0.035401  59.3779  0.389700  0.034042
5514.883  5514.880  1.000  0.000000  59.3218  0.379473  0.031656
5515.996  5515.990  1.000  0.000000  59.2677  0.370709  0.030405
5517.134  5517.130  1.000  0.052572  59.2321  0.362566  0.031498
5518.287  5518.280  1.000  0.035373  59.1887  0.355534  0.036054
5519.463  5519.460  1.000  0.063932  59.1065  0.349503  0.031304
5520.659  5520.650  1.000  0.000000  59.0853  0.346559  0.030935
5521.865  5521.860  1.000  0.102653  59.0146  0.345519  0.030664
5523.096  5523.090  1.000  0.035022  58.9297  0.349041  0.030298
5524.347  5524.340  1.000  0.000000  58.8584  0.356658  0.036952
5525.614  5525.610  1.000  0.052561  58.8235  0.367695  0.039245
5526.904  5526.900  1.000  0.017906  58.755  0.378750  0.030296
5528.214  5528.210  1.000  0.017650  58.6805  0.390893  0.038432
5529.532  5529.530  1.000  0.017778  58.5932  0.399920  0.038393
5530.886  5530.880  1.000  0.019715  58.5261  0.408900  0.035780
5532.244  5532.240  1.000  0.029937  58.4553  0.415160  0.037682
5533.636  5533.630  1.000  0.036373  58.3652  0.421809  0.039085
5535.036  5535.030  1.000  0.071312  58.287  0.427028  0.039889
5536.454  5536.450  1.000  0.000000  58.2007  0.432250  0.039821
5537.896  5537.890  1.000  0.035265  58.1076  0.436905  0.037114
5539.356  5539.350  1.000  0.019890  58.0103  0.439625  0.038536
5540.834  5540.830  1.000  0.036523  57.9074  0.440847  0.037651
5542.335  5542.330  1.000  0.035655  57.8105  0.440043  0.038618
5543.846  5543.840  1.000  0.000000  57.7152  0.438028  0.037907
5545.383  5545.380  1.000  0.018240  57.5996  0.435013  0.036983
5546.945  5546.940  1.000  0.038477  57.4917  0.433187  0.039503
5548.517  5548.510  1.000  0.017783  57.3943  0.430541  0.039331
5550.106  5550.100  1.000  0.052520  57.2835  0.427722  0.038974
5551.716  5551.710  1.000  0.054471  57.1735  0.424978  0.039639
5553.356  5553.350  1.000  0.036774  57.0523  0.422546  0.041086
5555.006  5555.000  1.000  0.018237  56.9154  0.420699  0.039692
5556.676  5556.670  1.000  0.027208  56.8014  0.418474  0.039987
5558.353  5558.350  1.000  0.018125  56.6761  0.416993  0.037106
5560.066  5560.060  1.000  0.055666  56.5468  0.415222  0.036671
5561.794  5561.790  1.000  0.000000  56.3947  0.413128  0.033761
5563.538  5563.530  1.000  0.076416  56.2711  0.411424  0.038384
5565.307  5565.300  1.000  0.018172  56.1296  0.408944  0.031532
5567.084  5567.080  1.000  0.018255  55.9716  0.408171  0.031087
5568.885  5568.880  1.000  0.033252  55.8508  0.410621  0.032713
5570.709  5570.700  1.000  0.037397  55.708  0.412873  0.034991
5572.551  5572.540  1.000  0.037223  55.5617  0.415040  0.036445
5574.408  5574.400  1.000  0.036850  55.4292  0.417144  0.039062
5576.291  5576.280  1.000  0.000000  55.2813  0.418769  0.033762
5578.187  5578.180  1.000  0.000000  55.1188  0.421431  0.038499
5580.107  5580.100  1.000  0.000000  54.9696  0.423666  0.039206
5582.039  5582.030  1.000  0.000000  54.7993  0.425334  0.039743
5583.997  5583.990  1.000  0.060003  54.6613  0.428000  0.040867
5585.967  5585.960  1.000  0.000000  54.5103  0.430275  0.041449
5587.968  5587.960  1.000  0.018744  54.5353  0.433062  0.041133
5589.976  5589.970  1.000  0.065590  54.3628  0.437021  0.041274
5592.008  5592.000  1.000  0.026348  54.2188  0.440033  0.041102
5594.062  5594.050  1.000  0.037698  54.035  0.442402  0.040852
5596.136  5596.120  1.000  0.021036  53.8762  0.443325  0.044093
5598.206  5598.210  1.000  0.032117  53.6986  0.443786  0.044916
5600.321  5600.310  1.000  0.019771  53.5244  0.444205  0.043442
5602.452  5602.440  1.000  0.067264  53.3703  0.443344  0.040655
5604.583  5604.590  1.000  0.060645  53.1907  0.440657  0.040873
5606.761  5606.750  1.000  0.019229  53.0139  0.436518  0.041930
5608.918  5608.930  1.000  0.051766  52.8359  0.434265  0.038230
5611.137  5611.140  1.000  0.019343  52.6727  0.435686  0.043024
5613.352  5613.360  1.000  0.019363  52.5431  0.437963  0.040269
5615.593  5615.600  1.000  0.000000  52.3618  0.438722  0.041784
5617.851  5617.860  1.000  0.046570  52.1784  0.441754  0.041279
5620.134  5620.140  1.000  0.060135  52.0257  0.445088  0.043096
5622.433  5622.440  1.000  0.022518  51.8107  0.444413  0.040985
5624.743  5624.750  1.000  0.036048  51.5181  0.443058  0.039888
5627.083  5627.090  1.000  0.000000  51.2852  0.441953  0.040676
5629.434  5629.440  1.000  0.077326  51.2797  0.443236  0.041900
5631.810  5631.820  1.000  0.000000  51.141  0.442473  0.041065
5634.202  5634.210  1.000  0.062081  51.0085  0.442613  0.041899
5636.620  5636.620  1.000  0.115053  50.8331  0.444042  0.043609
5639.045  5639.050  1.000  0.000000  50.6411  0.446028  0.043454
5641.511  5641.500  1.000  0.040941  50.4612  0.449241  0.043492
5643.972  5643.970  1.000  0.021197  50.0942  0.450901  0.044564
5646.454  5646.460  1.000  0.022801  49.7049  0.451767  0.045121
5648.965  5648.970  1.000  0.023525  49.5916  0.455306  0.046237
5651.501  5651.490  1.000  0.051058  49.529  0.459574  0.045113
5654.039  5654.040  1.000  0.063277  49.4067  0.461691  0.047036
5656.593  5656.600  1.000  0.077235  49.3238  0.463348  0.046404
5659.201  5659.190  1.000  0.047722  49.3048  0.467632  0.048627
5661.780  5661.790  1.000  0.043507  49.2528  0.469971  0.044462
5664.420  5664.410  1.000  0.021544  49.1468  0.471933  0.045175
5667.045  5667.050  1.000  0.000000  49.0821  0.473781  0.047600
5669.720  5669.710  1.000  0.041400  49.0192  0.475558  0.049424
5672.388  5672.390  1.000  0.021290  48.9485  0.478322  0.047883
5675.088  5675.090  1.000  0.023374  48.8937  0.480533  0.049828
5677.815  5677.810  1.000  0.072944  48.8298  0.481729  0.048211
5680.536  5680.540  1.000  0.021511  48.7441  0.483740  0.047095
5683.294  5683.300  1.000  0.021374  48.6563  0.484211  0.049318
5686.064  5686.070  1.000  0.020967  48.6025  0.486471  0.047510
5688.869  5688.870  1.000  0.022067  48.5527  0.489267  0.049285
5691.678  5691.680  1.000  0.033523  48.4735  0.490782  0.047704
5694.500  5694.510  1.000  0.021462  48.3859  0.493089  0.048156
5697.369  5697.360  1.000  0.021088  48.332  0.495933  0.048916
5700.222  5700.230  1.000  0.042233  48.303  0.498977  0.047706
5703.114  5703.120  1.000  0.021301  48.2262  0.500543  0.049460
5706.013  5706.020  1.000  0.079085  48.203  0.503343  0.049070
5708.957  5708.950  1.000  0.033982  48.1539  0.507945  0.049588
5711.891  5711.900  1.000  0.000000  48.1075  0.511170  0.052654
5714.851  5714.860  1.000  0.000000  48.046  0.514397  0.051270
5717.835  5717.840  1.000  0.042787  48.0063  0.517612  0.052516
5720.848  5720.850  1.000  0.021324  47.9543  0.520744  0.053237
5723.858  5723.870  1.000  0.081800  47.9116  0.524674  0.054515
5726.898  5726.910  1.000  0.063846  47.8272  0.527045  0.055864
5729.960  5729.970  1.000  0.043020  47.7696  0.529347  0.056091
5733.042  5733.050  1.000  0.022342  47.7428  0.533560  0.055967
5736.137  5736.150  1.000  0.064648  47.7061  0.536975  0.055635
5739.245  5739.260  1.000  0.021412  47.6663  0.540685  0.056631
5742.396  5742.400  1.000  0.028269  47.6186  0.544277  0.057868
5745.547  5745.550  1.000  0.000000  47.5565  0.548035  0.058971
5748.718  5748.730  1.000  0.042805  47.5218  0.552398  0.060027
5751.912  5751.920  1.000  0.021932  47.4761  0.556989  0.059354
5755.117  5755.130  1.000  0.022829  47.4537  0.561506  0.060412
5758.350  5758.360  1.000  0.042809  47.4067  0.565686  0.061889
5761.614  5761.620  1.000  0.021482  47.36  0.568551  0.061014
5764.873  5764.880  1.000  0.000000  47.3455  0.573014  0.062878
5768.163  5768.170  1.000  0.042664  47.2967  0.576985  0.060999
5771.473  5771.480  1.000  0.000000  47.2679  0.580847  0.061965
5774.800  5774.810  1.000  0.043280  47.2044  0.584444  0.063616
5778.137  5778.150  1.000  0.065219  47.1583  0.588452  0.061861
5781.515  5781.520  1.000  0.030888  47.0905  0.591284  0.063021
5784.889  5784.900  1.000  0.067252  47.0642  0.594787  0.063799
5788.285  5788.300  1.000  0.043952  47.0088  0.599176  0.065837
5791.722  5791.730  1.000  0.026221  46.9377  0.602230  0.066120
5795.159  5795.170  1.000  0.076900  46.8917  0.606685  0.066032
5798.617  5798.630  1.000  0.021937  46.8393  0.611327  0.066940
5802.092  5802.100  1.000  0.090527  46.797  0.616416  0.067128
5805.586  5805.600  1.000  0.022806  46.7722  0.620984  0.067811
5809.110  5809.120  1.000  0.000000  46.7105  0.626305  0.069142
5812.644  5812.660  1.000  0.022356  46.6418  0.631167  0.071907
5816.198  5816.210  1.000  0.044678  46.5746  0.635335  0.070920
5819.775  5819.790  1.000  0.035835  46.5094  0.640215  0.073173
5823.374  5823.380  1.000  0.088193  46.4703  0.644931  0.073256
5826.979  5826.990  1.000  0.119763  46.388  0.648957  0.074534
5830.609  5830.620  1.000  0.046222  46.3602  0.654645  0.074611
5834.261  5834.270  1.000  0.038304  46.412  0.660137  0.076167
5837.933  5837.940  1.000  0.103570  46.3453  0.664402  0.077131
5841.617  5841.630  1.000  0.056957  46.287  0.668406  0.076466
5845.334  5845.340  1.000  0.110250  46.1957  0.673278  0.078756
5849.056  5849.060  1.000  0.113506  46.0944  0.677154  0.077474
5852.797  5852.810  1.000  0.122535  46.0182  0.682399  0.078727
5856.564  5856.570  1.000  0.074074  45.9001  0.687604  0.078901
5860.348  5860.360  1.000  0.065556  45.7621  0.692615  0.081490
5864.147  5864.160  1.000  0.034147  45.5546  0.696632  0.081609
5867.969  5867.980  1.000  0.044800  45.0248  0.694221  0.080433
5871.807  5871.820  1.000  0.163263  35.4744  0.551258  0.066166
5875.670  5875.680  1.000  0.022194  46.1927  0.722838  0.084341
5879.553  5879.560  1.000  0.128647  45.9147  0.722429  0.085346
5883.448  5883.460  1.000  0.044825  45.7335  0.718928  0.083929
5887.376  5887.380  1.000  0.022293  45.586  0.703811  0.084896
5891.313  5891.310  1.000  0.045512  45.4464  0.635276  0.075980
5895.258  5895.270  1.000  0.045691  45.3125  0.314240  0.041162
5899.229  5899.240  1.000  0.045298  45.1712  0.255657  0.034648
5903.227  5903.240  1.000  0.046246  45.0342  0.464137  0.057954
5907.250  5907.250  1.000  0.080165  44.8404  0.512593  0.064319
5911.276  5911.280  1.000  0.000000  44.6124  0.522358  0.063869
5915.321  5915.330  1.000  0.132612  44.1239  0.517441  0.064281
5919.397  5919.400  1.000  0.028497  35.7239  0.404247  0.050767
5923.481  5923.490  1.000  0.035412  44.7117  0.485316  0.062596
5927.600  5927.600  1.000  0.046242  44.2334  0.468391  0.060431
5931.725  5931.720  1.000  0.025937  39.4318  0.425699  0.056774
5935.862  5935.870  1.000  0.138869  44.2788  0.502678  0.065773
5940.031  5940.030  1.000  0.023532  43.5949  0.512691  0.064278