File: xdidata/Zr/Zr-K-ZirconiumOxide.xdi
# XDI/1.0 BlueSky/1.10.0 BMM/2023-1.0-py310-tiled
# Beamline.name: BMM (06BM) -- Beamline for Materials Measurement (NIST)
# Beamline.xray_source: NSLS-II three-pole wiggler
# Beamline.collimation: paraboloid mirror, 5 nm Rh on 30 nm Pt
# Beamline.focusing: not in use
# Beamline.harmonic_rejection: flat mirror, Pt stripe, pitch = 7.0 mrad relative to beam
# Beamline.software: Bluesky 1.10.0, Ophyd 1.7.0, DataBroker 2.0.0b13, Python 3.10.8, 2023-1.0-py310-tiled
# Detector.I0: 10 cm N2
# Detector.I1: 25 cm N2
# Detector.I2: 25 cm N2
# Element.symbol: Zr
# Element.edge: K
# Element.reference: Zr
# Element.reference_material: Zr foil
# Facility.name: NSLS-II
# Facility.energy: 3.0
# Facility.current: 399.1
# Facility.mode: top-off
# Facility.GUP: 301027
# Facility.SAF: 310583
# Facility.cycle: 2023-2
# Mono.name: Si(111)
# Mono.d_spacing: 3.13519
# Mono.encoder_resolution: 0.0000050 deg/ct
# Mono.angle_offset: 16.0754 deg
# Mono.scan_mode: pseudo channel cut
# Mono.scan_type: step
# Mono.direction: forward in energy
# Sample.name: ZrO2
# Sample.prep: powder in PEG pellet
# Sample.x: 117.785 mm
# Sample.y: 114.695 mm
# Sample.SDD_position: 205.000 mm
# Scan.experimenters: Bruce Ravel
# Scan.edge_energy: 17997.6
# Scan.start_time: 2023-06-23T19:32:32
# Scan.end_time: 2023-06-23T19:39:45
# Scan.transient_id: 84974
# Scan.uid: fdaf4bf9-692d-428e-89a7-67300b4cfe5f
# Scan.plot_hint: ln(I0/It)  --  ln($5/$6)
# Column.1: energy eV
# Column.2: requested_energy eV
# Column.3: measurement_time seconds
# Column.4: xmu
# Column.5: I0 nA
# Column.6: It nA
# Column.7: Ir nA
# ///////////
# sample courtesy Martin Stennett, University of Sheffield
# -----------
# energy  requested_energy  measurement_time  xmu  I0  It  Ir
  17797.539  17797.600  0.500  0.054740  13.6429  12.9161  9.725265
  17807.589  17807.600  0.500  0.053769  13.5895  12.8781  9.699203
  17817.693  17817.600  0.500  0.052817  13.5466  12.8497  9.681369
  17827.627  17827.600  0.500  0.051836  13.5045  12.8223  9.660820
  17837.628  17837.600  0.500  0.051323  13.47  12.7961  9.645683
  17847.668  17847.600  0.500  0.050449  13.4331  12.7722  9.631163
  17857.635  17857.600  0.500  0.049844  13.399  12.7475  9.615408
  17867.642  17867.600  0.500  0.049405  13.3566  12.7128  9.591917
  17877.604  17877.600  0.500  0.048445  13.3152  12.6855  9.570752
  17887.717  17887.600  0.500  0.048492  13.2584  12.6308  9.530967
  17897.660  17897.600  0.500  0.048358  13.2498  12.6243  9.527260
  17907.670  17907.600  0.500  0.048410  13.2017  12.5779  9.490319
  17917.663  17917.600  0.500  0.048844  13.1704  12.5425  9.463496
  17927.653  17927.600  0.500  0.049620  13.1273  12.4919  9.421721
  17937.682  17937.600  0.500  0.051199  13.0972  12.4436  9.377295
  17947.666  17947.600  0.500  0.053736  13.0559  12.3728  9.312201
  17957.676  17957.600  0.500  0.057545  13.0137  12.286  9.227500
  17967.640  17967.600  0.500  0.064386  12.937  12.1303  9.080574
  17969.538  17969.600  0.500  0.065954  12.9071  12.0833  9.034778
  17971.549  17971.600  0.500  0.068303  12.9401  12.0857  9.028005
  17973.576  17973.600  0.500  0.070606  12.9453  12.0628  8.997075
  17975.560  17975.600  0.500  0.073205  12.9425  12.0288  8.956975
  17977.573  17977.600  0.500  0.076300  12.9298  11.98  8.908392
  17979.572  17979.600  0.500  0.079903  12.9298  11.9369  8.854043
  17981.586  17981.600  0.500  0.084125  12.9244  11.8816  8.788520
  17983.586  17983.600  0.500  0.088675  12.9015  11.8067  8.704057
  17985.586  17985.600  0.500  0.094823  12.9073  11.7397  8.617851
  17987.545  17987.600  0.500  0.101618  12.9004  11.6539  8.509715
  17987.800  17987.900  0.500  0.102871  12.9018  11.6405  8.493032
  17988.113  17988.200  0.500  0.103974  12.9  11.6261  8.473991
  17988.425  17988.500  0.500  0.105231  12.8976  11.6094  8.451408
  17988.751  17988.800  0.500  0.106607  12.9438  11.6349  8.461394
  17989.049  17989.100  0.500  0.107911  12.9417  11.6179  8.438493
  17989.348  17989.400  0.500  0.109190  12.9418  11.6031  8.416424
  17989.646  17989.700  0.500  0.110603  12.9417  11.5866  8.394711
  17989.930  17990.000  0.500  0.112057  12.9432  11.5711  8.371937
  17990.214  17990.300  0.500  0.113629  12.9398  11.55  8.346426
  17990.526  17990.600  0.500  0.115097  12.936  11.5296  8.317829
  17990.838  17990.900  0.500  0.116683  12.9371  11.5123  8.291679
  17991.151  17991.200  0.500  0.118687  12.944  11.4954  8.265609
  17991.449  17991.500  0.500  0.120222  12.9278  11.4633  8.227060
  17991.719  17991.800  0.500  0.121997  12.934  11.4485  8.201431
  17992.045  17992.100  0.500  0.123996  12.929  11.4213  8.162467
  17992.358  17992.400  0.500  0.126103  12.9236  11.3924  8.123724
  17992.670  17992.700  0.500  0.128105  12.9221  11.3684  8.083673
  17992.983  17993.000  0.500  0.130476  12.9296  11.348  8.047294
  17993.281  17993.300  0.500  0.132771  12.921  11.3144  8.001665
  17993.565  17993.600  0.500  0.135069  12.9294  11.2958  7.963267
  17993.863  17993.900  0.500  0.137456  12.9255  11.2655  7.914975
  17994.176  17994.200  0.500  0.140232  12.9274  11.2359  7.865086
  17994.474  17994.500  0.500  0.143199  12.9279  11.2031  7.804456
  17994.772  17994.800  0.500  0.146085  12.9241  11.1675  7.744367
  17995.085  17995.100  0.500  0.149382  12.9094  11.1181  7.668881
  17995.383  17995.400  0.500  0.152604  12.924  11.0949  7.608385
  17995.639  17995.700  0.500  0.155738  12.9237  11.0599  7.539980
  17995.980  17996.000  0.500  0.159413  12.9165  11.0132  7.448906
  17996.264  17996.300  0.500  0.163451  12.9127  10.9655  7.352317
  17996.619  17996.600  0.500  0.168251  12.9205  10.9197  7.244974
  17996.917  17996.900  0.500  0.173011  12.9151  10.8632  7.124796
  17997.201  17997.200  0.500  0.177775  12.9127  10.8096  7.005501
  17997.500  17997.500  0.500  0.183312  12.9194  10.7555  6.870216
  17997.798  17997.800  0.500  0.188641  12.915  10.6947  6.727164
  17998.097  17998.100  0.500  0.195112  12.9067  10.6189  6.559200
  17998.381  17998.400  0.500  0.202097  12.9017  10.5409  6.381029
  17998.722  17998.700  0.500  0.210133  12.9143  10.4668  6.198389
  17999.020  17999.000  0.500  0.218612  12.9044  10.3704  5.997608
  17999.305  17999.300  0.500  0.227735  12.9059  10.2774  5.804034
  17999.589  17999.600  0.500  0.237842  12.9058  10.174  5.609717
  17999.887  17999.900  0.500  0.249698  12.9038  10.0525  5.397831
  18000.214  18000.200  0.500  0.263493  12.901  9.912643  5.177443
  18000.513  18000.500  0.500  0.278221  12.9006  9.767413  4.974667
  18000.811  18000.800  0.500  0.294523  12.9026  9.610983  4.783084
  18001.124  18001.100  0.500  0.311289  12.8986  9.448260  4.608191
  18001.394  18001.400  0.500  0.328945  12.8976  9.282141  4.446996
  18001.692  18001.700  0.500  0.348821  12.8951  9.097718  4.290108
  18002.005  18002.000  0.500  0.370314  12.8971  8.905696  4.141481
  18002.304  18002.300  0.500  0.393048  12.8999  8.707374  4.003906
  18002.602  18002.600  0.500  0.415096  12.8955  8.514625  3.879747
  18002.929  18002.900  0.500  0.439812  12.8953  8.306571  3.754212
  18003.199  18003.200  0.500  0.463021  12.8912  8.113466  3.644581
  18003.498  18003.500  0.500  0.487424  12.8897  7.916944  3.534047
  18003.797  18003.800  0.500  0.512180  12.8789  7.716905  3.422229
  18004.095  18004.100  0.500  0.537004  12.8884  7.533206  3.317151
  18004.422  18004.400  0.500  0.562597  12.8733  7.334299  3.203659
  18004.721  18004.700  0.500  0.587304  12.8846  7.161578  3.100713
  18005.005  18005.000  0.500  0.611033  12.8827  6.992588  2.998715
  18005.290  18005.300  0.500  0.634734  12.8851  6.830092  2.895645
  18005.574  18005.600  0.500  0.657271  12.8847  6.677654  2.798502
  18005.901  18005.900  0.500  0.683687  12.8814  6.501899  2.685450
  18006.200  18006.200  0.500  0.709373  12.8758  6.334274  2.575089
  18006.499  18006.500  0.500  0.735335  12.874  6.171106  2.467114
  18006.812  18006.800  0.500  0.764170  12.8845  6.000573  2.352249
  18007.096  18007.100  0.500  0.789814  12.879  5.846146  2.251571
  18007.380  18007.400  0.500  0.816554  12.8731  5.689312  2.149308
  18007.665  18007.700  0.500  0.846325  12.878  5.524528  2.040516
  18007.978  18008.000  0.500  0.877190  12.87  5.353274  1.932344
  18008.305  18008.300  0.500  0.910500  12.8708  5.178216  1.823248
  18008.590  18008.600  0.500  0.944063  12.8648  5.004976  1.718817
  18008.874  18008.900  0.500  0.976261  12.8666  4.847056  1.624708
  18009.173  18009.200  0.500  1.012243  12.865  4.675190  1.527365
  18009.458  18009.500  0.500  1.045589  12.8632  4.521234  1.442320
  18009.771  18009.800  0.500  1.086474  12.8692  4.342131  1.347915
  18010.084  18010.100  0.500  1.129172  12.8612  4.158036  1.255741
  18010.382  18010.400  0.500  1.171396  12.8533  3.983663  1.172075
  18010.681  18010.700  0.500  1.217481  12.8668  3.808256  1.091245
  18010.966  18011.000  0.500  1.263924  12.8602  3.633568  1.015436
  18011.279  18011.300  0.500  1.315791  12.8593  3.449664  0.941011
  18011.578  18011.600  0.500  1.367543  12.8571  3.275125  0.873784
  18011.891  18011.900  0.500  1.427713  12.852  3.082635  0.802791
  18012.218  18012.200  0.500  1.494200  12.8566  2.885372  0.734649
  18012.503  18012.500  0.500  1.556526  12.8532  2.710321  0.676796
  18012.773  18012.800  0.500  1.618046  12.8398  2.545949  0.626321
  18013.072  18013.100  0.500  1.687915  12.8514  2.376277  0.574919
  18013.371  18013.400  0.500  1.764094  12.8535  2.202336  0.524385
  18013.684  18013.700  0.500  1.846464  12.8546  2.028374  0.476727
  18013.997  18014.000  0.500  1.926328  12.85  1.872017  0.434986
  18014.325  18014.300  0.500  2.015796  12.8456  1.711223  0.393661
  18014.581  18014.600  0.500  2.096719  12.8497  1.578697  0.360481
  18014.894  18014.900  0.500  2.180661  12.845  1.451060  0.329971
  18015.165  18015.200  0.500  2.266693  12.8495  1.331912  0.301667
  18015.478  18015.500  0.500  2.358655  12.8424  1.214217  0.274299
  18015.820  18015.800  0.500  2.457721  12.8335  1.098928  0.248389
  18016.119  18016.100  0.500  2.549531  12.8367  1.002781  0.226742
  18016.403  18016.400  0.500  2.633948  12.8377  0.921672  0.208648
  18016.702  18016.700  0.500  2.718091  12.8374  0.847274  0.192353
  18016.987  18017.000  0.500  2.795572  12.8302  0.783669  0.178468
  18017.301  18017.300  0.500  2.885784  12.8353  0.716349  0.163742
  18017.628  18017.600  0.500  2.971989  12.8356  0.657199  0.151106
  18017.927  18017.900  0.500  3.055445  12.8376  0.604674  0.139746
  18018.212  18018.200  0.500  3.130841  12.8316  0.560498  0.129825
  18018.511  18018.500  0.500  3.197698  12.8261  0.524025  0.121626
  18018.796  18018.800  0.500  3.267101  12.8271  0.488929  0.114160
  18019.109  18019.100  0.500  3.331928  12.8231  0.458093  0.107159
  18019.394  18019.400  0.500  3.394303  12.8229  0.430387  0.100922
  18019.722  18019.700  0.500  3.455850  12.8264  0.404808  0.094924
  18020.007  18020.000  0.500  3.508263  12.8129  0.383732  0.090059
  18020.334  18020.300  0.500  3.556348  12.8113  0.365670  0.085921
  18020.605  18020.600  0.500  3.598312  12.8214  0.350919  0.082221
  18020.890  18020.900  0.500  3.635702  12.8144  0.337857  0.079393
  18021.232  18021.200  0.500  3.674210  12.8189  0.325209  0.076371
  18021.517  18021.500  0.500  3.703456  12.8023  0.315427  0.073864
  18021.844  18021.800  0.500  3.726499  12.8189  0.308641  0.072130
  18022.101  18022.100  0.500  3.744683  12.8085  0.302833  0.070930
  18022.400  18022.400  0.500  3.758807  12.8181  0.298810  0.069847
  18022.614  18022.600  0.500  3.766316  12.8111  0.296412  0.069232
  18023.640  18023.590  0.500  3.776427  12.8118  0.293447  0.068378
  18024.623  18024.590  0.500  3.750872  12.8039  0.300857  0.069858
  18025.664  18025.610  0.500  3.699184  12.7939  0.316570  0.072809
  18026.676  18026.660  0.500  3.636271  12.7946  0.337143  0.076576
  18027.773  18027.720  0.500  3.566075  12.7864  0.361427  0.080730
  18028.814  18028.800  0.500  3.502887  12.7783  0.384760  0.084791
  18029.884  18029.900  0.500  3.444221  12.7743  0.407879  0.088493
  18031.039  18031.020  0.500  3.385251  12.7672  0.432413  0.092827
  18032.151  18032.160  0.500  3.324384  12.768  0.459580  0.099250
  18033.278  18033.310  0.500  3.253379  12.7618  0.493158  0.107597
  18034.519  18034.490  0.500  3.170181  12.7451  0.535245  0.119013
  18035.690  18035.680  0.500  3.079927  12.755  0.586255  0.133224
  18036.903  18036.900  0.500  2.993242  12.7477  0.638972  0.148511
  18038.173  18038.130  0.500  2.913343  12.7495  0.692220  0.164241
  18039.429  18039.380  0.500  2.848884  12.7346  0.737447  0.177501
  18040.700  18040.650  0.500  2.795198  12.7191  0.777173  0.188408
  18041.956  18041.940  0.500  2.752239  12.6769  0.808596  0.196621
  18043.313  18043.250  0.500  2.717865  12.6636  0.835993  0.203278
  18044.627  18044.580  0.500  2.689342  12.6731  0.860826  0.209519
  18045.970  18045.930  0.500  2.662240  12.701  0.886427  0.216482
  18047.313  18047.300  0.500  2.633694  12.7041  0.912313  0.224096
  18048.699  18048.680  0.500  2.601505  12.6977  0.941683  0.232387
  18050.099  18050.090  0.500  2.572991  12.6951  0.968726  0.239775
  18051.529  18051.510  0.500  2.550500  12.6941  0.990683  0.245490
  18052.930  18052.950  0.500  2.539748  12.685  1.000670  0.247417
  18054.417  18054.410  0.500  2.534012  12.6804  1.006060  0.246938
  18055.875  18055.890  0.500  2.532395  12.6717  1.007000  0.244269
  18057.406  18057.390  0.500  2.534342  12.6682  1.004765  0.240954
  18058.965  18058.910  0.500  2.540845  12.6536  0.997101  0.235347
  18060.496  18060.450  0.500  2.552739  12.6541  0.985349  0.230372
  18062.070  18062.010  0.500  2.568795  12.6394  0.968533  0.224842
  18063.630  18063.580  0.500  2.590823  12.6394  0.947429  0.220045
  18065.191  18065.180  0.500  2.617951  12.6336  0.921651  0.215123
  18066.809  18066.790  0.500  2.652940  12.6234  0.889239  0.209926
  18068.427  18068.430  0.500  2.697043  12.6269  0.851113  0.203677
  18070.088  18070.080  0.500  2.748232  12.6162  0.807954  0.195741
  18071.721  18071.750  0.500  2.803602  12.6111  0.764125  0.186470
  18073.469  18073.440  0.500  2.862282  12.5901  0.719377  0.176119
  18075.146  18075.150  0.500  2.912308  12.5913  0.684338  0.167941
  18076.938  18076.880  0.500  2.954782  12.5746  0.655009  0.160920
  18078.673  18078.630  0.500  2.987192  12.5805  0.634422  0.156187
  18080.436  18080.390  0.500  3.008613  12.5714  0.620524  0.153213
  18082.229  18082.180  0.500  3.016528  12.5609  0.615117  0.152077
  18084.037  18083.980  0.500  3.012118  12.5466  0.617136  0.152251
  18085.816  18085.810  0.500  2.994263  12.5331  0.627575  0.154392
  18087.696  18087.650  0.500  2.966234  12.5267  0.645085  0.158053
  18089.519  18089.510  0.500  2.932029  12.497  0.665950  0.162468
  18091.385  18091.390  0.500  2.895580  12.4493  0.688036  0.166584
  18093.281  18093.290  0.500  2.861584  12.4822  0.713707  0.172105
  18095.220  18095.210  0.500  2.832513  12.5154  0.736718  0.177127
  18097.174  18097.150  0.500  2.807341  12.5172  0.755602  0.181627
  18099.113  18099.110  0.500  2.784762  12.5016  0.771893  0.185757
  18101.111  18101.080  0.500  2.763491  12.4945  0.788045  0.191152
  18103.109  18103.080  0.500  2.742456  12.4831  0.804061  0.196958
  18105.151  18105.090  0.500  2.724216  12.4633  0.817565  0.202604
  18107.136  18107.120  0.500  2.710357  12.442  0.827558  0.207305
  18109.193  18109.180  0.500  2.699504  12.4175  0.834936  0.210954
  18111.251  18111.250  0.500  2.691503  12.443  0.843375  0.213821
  18113.366  18113.340  0.500  2.689309  12.4368  0.844805  0.214713
  18115.439  18115.450  0.500  2.687752  12.4333  0.845885  0.214773
  18117.628  18117.580  0.500  2.685031  12.4161  0.847014  0.214076
  18119.788  18119.720  0.500  2.679419  12.384  0.849583  0.213701
  18121.949  18121.890  0.500  2.672398  12.3174  0.850962  0.213476
  18124.125  18124.080  0.500  2.662809  12.3427  0.860926  0.215108
  18126.287  18126.280  0.500  2.654212  12.3812  0.871074  0.216905
  18128.507  18128.500  0.500  2.645901  12.3847  0.878587  0.218069
  18130.771  18130.750  0.500  2.639371  12.3679  0.883144  0.219091
  18133.035  18133.010  0.500  2.635688  12.3661  0.886275  0.219485
  18135.300  18135.290  0.500  2.635454  12.337  0.884392  0.219026
  18137.623  18137.590  0.500  2.638892  12.3784  0.884319  0.218856
  18139.991  18139.910  0.500  2.647693  12.3701  0.875981  0.216666
  18142.286  18142.250  0.500  2.659711  12.3773  0.866018  0.214960
  18144.640  18144.600  0.500  2.674524  12.3618  0.852220  0.212731
  18146.980  18146.980  0.500  2.690303  12.3574  0.838579  0.210792
  18149.408  18149.370  0.500  2.704647  12.3347  0.825115  0.208991
  18151.793  18151.790  0.500  2.719633  12.2947  0.810208  0.206662
  18154.265  18154.220  0.500  2.736563  12.315  0.797921  0.205247
  18156.709  18156.670  0.500  2.750180  12.3157  0.787174  0.203235
  18159.197  18159.150  0.500  2.758318  12.3137  0.780669  0.202607
  18161.714  18161.640  0.500  2.759590  12.3061  0.779191  0.202981
  18164.160  18164.150  0.500  2.753367  12.2988  0.783595  0.204228
  18166.737  18166.670  0.500  2.742379  12.2748  0.790706  0.205892
  18169.213  18169.220  0.500  2.729352  12.2719  0.800883  0.208385
  18171.792  18171.790  0.500  2.712711  12.2614  0.813623  0.210887
  18174.414  18174.370  0.500  2.692978  12.2413  0.828478  0.213617
  18177.023  18176.980  0.500  2.674833  12.2383  0.843443  0.216716
  18179.647  18179.600  0.500  2.658400  12.2296  0.856808  0.218982
  18182.287  18182.250  0.500  2.646431  12.223  0.866654  0.220364
  18184.970  18184.910  0.500  2.636985  12.2078  0.873793  0.221133
  18187.611  18187.590  0.500  2.631091  12.1912  0.877762  0.221888
  18190.282  18190.290  0.500  2.624698  12.1879  0.883158  0.222923
  18193.040  18193.010  0.500  2.620713  12.1845  0.886434  0.224345
  18195.800  18195.750  0.500  2.619819  12.1701  0.886181  0.225182
  18198.589  18198.500  0.500  2.620386  12.1571  0.884733  0.225788
  18201.350  18201.280  0.500  2.623491  12.1468  0.881242  0.226426
  18204.098  18204.070  0.500  2.627398  12.1348  0.876936  0.226538
  18206.904  18206.890  0.500  2.633273  12.1182  0.870610  0.226174
  18209.755  18209.720  0.500  2.639058  12.1086  0.864897  0.225311
  18212.593  18212.570  0.500  2.644382  12.0931  0.859202  0.224863
  18215.489  18215.450  0.500  2.646780  12.0841  0.856510  0.225216
  18218.401  18218.340  0.500  2.646566  12.0705  0.855726  0.225870
  18221.285  18221.250  0.500  2.640873  11.9997  0.855570  0.226629
  18224.242  18224.170  0.500  2.630510  12.026  0.866375  0.229564
  18227.113  18227.120  0.500  2.621262  12.0288  0.874626  0.231899
  18230.102  18230.090  0.500  2.614122  12.0375  0.881530  0.233185
  18233.135  18233.070  0.500  2.609607  12.0199  0.884228  0.232821
  18236.111  18236.080  0.500  2.607175  11.9953  0.884567  0.231639
  18239.132  18239.100  0.500  2.605891  11.9931  0.885535  0.230628
  18242.212  18242.150  0.500  2.606069  11.9846  0.884752  0.228988
  18245.220  18245.210  0.500  2.608211  11.9696  0.881752  0.227200
  18248.288  18248.290  0.500  2.610457  11.9566  0.878823  0.225461
  18251.430  18251.390  0.500  2.612918  11.9356  0.875121  0.224653
  18254.543  18254.510  0.500  2.616088  11.9148  0.870831  0.223889
  18257.716  18257.650  0.500  2.618712  11.92  0.868930  0.224101
  18260.832  18260.800  0.500  2.621098  11.9012  0.865494  0.224566
  18264.037  18263.980  0.500  2.622114  11.8891  0.863735  0.225544
  18267.198  18267.170  0.500  2.623153  11.8788  0.862084  0.225937
  18270.376  18270.390  0.500  2.624259  11.8656  0.860176  0.226513
  18273.643  18273.620  0.500  2.625453  11.8468  0.857792  0.226227
  18276.910  18276.870  0.500  2.626390  11.832  0.855915  0.226546
  18280.223  18280.150  0.500  2.625674  11.7935  0.853741  0.226235
  18283.493  18283.440  0.500  2.622904  11.4712  0.832718  0.221262
  18286.765  18286.750  0.500  2.617753  11.5041  0.839416  0.223764
  18290.081  18290.070  0.500  2.612971  11.7618  0.862335  0.230328
  18293.472  18293.420  0.500  2.606132  11.7669  0.868630  0.232663
  18296.865  18296.790  0.500  2.598979  11.7609  0.874416  0.234178
  18300.244  18300.170  0.500  2.590580  11.7471  0.880754  0.235508
  18303.639  18303.580  0.500  2.581300  11.7317  0.887806  0.237033
  18307.035  18307.000  0.500  2.572590  11.7165  0.894406  0.238819
  18310.476  18310.450  0.500  2.563262  11.7017  0.901653  0.239912
  18313.934  18313.910  0.500  2.557072  11.6849  0.905951  0.240712
  18317.437  18317.390  0.500  2.554748  11.6732  0.907143  0.240227
  18320.956  18320.890  0.500  2.556898  11.6659  0.904629  0.239247
  18324.433  18324.410  0.500  2.560829  11.6479  0.899694  0.237357
  18327.969  18327.950  0.500  2.565797  11.6396  0.894598  0.235587
  18331.492  18331.500  0.500  2.570447  11.6246  0.889298  0.234818
  18335.135  18335.080  0.500  2.573118  11.6072  0.885594  0.234352
  18338.705  18338.680  0.500  2.574393  11.5841  0.882711  0.235079
  18342.336  18342.290  0.500  2.572201  11.5702  0.883584  0.236244
  18345.939  18345.920  0.500  2.567407  11.5105  0.883251  0.236901
  18349.602  18349.580  0.500  2.560359  11.5335  0.891271  0.239669
  18353.311  18353.250  0.500  2.558413  11.5424  0.893696  0.241449
  18357.021  18356.940  0.500  2.557106  11.5238  0.893424  0.241526
  18360.719  18360.650  0.500  2.557495  11.5024  0.891419  0.241568
  18364.417  18364.380  0.500  2.555702  11.4881  0.891912  0.241957
  18368.147  18368.120  0.500  2.552790  11.4699  0.893094  0.242768
  18371.893  18371.890  0.500  2.547290  11.457  0.897012  0.243756
  18375.715  18375.680  0.500  2.542762  11.4518  0.900670  0.244848
  18379.553  18379.480  0.500  2.538774  11.4344  0.902895  0.245600
  18383.363  18383.310  0.500  2.535323  11.4133  0.904345  0.245326
  18387.175  18387.150  0.500  2.532196  11.4109  0.906988  0.245992
  18391.033  18391.010  0.500  2.529126  11.3967  0.908647  0.246362
  18394.937  18394.890  0.500  2.526079  11.3777  0.909900  0.246252
  18398.857  18398.790  0.500  2.523574  11.3554  0.910388  0.246643
  18402.750  18402.710  0.500  2.522370  11.3403  0.910272  0.246144
  18406.659  18406.650  0.500  2.524901  11.3352  0.907566  0.245728
  18410.674  18410.610  0.500  2.528253  11.3181  0.903165  0.244554
  18414.631  18414.580  0.500  2.530466  11.2991  0.899656  0.243636
  18418.634  18418.580  0.500  2.531800  11.2803  0.896962  0.243302
  18422.624  18422.590  0.500  2.532055  11.2657  0.895572  0.243333
  18426.661  18426.630  0.500  2.531438  11.2401  0.894090  0.243441
  18430.699  18430.680  0.500  2.529861  11.2349  0.895086  0.244430
  18434.814  18434.750  0.500  2.526816  11.2199  0.896615  0.245663
  18438.931  18438.840  0.500  2.521884  11.1888  0.898549  0.246904
  18443.020  18442.950  0.500  2.514288  11.1862  0.905190  0.248921
  18447.110  18447.080  0.500  2.507726  11.1763  0.910345  0.250660
  18451.277  18451.230  0.500  2.503384  11.1639  0.913294  0.251874
  18455.461  18455.390  0.500  2.499675  11.1494  0.915493  0.252637
  18459.647  18459.580  0.500  2.496342  11.1296  0.916921  0.253075
  18463.804  18463.780  0.500  2.493080  11.1115  0.918424  0.253745
  18468.054  18468.010  0.500  2.489215  11.094  0.920527  0.254139
  18472.305  18472.250  0.500  2.484926  11.0817  0.923454  0.254742
  18476.589  18476.510  0.500  2.482102  11.0546  0.923807  0.255031
  18480.859  18480.790  0.500  2.481812  10.985  0.918255  0.253602
  18485.116  18485.090  0.500  2.482755  11.0271  0.920903  0.254249
  18489.451  18489.410  0.500  2.484506  11.0149  0.918278  0.254167
  18493.817  18493.750  0.500  2.486896  11.0015  0.914970  0.253574
  18498.170  18498.110  0.500  2.487922  10.9856  0.912712  0.252898
  18502.541  18502.490  0.500  2.488651  10.9669  0.910494  0.252146
  18506.913  18506.880  0.500  2.487874  10.9401  0.908977  0.251791
  18511.333  18511.300  0.500  2.487226  10.9316  0.908856  0.252262
  18515.785  18515.730  0.500  2.482729  10.9184  0.911847  0.253931
  18520.285  18520.180  0.500  2.477159  10.9009  0.915471  0.254783
  18524.666  18524.650  0.500  2.471369  10.8881  0.919709  0.256496
  18529.169  18529.140  0.500  2.466769  10.8551  0.921148  0.257504
  18533.690  18533.650  0.500  2.463491  10.8538  0.924065  0.258772
  18538.259  18538.180  0.500  2.459126  10.826  0.925725  0.259493
  18542.799  18542.730  0.500  2.455364  10.8209  0.928781  0.260835
  18547.327  18547.300  0.500  2.452261  10.802  0.930038  0.261500
  18551.887  18551.880  0.500  2.449587  10.7851  0.931068  0.262262
  18556.570  18556.490  0.500  2.447034  10.7673  0.931907  0.262321
  18561.195  18561.110  0.500  2.445448  10.755  0.932324  0.262672
  18565.868  18565.760  0.500  2.444205  10.7379  0.932001  0.262608
  18570.437  18570.420  0.500  2.445508  10.7072  0.928121  0.261880
  18575.145  18575.100  0.500  2.445263  10.6987  0.927610  0.261498
  18579.855  18579.800  0.500  2.444706  10.6845  0.926898  0.261443
  18584.643  18584.520  0.500  2.443814  10.6663  0.926145  0.261583
  18589.358  18589.260  0.500  2.441066  10.6475  0.927058  0.262587
  18594.121  18594.010  0.500  2.437605  10.6337  0.929067  0.262816
  18598.841  18598.790  0.500  2.435575  10.6134  0.929178  0.263580
  18603.654  18603.590  0.500  2.432537  10.588  0.929769  0.263820
  18608.531  18608.400  0.500  2.429856  10.5738  0.931021  0.264324
  18613.349  18613.230  0.500  2.427062  10.5576  0.932196  0.264786
  18618.216  18618.090  0.500  2.424054  10.5432  0.933723  0.265904
  18623.039  18622.960  0.500  2.420837  10.5214  0.934796  0.266638
  18627.957  18627.850  0.500  2.416959  10.4963  0.936189  0.267352
  18632.846  18632.760  0.500  2.411907  10.4782  0.939307  0.268215
  18637.784  18637.690  0.500  2.407693  10.4732  0.942822  0.270241
  18642.740  18642.630  0.500  2.404835  10.4574  0.944096  0.270782
  18647.790  18647.600  0.500  2.401835  10.4254  0.944042  0.270800
  18652.659  18652.590  0.500  2.401821  10.4126  0.942893  0.271012
  18657.638  18657.590  0.500  2.400840  10.3845  0.941271  0.271105
  18662.681  18662.620  0.500  2.398207  10.372  0.942611  0.271298
  18667.742  18667.660  0.500  2.396909  10.3486  0.941710  0.271491
  18672.805  18672.720  0.500  2.394696  10.3412  0.943125  0.272039
  18677.841  18677.800  0.500  2.392570  10.3234  0.943499  0.272619
  18682.956  18682.900  0.500  2.390908  10.304  0.943294  0.272468
  18688.089  18688.020  0.500  2.390472  10.2903  0.942453  0.272648
  18693.194  18693.160  0.500  2.388054  10.271  0.942963  0.273144
  18698.395  18698.320  0.500  2.384589  10.2489  0.944199  0.273446
  18703.613  18703.500  0.500  2.381574  10.2265  0.944982  0.274384
  18708.758  18708.690  0.500  2.377862  10.2092  0.946890  0.275031
  18713.997  18713.910  0.500  2.374764  10.194  0.948416  0.275744
  18719.194  18719.140  0.500  2.372340  10.1773  0.949156  0.275953
  18724.393  18724.390  0.500  2.369956  10.1562  0.949454  0.276797
  18729.688  18729.660  0.500  2.366295  10.1238  0.949895  0.277035
  18735.001  18734.950  0.500  2.362715  10.1181  0.952765  0.278339
  18740.332  18740.260  0.500  2.359511  10.0918  0.953335  0.278653
  18745.667  18745.590  0.500  2.356929  10.0774  0.954435  0.279409
  18751.004  18750.940  0.500  2.354723  10.0675  0.955602  0.280322
  18756.376  18756.310  0.500  2.352541  10.0436  0.955415  0.280560
  18761.751  18761.690  0.500  2.350129  10.0254  0.955995  0.280968
  18767.175  18767.100  0.500  2.346735  10.0096  0.957732  0.281843
  18772.633  18772.520  0.500  2.344869  9.982532  0.956923  0.281814
  18778.094  18777.970  0.500  2.343255  9.970007  0.957266  0.282255
  18783.466  18783.430  0.500  2.341962  9.954363  0.957001  0.282726
  18788.980  18788.910  0.500  2.340046  9.931762  0.956659  0.282602
  18794.482  18794.410  0.500  2.338104  9.909362  0.956357  0.283026
  18799.987  18799.930  0.500  2.334838  9.894607  0.958057  0.283444
  18805.527  18805.470  0.500  2.332390  9.872594  0.958268  0.283690
  18811.054  18811.020  0.500  2.330056  9.857383  0.959028  0.284398
  18816.678  18816.600  0.500  2.326603  9.832405  0.959907  0.284864
  18822.258  18822.200  0.500  2.323782  9.815646  0.960977  0.285749
  18827.889  18827.810  0.500  2.319824  9.785872  0.961862  0.286445
  18833.538  18833.450  0.500  2.315915  9.770984  0.964160  0.287228
  18839.176  18839.100  0.500  2.312468  9.755906  0.965997  0.288217
  18844.832  18844.770  0.500  2.309622  9.739729  0.967143  0.288829
  18850.523  18850.460  0.500  2.307168  9.719934  0.967549  0.289350