File: xdidata/Zr/Zr-K-Wadeite.xdi
# XDI/1.0 BlueSky/1.10.0 BMM/2023-1.0-py310-tiled
# Beamline.name: BMM (06BM) -- Beamline for Materials Measurement (NIST)
# Beamline.xray_source: NSLS-II three-pole wiggler
# Beamline.collimation: paraboloid mirror, 5 nm Rh on 30 nm Pt
# Beamline.focusing: not in use
# Beamline.harmonic_rejection: flat mirror, Pt stripe, pitch = 7.0 mrad relative to beam
# Beamline.software: Bluesky 1.10.0, Ophyd 1.7.0, DataBroker 2.0.0b13, Python 3.10.8, 2023-1.0-py310-tiled
# Detector.I0: 10 cm N2
# Detector.I1: 25 cm N2
# Detector.I2: 25 cm N2
# Element.symbol: Zr
# Element.edge: K
# Element.reference: Zr
# Element.reference_material: Zr foil
# Facility.name: NSLS-II
# Facility.energy: 3.0
# Facility.current: 400.8
# Facility.mode: top-off
# Facility.GUP: 301027
# Facility.SAF: 310583
# Facility.cycle: 2023-2
# Mono.name: Si(111)
# Mono.d_spacing: 3.13519
# Mono.encoder_resolution: 0.0000050 deg/ct
# Mono.angle_offset: 16.0754 deg
# Mono.scan_mode: pseudo channel cut
# Mono.scan_type: step
# Mono.direction: forward in energy
# Sample.name: K2Zr(SiO3O9)
# Sample.prep: powder in PEG pellet
# Sample.x: 117.785 mm
# Sample.y: 114.695 mm
# Sample.SDD_position: 205.000 mm
# Scan.experimenters: Bruce Ravel
# Scan.edge_energy: 17997.6
# Scan.start_time: 2023-06-23T19:40:16
# Scan.end_time: 2023-06-23T19:48:03
# Scan.transient_id: 84979
# Scan.uid: 2693b3e3-e96e-4364-b114-9675476b0801
# Scan.plot_hint: ln(I0/It)  --  ln($5/$6)
# Column.1: energy eV
# Column.2: requested_energy eV
# Column.3: measurement_time seconds
# Column.4: xmu
# Column.5: I0 nA
# Column.6: It nA
# Column.7: Ir nA
# ///////////
# sample courtesy Martin Stennett, University of Sheffield
# -----------
# energy  requested_energy  measurement_time  xmu  I0  It  Ir
  17797.358  17797.600  0.500  -0.051640  13.4864  14.2011  10.6895
  17807.645  17807.600  0.500  -0.052403  13.437  14.1599  10.6646
  17817.637  17817.600  0.500  -0.053479  13.3908  14.1264  10.6438
  17827.655  17827.600  0.500  -0.054076  13.3549  14.097  10.6285
  17837.697  17837.600  0.500  -0.055017  13.3109  14.0637  10.6025
  17847.654  17847.600  0.500  -0.055942  13.2658  14.029  10.5809
  17857.677  17857.600  0.500  -0.056790  13.2243  13.997  10.5559
  17867.698  17867.600  0.500  -0.057547  13.1882  13.9693  10.5393
  17877.716  17877.600  0.500  -0.058169  13.1506  13.9383  10.5192
  17887.703  17887.600  0.500  -0.058734  13.1014  13.8939  10.4878
  17897.688  17897.600  0.500  -0.059604  13.0826  13.8861  10.4782
  17907.698  17907.600  0.500  -0.060003  13.0424  13.849  10.4531
  17917.705  17917.600  0.500  -0.060526  12.9943  13.8051  10.4152
  17927.709  17927.600  0.500  -0.061238  12.948  13.7657  10.3837
  17937.654  17937.600  0.500  -0.061179  12.9194  13.7345  10.3514
  17947.666  17947.600  0.500  -0.061171  12.877  13.6892  10.304
  17957.605  17957.600  0.500  -0.060893  12.8368  13.6427  10.2488
  17967.739  17967.600  0.500  -0.059164  12.7615  13.5393  10.1361
  17969.439  17969.600  0.500  -0.058961  12.7282  13.5012  10.0993
  17971.748  17971.600  0.500  -0.058204  12.7692  13.5345  10.1105
  17973.505  17973.600  0.500  -0.057801  12.7813  13.5418  10.1038
  17975.531  17975.600  0.500  -0.057421  12.7745  13.5295  10.077
  17977.559  17977.600  0.500  -0.056639  12.7648  13.5087  10.0445
  17979.572  17979.600  0.500  -0.055833  12.7482  13.4802  10.0018
  17981.572  17981.600  0.500  -0.054857  12.7449  13.4636  9.961601
  17983.586  17983.600  0.500  -0.053564  12.7416  13.4427  9.913796
  17985.586  17985.600  0.500  -0.052146  12.7311  13.4125  9.850408
  17987.545  17987.600  0.500  -0.050525  12.7312  13.391  9.779708
  17987.829  17987.900  0.500  -0.050195  12.7258  13.3809  9.765796
  17988.127  17988.200  0.500  -0.049841  12.7236  13.3739  9.749653
  17988.425  17988.500  0.500  -0.049764  12.7189  13.3678  9.732663
  17988.751  17988.800  0.500  -0.049171  12.7141  13.3548  9.714490
  17989.035  17989.100  0.500  -0.048835  12.7054  13.3413  9.693676
  17989.319  17989.400  0.500  -0.048344  12.7234  13.3536  9.693200
  17989.617  17989.700  0.500  -0.048169  12.7167  13.3443  9.672329
  17989.915  17990.000  0.500  -0.048017  12.7095  13.3347  9.653827
  17990.228  17990.300  0.500  -0.047357  12.7222  13.3391  9.643355
  17990.554  17990.600  0.500  -0.047269  12.7116  13.3269  9.616736
  17990.852  17990.900  0.500  -0.046721  12.7084  13.3162  9.593417
  17991.151  17991.200  0.500  -0.046200  12.7123  13.3134  9.573222
  17991.435  17991.500  0.500  -0.045756  12.7135  13.3087  9.555183
  17991.747  17991.800  0.500  -0.045447  12.7107  13.3017  9.531106
  17992.045  17992.100  0.500  -0.045070  12.7071  13.2929  9.504105
  17992.343  17992.400  0.500  -0.044419  12.7084  13.2856  9.481043
  17992.642  17992.700  0.500  -0.043913  12.7076  13.2781  9.451424
  17992.926  17993.000  0.500  -0.043430  12.7099  13.274  9.421140
  17993.252  17993.300  0.500  -0.042933  12.7052  13.2626  9.384881
  17993.565  17993.600  0.500  -0.042355  12.7026  13.2522  9.347186
  17993.849  17993.900  0.500  -0.041955  12.7009  13.2451  9.311386
  17994.147  17994.200  0.500  -0.041065  12.699  13.2313  9.267010
  17994.431  17994.500  0.500  -0.040474  12.6979  13.2224  9.224479
  17994.729  17994.800  0.500  -0.039828  12.6996  13.2156  9.177804
  17995.028  17995.100  0.500  -0.039103  12.6985  13.2049  9.125197
  17995.355  17995.400  0.500  -0.038443  12.6933  13.1907  9.055738
  17995.667  17995.700  0.500  -0.037745  12.692  13.1802  8.985803
  17995.980  17996.000  0.500  -0.036698  12.6953  13.1698  8.912703
  17996.264  17996.300  0.500  -0.035900  12.6803  13.1438  8.823442
  17996.548  17996.600  0.500  -0.034971  12.6864  13.1379  8.737482
  17996.846  17996.900  0.500  -0.034133  12.6881  13.1287  8.641912
  17997.159  17997.200  0.500  -0.033156  12.6869  13.1146  8.523606
  17997.471  17997.500  0.500  -0.031958  12.6905  13.1026  8.388687
  17997.798  17997.800  0.500  -0.030744  12.6867  13.0828  8.241262
  17998.082  17998.100  0.500  -0.029732  12.6785  13.0611  8.079054
  17998.395  17998.400  0.500  -0.028051  12.6818  13.0426  7.899810
  17998.708  17998.700  0.500  -0.026676  12.6845  13.0274  7.723464
  17998.963  17999.000  0.500  -0.025269  12.6807  13.0052  7.546688
  17999.262  17999.300  0.500  -0.023634  12.676  12.9792  7.352178
  17999.575  17999.600  0.500  -0.021520  12.6737  12.9494  7.142328
  17999.873  17999.900  0.500  -0.019448  12.6676  12.9164  6.931683
  18000.214  18000.200  0.500  -0.016994  12.6734  12.8906  6.728595
  18000.498  18000.500  0.500  -0.014323  12.6776  12.8605  6.540123
  18000.797  18000.800  0.500  -0.011533  12.6807  12.8278  6.373363
  18001.110  18001.100  0.500  -0.008701  12.6745  12.7853  6.222524
  18001.380  18001.400  0.500  -0.005871  12.6716  12.7462  6.089108
  18001.650  18001.700  0.500  -0.002543  12.648  12.6802  5.968114
  18001.977  18002.000  0.500  0.001120  12.6564  12.6422  5.867633
  18002.304  18002.300  0.500  0.005087  12.6513  12.5871  5.777470
  18002.602  18002.600  0.500  0.008688  12.6471  12.5377  5.705379
  18002.915  18002.900  0.500  0.012942  12.6613  12.4985  5.642613
  18003.199  18003.200  0.500  0.017046  12.6636  12.4495  5.580888
  18003.498  18003.500  0.500  0.020823  12.6607  12.3998  5.525061
  18003.811  18003.800  0.500  0.024743  12.6456  12.3366  5.463604
  18004.095  18004.100  0.500  0.029307  12.663  12.2973  5.407272
  18004.394  18004.400  0.500  0.033702  12.6592  12.2397  5.339825
  18004.707  18004.700  0.500  0.038254  12.6361  12.1619  5.259238
  18005.019  18005.000  0.500  0.043392  12.6538  12.1165  5.183001
  18005.318  18005.300  0.500  0.048792  12.646  12.0437  5.086973
  18005.617  18005.600  0.500  0.054245  12.6455  11.9779  4.992942
  18005.915  18005.900  0.500  0.060484  12.6533  11.9107  4.894610
  18006.200  18006.200  0.500  0.067108  12.6476  11.8267  4.788560
  18006.513  18006.500  0.500  0.074134  12.64  11.7368  4.670949
  18006.797  18006.800  0.500  0.081736  12.6395  11.6475  4.554686
  18007.124  18007.100  0.500  0.090717  12.6401  11.5439  4.419008
  18007.395  18007.400  0.500  0.100506  12.6303  11.4226  4.281500
  18007.722  18007.700  0.500  0.111051  12.6234  11.2966  4.139840
  18008.049  18008.000  0.500  0.122902  12.6369  11.1754  3.999390
  18008.334  18008.300  0.500  0.134492  12.6378  11.0475  3.860355
  18008.604  18008.600  0.500  0.146928  12.6331  10.9068  3.721399
  18008.888  18008.900  0.500  0.159966  12.6379  10.7697  3.588219
  18009.173  18009.200  0.500  0.174276  12.6363  10.6153  3.445283
  18009.486  18009.500  0.500  0.190336  12.6307  10.4416  3.298210
  18009.799  18009.800  0.500  0.206794  12.6258  10.2672  3.153165
  18010.112  18010.100  0.500  0.224582  12.6308  10.0901  3.013712
  18010.425  18010.400  0.500  0.243220  12.6187  9.894341  2.870032
  18010.738  18010.700  0.500  0.260962  12.6228  9.723445  2.749658
  18011.008  18011.000  0.500  0.278480  12.6241  9.555611  2.637227
  18011.293  18011.300  0.500  0.297939  12.6224  9.370225  2.521849
  18011.606  18011.600  0.500  0.316669  12.6124  9.189055  2.419730
  18011.905  18011.900  0.500  0.338152  12.6123  8.993634  2.313264
  18012.204  18012.200  0.500  0.360127  12.6096  8.796307  2.215183
  18012.489  18012.500  0.500  0.383107  12.6054  8.593583  2.122446
  18012.830  18012.800  0.500  0.408813  12.6096  8.378297  2.034430
  18013.129  18013.100  0.500  0.434963  12.6089  8.161601  1.950547
  18013.400  18013.400  0.500  0.461060  12.6022  7.947137  1.875933
  18013.670  18013.700  0.500  0.489132  12.6194  7.737674  1.806627
  18013.983  18014.000  0.500  0.521724  12.6105  7.484272  1.731176
  18014.268  18014.300  0.500  0.554969  12.609  7.238695  1.661095
  18014.595  18014.600  0.500  0.592037  12.6035  6.972240  1.592119
  18014.908  18014.900  0.500  0.630147  12.6073  6.713578  1.528159
  18015.207  18015.200  0.500  0.667842  12.5946  6.458712  1.467998
  18015.492  18015.500  0.500  0.706261  12.6068  6.221281  1.414667
  18015.805  18015.800  0.500  0.741434  12.6025  6.004235  1.368014
  18016.047  18016.100  0.500  0.776678  12.6023  5.796217  1.325008
  18016.375  18016.400  0.500  0.808012  12.6444  5.636148  1.292829
  18016.702  18016.700  0.500  0.841883  12.6467  5.449447  1.257089
  18016.987  18017.000  0.500  0.869193  12.6487  5.303488  1.230983
  18017.286  18017.300  0.500  0.892337  12.642  5.179379  1.209286
  18017.600  18017.600  0.500  0.912300  12.6377  5.075297  1.192755
  18017.884  18017.900  0.500  0.926350  12.6321  5.002249  1.182578
  18018.169  18018.200  0.500  0.934901  12.6359  4.961152  1.178629
  18018.483  18018.500  0.500  0.939905  12.6196  4.930025  1.177305
  18018.767  18018.800  0.500  0.940796  12.6222  4.926665  1.181075
  18019.038  18019.100  0.500  0.938780  12.6372  4.942465  1.189650
  18019.394  18019.400  0.500  0.932605  12.6305  4.970442  1.200553
  18019.707  18019.700  0.500  0.923970  12.6254  5.011525  1.213193
  18019.992  18020.000  0.500  0.913280  12.6388  5.070745  1.230670
  18020.306  18020.300  0.500  0.903299  12.6247  5.115918  1.242599
  18020.605  18020.600  0.500  0.891590  12.6272  5.177192  1.258839
  18020.890  18020.900  0.500  0.881365  12.6185  5.226781  1.271949
  18021.203  18021.200  0.500  0.871146  12.6243  5.282904  1.286247
  18021.460  18021.500  0.500  0.861898  12.6263  5.332857  1.297841
  18021.802  18021.800  0.500  0.853561  12.6182  5.374032  1.308671
  18022.087  18022.100  0.500  0.847577  12.6082  5.401989  1.315405
  18022.372  18022.400  0.500  0.842579  12.6129  5.431105  1.322148
  18022.600  18022.600  0.500  0.840631  12.6135  5.441960  1.323882
  18023.554  18023.590  0.500  0.843082  12.6066  5.425648  1.317828
  18024.609  18024.590  0.500  0.864340  12.6036  5.310270  1.284046
  18025.635  18025.610  0.500  0.895070  12.6082  5.151444  1.234590
  18026.676  18026.660  0.500  0.931839  12.5978  4.961373  1.172400
  18027.716  18027.720  0.500  0.972242  12.5922  4.762783  1.105481
  18028.828  18028.800  0.500  1.015963  12.585  4.556446  1.037579
  18029.955  18029.900  0.500  1.066168  12.5793  4.331366  0.969367
  18031.053  18031.020  0.500  1.112835  12.5793  4.133875  0.915232
  18032.194  18032.160  0.500  1.149717  12.5692  3.980998  0.880060
  18033.335  18033.310  0.500  1.159033  12.5706  3.944525  0.878409
  18034.548  18034.490  0.500  1.131026  12.5672  4.055463  0.918800
  18035.704  18035.680  0.500  1.072714  12.5587  4.296083  0.994059
  18036.945  18036.900  0.500  0.992459  12.5595  4.655343  1.100811
  18038.159  18038.130  0.500  0.913948  12.5431  5.028987  1.211069
  18039.443  18039.380  0.500  0.845262  12.5377  5.384238  1.314269
  18040.671  18040.650  0.500  0.795392  12.5209  5.651983  1.388174
  18041.956  18041.940  0.500  0.759918  12.4825  5.838134  1.437765
  18043.241  18043.250  0.500  0.738164  12.477  5.963883  1.469981
  18044.641  18044.580  0.500  0.725058  12.4833  6.045598  1.491594
  18045.927  18045.930  0.500  0.718499  12.5054  6.096190  1.507736
  18047.298  18047.300  0.500  0.713884  12.5068  6.125038  1.521186
  18048.656  18048.680  0.500  0.708452  12.4951  6.152647  1.534338
  18050.113  18050.090  0.500  0.701747  12.4943  6.193651  1.550146
  18051.529  18051.510  0.500  0.695120  12.4946  6.235005  1.561463
  18052.915  18052.950  0.500  0.689061  12.4835  6.267316  1.565610
  18054.445  18054.410  0.500  0.684564  12.4828  6.295195  1.561128
  18055.861  18055.890  0.500  0.681657  12.4732  6.308674  1.548613
  18057.434  18057.390  0.500  0.680375  12.4685  6.314388  1.529494
  18058.951  18058.910  0.500  0.680925  12.4604  6.306834  1.506896
  18060.467  18060.450  0.500  0.682372  12.4624  6.298680  1.487744
  18062.070  18062.010  0.500  0.685418  12.4537  6.275185  1.473335
  18063.587  18063.580  0.500  0.689615  12.4409  6.242455  1.464972
  18065.191  18065.180  0.500  0.694869  12.4309  6.204768  1.465612
  18066.823  18066.790  0.500  0.701270  12.4282  6.163838  1.473924
  18068.484  18068.430  0.500  0.707257  12.4298  6.127836  1.485119
  18070.074  18070.080  0.500  0.713723  12.4268  6.086846  1.493557
  18071.750  18071.750  0.500  0.723250  12.4081  6.020085  1.490862
  18073.441  18073.440  0.500  0.737594  12.3881  5.924767  1.474610
  18075.132  18075.150  0.500  0.755804  12.3832  5.815553  1.451103
  18076.895  18076.880  0.500  0.776325  12.3872  5.699277  1.424843
  18078.615  18078.630  0.500  0.795669  12.3749  5.584516  1.399061
  18080.379  18080.390  0.500  0.811996  12.3742  5.493808  1.380061
  18082.201  18082.180  0.500  0.822503  12.3615  5.430798  1.365990
  18083.994  18083.980  0.500  0.825997  12.3522  5.407784  1.359735
  18085.859  18085.810  0.500  0.823939  12.3432  5.414981  1.357941
  18087.682  18087.650  0.500  0.820267  12.329  5.428624  1.353522
  18089.562  18089.510  0.500  0.816562  12.2903  5.431703  1.345336
  18091.414  18091.390  0.500  0.814800  12.2558  5.425967  1.334804
  18093.310  18093.290  0.500  0.815420  12.2898  5.437673  1.330785
  18095.234  18095.210  0.500  0.816807  12.3214  5.444082  1.328124
  18097.131  18097.150  0.500  0.817587  12.3178  5.438267  1.325466
  18099.113  18099.110  0.500  0.816122  12.3004  5.438548  1.329028
  18101.068  18101.080  0.500  0.812154  12.2884  5.454823  1.341091
  18103.081  18103.080  0.500  0.805168  12.2813  5.489917  1.362029
  18105.123  18105.090  0.500  0.795673  12.2658  5.535260  1.388357
  18107.165  18107.120  0.500  0.784592  12.2531  5.591155  1.417136
  18109.207  18109.180  0.500  0.772742  12.2298  5.647073  1.443091
  18111.265  18111.250  0.500  0.761006  12.2469  5.721716  1.471211
  18113.366  18113.340  0.500  0.748905  12.2471  5.791459  1.491564
  18115.454  18115.450  0.500  0.737668  12.2325  5.849927  1.503520
  18117.599  18117.580  0.500  0.727571  12.2035  5.895275  1.510490
  18119.716  18119.720  0.500  0.719418  12.1964  5.940064  1.515644
  18121.906  18121.890  0.500  0.713439  12.1281  5.942221  1.510196
  18124.081  18124.080  0.500  0.709284  12.1405  5.973061  1.511572
  18126.330  18126.280  0.500  0.707009  12.1829  6.007601  1.515293
  18128.535  18128.500  0.500  0.705326  12.1934  6.022879  1.514806
  18130.756  18130.750  0.500  0.705431  12.181  6.016138  1.510294
  18133.035  18133.010  0.500  0.705961  12.1663  6.005690  1.506195
  18135.329  18135.290  0.500  0.706842  12.1476  5.991171  1.500322
  18137.594  18137.590  0.500  0.708674  12.131  5.972025  1.495140
  18139.933  18139.910  0.500  0.711516  12.133  5.956105  1.493118
  18142.272  18142.250  0.500  0.715851  12.129  5.928368  1.489882
  18144.597  18144.600  0.500  0.721327  12.1195  5.891390  1.489387
  18146.966  18146.980  0.500  0.726905  12.1129  5.855401  1.491432
  18149.393  18149.370  0.500  0.730931  12.0924  5.822001  1.494568
  18151.822  18151.790  0.500  0.733453  12.0514  5.787656  1.497796
  18154.279  18154.220  0.500  0.735335  12.0757  5.788422  1.509298
  18156.694  18156.670  0.500  0.736750  12.0866  5.785453  1.517446
  18159.168  18159.150  0.500  0.738041  12.0705  5.770296  1.520085
  18161.642  18161.640  0.500  0.739052  12.0609  5.759892  1.520767
  18164.160  18164.150  0.500  0.739172  12.0479  5.752958  1.519766
  18166.679  18166.670  0.500  0.738548  12.0403  5.752919  1.518697
  18169.228  18169.220  0.500  0.737424  12.0297  5.754319  1.516594
  18171.821  18171.790  0.500  0.737498  12.0193  5.748953  1.510628
  18174.414  18174.370  0.500  0.738978  12.001  5.731722  1.497907
  18177.009  18176.980  0.500  0.740983  11.9946  5.717161  1.486717
  18179.633  18179.600  0.500  0.741579  11.9884  5.710806  1.476839
  18182.243  18182.250  0.500  0.741099  11.9607  5.700355  1.467553
  18184.869  18184.910  0.500  0.739362  11.9595  5.709700  1.464182
  18187.611  18187.590  0.500  0.736782  11.9217  5.706359  1.460048
  18190.325  18190.290  0.500  0.733332  11.9294  5.729741  1.464859
  18193.040  18193.010  0.500  0.728967  11.9213  5.750944  1.473039
  18195.785  18195.750  0.500  0.725216  11.9241  5.773894  1.485321
  18198.517  18198.500  0.500  0.721543  11.9097  5.788144  1.497977
  18201.307  18201.280  0.500  0.718719  11.9033  5.801363  1.510414
  18204.040  18204.070  0.500  0.715722  11.8918  5.813153  1.519895
  18206.904  18206.890  0.500  0.713467  11.8756  5.818365  1.528894
  18209.726  18209.720  0.500  0.711718  11.8664  5.824011  1.537666
  18212.607  18212.570  0.500  0.709250  11.8516  5.831143  1.545964
  18215.489  18215.450  0.500  0.707369  11.8436  5.838173  1.553922
  18218.372  18218.340  0.500  0.705732  11.8314  5.841712  1.560538
  18221.299  18221.250  0.500  0.703963  11.7539  5.813707  1.559312
  18224.184  18224.170  0.500  0.702645  11.7759  5.832306  1.566686
  18227.142  18227.120  0.500  0.701454  11.7845  5.843528  1.568718
  18230.116  18230.090  0.500  0.700975  11.7889  5.848513  1.564807
  18233.091  18233.070  0.500  0.700340  11.7806  5.848084  1.558808
  18236.111  18236.080  0.500  0.699224  11.7647  5.846698  1.550934
  18239.146  18239.100  0.500  0.697819  11.7512  5.848198  1.542882
  18242.197  18242.150  0.500  0.697362  11.7345  5.842560  1.532262
  18245.249  18245.210  0.500  0.698052  11.7308  5.836697  1.522242
  18248.302  18248.290  0.500  0.698926  11.7227  5.827591  1.514560
  18251.386  18251.390  0.500  0.700149  11.6934  5.805903  1.507121
  18254.543  18254.510  0.500  0.701708  11.672  5.786248  1.504716
  18257.687  18257.650  0.500  0.703257  11.6842  5.783336  1.510983
  18260.861  18260.800  0.500  0.705087  11.6659  5.763719  1.514530
  18264.051  18263.980  0.500  0.706334  11.6555  5.751410  1.519293
  18267.184  18267.170  0.500  0.707636  11.6418  5.737157  1.522393
  18270.420  18270.390  0.500  0.707670  11.6229  5.727687  1.525520
  18273.628  18273.620  0.500  0.707380  11.617  5.726416  1.530432
  18276.881  18276.870  0.500  0.706319  11.5859  5.717163  1.531086
  18280.194  18280.150  0.500  0.705253  11.5625  5.711662  1.532631
  18283.479  18283.440  0.500  0.704664  11.2517  5.561440  1.496360
  18286.765  18286.750  0.500  0.703517  11.2701  5.576936  1.504817
  18290.096  18290.070  0.500  0.702854  11.53  5.709308  1.544534
  18293.414  18293.420  0.500  0.701844  11.5343  5.717219  1.548264
  18296.821  18296.790  0.500  0.700717  11.5273  5.720166  1.549217
  18300.214  18300.170  0.500  0.699513  11.5191  5.723001  1.549097
  18303.668  18303.580  0.500  0.698511  11.4999  5.719206  1.545878
  18307.035  18307.000  0.500  0.696797  11.4809  5.719554  1.543337
  18310.476  18310.450  0.500  0.695564  11.4764  5.724340  1.542461
  18313.890  18313.910  0.500  0.693531  11.4497  5.722666  1.537950
  18317.408  18317.390  0.500  0.691734  11.441  5.728613  1.534437
  18320.927  18320.890  0.500  0.689533  11.4328  5.737078  1.533166
  18324.462  18324.410  0.500  0.687497  11.4132  5.738942  1.531198
  18327.954  18327.950  0.500  0.685684  11.4038  5.744635  1.532579
  18331.537  18331.500  0.500  0.683516  11.3963  5.753270  1.537232
  18335.091  18335.080  0.500  0.681534  11.3773  5.755105  1.542967
  18338.705  18338.680  0.500  0.680364  11.3666  5.756435  1.551039
  18342.321  18342.290  0.500  0.679511  11.344  5.749884  1.556024
  18345.983  18345.920  0.500  0.679188  11.2897  5.724191  1.553881
  18349.646  18349.580  0.500  0.678620  11.3127  5.739134  1.562319
  18353.281  18353.250  0.500  0.678267  11.3151  5.742342  1.567693
  18356.933  18356.940  0.500  0.677603  11.2959  5.736423  1.569287
  18360.719  18360.650  0.500  0.676286  11.2815  5.736641  1.572693
  18364.432  18364.380  0.500  0.674968  11.2641  5.735348  1.575688
  18368.191  18368.120  0.500  0.673897  11.2548  5.736786  1.576988
  18371.923  18371.890  0.500  0.672998  11.2385  5.733613  1.578108
  18375.715  18375.680  0.500  0.672650  11.2286  5.730576  1.575803
  18379.538  18379.480  0.500  0.672308  11.2091  5.722552  1.572864
  18383.378  18383.310  0.500  0.671827  11.1933  5.717274  1.569868
  18387.219  18387.150  0.500  0.671686  11.187  5.714864  1.566974
  18391.077  18391.010  0.500  0.672048  11.1566  5.697242  1.561268
  18394.907  18394.890  0.500  0.672246  11.1552  5.695398  1.559884
  18398.798  18398.790  0.500  0.672671  11.1466  5.688607  1.556961
  18402.735  18402.710  0.500  0.672700  11.1266  5.678234  1.555028
  18406.689  18406.650  0.500  0.672409  11.0959  5.664213  1.550950
  18410.659  18410.610  0.500  0.671739  11.0896  5.664771  1.551800
  18414.631  18414.580  0.500  0.671041  11.0772  5.662387  1.552430
  18418.589  18418.580  0.500  0.670381  11.0679  5.661407  1.554472
  18422.639  18422.590  0.500  0.669477  11.095  5.680357  1.562856
  18426.676  18426.630  0.500  0.668668  11.0843  5.679507  1.566142
  18430.729  18430.680  0.500  0.667681  11.0605  5.672877  1.568833
  18434.770  18434.750  0.500  0.666377  11.0524  5.676123  1.572916
  18438.841  18438.840  0.500  0.665738  11.0239  5.665130  1.574408
  18442.990  18442.950  0.500  0.664285  11.0174  5.670014  1.577274
  18447.140  18447.080  0.500  0.662653  10.9877  5.663939  1.576977
  18451.277  18451.230  0.500  0.661027  10.9911  5.674910  1.582323
  18455.431  18455.390  0.500  0.659389  10.9735  5.675110  1.583674
  18459.602  18459.580  0.500  0.657863  10.9587  5.676111  1.585193
  18463.775  18463.780  0.500  0.656755  10.9327  5.668964  1.583422
  18468.084  18468.010  0.500  0.655198  10.9063  5.664072  1.582062
  18472.335  18472.250  0.500  0.653941  10.9042  5.670128  1.582892
  18476.544  18476.510  0.500  0.653011  10.8808  5.663192  1.581366
  18480.784  18480.790  0.500  0.651819  10.8036  5.629730  1.571901
  18485.146  18485.090  0.500  0.650811  10.8563  5.662906  1.582552
  18489.436  18489.410  0.500  0.649863  10.8339  5.656568  1.582222
  18493.787  18493.750  0.500  0.649348  10.8284  5.656606  1.583171
  18498.140  18498.110  0.500  0.648966  10.8107  5.649494  1.582741
  18502.511  18502.490  0.500  0.648443  10.7815  5.637218  1.580281
  18506.913  18506.880  0.500  0.647902  10.7797  5.639314  1.582266
  18511.348  18511.300  0.500  0.646502  10.7559  5.634765  1.582521
  18515.785  18515.730  0.500  0.645649  10.7449  5.633811  1.584224
  18520.209  18520.180  0.500  0.644495  10.7324  5.633757  1.585258
  18524.635  18524.650  0.500  0.643923  10.7159  5.628300  1.586915
  18529.184  18529.140  0.500  0.643049  10.6944  5.621884  1.588583
  18533.690  18533.650  0.500  0.642319  10.681  5.618974  1.591459
  18538.183  18538.180  0.500  0.641664  10.6671  5.615327  1.593249
  18542.739  18542.730  0.500  0.640755  10.6358  5.603947  1.591207
  18547.342  18547.300  0.500  0.640134  10.6391  5.609144  1.595238
  18551.932  18551.880  0.500  0.639724  10.6195  5.601124  1.594673
  18556.525  18556.490  0.500  0.638799  10.601  5.596521  1.594511
  18561.134  18561.110  0.500  0.638195  10.5822  5.589982  1.592726
  18565.777  18565.760  0.500  0.637353  10.5668  5.586566  1.592005
  18570.498  18570.420  0.500  0.636643  10.553  5.583245  1.591368
  18575.160  18575.100  0.500  0.635577  10.5174  5.570329  1.588856
  18579.840  18579.800  0.500  0.634513  10.5032  5.568725  1.589699
  18584.552  18584.520  0.500  0.633473  10.4965  5.570978  1.591474
  18589.313  18589.260  0.500  0.631764  10.4794  5.571399  1.593076
  18594.076  18594.010  0.500  0.630970  10.4595  5.565235  1.592274
  18598.826  18598.790  0.500  0.630066  10.4369  5.558230  1.592569
  18603.609  18603.590  0.500  0.628900  10.4307  5.561415  1.594978
  18608.440  18608.400  0.500  0.627972  10.4084  5.554654  1.594612
  18613.304  18613.230  0.500  0.626656  10.3912  5.552793  1.596466
  18618.125  18618.090  0.500  0.625087  10.3803  5.555703  1.598993
  18622.948  18622.960  0.500  0.624093  10.3536  5.546906  1.598365
  18627.865  18627.850  0.500  0.622405  10.3192  5.537847  1.597909
  18632.862  18632.760  0.500  0.621355  10.3213  5.544771  1.601836
  18637.738  18637.690  0.500  0.620136  10.2853  5.532151  1.600941
  18642.664  18642.630  0.500  0.618788  10.2973  5.546082  1.606736
  18647.622  18647.600  0.500  0.617736  10.2782  5.541624  1.607201
  18652.659  18652.590  0.500  0.616728  10.2548  5.534595  1.607705
  18657.669  18657.590  0.500  0.615612  10.2388  5.532153  1.607781
  18662.650  18662.620  0.500  0.614416  10.2154  5.526087  1.607663
  18667.665  18667.660  0.500  0.613311  10.1998  5.523756  1.609951
  18672.790  18672.720  0.500  0.612800  10.1796  5.515652  1.607495
  18677.856  18677.800  0.500  0.612136  10.1645  5.511093  1.607467
  18682.986  18682.900  0.500  0.611083  10.1489  5.508470  1.607710
  18688.074  18688.020  0.500  0.610451  10.1199  5.496159  1.605781
  18693.210  18693.160  0.500  0.609297  10.1098  5.497050  1.607353
  18698.395  18698.320  0.500  0.608424  10.095  5.493755  1.608428
  18703.598  18703.500  0.500  0.607559  10.0689  5.484300  1.608125
  18708.727  18708.690  0.500  0.606855  10.0497  5.477740  1.607642
  18713.951  18713.910  0.500  0.605392  10.0183  5.468620  1.606495
  18719.224  18719.140  0.500  0.604640  10.013  5.469815  1.608747
  18724.455  18724.390  0.500  0.603235  10.0017  5.471347  1.610264
  18729.765  18729.660  0.500  0.602325  9.984243  5.466746  1.610989
  18734.954  18734.950  0.500  0.601261  9.962415  5.460600  1.610530
  18740.317  18740.260  0.500  0.599878  9.940341  5.456038  1.611553
  18745.713  18745.590  0.500  0.599212  9.924838  5.451163  1.613017
  18750.974  18750.940  0.500  0.598349  9.909589  5.447485  1.613740
  18756.360  18756.310  0.500  0.597330  9.883953  5.438930  1.613206
  18761.735  18761.690  0.500  0.596223  9.856885  5.430043  1.612372
  18767.175  18767.100  0.500  0.595387  9.851408  5.431565  1.614826
  18772.586  18772.520  0.500  0.593848  9.830054  5.428141  1.615694
  18777.970  18777.970  0.500  0.592890  9.814060  5.424500  1.615820
  18783.466  18783.430  0.500  0.591784  9.792538  5.418594  1.615232
  18788.996  18788.910  0.500  0.590296  9.776938  5.418018  1.616913
  18794.482  18794.410  0.500  0.589405  9.754719  5.410528  1.616245
  18799.956  18799.930  0.500  0.588042  9.740756  5.410151  1.618915
  18805.527  18805.470  0.500  0.586746  9.710663  5.400428  1.617029
  18811.147  18811.020  0.500  0.585625  9.691995  5.396094  1.616713
  18816.631  18816.600  0.500  0.584674  9.673274  5.390795  1.616678
  18822.227  18822.200  0.500  0.583271  9.659361  5.390599  1.618196
  18827.873  18827.810  0.500  0.582245  9.640885  5.385813  1.619000
  18833.554  18833.450  0.500  0.580995  9.621005  5.381427  1.619228
  18839.191  18839.100  0.500  0.580020  9.594397  5.371777  1.618074
  18844.770  18844.770  0.500  0.578659  9.585127  5.373899  1.621825
  18850.523  18850.460  0.500  0.577570  9.574605  5.373850  1.623155