File: xdidata/Zr/Zr-K-BaZrO3.xdi
# XDI/1.0 BlueSky/1.5.3
# Beamline.name: 6BM
# Beamline.xray_source: NSLS-II three-pole wiggler
# Beamline.collimation: paraboloid mirror, 5 nm Rh on 30 nm Pt
# Beamline.focusing: not in use
# Beamline.harmonic_rejection: flat mirror, Pt stripe, pitch = 7.0 mrad relative to beam
# Detector.i0: 10 cm N2
# Detector.I1: 25 cm N2
# Detector.I2: 25 cm N2
# Element.symbol: Zr
# Element.edge: K
# Facility.name: NSLS-II
# Facility.energy: 3.0
# Facility.current: 400.7
# Facility.mode: top-off
# Facility.GUP: 305832
# Facility.SAF: 305669
# Facility.cycle: 2020-1
# Mono.name: Si(111)
# Mono.d_spacing: 3.13532
# Mono.encoder_resolution: 0.0000050 deg/ct
# Mono.angle_offset: 16.0581 deg
# Mono.scan_mode: fixed exit
# Mono.scan_type: step
# Mono.direction: forward in energy
# Sample.name: BaZrO3
# Sample.prep: Powder in polyethylene glycol pellet
# Sample.x_position: -5.367 mm
# Sample.y_position: 103.555 mm
# Scan.experimenters: Neil Hyatt, Martin Stennett, Dan Austin, Seb Lawson
# Scan.edge_energy: 17997.6
# Scan.start_time: 2020-03-05T03:42:05
# Scan.end_time: 2020-03-05T03:53:17
# Scan.transient_id: 22977
# Scan.uid: 6d06f44f-7129-4aa3-aa5b-17fbd3e0c216
# Scan.plot_hint: ln(i0/itrans)  --  ln($5/$6)
# Column.1: energy eV
# Column.2: requested_energy eV
# Column.3: measurement_time seconds
# Column.4: mutrans
# Column.5: i0
# Column.6: itrans
# Column.7: irefer
# ///////////
#
# -----------
#  energy  requested_energy  measurement_time  mutrans  i0  itrans  irefer
17797.585  17797.600  1.000  0.323957  9.138883  6.609981  5.182660
17807.649  17807.600  1.000  0.322108  9.111256  6.602200  5.178181
17817.684  17817.600  1.000  0.320973  9.086237  6.591547  5.172028
17827.688  17827.600  1.000  0.319647  9.062864  6.583312  5.166031
17837.703  17837.600  1.000  0.318130  9.040291  6.576889  5.161164
17847.744  17847.600  1.000  0.316941  9.011487  6.563732  5.150325
17857.768  17857.600  1.000  0.315428  8.982063  6.552205  5.145043
17867.719  17867.600  1.000  0.314252  8.962394  6.545548  5.139645
17877.766  17877.600  1.000  0.313289  8.940841  6.536100  5.133136
17887.641  17887.600  1.000  0.312271  8.861396  6.484622  5.096563
17897.711  17897.600  1.000  0.311348  8.890718  6.512083  5.114994
17907.679  17907.600  1.000  0.310468  8.855466  6.491976  5.097842
17917.728  17917.600  1.000  0.309759  8.829187  6.477303  5.086213
17927.705  17927.600  1.000  0.309354  8.804165  6.461560  5.069141
17937.622  17937.600  1.000  0.309504  8.779144  6.442228  5.049979
17947.691  17947.600  1.000  0.310006  8.751147  6.418466  5.021225
17957.659  17957.600  1.000  0.311651  8.731531  6.393548  4.992566
17967.638  17967.600  1.000  0.315181  8.687438  6.338849  4.928318
17969.507  17969.600  1.000  0.315829  8.651093  6.308239  4.897022
17971.505  17971.600  1.000  0.317306  8.674412  6.315911  4.896293
17973.503  17973.600  1.000  0.318686  8.688562  6.317490  4.891592
17975.544  17975.600  1.000  0.320169  8.683318  6.304319  4.867062
17977.514  17977.600  1.000  0.322257  8.680065  6.288811  4.847750
17979.528  17979.600  1.000  0.324823  8.671364  6.266405  4.815825
17981.541  17981.600  1.000  0.327018  8.662386  6.246194  4.779605
17983.528  17983.600  1.000  0.330250  8.653107  6.219371  4.737224
17985.542  17985.600  1.000  0.334461  8.654115  6.193954  4.690131
17987.543  17987.600  1.000  0.339174  8.648046  6.160506  4.621925
17987.756  17987.850  1.000  0.339867  8.647590  6.155917  4.610476
17987.998  17988.100  1.000  0.340561  8.650944  6.154032  4.604061
17988.239  17988.350  1.000  0.341181  8.647004  6.147418  4.593679
17988.494  17988.600  1.000  0.342488  8.652046  6.142967  4.584475
17988.750  17988.850  1.000  0.343156  8.645679  6.134347  4.568193
17989.020  17989.100  1.000  0.344210  8.648697  6.130023  4.552343
17989.275  17989.350  1.000  0.344908  8.645969  6.123814  4.539753
17989.545  17989.600  1.000  0.345654  8.638530  6.113981  4.517075
17989.815  17989.850  1.000  0.346994  8.638283  6.105620  4.505144
17990.056  17990.100  1.000  0.347816  8.633016  6.096885  4.497903
17990.297  17990.350  1.000  0.349050  8.637754  6.092708  4.483448
17990.553  17990.600  1.000  0.350194  8.638237  6.086084  4.457292
17990.794  17990.850  1.000  0.351029  8.633450  6.077630  4.440383
17991.050  17991.100  1.000  0.352581  8.636714  6.070499  4.416174
17991.306  17991.350  1.000  0.353505  8.633451  6.062606  4.393685
17991.561  17991.600  1.000  0.355357  8.635237  6.052637  4.371772
17991.803  17991.850  1.000  0.356384  8.629832  6.042642  4.344794
17992.072  17992.100  1.000  0.357934  8.629053  6.032740  4.316050
17992.314  17992.350  1.000  0.359473  8.628966  6.023400  4.288901
17992.541  17992.600  1.000  0.361033  8.627176  6.012765  4.257836
17992.811  17992.850  1.000  0.362651  8.628597  6.004028  4.234367
17993.052  17993.100  1.000  0.364293  8.626768  5.992907  4.194813
17993.308  17993.350  1.000  0.366497  8.631662  5.983108  4.152108
17993.564  17993.600  1.000  0.368395  8.629198  5.970055  4.109290
17993.819  17993.850  1.000  0.370282  8.625023  5.955921  4.059462
17994.089  17994.100  1.000  0.372343  8.620537  5.940568  3.999881
17994.359  17994.350  1.000  0.375150  8.621530  5.924596  3.946004
17994.615  17994.600  1.000  0.377182  8.621070  5.912255  3.881382
17994.856  17994.850  1.000  0.379945  8.618648  5.894282  3.812373
17995.112  17995.100  1.000  0.383213  8.616532  5.873613  3.750504
17995.339  17995.350  1.000  0.386146  8.613340  5.854239  3.672023
17995.595  17995.600  1.000  0.389683  8.612490  5.832993  3.601319
17995.836  17995.850  1.000  0.392889  8.612815  5.814540  3.519261
17996.092  17996.100  1.000  0.396725  8.610295  5.790588  3.439059
17996.362  17996.350  1.000  0.401432  8.611866  5.764444  3.353407
17996.604  17996.600  1.000  0.405538  8.609839  5.739472  3.267957
17996.859  17996.850  1.000  0.410952  8.617515  5.713575  3.188463
17997.101  17997.100  1.000  0.416104  8.609777  5.679108  3.104327
17997.328  17997.350  1.000  0.421464  8.609957  5.648872  3.034339
17997.584  17997.600  1.000  0.428003  8.610762  5.612574  2.954233
17997.840  17997.850  1.000  0.434883  8.609296  5.573147  2.884264
17998.081  17998.100  1.000  0.443534  8.603672  5.521532  2.805178
17998.351  17998.350  1.000  0.452586  8.602511  5.471036  2.731063
17998.593  17998.600  1.000  0.461167  8.608342  5.427965  2.677767
17998.863  17998.850  1.000  0.471710  8.598033  5.364609  2.609513
17999.119  17999.100  1.000  0.482990  8.599645  5.305431  2.557745
17999.375  17999.350  1.000  0.494834  8.600610  5.243551  2.502619
17999.616  17999.600  1.000  0.506590  8.598481  5.180985  2.453021
17999.858  17999.850  1.000  0.518682  8.596762  5.117691  2.406904
18000.114  18000.100  1.000  0.531001  8.620757  5.069142  2.370769
18000.355  18000.350  1.000  0.544039  8.628259  5.007838  2.334045
18000.583  18000.600  1.000  0.557753  8.628407  4.939711  2.292391
18000.839  18000.850  1.000  0.570924  8.628478  4.875118  2.245889
18001.095  18001.100  1.000  0.585306  8.628352  4.805433  2.201583
18001.350  18001.350  1.000  0.599235  8.630344  4.740056  2.148340
18001.635  18001.600  1.000  0.613289  8.628328  4.672817  2.104670
18001.862  18001.850  1.000  0.626176  8.625984  4.611730  2.059713
18002.118  18002.100  1.000  0.638678  8.628308  4.555661  2.019552
18002.346  18002.350  1.000  0.649727  8.626185  4.504494  1.975637
18002.587  18002.600  1.000  0.660843  8.623799  4.453465  1.930781
18002.829  18002.850  1.000  0.671932  8.623794  4.404350  1.883956
18003.099  18003.100  1.000  0.683696  8.625735  4.353823  1.836307
18003.341  18003.350  1.000  0.693602  8.621462  4.308770  1.792705
18003.611  18003.600  1.000  0.704825  8.622888  4.261389  1.742309
18003.867  18003.850  1.000  0.714137  8.621571  4.221247  1.697115
18004.123  18004.100  1.000  0.724520  8.619694  4.176734  1.643996
18004.365  18004.350  1.000  0.734689  8.618769  4.134033  1.605758
18004.606  18004.600  1.000  0.745050  8.614755  4.089517  1.554235
18004.862  18004.850  1.000  0.755085  8.616246  4.049382  1.510569
18005.104  18005.100  1.000  0.765609  8.613850  4.005875  1.466124
18005.317  18005.350  1.000  0.776794  8.611489  3.960233  1.418765
18005.602  18005.600  1.000  0.789817  8.611913  3.909186  1.372901
18005.858  18005.850  1.000  0.803812  8.612548  3.855143  1.323982
18006.114  18006.100  1.000  0.819074  8.610957  3.796053  1.273585
18006.370  18006.350  1.000  0.834451  8.607895  3.736796  1.225571
18006.612  18006.600  1.000  0.850578  8.606163  3.676277  1.177809
18006.854  18006.850  1.000  0.867788  8.603261  3.612330  1.133294
18007.081  18007.100  1.000  0.884286  8.600628  3.552136  1.092016
18007.337  18007.350  1.000  0.903674  8.599877  3.483627  1.048686
18007.593  18007.600  1.000  0.924592  8.603756  3.413051  1.007108
18007.835  18007.850  1.000  0.945450  8.600367  3.341281  0.965263
18008.091  18008.100  1.000  0.968185  8.598751  3.265562  0.924598
18008.347  18008.350  1.000  0.993123  8.597392  3.184630  0.882004
18008.603  18008.600  1.000  1.018432  8.599866  3.105935  0.847001
18008.859  18008.850  1.000  1.045172  8.594943  3.022252  0.808412
18009.116  18009.100  1.000  1.072485  8.592661  2.940041  0.774174
18009.343  18009.350  1.000  1.100575  8.593275  2.858808  0.741647
18009.599  18009.600  1.000  1.130369  8.594975  2.775437  0.712944
18009.855  18009.850  1.000  1.160598  8.594034  2.692501  0.680841
18010.083  18010.100  1.000  1.192229  8.594756  2.608885  0.653540
18010.339  18010.350  1.000  1.225312  8.595691  2.524263  0.625284
18010.595  18010.600  1.000  1.260877  8.595147  2.435912  0.595647
18010.852  18010.850  1.000  1.298935  8.591810  2.344038  0.571289
18011.093  18011.100  1.000  1.338487  8.594066  2.253726  0.547093
18011.350  18011.350  1.000  1.378826  8.589143  2.163382  0.520346
18011.592  18011.600  1.000  1.417754  8.588043  2.080519  0.498028
18011.848  18011.850  1.000  1.460958  8.589729  1.992937  0.476458
18012.090  18012.100  1.000  1.501074  8.588517  1.914299  0.458577
18012.317  18012.350  1.000  1.543452  8.590227  1.835237  0.440161
18012.574  18012.600  1.000  1.587196  8.585283  1.755674  0.421037
18012.830  18012.850  1.000  1.634228  8.587534  1.675453  0.401788
18013.086  18013.100  1.000  1.680668  8.582916  1.598563  0.385029
18013.342  18013.350  1.000  1.726963  8.580608  1.525835  0.369478
18013.599  18013.600  1.000  1.772207  8.584012  1.458917  0.355828
18013.855  18013.850  1.000  1.818083  8.581076  1.393023  0.340608
18014.097  18014.100  1.000  1.858622  8.578381  1.337261  0.328226
18014.325  18014.350  1.000  1.896355  8.580905  1.288121  0.317758
18014.581  18014.600  1.000  1.934748  8.580246  1.239508  0.307607
18014.837  18014.850  1.000  1.970476  8.574202  1.195162  0.297616
18015.079  18015.100  1.000  2.000299  8.575452  1.160215  0.289745
18015.321  18015.350  1.000  2.031110  8.570810  1.124404  0.284442
18015.592  18015.600  1.000  2.058579  8.572134  1.094106  0.277114
18015.862  18015.850  1.000  2.081570  8.572137  1.069239  0.272701
18016.104  18016.100  1.000  2.101383  8.569440  1.047933  0.268646
18016.361  18016.350  1.000  2.118302  8.568364  1.030223  0.264695
18016.588  18016.600  1.000  2.131277  8.568348  1.016940  0.261261
18016.816  18016.850  1.000  2.141745  8.565581  1.006025  0.259502
18017.087  18017.100  1.000  2.151229  8.562679  0.996191  0.256365
18017.329  18017.350  1.000  2.158399  8.560696  0.988845  0.255159
18017.571  18017.600  1.000  2.163952  8.562347  0.983559  0.254280
18017.827  18017.850  1.000  2.167603  8.559283  0.979624  0.252259
18018.084  18018.100  1.000  2.171547  8.561521  0.976023  0.251481
18018.340  18018.350  1.000  2.173947  8.561404  0.973670  0.250289
18018.596  18018.600  1.000  2.175915  8.560594  0.971664  0.252516
18018.839  18018.850  1.000  2.176746  8.556843  0.970431  0.252328
18019.095  18019.100  1.000  2.178989  8.559048  0.968507  0.249480
18019.337  18019.350  1.000  2.180302  8.556815  0.966983  0.250667
18019.579  18019.600  1.000  2.181671  8.553438  0.965279  0.249996
18019.836  18019.850  1.000  2.182310  8.554883  0.964826  0.250295
18020.064  18020.100  1.000  2.182649  8.554543  0.964461  0.250295
18020.349  18020.350  1.000  2.183566  8.554088  0.963525  0.249658
18020.619  18020.600  1.000  2.183710  8.554110  0.963389  0.248557
18020.861  18020.850  1.000  2.183305  8.552096  0.963552  0.248229
18021.104  18021.100  1.000  2.182777  8.550336  0.963863  0.248644
18021.360  18021.350  1.000  2.181419  8.547609  0.964865  0.248353
18021.602  18021.600  1.000  2.180377  8.542571  0.965301  0.247398
18021.844  18021.850  1.000  2.177824  8.542921  0.967809  0.245952
18022.087  18022.100  1.000  2.175516  8.541103  0.969838  0.249192
18022.343  18022.350  1.000  2.171817  8.536395  0.972895  0.247631
18022.585  18022.600  1.000  2.168506  8.536912  0.976181  0.248887
18022.842  18022.850  1.000  2.165312  8.575378  0.983717  0.249113
18023.113  18023.100  1.000  2.160148  8.571817  0.988399  0.248591
18023.369  18023.350  1.000  2.154339  8.571848  0.994162  0.249761
18023.626  18023.600  1.000  2.150654  8.568368  0.997427  0.249665
18023.868  18023.850  1.000  2.145108  8.572119  1.003413  0.249613
18024.110  18024.100  1.000  2.139455  8.565855  1.008364  0.250970
18024.367  18024.350  1.000  2.134544  8.566584  1.013414  0.249991
18024.609  18024.600  1.000  2.127970  8.561786  1.019527  0.251735
18024.851  18024.850  1.000  2.123087  8.563932  1.024774  0.250829
18025.079  18025.100  1.000  2.116536  8.564221  1.031544  0.250182
18025.364  18025.350  1.000  2.110624  8.560891  1.037258  0.251256
18025.621  18025.600  1.000  2.103894  8.556546  1.043731  0.254008
18025.849  18025.850  1.000  2.098082  8.557494  1.049932  0.252601
18026.106  18026.100  1.000  2.091705  8.556909  1.056576  0.254018
18026.362  18026.350  1.000  2.085680  8.555897  1.062836  0.253345
18026.590  18026.600  1.000  2.078827  8.554572  1.069979  0.255805
18026.847  18026.850  1.000  2.072983  8.558321  1.076722  0.255699
18027.089  18027.100  1.000  2.065980  8.555863  1.083977  0.257413
18027.360  18027.350  1.000  2.057057  8.555014  1.093584  0.259075
18027.588  18027.600  1.000  2.050500  8.552421  1.100444  0.259589
18028.729  18028.680  1.000  2.014378  8.552000  1.140866  0.268667
18029.799  18029.780  1.000  1.977860  8.546114  1.182483  0.278211
18030.939  18030.890  1.000  1.936621  8.542965  1.231813  0.292471
18032.052  18032.030  1.000  1.896923  8.537670  1.280903  0.311988
18033.236  18033.180  1.000  1.860872  8.528685  1.326525  0.327494
18034.392  18034.360  1.000  1.832139  8.510394  1.362266  0.344169
18035.590  18035.550  1.000  1.809699  8.485046  1.389031  0.355255
18036.761  18036.760  1.000  1.790794  8.484493  1.415448  0.366054
18038.031  18037.990  1.000  1.773402  8.498556  1.442668  0.372659
18039.244  18039.240  1.000  1.757321  8.512495  1.468460  0.382199
18040.529  18040.510  1.000  1.739268  8.512861  1.495275  0.387294
18041.771  18041.800  1.000  1.722639  8.513753  1.520507  0.393936
18043.128  18043.110  1.000  1.703320  8.507619  1.549050  0.405404
18044.414  18044.430  1.000  1.683903  8.505500  1.579029  0.412914
18045.785  18045.780  1.000  1.661298  8.504755  1.614988  0.423106
18047.114  18047.140  1.000  1.640629  8.496923  1.647197  0.433166
18048.543  18048.530  1.000  1.621414  8.491102  1.678004  0.441991
18049.929  18049.930  1.000  1.608845  8.490011  1.699009  0.445134
18051.344  18051.350  1.000  1.602518  8.485237  1.708832  0.444114
18052.831  18052.790  1.000  1.599748  8.482334  1.712986  0.441724
18054.261  18054.250  1.000  1.600563  8.479089  1.710936  0.435051
18055.762  18055.730  1.000  1.604634  8.473070  1.702774  0.427706
18057.264  18057.230  1.000  1.614526  8.466418  1.684689  0.418696
18058.766  18058.740  1.000  1.629589  8.464524  1.659133  0.410126
18060.326  18060.280  1.000  1.651761  8.464231  1.622694  0.399379
18061.857  18061.840  1.000  1.676288  8.460326  1.582649  0.393608
18063.417  18063.410  1.000  1.701737  8.454681  1.541850  0.385694
18065.035  18065.000  1.000  1.726728  8.453099  1.503514  0.382973
18066.624  18066.610  1.000  1.745630  8.444727  1.473900  0.380409
18068.257  18068.250  1.000  1.761597  8.438204  1.449434  0.376084
18069.904  18069.900  1.000  1.772968  8.434150  1.432357  0.373444
18071.537  18071.570  1.000  1.784268  8.432215  1.415938  0.372614
18073.257  18073.250  1.000  1.794892  8.427366  1.400168  0.368660
18074.962  18074.960  1.000  1.805501  8.422178  1.384540  0.365596
18076.682  18076.690  1.000  1.814239  8.416492  1.371567  0.363305
18078.432  18078.430  1.000  1.819510  8.413842  1.363928  0.360464
18080.210  18080.200  1.000  1.819417  8.401999  1.362134  0.361179
18082.003  18081.980  1.000  1.817314  8.391147  1.363238  0.361108
18083.810  18083.780  1.000  1.811333  8.361830  1.366625  0.361397
18085.632  18085.600  1.000  1.802533  8.343167  1.375627  0.360144
18087.484  18087.440  1.000  1.791828  8.368824  1.394709  0.362654
18089.321  18089.300  1.000  1.780025  8.381164  1.413349  0.364294
18091.173  18091.180  1.000  1.767850  8.379777  1.430424  0.368580
18093.083  18093.080  1.000  1.756830  8.374353  1.445339  0.370418
18094.965  18095.000  1.000  1.746700  8.368407  1.459017  0.374165
18096.904  18096.930  1.000  1.737923  8.363896  1.471086  0.379307
18098.887  18098.890  1.000  1.730652  8.354859  1.480221  0.383890
18100.871  18100.860  1.000  1.722622  8.348851  1.491082  0.391438
18102.883  18102.860  1.000  1.715113  8.338368  1.500434  0.397971
18104.896  18104.870  1.000  1.708698  8.319821  1.506731  0.403721
18106.924  18106.900  1.000  1.701850  8.328410  1.518651  0.409995
18108.967  18108.950  1.000  1.697437  8.334119  1.526414  0.413248
18111.024  18111.020  1.000  1.692219  8.325036  1.532727  0.413983
18113.126  18113.110  1.000  1.689314  8.318171  1.535919  0.415006
18115.213  18115.210  1.000  1.685660  8.310125  1.540049  0.415612
18117.359  18117.340  1.000  1.683575  8.297775  1.540970  0.413000
18119.504  18119.490  1.000  1.680538  8.257684  1.538189  0.410982
18121.680  18121.650  1.000  1.675370  8.238287  1.542527  0.410393
18123.884  18123.830  1.000  1.669432  8.280522  1.559669  0.412371
18126.061  18126.040  1.000  1.662881  8.289462  1.571615  0.415157
18128.295  18128.260  1.000  1.658068  8.278796  1.577166  0.416876
18130.516  18130.500  1.000  1.656103  8.266658  1.577951  0.417078
18132.766  18132.760  1.000  1.657371  8.247862  1.572368  0.414604
18135.017  18135.040  1.000  1.661043  8.256569  1.568260  0.412431
18137.311  18137.340  1.000  1.666533  8.260760  1.560464  0.411527
18139.621  18139.650  1.000  1.673239  8.252344  1.548457  0.408477
18142.003  18141.990  1.000  1.679488  8.243243  1.537113  0.407985
18144.371  18144.340  1.000  1.686283  8.240552  1.526205  0.409904
18146.769  18146.720  1.000  1.692066  8.226831  1.514878  0.410128
18149.139  18149.110  1.000  1.696162  8.208733  1.505366  0.409272
18151.553  18151.520  1.000  1.700072  8.246286  1.506353  0.413303
18153.953  18153.950  1.000  1.700375  8.244305  1.505534  0.415024
18156.426  18156.400  1.000  1.699275  8.238028  1.506044  0.416673
18158.885  18158.870  1.000  1.697283  8.231937  1.507931  0.418714
18161.344  18161.360  1.000  1.693910  8.226983  1.512115  0.420054
18163.848  18163.870  1.000  1.691517  8.220728  1.514585  0.420624
18166.396  18166.390  1.000  1.688003  8.211516  1.518214  0.420470
18168.974  18168.940  1.000  1.683936  8.204837  1.523160  0.420413
18171.538  18171.500  1.000  1.680217  8.199413  1.527825  0.419419
18174.131  18174.090  1.000  1.674870  8.194096  1.535021  0.419353
18176.697  18176.690  1.000  1.669944  8.184087  1.540717  0.420319
18179.321  18179.310  1.000  1.666602  8.179971  1.545097  0.418620
18181.946  18181.950  1.000  1.664093  8.164005  1.545955  0.417063
18184.586  18184.610  1.000  1.661363  8.163259  1.550039  0.417811
18187.314  18187.290  1.000  1.657495  8.161358  1.555685  0.418533
18190.014  18189.990  1.000  1.653708  8.153978  1.560175  0.423686
18192.743  18192.710  1.000  1.650616  8.148500  1.563956  0.423349
18195.488  18195.440  1.000  1.648762  8.140127  1.565247  0.425932
18198.249  18198.200  1.000  1.648364  8.129378  1.563803  0.426785
18200.952  18200.970  1.000  1.648696  8.121751  1.561817  0.429504
18203.786  18203.770  1.000  1.649580  8.114771  1.559095  0.430082
18206.593  18206.580  1.000  1.650762  8.111244  1.556577  0.433343
18209.415  18209.410  1.000  1.649188  8.102085  1.557269  0.433504
18212.310  18212.260  1.000  1.647106  8.098317  1.559788  0.436604
18215.163  18215.130  1.000  1.643769  8.089220  1.563244  0.439096
18218.060  18218.020  1.000  1.641409  8.078903  1.564940  0.440200
18220.930  18220.920  1.000  1.640997  8.064999  1.562890  0.440743
18223.873  18223.850  1.000  1.642087  8.012086  1.550945  0.436317
18226.802  18226.800  1.000  1.641437  8.044084  1.558152  0.436511
18229.703  18229.760  1.000  1.641826  8.050537  1.558795  0.436067
18232.766  18232.740  1.000  1.639884  8.040871  1.559949  0.434864
18235.785  18235.750  1.000  1.637376  8.039357  1.563572  0.431856
18238.821  18238.770  1.000  1.635605  8.031715  1.564856  0.432071
18241.857  18241.810  1.000  1.633991  8.020921  1.565277  0.428310
18244.909  18244.870  1.000  1.633267  8.011202  1.564512  0.426511
18247.947  18247.950  1.000  1.633063  8.003830  1.563392  0.425703
18251.075  18251.050  1.000  1.632903  7.987627  1.560475  0.424716
18254.159  18254.160  1.000  1.634551  7.985724  1.557535  0.426301
18257.332  18257.300  1.000  1.633572  7.978234  1.557599  0.428681
18260.492  18260.450  1.000  1.633523  7.970345  1.556134  0.432399
18263.696  18263.630  1.000  1.633822  7.963648  1.554363  0.433826
18266.844  18266.820  1.000  1.632316  7.953334  1.554688  0.434222
18270.050  18270.030  1.000  1.633788  7.944148  1.550609  0.435147
18273.244  18273.260  1.000  1.634537  7.934348  1.547536  0.435607
18276.526  18276.520  1.000  1.635449  7.912981  1.541962  0.434726
18279.810  18279.780  1.000  1.634958  7.712429  1.503620  0.424660
18283.095  18283.070  1.000  1.633697  7.665529  1.496361  0.423536
18286.439  18286.380  1.000  1.630995  7.879032  1.542200  0.436330
18289.726  18289.710  1.000  1.628045  7.891930  1.549288  0.439423
18293.074  18293.050  1.000  1.624793  7.888659  1.553690  0.441670
18296.422  18296.420  1.000  1.620946  7.881775  1.558318  0.442636
18299.771  18299.800  1.000  1.618264  7.875461  1.561252  0.444082
18303.240  18303.200  1.000  1.615224  7.867871  1.564496  0.443471
18306.651  18306.630  1.000  1.613248  7.852565  1.564541  0.444353
18310.122  18310.070  1.000  1.611324  7.842842  1.565613  0.441346
18313.609  18313.530  1.000  1.609442  7.840317  1.568057  0.440795
18316.994  18317.000  1.000  1.608658  7.835589  1.568340  0.440455
18320.499  18320.500  1.000  1.606417  7.826564  1.570048  0.440590
18324.063  18324.020  1.000  1.604018  7.818193  1.572136  0.440373
18327.600  18327.560  1.000  1.601376  7.808212  1.574284  0.440194
18331.153  18331.110  1.000  1.599549  7.801104  1.575726  0.442664
18334.766  18334.690  1.000  1.599033  7.777952  1.571860  0.444510
18338.307  18338.280  1.000  1.597736  7.736462  1.565506  0.443313
18341.908  18341.890  1.000  1.598126  7.775591  1.572810  0.448095
18345.525  18345.520  1.000  1.598416  7.766099  1.570434  0.448514
18349.218  18349.170  1.000  1.598144  7.756987  1.569019  0.450622
18352.897  18352.840  1.000  1.597286  7.750564  1.569065  0.449406
18356.578  18356.530  1.000  1.597629  7.743348  1.567066  0.449940
18360.275  18360.240  1.000  1.594497  7.726634  1.568589  0.452744
18363.989  18363.960  1.000  1.592530  7.720770  1.570485  0.452793
18367.719  18367.710  1.000  1.590283  7.715705  1.572984  0.452279
18371.480  18371.470  1.000  1.587769  7.706348  1.575032  0.455016
18375.272  18375.260  1.000  1.585557  7.698325  1.576876  0.452203
18379.110  18379.060  1.000  1.585420  7.684701  1.574302  0.452891
18382.920  18382.880  1.000  1.584857  7.676724  1.573553  0.452365
18386.761  18386.720  1.000  1.585525  7.672561  1.571649  0.450964
18390.590  18390.580  1.000  1.584559  7.666171  1.571858  0.449831
18394.494  18394.460  1.000  1.583137  7.656307  1.572069  0.450921
18398.399  18398.360  1.000  1.581291  7.646572  1.572972  0.452049
18402.336  18402.280  1.000  1.578628  7.631230  1.574001  0.451334
18406.260  18406.210  1.000  1.578207  7.622841  1.572933  0.451064
18410.201  18410.170  1.000  1.577116  7.616197  1.573278  0.453315
18414.158  18414.140  1.000  1.575474  7.605401  1.573629  0.454646
18418.191  18418.140  1.000  1.574702  7.598797  1.573477  0.455066
18422.211  18422.150  1.000  1.573874  7.591136  1.573193  0.455038
18426.233  18426.180  1.000  1.573484  7.583181  1.572157  0.456256
18430.256  18430.230  1.000  1.572473  7.570424  1.571101  0.455723
18434.296  18434.300  1.000  1.570776  7.555622  1.570691  0.458551
18438.368  18438.390  1.000  1.568957  7.542971  1.570916  0.457790
18442.517  18442.500  1.000  1.567832  7.537375  1.571518  0.458281
18446.667  18446.620  1.000  1.565890  7.545175  1.576202  0.460425
18450.789  18450.770  1.000  1.564865  7.556194  1.580123  0.463012
18454.928  18454.930  1.000  1.562711  7.544872  1.581157  0.461073
18459.084  18459.120  1.000  1.560330  7.534446  1.582736  0.463998
18463.346  18463.320  1.000  1.557529  7.523935  1.584962  0.464993
18467.595  18467.540  1.000  1.556221  7.516176  1.585400  0.462511
18471.832  18471.780  1.000  1.554525  7.504967  1.585722  0.462595
18476.070  18476.040  1.000  1.551820  7.491490  1.587162  0.465327
18480.340  18480.320  1.000  1.550295  7.447612  1.580274  0.462563
18484.628  18484.620  1.000  1.549925  7.464565  1.584458  0.463768
18488.962  18488.940  1.000  1.548889  7.463293  1.585830  0.463957
18493.313  18493.270  1.000  1.546707  7.451390  1.586759  0.468279
18497.682  18497.630  1.000  1.546510  7.443347  1.585359  0.462943
18501.992  18502.000  1.000  1.544506  7.426470  1.584937  0.464470
18506.410  18506.400  1.000  1.543249  7.423829  1.586367  0.465658
18510.860  18510.810  1.000  1.542087  7.415935  1.586522  0.466055
18515.296  18515.240  1.000  1.540093  7.398972  1.586052  0.466966
18519.766  18519.690  1.000  1.540111  7.387980  1.583667  0.468596
18524.222  18524.160  1.000  1.539411  7.381692  1.583427  0.469300
18528.665  18528.650  1.000  1.538388  7.371077  1.582769  0.470055
18533.216  18533.160  1.000  1.538205  7.362312  1.581176  0.465190
18537.770  18537.680  1.000  1.536157  7.351748  1.582145  0.469897
18542.325  18542.230  1.000  1.534819  7.341558  1.582067  0.468205
18546.822  18546.790  1.000  1.533230  7.329525  1.581985  0.471820
18551.398  18551.380  1.000  1.530273  7.319180  1.584431  0.473991
18556.005  18555.980  1.000  1.528302  7.307181  1.584954  0.473975
18560.645  18560.600  1.000  1.526234  7.300126  1.586702  0.474148
18565.303  18565.240  1.000  1.524260  7.286588  1.586889  0.472945
18569.978  18569.900  1.000  1.522677  7.273529  1.586554  0.473415
18574.625  18574.580  1.000  1.521047  7.264045  1.587071  0.475415
18579.320  18579.280  1.000  1.519359  7.248505  1.586350  0.475594
18584.033  18584.000  1.000  1.517972  7.239433  1.586564  0.474508
18588.763  18588.730  1.000  1.516345  7.229930  1.587062  0.475782
18593.525  18593.490  1.000  1.515220  7.217824  1.586189  0.471829
18598.276  18598.260  1.000  1.513025  7.206011  1.587071  0.475885
18603.058  18603.060  1.000  1.511222  7.192498  1.586955  0.476379
18607.905  18607.870  1.000  1.510056  7.183486  1.586815  0.477281
18612.784  18612.700  1.000  1.508572  7.170531  1.586306  0.478772
18617.620  18617.550  1.000  1.507036  7.154489  1.585189  0.478601
18622.458  18622.420  1.000  1.505275  7.144846  1.585843  0.476686
18627.330  18627.310  1.000  1.504152  7.139509  1.586439  0.479538
18632.250  18632.220  1.000  1.502572  7.129092  1.586630  0.477889
18637.203  18637.140  1.000  1.500843  7.113062  1.585801  0.479419
18642.158  18642.090  1.000  1.498795  7.103580  1.586934  0.484088
18647.086  18647.050  1.000  1.497108  7.092594  1.587155  0.482663
18652.017  18652.040  1.000  1.495420  7.081561  1.587364  0.482872
18657.087  18657.040  1.000  1.493762  7.071819  1.587810  0.484187
18662.145  18662.060  1.000  1.491386  7.063363  1.589685  0.481901
18667.160  18667.100  1.000  1.489969  7.051557  1.589278  0.482993
18672.177  18672.160  1.000  1.487760  7.040509  1.590296  0.487004
18677.289  18677.240  1.000  1.486153  7.026426  1.589669  0.485466
18682.374  18682.340  1.000  1.483880  7.014076  1.590486  0.485263
18687.507  18687.460  1.000  1.483143  7.000302  1.588532  0.485909
18692.627  18692.590  1.000  1.482044  6.989702  1.587871  0.485334
18697.797  18697.750  1.000  1.480034  6.979834  1.588819  0.486176
18702.984  18702.920  1.000  1.478588  6.970394  1.588967  0.486190
18708.175  18708.120  1.000  1.477457  6.956153  1.587515  0.488035
18713.399  18713.330  1.000  1.475591  6.947411  1.588481  0.486840
18718.626  18718.560  1.000  1.474151  6.937386  1.588475  0.488738
18723.856  18723.810  1.000  1.472826  6.922873  1.587253  0.488650
18729.120  18729.080  1.000  1.470371  6.910635  1.588342  0.488661
18734.402  18734.370  1.000  1.469639  6.899626  1.586973  0.489147
18739.764  18739.680  1.000  1.467253  6.884729  1.587329  0.491086