File: xdidata/Data/Y/Y-K-foil.xdi
# XDI/1.0 BlueSky/1.5.3
# Beamline.name: 6BM
# Beamline.xray_source: NSLS-II three-pole wiggler
# Beamline.collimation: paraboloid mirror, 5 nm Rh on 30 nm Pt
# Beamline.focusing: not in use
# Beamline.harmonic_rejection: flat mirror, Pt stripe, pitch = 7.0 mrad relative to beam
# Detector.i0: 10 cm N2
# Detector.i1: 25 cm N2
# Detector.i2: 25 cm N2
# Element.symbol: Y
# Element.edge: K
# Facility.name: NSLS-II
# Facility.energy: 3.0
# Facility.current: 399.3
# Facility.mode: top-off
# Facility.gup: 301027
# Facility.saf: 304793
# Mono.name: Si(111)
# Mono.d_spacing: 3.13532
# Mono.encoder_resolution: 0.0000050 deg/ct
# Mono.angle_offset: 16.0581 deg
# Mono.scan_mode: fixed exit
# Mono.scan_type: step
# Mono.direction: forward in energy
# Sample.name: Y foil
# Sample.prep: foil standard
# Sample.x_position: -54.942 mm
# Sample.y_position: 110.034 mm
# Sample.wheel_position: -135.000 mm
# Scan.experimenters: Martin Stennett, Bruce Ravel, Sarah Nicolas
# Scan.edge_energy: 17038.0
# Scan.start_time: 2019-10-18T20:23:07
# Scan.end_time: 2019-10-18T20:53:36
# Scan.transient_id: 15397
# Scan.uid: c5fe30bd-9ded-4d70-87ba-3344341b164d
# Scan.plot_hint: ln(It/Ir)  --  ln($6/$7)
# Scan.sequence: merge of 3 scans
# Column.1: energy eV
# Column.2: requested_energy eV
# Column.3: measurement_time seconds
# Column.4: mutrans
# Column.5: i0
# Column.6: itrans
# /////
#  foil standard
# -----
# energy   requested_energy   measurement_time   mutrans   i0   itrans
16838 16838 1.000000 0.274136 45.6376 34.6951
16848 16848 1.000000 0.273780 51.9187 39.4842
16858.1 16858 1.000000 0.273300 51.6934 39.3317
16868.1 16868 1.000000 0.272993 51.4982 39.1952
16878.1 16878 1.000000 0.272725 51.4161 39.1432
16888.1 16888 1.000000 0.272304 51.2399 39.0255
16898.1 16898 1.000000 0.272151 51.0782 38.9083
16908.1 16908 1.000000 0.271831 50.869 38.7613
16918.1 16918 1.000000 0.271664 50.6128 38.5725
16928.1 16928 1.000000 0.271582 50.5711 38.5439
16938.1 16938 1.000000 0.271717 47.8231 36.4446
16948 16948 1.000000 0.271781 50.6672 38.6095
16958.1 16958 1.000000 0.272045 50.5581 38.5162
16968.1 16968 1.000000 0.272587 50.3796 38.3594
16978.1 16978 1.000000 0.273501 50.1595 38.1569
16988.1 16988 1.000000 0.274943 50.1201 38.072
16998.1 16998 1.000000 0.277765 49.965 37.8473
17008 17008 1.000000 0.282605 49.8213 37.5561
17010 17010 1.000000 0.283968 49.7951 37.4852
17012 17012 1.000000 0.285807 49.7635 37.3925
17014 17014 1.000000 0.287964 49.7334 37.2899
17016 17016 1.000000 0.290403 49.7135 37.1838
17018 17018 1.000000 0.293416 49.6721 37.0411
17020 17020 1.000000 0.297164 49.6558 36.8904
17021.9 17022 1.000000 0.302042 49.6181 36.6824
17024 17024 1.000000 0.308801 49.5977 36.4213
17025.9 17026 1.000000 0.318021 49.5668 36.0677
17028 17028 1.000000 0.332025 49.5412 35.5428
17028.4 17028.5 1.000000 0.336416 49.5271 35.3827
17029 17029 1.000000 0.341532 49.5111 35.1829
17029.5 17029.5 1.000000 0.347549 49.5196 34.9794
17030 17030 1.000000 0.354510 49.5061 34.7268
17030.5 17030.5 1.000000 0.362735 49.509 34.441
17031 17031 1.000000 0.372843 49.4964 34.0886
17031.5 17031.5 1.000000 0.385252 49.492 33.6465
17032 17032 1.000000 0.400379 49.4706 33.1472
17032.5 17032.5 1.000000 0.420099 49.4731 32.4835
17033 17033 1.000000 0.443312 49.486 31.772
17033.5 17033.5 1.000000 0.472985 49.4591 30.8016
17034 17034 1.000000 0.508011 49.454 29.7265
17034.5 17034.5 1.000000 0.550438 49.4679 28.5372
17035 17035 1.000000 0.595245 49.4524 27.2803
17035.5 17035.5 1.000000 0.644961 49.4298 25.9141
17035.9 17036 1.000000 0.692567 49.4291 24.7392
17036.5 17036.5 1.000000 0.741446 49.4393 23.5556
17037 17037 1.000000 0.782639 49.4401 22.6434
17037.5 17037.5 1.000000 0.817249 49.3985 21.829
17038 17038 1.000000 0.845475 49.3857 21.209
17038.5 17038.5 1.000000 0.869663 49.4047 20.6942
17039 17039 1.000000 0.891324 49.3919 20.2782
17039.5 17039.5 1.000000 0.913925 49.3723 19.7825
17040 17040 1.000000 0.940247 49.3643 19.2955
17040.5 17040.5 1.000000 0.971129 49.3648 18.697
17041 17041 1.000000 1.007053 49.3527 18.0343
17041.5 17041.5 1.000000 1.049196 49.3394 17.2728
17042 17042 1.000000 1.095538 49.3203 16.5032
17042.5 17042.5 1.000000 1.147156 49.3246 15.677
17043 17043 1.000000 1.201627 49.3175 14.8163
17043.5 17043.5 1.000000 1.258494 49.2907 14.0238
17044 17044 1.000000 1.316577 49.2734 13.2082
17044.5 17044.5 1.000000 1.371743 49.2819 12.5196
17045 17045 1.000000 1.426767 49.3692 11.8585
17045.5 17045.5 1.000000 1.473222 49.3272 11.3196
17046 17046 1.000000 1.516589 49.3243 10.8289
17046.5 17046.5 1.000000 1.551439 49.3095 10.46
17047 17047 1.000000 1.577949 49.2823 10.1688
17047.5 17047.5 1.000000 1.597480 49.2717 9.970940
17048 17048 1.000000 1.608167 49.2566 9.865894
17048.5 17048.5 1.000000 1.612844 49.2349 9.813906
17049 17049 1.000000 1.611721 49.2227 9.823699
17049.5 17049.5 1.000000 1.606919 49.2024 9.865953
17050 17050 1.000000 1.598980 49.1873 9.946322
17050.5 17050.5 1.000000 1.589468 49.1706 10.0367
17051 17051 1.000000 1.579829 49.1658 10.1356
17051.5 17051.5 1.000000 1.569860 49.1349 10.2237
17052 17052 1.000000 1.560384 49.1169 10.3188
17052.5 17052.5 1.000000 1.552317 49.0897 10.3964
17053 17053 1.000000 1.544740 49.0848 10.473
17053.5 17053.5 1.000000 1.538559 49.0598 10.5299
17054 17054 1.000000 1.533381 49.0278 10.5804
17054.5 17054.5 1.000000 1.529542 49.0759 10.6296
17055 17055 1.000000 1.526987 49.0842 10.6585
17055.5 17055.5 1.000000 1.526052 49.0536 10.6636
17056 17056 1.000000 1.526577 49.052 10.6582
17056.5 17056.5 1.000000 1.528607 49.0228 10.6313
17057 17057 1.000000 1.531797 49.0121 10.5953
17057.5 17057.5 1.000000 1.536573 48.9983 10.5407
17058 17058 1.000000 1.541789 48.9766 10.4831
17058.5 17058.5 1.000000 1.547434 48.9409 10.4143
17059 17059 1.000000 1.552942 48.9226 10.3546
17059.5 17059.5 1.000000 1.558358 48.9282 10.2981
17060 17060 1.000000 1.562459 48.8933 10.2485
17060.5 17060.5 1.000000 1.565520 48.8679 10.2117
17061 17061 1.000000 1.566907 48.8522 10.1952
17061.5 17061.5 1.000000 1.566765 48.8124 10.189
17062 17062 1.000000 1.564867 48.7921 10.2047
17062.5 17062.5 1.000000 1.561363 48.784 10.2381
17063 17063 1.000000 1.556854 48.741 10.2779
17063.5 17063.5 1.000000 1.550534 48.7102 10.3349
17064 17064 1.000000 1.543930 48.6656 10.3939
17064.5 17064.5 1.000000 1.537326 48.7107 10.4712
17065 17065 1.000000 1.530280 48.6644 10.5363
17065.5 17065.5 1.000000 1.524072 48.6392 10.5932
17066 17066 1.000000 1.518195 48.5933 10.6509
17066.5 17066.5 1.000000 1.513022 48.5521 10.6928
17067 17067 1.000000 1.509129 48.4984 10.7217
17067.5 17067.5 1.000000 1.505918 48.4489 10.7472
17068 17068 1.000000 1.503575 48.3619 10.7508
17069.1 17069.1 1.000000 1.500119 48.1711 10.7467
17070.2 17070.2 1.000000 1.498044 47.8277 10.6921
17071.3 17071.3 1.000000 1.496235 47.1527 10.561
17072.5 17072.4 1.000000 1.493521 45.6344 10.2485
17073.6 17073.6 1.000000 1.490151 43.2712 9.750779
17074.8 17074.8 1.000000 1.486741 41.5148 9.386913
17076 17076 1.000000 1.484866 42.2992 9.582072
17077.2 17077.2 1.000000 1.486006 45.1333 10.2121
17078.4 17078.4 1.000000 1.489476 47.7444 10.7655
17079.7 17079.6 1.000000 1.495082 48.9429 10.9737
17080.9 17080.9 1.000000 1.502160 49.1953 10.9523
17082.2 17082.2 1.000000 1.509477 49.2188 10.8789
17083.5 17083.5 1.000000 1.516008 49.1825 10.8013
17084.8 17084.8 1.000000 1.519693 49.1461 10.7534
17086.2 17086.2 1.000000 1.519099 49.1143 10.7514
17087.5 17087.5 1.000000 1.513839 49.0511 10.7936
17088.9 17088.9 1.000000 1.503900 49.002 10.8913
17090.4 17090.3 1.000000 1.492796 48.9843 11.0113
17091.8 17091.8 1.000000 1.482612 48.9463 11.1142
17093.2 17093.2 1.000000 1.474882 48.8949 11.1876
17094.7 17094.7 1.000000 1.470011 48.8682 11.2359
17096.1 17096.1 1.000000 1.467008 48.8401 11.2631
17097.6 17097.6 1.000000 1.464912 48.7889 11.2749
17099.1 17099.1 1.000000 1.463639 48.77 11.2848
17100.7 17100.7 1.000000 1.462942 48.7323 11.2841
17102.2 17102.2 1.000000 1.463777 48.7305 11.2744
17103.8 17103.8 1.000000 1.466411 48.6857 11.2339
17105.4 17105.4 1.000000 1.471138 48.631 11.1682
17107 17107 1.000000 1.477369 48.6015 11.0924
17108.7 17108.7 1.000000 1.484315 48.597 11.0151
17110.3 17110.3 1.000000 1.490354 48.5599 10.9401
17112 17112 1.000000 1.493815 48.5282 10.8954
17113.7 17113.7 1.000000 1.494544 48.4771 10.876
17115.4 17115.4 1.000000 1.491759 48.4587 10.9022
17117.1 17117.1 1.000000 1.486191 48.4404 10.9585
17118.8 17118.8 1.000000 1.478608 48.3956 11.032
17120.6 17120.6 1.000000 1.469918 48.3826 11.1243
17122.4 17122.4 1.000000 1.461452 48.3279 11.2076
17124.2 17124.2 1.000000 1.454864 48.3047 11.2753
17126 17126 1.000000 1.450945 48.2617 11.3102
17127.9 17127.8 1.000000 1.449754 48.2279 11.3156
17129.7 17129.7 1.000000 1.450502 48.2088 11.3027
17131.6 17131.6 1.000000 1.452294 48.1929 11.2785
17133.5 17133.5 1.000000 1.454290 48.2169 11.2621
17135.4 17135.4 1.000000 1.456085 48.1836 11.234
17137.3 17137.3 1.000000 1.457454 48.1301 11.2061
17139.3 17139.3 1.000000 1.458392 48.1112 11.1911
17141.3 17141.3 1.000000 1.459010 48.1006 11.1817
17143.3 17143.3 1.000000 1.459232 48.0723 11.1727
17145.3 17145.3 1.000000 1.459103 48.0362 11.1658
17147.3 17147.3 1.000000 1.458197 47.9897 11.165
17149.3 17149.3 1.000000 1.455670 47.9656 11.1873
17151.5 17151.4 1.000000 1.451418 47.9526 11.2323
17153.5 17153.5 1.000000 1.446377 47.918 11.2813
17155.6 17155.6 1.000000 1.441159 47.8966 11.3349
17157.8 17157.7 1.000000 1.436473 47.8825 11.385
17159.9 17159.9 1.000000 1.432144 47.8233 11.4201
17162 17162 1.000000 1.428650 47.8056 11.4552
17164.2 17164.2 1.000000 1.426592 47.7966 11.477
17166.5 17166.4 1.000000 1.425775 47.7513 11.4757
17168.7 17168.7 1.000000 1.425908 47.7178 11.4661
17170.9 17170.9 1.000000 1.426888 47.7038 11.4512
17173.2 17173.2 1.000000 1.428835 47.6743 11.4222
17175.4 17175.4 1.000000 1.431612 47.6919 11.395
17177.7 17177.7 1.000000 1.434232 47.6783 11.3617
17180.1 17180 1.000000 1.436318 47.6593 11.3335
17182.4 17182.4 1.000000 1.437804 47.6182 11.3069
17184.7 17184.7 1.000000 1.438344 47.5633 11.2878
17187.1 17187.1 1.000000 1.438058 47.5202 11.2807
17189.5 17189.5 1.000000 1.435743 47.4984 11.3016
17192 17191.9 1.000000 1.431879 47.4842 11.3421
17194.4 17194.3 1.000000 1.427239 47.4542 11.3877
17196.8 17196.8 1.000000 1.422837 47.4076 11.4268
17199.3 17199.3 1.000000 1.418849 47.3785 11.4656
17201.8 17201.8 1.000000 1.414979 47.3497 11.5026
17204.3 17204.3 1.000000 1.411046 47.2871 11.5322
17206.8 17206.8 1.000000 1.406745 47.2552 11.574
17209.4 17209.3 1.000000 1.403181 47.2475 11.6141
17211.9 17211.9 1.000000 1.401173 47.2019 11.6262
17214.5 17214.5 1.000000 1.401090 47.1794 11.6211
17217.1 17217.1 1.000000 1.403120 47.1618 11.5939
17219.7 17219.7 1.000000 1.406428 47.0882 11.5381
17222.4 17222.3 1.000000 1.410914 47.1143 11.4921
17225 17225 1.000000 1.415989 47.0858 11.4267
17227.7 17227.7 1.000000 1.420640 47.0003 11.353
17230.4 17230.4 1.000000 1.424038 46.9654 11.3064
17233.1 17233.1 1.000000 1.425599 46.9795 11.2924
17235.9 17235.8 1.000000 1.424367 46.9368 11.2957
17238.6 17238.6 1.000000 1.421233 46.9126 11.3244
17241.4 17241.4 1.000000 1.417001 46.8593 11.3601
17244.3 17244.2 1.000000 1.412794 46.8288 11.3985
17247.1 17247 1.000000 1.409657 46.7986 11.4297
17249.9 17249.8 1.000000 1.407064 46.7481 11.4472
17253.4 17252.7 1.000000 1.405115 46.717 11.4656
17256.1 17255.5 1.000000 1.403010 46.6527 11.473
17258.4 17258.4 1.000000 1.401033 46.623 11.4855
17261.3 17261.3 1.000000 1.398673 46.5596 11.4966
17264.3 17264.2 1.000000 1.396889 46.5465 11.514
17267.2 17267.2 1.000000 1.396104 46.5176 11.5159
17270.2 17270.2 1.000000 1.395887 46.5056 11.5154
17273.2 17273.1 1.000000 1.396416 46.4268 11.4898
17276.2 17276.2 1.000000 1.397225 46.4056 11.4753
17279.2 17279.2 1.000000 1.398634 46.3419 11.4433
17282.2 17282.2 1.000000 1.400300 46.3002 11.414
17285.3 17285.3 1.000000 1.402061 46.2922 11.392
17288.4 17288.3 1.000000 1.403163 46.2447 11.3678
17291.5 17291.5 1.000000 1.403554 46.2025 11.353
17294.6 17294.6 1.000000 1.402633 46.136 11.3471
17297.7 17297.7 1.000000 1.400507 46.1132 11.3657
17300.9 17300.8 1.000000 1.397156 46.0785 11.3951
17304 17304 1.000000 1.393657 46.0396 11.4256
17307.2 17307.2 1.000000 1.390717 46.0133 11.4524
17310.4 17310.4 1.000000 1.388341 45.9693 11.4688
17313.7 17313.7 1.000000 1.386531 45.8586 11.4619
17316.9 17316.9 1.000000 1.384845 45.8261 11.473
17320.2 17320.2 1.000000 1.383214 45.8227 11.491
17323.5 17323.5 1.000000 1.381664 45.7927 11.5013
17326.8 17326.8 1.000000 1.380537 45.743 11.5018
17330.1 17330.1 1.000000 1.380214 45.6925 11.4928
17333.5 17333.5 1.000000 1.380217 45.6717 11.4875
17336.8 17336.8 1.000000 1.380741 45.6332 11.4719
17340.2 17340.2 1.000000 1.381284 45.597 11.4565
17343.6 17343.6 1.000000 1.381600 45.5317 11.4365
17347.1 17347 1.000000 1.381659 45.4903 11.4254
17350.5 17350.5 1.000000 1.381119 45.4476 11.4209
17353.9 17353.9 1.000000 1.380630 45.3947 11.4131
17357.4 17357.4 1.000000 1.379471 45.3332 11.4108
17360.9 17360.9 1.000000 1.378230 45.2814 11.412
17364.4 17364.4 1.000000 1.376721 45.2898 11.4314
17368 17368 1.000000 1.375020 45.2277 11.4351
17371.5 17371.5 1.000000 1.373111 45.2019 11.4505
17375.1 17375.1 1.000000 1.371116 45.1714 11.4656
17378.7 17378.7 1.000000 1.369431 45.1241 11.4729
17382.3 17382.3 1.000000 1.367881 45.0686 11.4766
17385.9 17385.9 1.000000 1.366782 44.9702 11.464
17389.6 17389.6 1.000000 1.365819 44.9055 11.4586
17393.3 17393.2 1.000000 1.365317 44.9244 11.4692
17396.9 17396.9 1.000000 1.364579 44.8619 11.4617
17400.7 17400.6 1.000000 1.364257 44.8297 11.4572
17404.4 17404.4 1.000000 1.363966 44.7528 11.4408
17408.1 17408.1 1.000000 1.363832 44.6467 11.4152
17411.9 17411.9 1.000000 1.363600 44.6479 11.4182
17415.7 17415.7 1.000000 1.362945 44.6231 11.4193
17419.5 17419.5 1.000000 1.362112 44.5709 11.4155
17423.3 17423.3 1.000000 1.361123 44.529 11.416
17427.2 17427.1 1.000000 1.360243 44.486 11.4151
17431 17431 1.000000 1.359527 44.4249 11.4075
17434.9 17434.9 1.000000 1.358730 44.2975 11.3839
17438.8 17438.8 1.000000 1.357794 44.2821 11.3906
17442.7 17442.7 1.000000 1.356399 44.2963 11.4102
17446.6 17446.6 1.000000 1.354991 44.2893 11.4244
17450.5 17450.6 1.000000 1.353493 44.2043 11.4195
17454.6 17454.5 1.000000 1.351909 44.1269 11.4176
17458.6 17458.5 1.000000 1.350445 44.0763 11.4213
17462.6 17462.5 1.000000 1.349279 44.0495 11.4277
17466.6 17466.6 1.000000 1.348322 44.0072 11.4276
17470.6 17470.6 1.000000 1.347516 43.9515 11.4223
17474.8 17474.7 1.000000 1.346871 43.8975 11.4157
17478.8 17478.8 1.000000 1.346465 43.7938 11.3933
17482.9 17482.9 1.000000 1.345912 43.7252 11.3817
17487 17487 1.000000 1.345168 43.6929 11.3818
17491.2 17491.2 1.000000 1.344164 43.6791 11.3896
17495.4 17495.3 1.000000 1.343191 43.6238 11.3863
17499.6 17499.5 1.000000 1.342086 43.5637 11.3832
17503.8 17503.7 1.000000 1.341103 43.5188 11.3827
17508 17507.9 1.000000 1.340161 43.459 11.3777
17512.2 17512.2 1.000000 1.338845 43.3806 11.3722
17516.5 17516.4 1.000000 1.337946 43.3406 11.3719
17520.8 17520.7 1.000000 1.336908 43.3514 11.3865
17525.1 17525 1.000000 1.335715 43.2998 11.3866
17529.4 17529.3 1.000000 1.334411 43.2339 11.3841
17533.6 17533.7 1.000000 1.333172 43.1627 11.3793
17538.1 17538 1.000000 1.331851 43.1284 11.3854
17542.5 17542.4 1.000000 1.330770 43.0602 11.3797
17546.8 17546.8 1.000000 1.329513 43.0105 11.3808
17551.2 17551.2 1.000000 1.328336 42.9356 11.3744
17555.6 17555.6 1.000000 1.327424 42.895 11.3741
17560.1 17560.1 1.000000 1.326456 42.8287 11.3674
17564.6 17564.6 1.000000 1.325679 42.7581 11.3575
17569.1 17569 1.000000 1.324619 42.6991 11.3539
17573.6 17573.6 1.000000 1.323591 42.646 11.3514
17578.1 17578.1 1.000000 1.322676 42.5885 11.3465
17582.6 17582.6 1.000000 1.321449 42.5188 11.3418
17587.2 17587.2 1.000000 1.320195 42.4545 11.3389
17591.8 17591.8 1.000000 1.319201 42.3893 11.3327
17596.4 17596.4 1.000000 1.318055 42.3466 11.3343
17601 17601 1.000000 1.316785 42.279 11.3306
17605.7 17605.6 1.000000 1.315711 42.2168 11.3261
17610.4 17610.3 1.000000 1.314523 42.1532 11.3225
17615 17615 1.000000 1.313419 42.103 11.3214
17619.7 17619.7 1.000000 1.312107 42.0244 11.3151
17624.4 17624.4 1.000000 1.310932 41.9806 11.3167
17629.2 17629.1 1.000000 1.309807 41.9155 11.3119
17634 17633.9 1.000000 1.308567 41.8576 11.3103
17638.7 17638.7 1.000000 1.307400 41.7969 11.307
17643.5 17643.5 1.000000 1.306205 41.7089 11.2967
17648.3 17648.3 1.000000 1.305050 41.6888 11.3043
17653.1 17653.1 1.000000 1.304155 41.6282 11.298
17658 17658 1.000000 1.302781 41.5515 11.2927
17662.8 17662.8 1.000000 1.301841 41.498 11.2887
17667.7 17667.7 1.000000 1.300706 41.4387 11.2854
17672.7 17672.6 1.000000 1.299505 41.3687 11.2798
17677.6 17677.5 1.000000 1.298381 41.3069 11.2758
17682.5 17682.5 1.000000 1.297241 41.2509 11.2732
17687.5 17687.5 1.000000 1.296021 41.1713 11.2653
17692.5 17692.4 1.000000 1.294863 41.1118 11.262
17697.5 17697.4 1.000000 1.293543 41.0556 11.2614
17702.5 17702.5 1.000000 1.292526 40.9828 11.2529
17707.5 17707.5 1.000000 1.291274 40.9134 11.2479
17712.6 17712.6 1.000000 1.289993 40.8624 11.2483
17717.7 17717.6 1.000000 1.288744 40.7994 11.245
17722.8 17722.7 1.000000 1.287563 40.737 11.2411
17727.9 17727.9 1.000000 1.286427 40.6735 11.2363
17733 17733 1.000000 1.285236 40.5996 11.2292
17738.2 17738.2 1.000000 1.283994 40.5304 11.2241
17743.4 17743.3 1.000000 1.282851 40.4883 11.2252
17748.5 17748.5 1.000000 1.281530 40.4112 11.2186
17753.8 17753.7 1.000000 1.280499 40.4063 11.2289
17759 17759 1.000000 1.279256 40.3491 11.2269
17764.2 17764.2 1.000000 1.278170 40.2756 11.2186
17769.5 17769.5 1.000000 1.276898 40.2362 11.222
17774.8 17774.8 1.000000 1.275698 40.1582 11.2136
17780.1 17780.1 1.000000 1.274519 40.0821 11.2055
17785.5 17785.4 1.000000 1.273391 40.0358 11.2053
17790.8 17790.8 1.000000 1.272157 39.9645 11.1992
17796.1 17796.1 1.000000 1.270850 39.8941 11.1939
17801.6 17801.5 1.000000 1.269496 39.8286 11.1908
17807 17806.9 1.000000 1.268339 39.7591 11.1842
17812.3 17812.3 1.000000 1.267005 39.6819 11.1773
17817.8 17817.8 1.000000 1.266026 39.6091 11.1678
17823.3 17823.2 1.000000 1.264659 39.5603 11.1693
17828.8 17828.7 1.000000 1.263524 39.4873 11.1613
17834.2 17834.2 1.000000 1.262319 39.4301 11.1586
17839.8 17839.7 1.000000 1.261020 39.3459 11.1493
17845.4 17845.3 1.000000 1.259698 39.2704 11.1426
17850.9 17850.8 1.000000 1.258521 39.2195 11.1412
17856.4 17856.4 1.000000 1.257269 39.1571 11.1374
17862 17862 1.000000 1.256053 39.0873 11.1311
17867.7 17867.6 1.000000 1.254909 38.9876 11.1155
17873.3 17873.2 1.000000 1.253600 38.9431 11.1173
17878.9 17878.9 1.000000 1.252350 38.917 11.1238
17884.6 17884.5 1.000000 1.251177 38.6565 11.0622
17890.3 17890.2 1.000000 1.249969 38.785 11.1124
17896 17895.9 1.000000 1.248668 38.7226 11.109
17901.7 17901.7 1.000000 1.247263 38.6345 11.0993
17907.5 17907.4 1.000000 1.246261 38.5579 11.0884
17913.3 17913.2 1.000000 1.244921 38.5104 11.0896
17919 17919 1.000000 1.243578 38.4075 11.0748
17924.8 17924.8 1.000000 1.242461 38.3375 11.067
17930.6 17930.6 1.000000 1.241211 38.2808 11.0645
17936.5 17936.4 1.000000 1.240136 38.1977 11.0523
17942.4 17942.3 1.000000 1.238726 38.1281 11.0478
17948.2 17948.2 1.000000 1.237290 38.0672 11.046
17954.1 17954.1 1.000000 1.236356 38.0089 11.0393
17960 17960 1.000000 1.234897 37.9179 11.029
17966 17965.9 1.000000 1.233752 37.7838 11.0026
17971.9 17971.9 1.000000 1.232365 37.7672 11.013
17977.9 17977.8 1.000000 1.231305 37.6913 11.0026
17983.9 17983.8 1.000000 1.229942 37.666 11.0101
17989.9 17989.9 1.000000 1.228701 37.5914 11.0019
17996 17995.9 1.000000 1.227496 37.5314 10.9977
18002 18001.9 1.000000 1.226124 37.4616 10.9923
18008.1 18008 1.000000 1.224835 37.3868 10.9845