File: xdidata/Er/Er-L1-ErbiumOxide.xdi
# XDI/1.0 BlueSky/1.10.0 BMM/2023-1.0-py310-tiled
# Beamline.name: BMM (06BM) -- Beamline for Materials Measurement (NIST)
# Beamline.xray_source: NSLS-II three-pole wiggler
# Beamline.collimation: paraboloid mirror, 5 nm Rh on 30 nm Pt
# Beamline.focusing: not in use
# Beamline.harmonic_rejection: flat mirror, Pt stripe, pitch = 7.0 mrad relative to beam
# Beamline.software: Bluesky 1.10.0, Ophyd 1.7.0, DataBroker 2.0.0b13, Python 3.10.8, 2023-1.0-py310-tiled
# Detector.I0: 10 cm N2
# Detector.I1: 25 cm N2
# Detector.I2: 25 cm N2
# Element.symbol: Er
# Element.edge: L1
# Element.reference: Er
# Element.reference_material: Er2O3
# Facility.name: NSLS-II
# Facility.energy: 3.0
# Facility.current: 399.9
# Facility.mode: top-off
# Facility.GUP: 301027
# Facility.SAF: 310583
# Facility.cycle: 2023-2
# Mono.name: Si(111)
# Mono.d_spacing: 3.13519
# Mono.encoder_resolution: 0.0000050 deg/ct
# Mono.angle_offset: 16.0754 deg
# Mono.scan_mode: pseudo channel cut
# Mono.scan_type: step
# Mono.direction: forward in energy
# Sample.name: Er2O3
# Sample.prep: PEG pellet
# Sample.x: 109.138 mm
# Sample.y: 153.150 mm
# Sample.SDD_position: 205.000 mm
# Scan.experimenters: Bruce Ravel
# Scan.edge_energy: 9751.3
# Scan.start_time: 2023-05-28T17:06:55
# Scan.end_time: 2023-05-28T17:15:12
# Scan.transient_id: 78861
# Scan.uid: daf0e6d4-93b6-424e-94ab-d3a09398ed9d
# Scan.plot_hint: ln(It/Ir)  --  ln($6/$7)
# Column.1: energy eV
# Column.2: requested_energy eV
# Column.3: measurement_time seconds
# Column.4: xmu
# Column.5: I0 nA
# Column.6: It nA
# Column.7: Ir nA
# ///////////
# sample courtesy Martin Stennett, University of Sheffield
# -----------
# energy  requested_energy  measurement_time  xmu  I0  It  Ir
  9551.293  9551.300  0.500  1.083159  104.874  155.01  52.4746
  9561.356  9561.300  0.500  1.079544  104.689  154.882  52.6213
  9571.334  9571.300  0.500  1.077088  104.538  154.783  52.7168
  9581.350  9581.300  0.500  1.074978  104.352  154.634  52.7775
  9591.359  9591.300  0.500  1.072412  104.195  154.543  52.882
  9601.313  9601.300  0.500  1.069143  104.036  154.446  53.0217
  9611.357  9611.300  0.500  1.066544  103.797  154.237  53.0876
  9621.338  9621.300  0.500  1.064253  103.63  154.115  53.1674
  9631.356  9631.300  0.500  1.061434  103.431  153.968  53.2666
  9641.364  9641.300  0.500  1.058892  103.267  153.844  53.3591
  9651.332  9651.300  0.500  1.056712  103.07  153.669  53.4148
  9661.354  9661.300  0.500  1.054482  102.938  153.616  53.5155
  9671.361  9671.300  0.500  1.051907  102.746  153.446  53.5942
  9681.353  9681.300  0.500  1.049283  102.567  153.313  53.6886
  9691.325  9691.300  0.500  1.046652  102.421  153.212  53.7945
  9701.322  9701.300  0.500  1.043874  102.242  153.071  53.8945
  9711.356  9711.300  0.500  1.041249  101.31  151.799  53.5872
  9721.351  9721.300  0.500  1.039279  101.885  152.792  54.044
  9723.283  9723.300  0.500  1.038999  101.858  152.777  54.054
  9725.273  9725.300  0.500  1.038650  101.872  152.821  54.0883
  9727.272  9727.300  0.500  1.038413  101.771  152.699  54.058
  9729.268  9729.300  0.500  1.038140  101.765  152.705  54.0749
  9731.268  9731.300  0.500  1.037957  101.692  152.613  54.052
  9733.274  9733.300  0.500  1.037752  101.685  152.631  54.0697
  9735.280  9735.300  0.500  1.037514  101.655  152.603  54.0724
  9737.279  9737.300  0.500  1.037283  101.585  152.512  54.0527
  9739.279  9739.300  0.500  1.037133  101.561  152.508  54.0593
  9741.288  9741.300  0.500  1.036956  101.546  152.502  54.0669
  9741.559  9741.600  0.500  1.037005  101.507  152.488  54.0592
  9741.863  9741.900  0.500  1.036967  101.5  152.482  54.0593
  9742.162  9742.200  0.500  1.036958  101.499  152.483  54.0601
  9742.465  9742.500  0.500  1.036980  101.492  152.473  54.0553
  9742.773  9742.800  0.500  1.036931  101.469  152.409  54.0353
  9743.064  9743.100  0.500  1.036982  101.487  152.467  54.0531
  9743.376  9743.400  0.500  1.037007  101.465  152.438  54.0415
  9743.667  9743.700  0.500  1.037028  101.441  152.41  54.0302
  9743.967  9744.000  0.500  1.037061  101.449  152.432  54.0365
  9744.279  9744.300  0.500  1.037084  101.44  152.416  54.0293
  9744.570  9744.600  0.500  1.037072  101.443  152.418  54.0308
  9744.882  9744.900  0.500  1.037121  101.44  152.415  54.0271
  9745.178  9745.200  0.500  1.037184  101.425  152.397  54.0174
  9745.469  9745.500  0.500  1.037189  101.396  152.363  54.0051
  9745.769  9745.800  0.500  1.037299  101.436  152.423  54.0205
  9746.068  9746.100  0.500  1.037277  101.404  152.376  54.0047
  9746.376  9746.400  0.500  1.037345  101.39  152.375  54.0008
  9746.668  9746.700  0.500  1.037418  101.427  152.423  54.0139
  9746.975  9747.000  0.500  1.037520  101.368  152.329  53.975
  9747.275  9747.300  0.500  1.037550  101.361  152.318  53.9695
  9747.579  9747.600  0.500  1.037660  101.366  152.314  53.9623
  9747.879  9747.900  0.500  1.037690  101.34  152.268  53.9443
  9748.183  9748.200  0.500  1.037810  101.361  152.31  53.9528
  9748.478  9748.500  0.500  1.038027  101.355  152.308  53.9403
  9748.782  9748.800  0.500  1.038112  101.337  152.307  53.9354
  9749.099  9749.100  0.500  1.038210  101.34  152.306  53.9297
  9749.390  9749.400  0.500  1.038453  101.343  152.322  53.9223
  9749.694  9749.700  0.500  1.038704  101.634  152.768  54.0667
  9749.986  9750.000  0.500  1.038941  101.62  152.759  54.0506
  9750.298  9750.300  0.500  1.039246  101.64  152.782  54.0422
  9750.586  9750.600  0.500  1.039575  101.642  152.784  54.0253
  9750.902  9750.900  0.500  1.040010  101.684  152.846  54.0236
  9751.194  9751.200  0.500  1.040423  101.648  152.783  53.9789
  9751.498  9751.500  0.500  1.040908  101.629  152.758  53.9442
  9751.794  9751.800  0.500  1.041519  101.632  152.773  53.9165
  9752.094  9752.100  0.500  1.042133  101.627  152.772  53.8829
  9752.390  9752.400  0.500  1.042809  101.593  152.731  53.8319
  9752.686  9752.700  0.500  1.043626  101.62  152.782  53.8059
  9752.990  9753.000  0.500  1.044463  101.599  152.757  53.7524
  9753.286  9753.300  0.500  1.045348  101.577  152.73  53.6951
  9753.578  9753.600  0.500  1.046327  101.575  152.727  53.6416
  9753.886  9753.900  0.500  1.047251  101.594  152.77  53.607
  9754.182  9754.200  0.500  1.048147  101.61  152.795  53.568
  9754.491  9754.500  0.500  1.049109  101.558  152.717  53.4892
  9754.799  9754.800  0.500  1.049955  101.552  152.694  53.4359
  9755.095  9755.100  0.500  1.050810  101.554  152.712  53.3965
  9755.400  9755.400  0.500  1.051690  101.544  152.678  53.3377
  9755.700  9755.700  0.500  1.052441  101.541  152.671  53.2952
  9756.000  9756.000  0.500  1.053294  101.537  152.664  53.2471
  9756.305  9756.300  0.500  1.054174  101.526  152.66  53.1989
  9756.593  9756.600  0.500  1.054983  101.519  152.655  53.1541
  9756.901  9756.900  0.500  1.055803  101.53  152.674  53.1174
  9757.201  9757.200  0.500  1.056772  101.547  152.719  53.0816
  9757.489  9757.500  0.500  1.057607  101.494  152.638  53.0092
  9757.782  9757.800  0.500  1.058401  101.484  152.624  52.9622
  9758.094  9758.100  0.500  1.059380  101.477  152.626  52.911
  9758.391  9758.400  0.500  1.060240  101.493  152.639  52.87
  9758.683  9758.700  0.500  1.061035  101.473  152.613  52.8189
  9758.992  9759.000  0.500  1.061988  101.453  152.587  52.7598
  9759.296  9759.300  0.500  1.062850  101.451  152.581  52.7123
  9759.588  9759.600  0.500  1.063841  101.436  152.575  52.6578
  9759.901  9759.900  0.500  1.064808  101.412  152.543  52.5957
  9760.202  9760.200  0.500  1.065786  101.408  152.539  52.5431
  9760.498  9760.500  0.500  1.066814  101.402  152.552  52.4936
  9760.799  9760.800  0.500  1.067861  101.415  152.598  52.4545
  9761.104  9761.100  0.500  1.068932  101.384  152.528  52.3742
  9761.396  9761.400  0.500  1.070029  101.434  152.587  52.3372
  9761.701  9761.700  0.500  1.071220  101.416  152.555  52.2638
  9762.006  9762.000  0.500  1.072450  101.396  152.543  52.1955
  9762.298  9762.300  0.500  1.073691  101.355  152.487  52.1117
  9762.599  9762.600  0.500  1.075002  101.389  152.548  52.0642
  9762.895  9762.900  0.500  1.076400  101.356  152.521  51.9823
  9763.192  9763.200  0.500  1.077764  101.333  152.486  51.8996
  9763.493  9763.500  0.500  1.079327  101.329  152.492  51.8205
  9763.789  9763.800  0.500  1.080878  101.34  152.493  51.7405
  9764.094  9764.100  0.500  1.082510  101.353  152.537  51.671
  9764.399  9764.400  0.500  1.084239  101.327  152.486  51.5646
  9764.700  9764.700  0.500  1.085917  101.336  152.485  51.4777
  9764.997  9765.000  0.500  1.087555  101.3  152.437  51.3772
  9765.306  9765.300  0.500  1.089093  101.312  152.455  51.3044
  9765.598  9765.600  0.500  1.090554  101.295  152.44  51.2246
  9765.899  9765.900  0.500  1.091990  101.29  152.447  51.1533
  9766.212  9766.200  0.500  1.093177  101.278  152.441  51.0905
  9766.505  9766.500  0.500  1.094156  101.267  152.413  51.0312
  9766.794  9766.800  0.500  1.094983  101.262  152.418  50.9909
  9767.111  9767.100  0.500  1.095615  101.285  152.428  50.9619
  9767.396  9767.400  0.500  1.096122  101.25  152.384  50.9213
  9767.693  9767.700  0.500  1.096415  101.252  152.423  50.9193
  9768.006  9768.000  0.500  1.096527  101.224  152.379  50.8991
  9768.291  9768.300  0.500  1.096431  101.247  152.409  50.9139
  9768.583  9768.600  0.500  1.096333  101.209  152.368  50.9053
  9768.901  9768.900  0.500  1.096093  101.185  152.361  50.915
  9769.186  9769.200  0.500  1.095671  101.185  152.326  50.9248
  9769.491  9769.500  0.500  1.095342  101.178  152.314  50.9377
  9769.804  9769.800  0.500  1.094853  101.169  152.285  50.9529
  9770.101  9770.100  0.500  1.094531  101.154  152.263  50.9619
  9770.407  9770.400  0.500  1.094164  101.14  152.262  50.9804
  9770.712  9770.700  0.500  1.093882  101.127  152.245  50.989
  9771.005  9771.000  0.500  1.093568  101.138  152.264  51.0112
  9771.306  9771.300  0.500  1.093342  101.06  152.149  50.9843
  9771.595  9771.600  0.500  1.093169  101.059  152.15  50.9934
  9771.905  9771.900  0.500  1.093095  101.051  152.16  51.0005
  9772.202  9772.200  0.500  1.093028  101.029  152.126  50.9927
  9772.499  9772.500  0.500  1.093037  101.05  152.158  51.0031
  9772.796  9772.800  0.500  1.093115  100.984  152.051  50.963
  9773.089  9773.100  0.500  1.093228  100.957  152.029  50.95
  9773.387  9773.400  0.500  1.093349  100.867  151.911  50.9041
  9773.692  9773.700  0.500  1.093431  100.553  151.442  50.7428
  9773.993  9774.000  0.500  1.093522  100.09  150.736  50.5018
  9774.295  9774.300  0.500  1.093664  99.6007  150.02  50.2546
  9774.596  9774.600  0.500  1.093753  99.5028  149.884  50.2046
  9774.894  9774.900  0.500  1.093917  99.8079  150.32  50.3425
  9775.195  9775.200  0.500  1.093950  100.237  150.973  50.5596
  9775.509  9775.500  0.500  1.094024  100.647  151.607  50.7681
  9775.802  9775.800  0.500  1.094013  100.887  151.974  50.8917
  9776.096  9776.100  0.500  1.094017  101.006  152.145  50.9487
  9776.294  9776.300  0.500  1.093965  101.009  152.155  50.9546
  9777.285  9777.290  0.500  1.093569  100.993  152.118  50.9624
  9778.265  9778.290  0.500  1.092898  100.985  152.123  50.9983
  9779.405  9779.310  0.500  1.091564  100.947  152.096  51.0571
  9780.315  9780.360  0.500  1.090234  100.869  151.984  51.0876
  9781.675  9781.420  0.500  1.087997  100.809  151.9  51.1737
  9782.532  9782.500  0.500  1.086115  100.74  151.837  51.2487
  9783.562  9783.600  0.500  1.083984  100.154  150.965  51.0632
  9784.695  9784.720  0.500  1.081754  99.3435  149.748  50.7647
  9785.850  9785.860  0.500  1.079482  100.759  151.891  51.6083
  9786.984  9787.010  0.500  1.077384  100.793  151.969  51.7433
  9788.169  9788.190  0.500  1.075573  100.769  151.929  51.8232
  9789.366  9789.380  0.500  1.073963  100.719  151.869  51.8865
  9790.579  9790.600  0.500  1.072631  100.633  151.778  51.9243
  9791.818  9791.830  0.500  1.071646  100.319  151.31  51.8151
  9793.066  9793.080  0.500  1.070919  99.0871  149.438  51.2114
  9794.335  9794.350  0.500  1.070535  100.596  151.758  52.0263
  9795.620  9795.640  0.500  1.070227  100.683  151.916  52.0967
  9796.935  9796.950  0.500  1.070029  100.652  151.861  52.088
  9798.267  9798.280  0.500  1.070002  100.631  151.858  52.0884
  9799.616  9799.630  0.500  1.069976  100.585  151.798  52.0693
  9800.995  9801.000  0.500  1.070036  100.503  151.693  52.0303
  9802.365  9802.380  0.500  1.070213  100.311  151.413  51.925
  9803.769  9803.790  0.500  1.070384  99.1653  149.707  51.3309
  9805.203  9805.210  0.500  1.070468  100.472  151.68  52.0033
  9806.645  9806.650  0.500  1.070667  100.44  151.66  51.9861
  9808.104  9808.110  0.500  1.071071  100.453  151.699  51.9783
  9809.581  9809.590  0.500  1.071609  100.379  151.612  51.9206
  9811.075  9811.090  0.500  1.072225  100.361  151.601  51.8848
  9812.598  9812.610  0.500  1.072880  100.332  151.568  51.8395
  9814.146  9814.150  0.500  1.073503  100.333  151.584  51.8127
  9815.716  9815.710  0.500  1.074207  100.264  151.505  51.7494
  9817.274  9817.280  0.500  1.074946  100.206  151.439  51.6884
  9818.862  9818.880  0.500  1.075766  100.188  151.425  51.6414
  9820.475  9820.490  0.500  1.076350  100.042  151.205  51.5362
  9822.127  9822.130  0.500  1.076684  99.6356  150.633  51.3243
  9823.783  9823.780  0.500  1.076689  100.051  151.288  51.5472
  9825.447  9825.450  0.500  1.076321  100.052  151.3  51.5703
  9827.130  9827.140  0.500  1.075872  100.018  151.265  51.5815
  9828.854  9828.850  0.500  1.074992  99.4842  150.466  51.3543
  9830.588  9830.580  0.500  1.073830  99.8957  151.105  51.6321
  9832.335  9832.330  0.500  1.072381  99.9185  151.166  51.7279
  9834.090  9834.090  0.500  1.070783  100.189  151.602  51.96
  9835.863  9835.880  0.500  1.069166  99.6183  150.766  51.7571
  9837.687  9837.680  0.500  1.067740  100.168  151.635  52.1298
  9839.504  9839.510  0.500  1.066592  100.146  151.615  52.1828
  9841.354  9841.350  0.500  1.065788  100.163  151.668  52.243
  9843.201  9843.210  0.500  1.065099  99.9249  151.324  52.1604
  9845.095  9845.090  0.500  1.064591  99.7555  151.08  52.1029
  9846.998  9846.990  0.500  1.064251  100.002  151.473  52.2561
  9848.914  9848.910  0.500  1.063840  100.013  151.523  52.2949
  9850.848  9850.850  0.500  1.063579  99.9517  151.468  52.2896
  9852.812  9852.810  0.500  1.063046  99.9371  151.45  52.3111
  9854.789  9854.780  0.500  1.062521  99.8901  151.404  52.3226
  9856.767  9856.780  0.500  1.061718  99.8546  151.366  52.3515
  9858.784  9858.790  0.500  1.060839  99.8122  151.311  52.3786
  9860.831  9860.820  0.500  1.060010  99.8031  151.333  52.4296
  9862.883  9862.880  0.500  1.059276  99.7424  151.277  52.4489
  9864.940  9864.950  0.500  1.058397  99.7113  151.25  52.4855
  9867.053  9867.040  0.500  1.057697  99.6774  151.242  52.5196
  9869.154  9869.150  0.500  1.056863  99.6433  151.184  52.543
  9871.277  9871.280  0.500  1.056160  99.622  151.184  52.58
  9873.422  9873.420  0.500  1.055514  99.5787  151.14  52.5988
  9875.598  9875.590  0.500  1.054997  99.5496  151.108  52.6149
  9877.783  9877.780  0.500  1.054709  99.5103  151.074  52.6182
  9879.985  9879.980  0.500  1.054469  99.4564  151.028  52.6146
  9882.206  9882.200  0.500  1.054345  97.3961  147.937  51.5443
  9884.453  9884.450  0.500  1.054382  98.9268  150.293  52.3634
  9886.718  9886.710  0.500  1.054495  99.2444  150.794  52.5317
  9889.010  9888.990  0.500  1.054712  99.2456  150.813  52.5272
  9891.294  9891.290  0.500  1.054846  99.2367  150.862  52.537
  9893.617  9893.610  0.500  1.054759  99.2182  150.853  52.5385
  9895.963  9895.950  0.500  1.054290  99.141  150.738  52.5233
  9898.297  9898.300  0.500  1.053654  99.0855  150.682  52.5369
  9900.691  9900.680  0.500  1.052908  99.0564  150.652  52.5657
  9903.095  9903.070  0.500  1.052222  99.0082  150.608  52.5865
  9905.488  9905.490  0.500  1.051713  98.9754  150.589  52.6065
  9907.933  9907.920  0.500  1.051146  98.9628  150.598  52.6395
  9910.374  9910.370  0.500  1.050388  98.8768  150.5  52.6452
  9912.851  9912.850  0.500  1.049442  98.8385  150.467  52.6835
  9915.351  9915.340  0.500  1.048330  98.7658  150.379  52.7111
  9917.856  9917.850  0.500  1.047084  98.769  150.417  52.7903
  9920.379  9920.370  0.500  1.045858  98.6974  150.35  52.8316
  9922.933  9922.920  0.500  1.044634  98.6318  150.291  52.8755
  9925.493  9925.490  0.500  1.043627  98.6253  150.301  52.9324
  9928.080  9928.070  0.500  1.042805  98.5068  150.138  52.9183
  9930.699  9930.680  0.500  1.042168  98.3865  149.968  52.8922
  9933.297  9933.300  0.500  1.041768  95.5064  145.614  51.3769
  9935.956  9935.950  0.500  1.041374  98.4473  150.126  52.9899
  9938.626  9938.610  0.500  1.040941  98.4077  150.1  53.0036
  9941.301  9941.290  0.500  1.040488  98.3547  150.043  53.0077
  9944.016  9943.990  0.500  1.039953  98.2783  149.966  53.0087
  9946.720  9946.710  0.500  1.039360  98.2509  149.948  53.0337
  9949.459  9949.450  0.500  1.038558  98.1538  149.839  53.0376
  9952.209  9952.200  0.500  1.037791  97.9256  149.521  52.9658
  9954.990  9954.980  0.500  1.037103  96.384  147.214  52.1844
  9957.786  9957.770  0.500  1.036395  97.9721  149.666  53.0912
  9960.600  9960.590  0.500  1.035575  97.9431  149.663  53.1338
  9963.425  9963.420  0.500  1.034742  97.8528  149.56  53.1412
  9966.277  9966.270  0.500  1.033836  97.7095  149.374  53.1235
  9969.165  9969.150  0.500  1.032972  94.8006  144.942  51.5918
  9972.059  9972.040  0.500  1.032128  97.9008  149.726  53.3397
  9974.968  9974.950  0.500  1.031400  97.7828  149.578  53.3257
  9977.896  9977.870  0.500  1.030878  97.6966  149.456  53.3101
  9980.838  9980.820  0.500  1.030389  97.5974  149.348  53.2976
  9983.804  9983.790  0.500  1.030080  95.7671  146.574  52.3237
  9986.780  9986.770  0.500  1.029680  97.2906  148.947  53.192
  9989.797  9989.780  0.500  1.029188  97.4447  149.212  53.313
  9992.807  9992.800  0.500  1.028705  97.3533  149.114  53.3038
  9995.871  9995.850  0.500  1.028153  97.252  148.995  53.2904
  9998.906  9998.910  0.500  1.027529  95.583  146.465  52.4185
  10002.009  10001.990  0.500  1.026749  97.34  149.187  53.4341
  10005.091  10005.090  0.500  1.025984  97.265  149.107  53.4463
  10008.241  10008.210  0.500  1.025207  97.1915  149.035  53.462
  10011.353  10011.350  0.500  1.024346  97.0818  148.901  53.4602
  10014.520  10014.500  0.500  1.023480  95.6037  146.669  52.7043
  10017.688  10017.680  0.500  1.022451  96.8564  148.621  53.4609
  10020.881  10020.870  0.500  1.021469  96.9262  148.758  53.5627
  10024.101  10024.090  0.500  1.020417  96.8538  148.695  53.5962
  10027.337  10027.320  0.500  1.019442  96.7954  148.641  53.6289
  10030.583  10030.570  0.500  1.018407  96.7515  148.59  53.6663
  10033.862  10033.850  0.500  1.017429  96.5655  148.337  53.6273
  10037.152  10037.140  0.500  1.016565  94.4626  145.134  52.5146
  10040.458  10040.450  0.500  1.015587  96.6056  148.459  53.7702
  10043.787  10043.770  0.500  1.014803  96.5538  148.432  53.8028
  10047.132  10047.120  0.500  1.014005  96.4706  148.345  53.8142
  10050.509  10050.490  0.500  1.013380  96.399  148.275  53.8224
  10053.868  10053.870  0.500  1.012702  96.3466  148.225  53.8405
  10057.307  10057.280  0.500  1.011913  96.2669  148.148  53.8552
  10060.709  10060.700  0.500  1.011177  96.2021  148.074  53.8681
  10064.153  10064.150  0.500  1.010361  96.15  148.033  53.8969
  10067.617  10067.610  0.500  1.009502  96.1142  148.012  53.9357
  10071.118  10071.090  0.500  1.008698  96.0086  147.883  53.9319
  10074.587  10074.590  0.500  1.007744  95.9361  147.804  53.9548
  10078.128  10078.110  0.500  1.006908  95.8892  147.785  53.9927
  10081.650  10081.650  0.500  1.006087  95.831  147.719  54.0131
  10085.219  10085.200  0.500  1.005336  95.7396  147.609  54.0132
  10088.794  10088.780  0.500  1.004568  94.0267  145.009  53.1028
  10092.399  10092.380  0.500  1.003822  95.4415  147.243  53.9609
  10096.006  10095.990  0.500  1.003039  95.4874  147.346  54.0412
  10099.647  10099.620  0.500  1.002243  95.4379  147.311  54.0712
  10103.291  10103.280  0.500  1.001314  95.3799  147.247  54.098
  10106.985  10106.950  0.500  1.000499  95.337  147.218  54.1315
  10110.652  10110.640  0.500  0.999523  95.2625  147.126  54.1507
  10114.379  10114.350  0.500  0.998617  95.1687  147.024  54.1621
  10118.099  10118.080  0.500  0.997790  95.1139  146.976  54.1891
  10121.845  10121.820  0.500  0.996913  95.0481  146.928  54.2188
  10125.607  10125.590  0.500  0.996069  94.9706  146.846  54.2343
  10129.394  10129.380  0.500  0.995215  94.8644  146.703  54.228
  10133.197  10133.180  0.500  0.994277  94.8083  146.661  54.2634
  10137.034  10137.010  0.500  0.993369  94.7268  146.583  54.2838
  10140.875  10140.850  0.500  0.992391  94.6637  146.533  54.3183
  10144.727  10144.710  0.500  0.991408  94.6069  146.477  54.3511
  10148.604  10148.590  0.500  0.990336  94.5304  146.403  54.3817
  10152.520  10152.490  0.500  0.989387  94.4645  146.334  54.4078
  10156.435  10156.410  0.500  0.988315  94.3781  146.247  54.4335
  10160.366  10160.350  0.500  0.987359  94.3151  146.189  54.4642
  10164.349  10164.310  0.500  0.986315  94.2336  146.105  54.4897
  10168.291  10168.280  0.500  0.985286  94.1369  145.979  54.4986
  10172.294  10172.280  0.500  0.984345  94.0882  145.933  54.5327
  10176.310  10176.290  0.500  0.983400  94.0084  145.875  54.5626
  10180.355  10180.330  0.500  0.982555  93.9377  145.801  54.581
  10184.395  10184.380  0.500  0.981628  93.8457  145.694  54.5918
  10188.479  10188.450  0.500  0.980638  93.7608  145.613  54.6153
  10192.557  10192.540  0.500  0.979751  93.6777  145.529  54.6324
  10196.665  10196.650  0.500  0.978837  93.5505  145.365  54.6208
  10200.795  10200.780  0.500  0.978151  93.5223  145.369  54.6596
  10204.955  10204.930  0.500  0.977205  93.4457  145.28  54.6779
  10209.105  10209.090  0.500  0.976454  93.3594  145.189  54.6847
  10213.304  10213.280  0.500  0.975539  93.2812  145.114  54.7062
  10217.510  10217.480  0.500  0.974649  93.2058  145.035  54.7251
  10221.743  10221.710  0.500  0.973662  93.1346  144.96  54.7511
  10225.989  10225.950  0.500  0.972619  92.9943  144.774  54.7377
  10230.238  10230.210  0.500  0.971559  92.9569  144.768  54.7935
  10234.527  10234.490  0.500  0.970444  92.87  144.66  54.8138
  10238.829  10238.790  0.500  0.969418  92.6165  144.313  54.7385
  10243.143  10243.110  0.500  0.968395  92.7598  144.595  54.9014
  10247.480  10247.450  0.500  0.967257  92.6492  144.453  54.9103
  10251.847  10251.810  0.500  0.966205  92.5597  144.358  54.9317
  10256.223  10256.190  0.500  0.965242  92.4742  144.269  54.9506
  10260.612  10260.580  0.500  0.964203  92.3938  144.187  54.9768
  10265.036  10265.000  0.500  0.963173  92.304  144.09  54.9961
  10269.455  10269.430  0.500  0.962192  92.2109  143.987  55.0108
  10273.915  10273.880  0.500  0.961221  92.1328  143.905  55.033
  10278.370  10278.350  0.500  0.960235  91.879  143.558  54.9545
  10282.874  10282.840  0.500  0.959238  91.9714  143.73  55.0753
  10287.373  10287.350  0.500  0.958394  91.9019  143.675  55.1007
  10291.908  10291.880  0.500  0.957466  91.8096  143.568  55.1108
  10296.466  10296.430  0.500  0.956543  91.6998  143.442  55.1132
  10301.028  10301.000  0.500  0.955593  91.6057  143.334  55.1241
  10305.612  10305.580  0.500  0.954555  91.5231  143.238  55.1443
  10310.214  10310.190  0.500  0.953397  91.4341  143.126  55.1651
  10314.835  10314.810  0.500  0.952346  91.3448  143.044  55.1912
  10319.501  10319.460  0.500  0.951062  91.2361  142.932  55.219
  10324.148  10324.120  0.500  0.949919  91.0861  142.728  55.2034
  10328.827  10328.800  0.500  0.948775  91.0729  142.756  55.2773
  10333.511  10333.500  0.500  0.947687  90.9729  142.644  55.2941
  10338.268  10338.220  0.500  0.946568  90.8799  142.535  55.3135
  10342.974  10342.960  0.500  0.945667  90.7915  142.421  55.3191
  10347.736  10347.710  0.500  0.944612  90.7012  142.315  55.3365
  10352.511  10352.490  0.500  0.943720  90.609  142.237  55.3556
  10357.301  10357.290  0.500  0.942737  90.5276  142.153  55.3772
  10362.136  10362.100  0.500  0.941704  90.4254  142.041  55.3906
  10366.953  10366.930  0.500  0.940693  90.32  141.928  55.4027
  10371.816  10371.790  0.500  0.939605  90.4652  142.197  55.5681
  10376.694  10376.660  0.500  0.938667  90.3962  142.131  55.5946
  10381.571  10381.550  0.500  0.937699  90.2981  142.029  55.6081
  10386.476  10386.460  0.500  0.936603  90.2046  141.921  55.6269
  10391.429  10391.390  0.500  0.935431  90.1107  141.801  55.6452
  10396.358  10396.330  0.500  0.934301  90.0119  141.67  55.6566
  10401.329  10401.300  0.500  0.933239  89.9127  141.564  55.6738
  10406.310  10406.290  0.500  0.932044  89.8283  141.483  55.7085
  10411.305  10411.290  0.500  0.930843  89.7348  141.386  55.7376
  10416.352  10416.320  0.500  0.929624  89.6431  141.277  55.7623
  10421.380  10421.360  0.500  0.928378  89.5524  141.171  55.7899
  10426.451  10426.420  0.500  0.927365  89.4411  141.044  55.7962
  10431.527  10431.500  0.500  0.926266  89.3476  140.947  55.8192
  10436.622  10436.600  0.500  0.925198  89.2286  140.814  55.8261
  10441.760  10441.720  0.500  0.924148  89.1272  140.691  55.8361
  10446.889  10446.860  0.500  0.923086  89.0343  140.594  55.8565
  10452.052  10452.020  0.500  0.921961  88.929  140.474  55.8718
  10457.239  10457.200  0.500  0.921027  88.8385  140.364  55.8802
  10462.412  10462.390  0.500  0.919993  88.732  140.24  55.8886
  10467.647  10467.610  0.500  0.918878  88.6275  140.123  55.9044
  10472.864  10472.840  0.500  0.917893  88.5255  140.003  55.9115
  10478.110  10478.090  0.500  0.916871  88.4173  139.889  55.9231
  10483.399  10483.360  0.500  0.915751  88.3101  139.762  55.935
  10488.675  10488.650  0.500  0.914586  88.2059  139.647  55.9541
  10493.985  10493.960  0.500  0.913387  88.0991  139.518  55.9695
  10499.329  10499.290  0.500  0.912211  87.9967  139.407  55.9908
  10504.673  10504.640  0.500  0.910960  87.891  139.282  56.0104
  10510.033  10510.010  0.500  0.909724  87.7901  139.162  56.0317
  10515.432  10515.390  0.500  0.908525  87.6732  139.021  56.0418
  10520.822  10520.800  0.500  0.907393  87.5658  138.907  56.0594
  10526.252  10526.220  0.500  0.906289  87.2251  138.41  55.9206
  10531.701  10531.670  0.500  0.905179  87.3671  138.679  56.0914
  10537.147  10537.130  0.500  0.904044  87.2538  138.536  56.0973
  10542.647  10542.610  0.500  0.902892  87.1434  138.412  56.1118
  10548.147  10548.110  0.500  0.901745  87.036  138.283  56.1235
  10553.649  10553.630  0.500  0.900673  86.9296  138.155  56.1317
  10559.200  10559.170  0.500  0.899572  86.7387  137.9  56.0898
  10564.752  10564.720  0.500  0.898488  86.7051  137.892  56.1473
  10570.325  10570.300  0.500  0.897367  86.5915  137.755  56.1546
  10575.932  10575.900  0.500  0.896279  86.4765  137.624  56.1624
  10581.541  10581.510  0.500  0.895220  86.3599  137.484  56.1647
  10587.180  10587.150  0.500  0.894020  86.1215  137.145  56.0935
  10592.831  10592.800  0.500  0.892823  86.155  137.234  56.197
  10598.497  10598.470  0.500  0.891646  85.9455  136.95  56.1468
  10604.179  10604.160  0.500  0.890466  85.8988  136.925  56.2028