File: xdidata/Er/Er-L1-Er2O3.xdi
# XDI/1.0 BlueSky/1.10.0 BMM/2023-1.0-py310-tiled
# Beamline.name: BMM (06BM) -- Beamline for Materials Measurement (NIST)
# Beamline.xray_source: NSLS-II three-pole wiggler
# Beamline.collimation: paraboloid mirror, 5 nm Rh on 30 nm Pt
# Beamline.focusing: not in use
# Beamline.harmonic_rejection: flat mirror, Pt stripe, pitch = 7.0 mrad relative to beam
# Beamline.software: Bluesky 1.10.0, Ophyd 1.7.0, DataBroker 2.0.0b13, Python 3.10.8, 2023-1.0-py310-tiled
# Detector.I0: 10 cm N2
# Detector.I1: 25 cm N2
# Detector.I2: 25 cm N2
# Element.symbol: Er
# Element.edge: L1
# Element.reference: Er
# Element.reference_material: Er2O3
# Facility.name: NSLS-II
# Facility.energy: 3.0
# Facility.current: 400.0
# Facility.mode: top-off
# Facility.GUP: 123456
# Facility.SAF: 301027
# Facility.cycle: 2023-2
# Mono.name: Si(111)
# Mono.d_spacing: 3.13519
# Mono.encoder_resolution: 0.0000050 deg/ct
# Mono.angle_offset: 16.0754 deg
# Mono.scan_mode: pseudo channel cut
# Mono.scan_type: step
# Mono.direction: forward in energy
# Sample.name: Er2O3
# Sample.prep: Powder in PEG pellet
# Sample.x: 123.848 mm
# Sample.y: 114.690 mm
# Sample.SDD_position: 205.000 mm
# Scan.experimenters: Bruce Ravel
# Scan.edge_energy: 9751.3
# Scan.start_time: 2023-05-08T22:39:03
# Scan.end_time: 2023-05-08T22:44:48
# Scan.transient_id: 75685
# Scan.uid: 9cdaaa9b-47cd-4f23-8ab9-6170527e014b
# Scan.plot_hint: ln(I0/It)  --  ln($5/$6)
# Column.1: energy eV
# Column.2: requested_energy eV
# Column.3: measurement_time seconds
# Column.4: xmu
# Column.5: I0 nA
# Column.6: It nA
# Column.7: Ir nA
# ///////////
# sample courtesy Martin Stennett, University of Sheffield
# -----------
# energy  requested_energy  measurement_time  xmu  I0  It  Ir
  9551.344  9551.300  0.500  1.727074  104.748  18.6246  7.212859
  9561.404  9561.300  0.500  1.718976  104.561  18.7426  7.280730
  9571.398  9571.300  0.500  1.714217  104.369  18.7973  7.315535
  9581.358  9581.300  0.500  1.710631  104.17  18.829  7.341965
  9591.331  9591.300  0.500  1.704927  103.989  18.9037  7.388346
  9601.353  9601.300  0.500  1.698311  103.803  18.9951  7.443531
  9611.325  9611.300  0.500  1.693090  103.602  19.0575  7.485523
  9621.358  9621.300  0.500  1.688471  103.397  19.108  7.518473
  9631.340  9631.300  0.500  1.682562  103.205  19.1855  7.568520
  9641.296  9641.300  0.500  1.677537  103.007  19.2452  7.608556
  9651.316  9651.300  0.500  1.673942  102.659  19.2492  7.622236
  9661.314  9661.300  0.500  1.669553  102.479  19.3  7.655988
  9671.313  9671.300  0.500  1.664477  102.256  19.356  7.693697
  9681.312  9681.300  0.500  1.658828  102.06  19.4283  7.741071
  9691.321  9691.300  0.500  1.653108  101.859  19.5013  7.788486
  9701.314  9701.300  0.500  1.647587  101.67  19.5728  7.836194
  9711.312  9711.300  0.500  1.642146  101.427  19.6325  7.877551
  9721.326  9721.300  0.500  1.638694  101.29  19.6738  7.904986
  9723.287  9723.300  0.500  1.638167  101.246  19.6757  7.908054
  9725.273  9725.300  0.500  1.637829  101.202  19.6737  7.907681
  9727.276  9727.300  0.500  1.637498  101.144  19.6691  7.909727
  9729.276  9729.300  0.500  1.637112  101.118  19.6717  7.911199
  9731.276  9731.300  0.500  1.636857  101.075  19.6683  7.911675
  9733.266  9733.300  0.500  1.636865  101.024  19.6582  7.909090
  9735.276  9735.300  0.500  1.636597  100.99  19.6568  7.910009
  9737.279  9737.300  0.500  1.636361  100.945  19.6526  7.908166
  9739.275  9739.300  0.500  1.636358  100.918  19.6476  7.907369
  9741.276  9741.300  0.500  1.636694  100.882  19.6338  7.901811
  9741.760  9741.800  0.500  1.636532  100.865  19.6339  7.901945
  9742.269  9742.300  0.500  1.636641  100.824  19.6237  7.897459
  9742.769  9742.800  0.500  1.636774  100.833  19.6228  7.897834
  9743.269  9743.300  0.500  1.636820  100.832  19.6218  7.895941
  9743.774  9743.800  0.500  1.637101  100.814  19.6126  7.891593
  9744.271  9744.300  0.500  1.637349  100.808  19.6066  7.888389
  9744.779  9744.800  0.500  1.637878  100.791  19.5931  7.884096
  9745.276  9745.300  0.500  1.638191  100.782  19.5852  7.879039
  9745.777  9745.800  0.500  1.638552  100.766  19.5749  7.874672
  9746.278  9746.300  0.500  1.638928  100.753  19.565  7.868618
  9746.774  9746.800  0.500  1.639399  100.733  19.552  7.863427
  9747.271  9747.300  0.500  1.640045  100.733  19.5393  7.855603
  9747.780  9747.800  0.500  1.640576  100.73  19.5283  7.850183
  9748.273  9748.300  0.500  1.641485  100.704  19.5055  7.838654
  9748.774  9748.800  0.500  1.642510  100.707  19.4862  7.828070
  9749.275  9749.300  0.500  1.643698  100.688  19.4595  7.814573
  9749.776  9749.800  0.500  1.645534  100.673  19.4207  7.795757
  9750.286  9750.300  0.500  1.647406  100.667  19.3833  7.774864
  9750.787  9750.800  0.500  1.649932  100.657  19.3324  7.748267
  9751.284  9751.300  0.500  1.652841  100.647  19.2743  7.718336
  9751.782  9751.800  0.500  1.656366  100.627  19.2028  7.679249
  9752.291  9752.300  0.500  1.660209  100.621  19.1279  7.637983
  9752.797  9752.800  0.500  1.664752  100.606  19.0385  7.591284
  9753.290  9753.300  0.500  1.669376  100.566  18.9431  7.543477
  9753.800  9753.800  0.500  1.673901  100.578  18.8598  7.498060
  9754.277  9754.300  0.500  1.678000  100.578  18.7827  7.456078
  9754.779  9754.800  0.500  1.682033  100.562  18.7041  7.414155
  9755.284  9755.300  0.500  1.686000  100.559  18.6295  7.374911
  9755.782  9755.800  0.500  1.689985  100.537  18.5513  7.335279
  9756.296  9756.300  0.500  1.694333  100.543  18.4719  7.292895
  9756.794  9756.800  0.500  1.698681  100.521  18.3877  7.250081
  9757.288  9757.300  0.500  1.703022  100.509  18.3059  7.206759
  9757.794  9757.800  0.500  1.707385  100.493  18.2234  7.163893
  9758.300  9758.300  0.500  1.711784  100.491  18.143  7.120835
  9758.794  9758.800  0.500  1.716177  100.472  18.06  7.078547
  9759.296  9759.300  0.500  1.720778  100.459  17.9749  7.033683
  9759.798  9759.800  0.500  1.725547  100.447  17.8871  6.987413
  9760.292  9760.300  0.500  1.730506  100.441  17.7977  6.941059
  9760.795  9760.800  0.500  1.735935  100.429  17.6991  6.888967
  9761.293  9761.300  0.500  1.741882  100.414  17.5916  6.835361
  9761.791  9761.800  0.500  1.748241  100.403  17.4781  6.775054
  9762.290  9762.300  0.500  1.755255  100.392  17.3541  6.711587
  9762.800  9762.800  0.500  1.762769  100.38  17.2221  6.645318
  9763.303  9763.300  0.500  1.770284  100.368  17.0911  6.577173
  9763.797  9763.800  0.500  1.778096  100.359  16.9567  6.508126
  9764.308  9764.300  0.500  1.785997  100.348  16.8213  6.439337
  9764.807  9764.800  0.500  1.793225  100.332  16.6976  6.375532
  9765.306  9765.300  0.500  1.799815  100.308  16.5839  6.319212
  9765.800  9765.800  0.500  1.804958  100.305  16.4983  6.275371
  9766.295  9766.300  0.500  1.808748  100.699  16.5004  6.266664
  9766.790  9766.800  0.500  1.810836  100.704  16.4669  6.251405
  9767.289  9767.300  0.500  1.811597  100.69  16.452  6.243317
  9767.792  9767.800  0.500  1.811219  100.679  16.4564  6.245915
  9768.291  9768.300  0.500  1.810143  100.662  16.4714  6.254019
  9768.806  9768.800  0.500  1.808545  100.631  16.4927  6.265798
  9769.301  9769.300  0.500  1.806807  100.63  16.5212  6.280775
  9769.804  9769.800  0.500  1.805187  100.609  16.5445  6.293140
  9770.304  9770.300  0.500  1.803638  100.581  16.5656  6.303648
  9770.807  9770.800  0.500  1.803009  100.546  16.5703  6.306684
  9771.298  9771.300  0.500  1.802605  100.514  16.5716  6.307463
  9771.797  9771.800  0.500  1.802865  100.488  16.5631  6.306332
  9772.305  9772.300  0.500  1.803148  100.424  16.5478  6.298123
  9772.800  9772.800  0.500  1.803740  100.21  16.5028  6.279596
  9773.300  9773.300  0.500  1.804317  99.4155  16.3625  6.225901
  9773.795  9773.800  0.500  1.805378  98.9793  16.2734  6.190333
  9774.295  9774.300  0.500  1.805860  99.4928  16.35  6.217901
  9774.799  9774.800  0.500  1.806145  100.174  16.4572  6.257497
  9775.298  9775.300  0.500  1.806167  100.5  16.5104  6.279586
  9775.802  9775.800  0.500  1.805877  100.542  16.5221  6.284347
  9776.298  9776.300  0.500  1.805468  100.528  16.5265  6.286393
  9777.306  9777.290  0.500  1.803823  100.504  16.5498  6.299258
  9778.306  9778.290  0.500  1.800866  100.475  16.594  6.321719
  9779.315  9779.310  0.500  1.797045  100.436  16.651  6.352279
  9780.373  9780.360  0.500  1.792273  100.4  16.7248  6.392340
  9781.431  9781.420  0.500  1.786458  100.322  16.8092  6.435519
  9782.519  9782.500  0.500  1.780388  100.075  16.8699  6.474278
  9783.620  9783.600  0.500  1.774307  98.7871  16.7544  6.441867
  9784.737  9784.720  0.500  1.768493  100.009  17.0604  6.573965
  9785.867  9785.860  0.500  1.762763  100.364  17.2194  6.647804
  9787.026  9787.010  0.500  1.757518  100.311  17.3009  6.693025
  9788.210  9788.190  0.500  1.752714  100.268  17.3767  6.731979
  9789.399  9789.380  0.500  1.749021  100.216  17.4319  6.763221
  9790.613  9790.600  0.500  1.746170  100.075  17.4572  6.780030
  9791.831  9791.830  0.500  1.744144  98.8696  17.2819  6.717929
  9793.091  9793.080  0.500  1.743130  99.6725  17.4399  6.782478
  9794.368  9794.350  0.500  1.742117  100.206  17.551  6.826657
  9795.654  9795.640  0.500  1.741690  100.162  17.5508  6.827880
  9796.960  9796.950  0.500  1.741828  100.129  17.5426  6.825921
  9798.280  9798.280  0.500  1.741868  100.093  17.5356  6.822418
  9799.645  9799.630  0.500  1.742279  100.033  17.5179  6.814083
  9801.020  9801.000  0.500  1.742935  99.9281  17.488  6.801648
  9802.398  9802.380  0.500  1.743458  98.6085  17.2481  6.706961
  9803.786  9803.790  0.500  1.744499  99.68  17.4173  6.772596
  9805.219  9805.210  0.500  1.745202  99.9972  17.4605  6.787866
  9806.666  9806.650  0.500  1.746264  99.9537  17.4344  6.774717
  9808.125  9808.110  0.500  1.747816  99.9208  17.4016  6.759570
  9809.593  9809.590  0.500  1.749778  99.8923  17.3625  6.740380
  9811.091  9811.090  0.500  1.751925  99.8565  17.3191  6.718214
  9812.619  9812.610  0.500  1.753997  99.8199  17.2769  6.698886
  9814.155  9814.150  0.500  1.755946  99.7849  17.2372  6.676374
  9815.712  9815.710  0.500  1.758488  99.7458  17.1867  6.653843
  9817.287  9817.280  0.500  1.761122  99.7237  17.1377  6.628509
  9818.895  9818.880  0.500  1.763519  99.6848  17.09  6.605371
  9820.496  9820.490  0.500  1.765124  99.1088  16.964  6.552905
  9822.139  9822.130  0.500  1.765968  99.4958  17.0159  6.571475
  9823.795  9823.780  0.500  1.765882  99.5541  17.0273  6.576781
  9825.464  9825.450  0.500  1.765162  99.534  17.0361  6.583772
  9827.146  9827.140  0.500  1.763442  99.424  17.0466  6.591299
  9828.858  9828.850  0.500  1.760868  98.9377  17.007  6.580547
  9830.596  9830.580  0.500  1.757620  99.395  17.1411  6.640319
  9832.330  9832.330  0.500  1.753519  99.3764  17.2084  6.677050
  9834.099  9834.090  0.500  1.749264  99.1631  17.2446  6.701164
  9835.897  9835.880  0.500  1.745112  98.9376  17.277  6.722523
  9837.687  9837.680  0.500  1.741780  99.2359  17.3869  6.775505
  9839.524  9839.510  0.500  1.739314  99.2251  17.428  6.796980
  9841.358  9841.350  0.500  1.737324  99.1666  17.4524  6.811486
  9843.213  9843.210  0.500  1.736093  98.5991  17.3739  6.783010
  9845.107  9845.090  0.500  1.735157  99.0504  17.4698  6.823584
  9846.993  9846.990  0.500  1.734468  99.0585  17.4832  6.832375
  9848.922  9848.910  0.500  1.733973  99.0135  17.4839  6.833078
  9850.864  9850.850  0.500  1.733365  98.9917  17.4907  6.837535
  9852.828  9852.810  0.500  1.732366  98.9445  17.4999  6.844285
  9854.797  9854.780  0.500  1.730817  98.9205  17.5227  6.857788
  9856.796  9856.780  0.500  1.728959  98.8766  17.5475  6.872869
  9858.796  9858.790  0.500  1.726747  98.8357  17.5791  6.889442
  9860.831  9860.820  0.500  1.724711  98.7986  17.6083  6.906042
  9862.900  9862.880  0.500  1.722871  98.7619  17.6342  6.921023
  9864.957  9864.950  0.500  1.720927  98.7177  17.6606  6.936384
  9867.057  9867.040  0.500  1.719435  98.6831  17.6808  6.948849
  9869.158  9869.150  0.500  1.717661  98.6294  17.7025  6.964086
  9871.294  9871.280  0.500  1.716130  98.5974  17.7239  6.976185
  9873.439  9873.420  0.500  1.714757  98.5499  17.7397  6.985403
  9875.598  9875.590  0.500  1.713919  98.5106  17.7475  6.990147
  9877.800  9877.780  0.500  1.713525  98.4457  17.7428  6.990223
  9879.985  9879.980  0.500  1.713396  98.212  17.703  6.975249
  9882.215  9882.200  0.500  1.713736  96.0724  17.3114  6.820909
  9884.466  9884.450  0.500  1.714118  98.1745  17.6834  6.967374
  9886.718  9886.710  0.500  1.715057  98.2182  17.6747  6.961731
  9888.997  9888.990  0.500  1.716208  98.1913  17.6495  6.951178
  9891.302  9891.290  0.500  1.717078  98.1453  17.6259  6.940250
  9893.617  9893.610  0.500  1.716774  98.0832  17.6201  6.938165
  9895.963  9895.950  0.500  1.715714  98.0408  17.6312  6.946617
  9898.301  9898.300  0.500  1.714117  97.9902  17.6503  6.957241
  9900.700  9900.680  0.500  1.712760  97.9389  17.665  6.967641
  9903.066  9903.070  0.500  1.711231  97.8839  17.6821  6.977803
  9905.505  9905.490  0.500  1.710158  97.8447  17.694  6.986368
  9907.928  9907.920  0.500  1.708806  97.7866  17.7074  6.995436
  9910.370  9910.370  0.500  1.706983  97.7388  17.731  7.009093
  9912.864  9912.850  0.500  1.704540  97.6856  17.7647  7.030069
  9915.346  9915.340  0.500  1.701810  97.6279  17.8028  7.052119
  9917.860  9917.850  0.500  1.698530  97.5765  17.8518  7.077917
  9920.383  9920.370  0.500  1.695607  97.5117  17.8922  7.103343
  9922.929  9922.920  0.500  1.692837  97.4497  17.9304  7.125788
  9925.511  9925.490  0.500  1.690286  97.3829  17.9639  7.146852
  9928.068  9928.070  0.500  1.688636  97.292  17.9768  7.156370
  9930.703  9930.680  0.500  1.687802  96.9828  17.9346  7.143032
  9933.305  9933.300  0.500  1.687333  95.9036  17.7433  7.066691
  9935.973  9935.950  0.500  1.686456  97.2572  18.0096  7.177086
  9938.626  9938.610  0.500  1.685643  97.1985  18.0133  7.179993
  9941.297  9941.290  0.500  1.684744  97.124  18.0157  7.185460
  9944.012  9943.990  0.500  1.683659  97.0591  18.0232  7.190657
  9946.724  9946.710  0.500  1.682154  96.9927  18.038  7.200702
  9949.468  9949.450  0.500  1.680644  96.9252  18.0527  7.211754
  9952.218  9952.200  0.500  1.678978  96.1529  17.9387  7.171093
  9954.990  9954.980  0.500  1.677745  96.236  17.9764  7.190311
  9957.790  9957.770  0.500  1.676000  96.6875  18.0923  7.241117
  9960.596  9960.590  0.500  1.674193  96.6424  18.1165  7.256298
  9963.447  9963.420  0.500  1.672117  96.5512  18.137  7.270100
  9966.294  9966.270  0.500  1.670047  96.2931  18.126  7.269957
  9969.170  9969.150  0.500  1.668397  95.0768  17.9266  7.197729
  9972.055  9972.040  0.500  1.666519  96.494  18.228  7.322413
  9974.977  9974.950  0.500  1.665166  96.4398  18.2425  7.332308
  9977.900  9977.870  0.500  1.664146  96.3434  18.2428  7.335249
  9980.825  9980.820  0.500  1.663464  96.2105  18.2301  7.332274
  9983.813  9983.790  0.500  1.662975  91.9816  17.4373  7.015876
  9986.789  9986.770  0.500  1.662366  96.0727  18.224  7.335187
  9989.814  9989.780  0.500  1.661440  96.0608  18.2386  7.343378
  9992.816  9992.800  0.500  1.660602  95.9747  18.2375  7.346540
  9995.871  9995.850  0.500  1.659561  95.8153  18.2262  7.345231
  9998.941  9998.910  0.500  1.658297  93.1156  17.7351  7.151463
  10002.004  10001.990  0.500  1.656624  95.8812  18.2924  7.380830
  10005.126  10005.090  0.500  1.654874  95.8106  18.3109  7.393767
  10008.223  10008.210  0.500  1.653291  95.7387  18.3262  7.404942
  10011.370  10011.350  0.500  1.651274  95.6271  18.3418  7.416849
  10014.520  10014.500  0.500  1.649205  93.3638  17.9448  7.262213
  10017.714  10017.680  0.500  1.646887  95.4061  18.3799  7.444791
  10020.907  10020.870  0.500  1.644457  95.402  18.4238  7.469666
  10024.118  10024.090  0.500  1.642138  95.3423  18.455  7.489383
  10027.354  10027.320  0.500  1.639975  95.2355  18.4743  7.503310
  10030.596  10030.570  0.500  1.637691  95.1735  18.5044  7.522610
  10033.884  10033.850  0.500  1.635721  94.8786  18.4835  7.518548
  10037.157  10037.140  0.500  1.633908  94.604  18.4634  7.516063
  10040.484  10040.450  0.500  1.631762  95.085  18.5972  7.578852
  10043.822  10043.770  0.500  1.629837  94.9942  18.6152  7.590121
  10047.145  10047.120  0.500  1.628498  94.9171  18.625  7.600479
  10050.505  10050.490  0.500  1.627242  94.835  18.6323  7.607119
  10053.898  10053.870  0.500  1.625734  94.7615  18.646  7.616032
  10057.320  10057.280  0.500  1.624258  94.6739  18.6562  7.626856
  10060.731  10060.700  0.500  1.622662  94.5986  18.6712  7.637367
  10064.179  10064.150  0.500  1.620962  94.5248  18.6883  7.649726
  10067.647  10067.610  0.500  1.619180  94.4515  18.7072  7.662294
  10071.122  10071.090  0.500  1.617319  94.3771  18.7273  7.676372
  10074.622  10074.590  0.500  1.615428  94.3022  18.7478  7.690262
  10078.146  10078.110  0.500  1.613619  94.2231  18.766  7.703393
  10081.677  10081.650  0.500  1.611934  94.1457  18.7822  7.715665
  10085.232  10085.200  0.500  1.610381  94.0482  18.7919  7.724672
  10088.803  10088.780  0.500  1.609048  91.6233  18.3318  7.540108
  10092.403  10092.380  0.500  1.607605  93.826  18.7996  7.738435
  10096.020  10095.990  0.500  1.605801  93.7956  18.8275  7.754932
  10099.647  10099.620  0.500  1.604079  93.7344  18.8476  7.768461
  10103.308  10103.280  0.500  1.602345  93.6702  18.8674  7.781510
  10106.972  10106.950  0.500  1.600442  93.5985  18.8889  7.797146
  10110.670  10110.640  0.500  1.598397  93.52  18.9117  7.814343
  10114.379  10114.350  0.500  1.596346  93.4284  18.9319  7.827201
  10118.117  10118.080  0.500  1.594579  93.347  18.9489  7.840605
  10121.845  10121.820  0.500  1.592775  93.2615  18.9657  7.851914
  10125.625  10125.590  0.500  1.591008  93.1855  18.9838  7.866031
  10129.398  10129.380  0.500  1.589097  93.1039  19.0034  7.879834
  10133.202  10133.180  0.500  1.587164  93.0328  19.0257  7.894368
  10137.030  10137.010  0.500  1.585215  92.9342  19.0426  7.909488
  10140.888  10140.850  0.500  1.583267  92.8534  19.0631  7.922989
  10144.731  10144.710  0.500  1.581066  92.7707  19.0881  7.940868
  10148.622  10148.590  0.500  1.578849  92.6912  19.1141  7.957377
  10152.511  10152.490  0.500  1.576608  92.6037  19.1389  7.976266
  10156.435  10156.410  0.500  1.574448  92.5074  19.1603  7.992328
  10160.370  10160.350  0.500  1.572193  92.4414  19.1898  8.012301
  10164.340  10164.310  0.500  1.569907  92.3457  19.2139  8.030299
  10168.300  10168.280  0.500  1.567745  92.2726  19.2402  8.045797
  10172.317  10172.280  0.500  1.565629  92.2318  19.2724  8.067373
  10176.310  10176.290  0.500  1.563650  92.1462  19.2927  8.081415
  10180.369  10180.330  0.500  1.561823  92.275  19.355  8.114868
  10184.400  10184.380  0.500  1.559858  92.2267  19.3829  8.132679
  10188.483  10188.450  0.500  1.557773  92.1368  19.4044  8.148056
  10192.561  10192.540  0.500  1.556118  91.9908  19.4058  8.154698
  10196.683  10196.650  0.500  1.554307  91.981  19.4389  8.174621
  10200.799  10200.780  0.500  1.552682  91.8898  19.4512  8.184961
  10204.950  10204.930  0.500  1.551064  91.7909  19.4617  8.196048
  10209.119  10209.090  0.500  1.549330  91.6827  19.4725  8.206185
  10213.317  10213.280  0.500  1.547543  91.5967  19.4891  8.219242
  10217.501  10217.480  0.500  1.545552  91.5098  19.5094  8.233235
  10221.743  10221.710  0.500  1.543520  91.4172  19.5293  8.250339
  10225.975  10225.950  0.500  1.541338  91.2747  19.5414  8.261848
  10230.238  10230.210  0.500  1.539083  91.2214  19.5741  8.282635
  10234.509  10234.490  0.500  1.536623  91.1267  19.6019  8.302265
  10238.820  10238.790  0.500  1.534377  90.6832  19.5504  8.289399
  10243.139  10243.110  0.500  1.532112  90.9504  19.6525  8.341014
  10247.475  10247.450  0.500  1.529819  90.8517  19.6762  8.358909
  10251.833  10251.810  0.500  1.527396  90.7495  19.7017  8.377358
  10256.214  10256.190  0.500  1.525051  90.6525  19.7269  8.394214
  10260.607  10260.580  0.500  1.522925  90.5722  19.7514  8.412018
  10265.018  10265.000  0.500  1.520797  90.4591  19.7687  8.426076
  10269.460  10269.430  0.500  1.518669  90.3536  19.7877  8.442377
  10273.901  10273.880  0.500  1.516454  90.2311  19.8047  8.456419
  10278.383  10278.350  0.500  1.514408  90.1649  19.8307  8.474638
  10282.860  10282.840  0.500  1.512557  90.0673  19.8459  8.487966
  10287.368  10287.350  0.500  1.510845  89.9703  19.8585  8.501174
  10291.913  10291.880  0.500  1.508981  89.8657  19.8725  8.512749
  10296.466  10296.430  0.500  1.506862  89.773  19.8941  8.528988