File: xdidata/Er/Er-L3-Er2TiO5.xdi
# XDI/1.0 BlueSky/1.10.0 BMM/2023-1.0-py310-tiled
# Beamline.name: BMM (06BM) -- Beamline for Materials Measurement (NIST)
# Beamline.xray_source: NSLS-II three-pole wiggler
# Beamline.collimation: paraboloid mirror, 5 nm Rh on 30 nm Pt
# Beamline.focusing: not in use
# Beamline.harmonic_rejection: flat mirror, Pt stripe, pitch = 7.0 mrad relative to beam
# Beamline.software: Bluesky 1.10.0, Ophyd 1.7.0, DataBroker 2.0.0b13, Python 3.10.8, 2023-1.0-py310-tiled
# Detector.I0: 10 cm N2
# Detector.I1: 25 cm N2
# Detector.I2: 25 cm N2
# Element.symbol: Er
# Element.edge: L3
# Element.reference: Er
# Element.reference_material: Er2O3
# Facility.name: NSLS-II
# Facility.energy: 3.0
# Facility.current: 399.6
# Facility.mode: top-off
# Facility.GUP: 123456
# Facility.SAF: 301027
# Facility.cycle: 2023-2
# Mono.name: Si(111)
# Mono.d_spacing: 3.13519
# Mono.encoder_resolution: 0.0000050 deg/ct
# Mono.angle_offset: 16.0754 deg
# Mono.scan_mode: pseudo channel cut
# Mono.scan_type: step
# Mono.direction: forward in energy
# Sample.name: Er2TiO5
# Sample.prep: Powder in PEG pellet
# Sample.x: 149.848 mm
# Sample.y: 114.690 mm
# Sample.SDD_position: 205.000 mm
# Scan.experimenters: Bruce Ravel
# Scan.edge_energy: 8357.9
# Scan.start_time: 2023-05-08T19:13:01
# Scan.end_time: 2023-05-08T19:18:46
# Scan.transient_id: 75526
# Scan.uid: 0ede0184-1b96-406f-bdd4-a4d4f41646dd
# Scan.plot_hint: ln(I0/It)  --  ln($5/$6)
# Column.1: energy eV
# Column.2: requested_energy eV
# Column.3: measurement_time seconds
# Column.4: xmu
# Column.5: I0 nA
# Column.6: It nA
# Column.7: Ir nA
# ///////////
# sample courtesy Martin Stennett, University of Sheffield
# -----------
# energy  requested_energy  measurement_time  xmu  I0  It  Ir
  8157.906  8157.900  0.500  0.694906  134.952  67.3576  26.8572
  8167.952  8167.900  0.500  0.690117  134.82  67.6147  27.0506
  8177.938  8177.900  0.500  0.685449  134.649  67.8447  27.2291
  8187.955  8187.900  0.500  0.680568  134.512  68.1074  27.421
  8197.928  8197.900  0.500  0.675861  134.365  68.3539  27.6095
  8207.946  8207.900  0.500  0.671539  134.201  68.5661  27.7864
  8217.926  8217.900  0.500  0.666703  134.016  68.8037  27.9705
  8227.925  8227.900  0.500  0.662005  133.871  69.0526  28.1606
  8237.926  8237.900  0.500  0.657294  133.71  69.2954  28.346
  8247.926  8247.900  0.500  0.652757  133.552  69.5282  28.5293
  8257.925  8257.900  0.500  0.648250  133.387  69.7561  28.7142
  8267.928  8267.900  0.500  0.643785  133.217  69.9789  28.8934
  8277.929  8277.900  0.500  0.639487  132.21  69.7489  28.8837
  8287.924  8287.900  0.500  0.635177  132.839  70.3838  29.231
  8297.910  8297.900  0.500  0.631098  132.678  70.5858  29.3927
  8307.919  8307.900  0.500  0.627391  132.496  70.7506  29.5339
  8319.148  8317.900  0.500  0.623723  132.235  70.871  29.644
  8327.880  8327.900  0.500  0.621672  132.119  70.9537  29.6993
  8329.879  8329.900  0.500  0.621633  132.089  70.9406  29.6922
  8331.881  8331.900  0.500  0.621511  132.026  70.9156  29.6731
  8333.882  8333.900  0.500  0.621741  131.869  70.8148  29.6155
  8335.883  8335.900  0.500  0.622169  131.78  70.7367  29.5639
  8337.880  8337.900  0.500  0.622836  131.745  70.6709  29.5065
  8339.877  8339.900  0.500  0.624104  131.678  70.5454  29.4097
  8341.879  8341.900  0.500  0.626004  131.609  70.3743  29.2755
  8343.884  8343.900  0.500  0.628944  131.533  70.1272  29.0776
  8345.882  8345.900  0.500  0.633416  131.479  69.7858  28.8027
  8347.880  8347.900  0.500  0.640494  131.39  69.2469  28.3652
  8348.379  8348.400  0.500  0.643055  131.345  69.0457  28.2097
  8348.876  8348.900  0.500  0.645944  131.306  68.8262  28.0373
  8349.375  8349.400  0.500  0.649413  131.27  68.569  27.8341
  8349.874  8349.900  0.500  0.653236  131.225  68.284  27.6022
  8350.376  8350.400  0.500  0.658266  131.181  67.9188  27.319
  8350.873  8350.900  0.500  0.663944  131.137  67.5114  26.9971
  8351.372  8351.400  0.500  0.669952  131.085  67.0807  26.658
  8351.877  8351.900  0.500  0.676013  131.042  66.6535  26.3173
  8352.377  8352.400  0.500  0.681788  130.996  66.2461  26.0015
  8352.877  8352.900  0.500  0.687341  130.969  65.8659  25.7006
  8353.385  8353.400  0.500  0.693470  130.954  65.456  25.377
  8353.882  8353.900  0.500  0.700624  130.948  64.9863  25.0053
  8354.385  8354.400  0.500  0.709493  130.941  64.4092  24.5471
  8354.882  8354.900  0.500  0.720617  130.932  63.6919  23.9871
  8355.387  8355.400  0.500  0.735036  130.929  62.779  23.2849
  8355.878  8355.900  0.500  0.752815  130.926  61.6712  22.4372
  8356.381  8356.400  0.500  0.775945  130.921  60.2588  21.3785
  8356.878  8356.900  0.500  0.804391  130.911  58.5644  20.1366
  8357.385  8357.400  0.500  0.839954  130.901  56.5138  18.6799
  8357.885  8357.900  0.500  0.881120  130.887  54.2291  17.1142
  8358.385  8358.400  0.500  0.929874  130.882  51.6464  15.4404
  8358.888  8358.900  0.500  0.984468  130.874  48.8995  13.7536
  8359.398  8359.400  0.500  1.041548  130.869  46.1847  12.2009
  8359.892  8359.900  0.500  1.094940  130.867  43.7827  10.9244
  8360.399  8360.400  0.500  1.140331  130.865  41.8394  9.975077
  8360.899  8360.900  0.500  1.175285  130.863  40.4013  9.324287
  8361.394  8361.400  0.500  1.199734  130.862  39.4255  8.897887
  8361.895  8361.900  0.500  1.215474  130.858  38.8084  8.620111
  8362.392  8362.400  0.500  1.223051  131.353  38.6613  8.486878
  8362.893  8362.900  0.500  1.222422  131.337  38.6808  8.444389
  8363.391  8363.400  0.500  1.213492  131.331  39.0259  8.543509
  8363.889  8363.900  0.500  1.196917  131.323  39.6757  8.801404
  8364.393  8364.400  0.500  1.173257  131.315  40.6233  9.228286
  8364.891  8364.900  0.500  1.143284  131.299  41.8541  9.825109
  8365.398  8365.400  0.500  1.108531  131.3  43.3346  10.585
  8365.900  8365.900  0.500  1.072794  131.288  44.9073  11.4299
  8366.398  8366.400  0.500  1.038215  131.284  46.486  12.3137
  8366.890  8366.900  0.500  1.007044  131.272  47.9535  13.1625
  8367.397  8367.400  0.500  0.979227  131.262  49.3022  13.9694
  8367.890  8367.900  0.500  0.955930  131.257  50.4623  14.6835
  8368.391  8368.400  0.500  0.935652  131.252  51.4943  15.3314
  8368.887  8368.900  0.500  0.919379  131.245  52.336  15.8634
  8369.395  8369.400  0.500  0.905728  131.231  53.0499  16.3218
  8369.893  8369.900  0.500  0.894799  131.218  53.6276  16.6893
  8370.404  8370.400  0.500  0.885342  131.219  54.1376  17.0165
  8370.903  8370.900  0.500  0.876990  131.204  54.5853  17.3009
  8371.408  8371.400  0.500  0.869903  131.202  54.9725  17.5551
  8371.907  8371.900  0.500  0.863546  131.184  55.3156  17.7772
  8372.406  8372.400  0.500  0.858246  131.175  55.6059  17.9641
  8372.899  8372.900  0.500  0.854124  131.163  55.8304  18.1131
  8373.401  8373.400  0.500  0.850835  131.153  56.0098  18.2385
  8373.897  8373.900  0.500  0.848463  131.144  56.1392  18.3352
  8374.393  8374.400  0.500  0.846868  131.142  56.228  18.4086
  8374.896  8374.900  0.500  0.845673  131.124  56.2875  18.4562
  8375.395  8375.400  0.500  0.844940  131.117  56.3255  18.4846
  8375.894  8375.900  0.500  0.844936  131.109  56.3222  18.4859
  8376.403  8376.400  0.500  0.845262  131.101  56.3008  18.4697
  8376.902  8376.900  0.500  0.845908  131.091  56.26  18.435
  8377.402  8377.400  0.500  0.846754  131.089  56.2117  18.3923
  8377.905  8377.900  0.500  0.847920  131.076  56.1404  18.3366
  8378.398  8378.400  0.500  0.849055  131.074  56.0757  18.2891
  8378.904  8378.900  0.500  0.850366  131.062  55.9975  18.2425
  8379.401  8379.400  0.500  0.851307  131.049  55.9393  18.2104
  8379.898  8379.900  0.500  0.852526  131.03  55.8627  18.18
  8380.392  8380.400  0.500  0.853241  131.021  55.819  18.1691
  8380.895  8380.900  0.500  0.853784  131.009  55.7836  18.1675
  8381.395  8381.400  0.500  0.854188  130.995  55.7551  18.1796
  8381.901  8381.900  0.500  0.854192  130.981  55.7489  18.2028
  8382.404  8382.400  0.500  0.854151  130.962  55.7433  18.231
  8382.896  8382.900  0.500  0.853810  130.951  55.7576  18.2694
  8383.890  8383.890  0.500  0.852723  130.909  55.8002  18.3521
  8384.891  8384.890  0.500  0.851783  130.886  55.843  18.4152
  8385.923  8385.910  0.500  0.851653  130.845  55.8327  18.4249
  8386.972  8386.960  0.500  0.853018  130.81  55.7418  18.3611
  8388.029  8388.020  0.500  0.855922  130.769  55.5627  18.2285
  8389.100  8389.100  0.500  0.859849  130.735  55.3306  18.0522
  8390.208  8390.200  0.500  0.864576  130.707  55.0575  17.8495
  8391.331  8391.320  0.500  0.869341  130.677  54.7836  17.6414
  8392.470  8392.460  0.500  0.874315  130.658  54.5036  17.4255
  8393.618  8393.610  0.500  0.879362  130.631  54.218  17.1922
  8394.794  8394.790  0.500  0.884680  130.605  53.9198  16.9488
  8395.994  8395.980  0.500  0.890059  130.579  53.6198  16.7018
  8397.213  8397.200  0.500  0.894817  130.545  53.3514  16.4952
  8398.435  8398.430  0.500  0.898047  130.515  53.1671  16.3645
  8399.688  8399.680  0.500  0.899357  130.484  53.085  16.3224
  8400.965  8400.950  0.500  0.898263  130.456  53.1316  16.377
  8402.252  8402.240  0.500  0.894705  130.427  53.3092  16.5167
  8403.557  8403.550  0.500  0.889381  130.4  53.5829  16.7062
  8404.881  8404.880  0.500  0.882706  130.373  53.9302  16.9335
  8406.242  8406.230  0.500  0.876178  130.35  54.2739  17.1562
  8407.603  8407.600  0.500  0.870051  130.331  54.5996  17.36
  8408.983  8408.980  0.500  0.864911  130.3  54.8679  17.5281
  8410.400  8410.390  0.500  0.860177  130.266  55.1141  17.6735
  8411.820  8411.810  0.500  0.856354  130.234  55.3115  17.7991
  8413.250  8413.250  0.500  0.853147  130.201  55.4748  17.9089
  8414.723  8414.710  0.500  0.850635  130.166  55.5997  18.009
  8416.203  8416.190  0.500  0.848858  130.137  55.6861  18.0865
  8417.692  8417.690  0.500  0.847582  130.099  55.7411  18.149
  8419.221  8419.210  0.500  0.846883  130.072  55.7681  18.1918
  8420.757  8420.750  0.500  0.846518  130.04  55.7747  18.2244
  8422.321  8422.310  0.500  0.846382  130.007  55.7683  18.2509
  8423.882  8423.880  0.500  0.846583  129.975  55.7435  18.2666
  8425.496  8425.480  0.500  0.847064  129.942  55.7024  18.2708
  8427.098  8427.090  0.500  0.847508  129.913  55.6655  18.2679
  8428.738  8428.730  0.500  0.847936  129.874  55.6248  18.2564
  8430.393  8430.380  0.500  0.848219  129.844  55.5963  18.238
  8432.061  8432.050  0.500  0.848278  129.802  55.5747  18.2114
  8433.743  8433.740  0.500  0.848552  129.762  55.5428  18.1697
  8435.458  8435.450  0.500  0.848961  129.722  55.5028  18.117
  8437.192  8437.180  0.500  0.849266  129.691  55.4725  18.0616
  8438.934  8438.930  0.500  0.849278  129.647  55.4532  18.0117
  8440.700  8440.690  0.500  0.849252  129.616  55.4413  17.9693
  8442.495  8442.480  0.500  0.849354  129.582  55.4211  17.9298
  8444.297  8444.280  0.500  0.849446  129.532  55.3948  17.898
  8446.127  8446.110  0.500  0.849490  129.494  55.3761  17.8801
  8447.961  8447.950  0.500  0.849332  129.444  55.3633  17.8729
  8449.823  8449.810  0.500  0.849515  129.403  55.3356  17.8707
  8451.701  8451.690  0.500  0.849527  129.36  55.3164  17.8783
  8453.602  8453.590  0.500  0.849414  129.32  55.3058  17.8877
  8455.534  8455.510  0.500  0.849347  129.272  55.2889  17.8952
  8457.455  8457.450  0.500  0.848961  129.228  55.2913  17.9033
  8459.420  8459.410  0.500  0.848423  129.179  55.3004  17.9128
  8461.392  8461.380  0.500  0.847705  129.128  55.3178  17.9313
  8463.399  8463.380  0.500  0.846841  129.083  55.3465  17.9548
  8465.400  8465.390  0.500  0.845768  129.039  55.3872  17.9862
  8467.434  8467.420  0.500  0.844399  128.989  55.4413  18.0168
  8469.502  8469.480  0.500  0.843236  128.945  55.4871  18.0466
  8471.559  8471.550  0.500  0.841867  128.893  55.5409  18.0771
  8473.663  8473.640  0.500  0.840178  128.836  55.6099  18.1094
  8475.762  8475.750  0.500  0.838334  128.787  55.6913  18.1472
  8477.899  8477.880  0.500  0.836086  128.733  55.7932  18.1969
  8480.034  8480.020  0.500  0.834098  128.688  55.8848  18.254
  8482.204  8482.190  0.500  0.831789  128.639  55.9925  18.3323
  8484.394  8484.380  0.500  0.830022  128.589  56.0701  18.4099
  8486.591  8486.580  0.500  0.828125  128.54  56.1549  18.4923
  8488.818  8488.800  0.500  0.826418  128.48  56.2248  18.5713
  8491.060  8491.050  0.500  0.825249  128.428  56.2675  18.6425
  8493.326  8493.310  0.500  0.824187  128.369  56.3016  18.7018
  8495.599  8495.590  0.500  0.823625  128.323  56.3129  18.7292
  8497.911  8497.890  0.500  0.823108  128.268  56.318  18.7331
  8500.224  8500.210  0.500  0.822562  128.215  56.3254  18.7215
  8502.566  8502.550  0.500  0.822335  128.155  56.312  18.6984
  8504.913  8504.900  0.500  0.822288  128.101  56.291  18.675
  8507.298  8507.280  0.500  0.822209  128.047  56.2717  18.6586
  8509.694  8509.670  0.500  0.822212  127.989  56.2458  18.6436
  8512.104  8512.090  0.500  0.822153  127.923  56.2203  18.6261
  8514.528  8514.520  0.500  0.822048  127.854  56.1956  18.6071
  8516.974  8516.970  0.500  0.821673  127.787  56.1873  18.5817
  8519.457  8519.450  0.500  0.821206  127.711  56.1802  18.5504
  8521.947  8521.940  0.500  0.820296  127.617  56.1898  18.5312
  8524.458  8524.450  0.500  0.818954  127.481  56.2053  18.5213
  8526.976  8526.970  0.500  0.817779  127.162  56.1305  18.4995
  8529.533  8529.520  0.500  0.816235  122.808  54.2926  17.9191
  8532.095  8532.090  0.500  0.814486  122.07  54.0606  17.882
  8534.684  8534.670  0.500  0.812997  127.065  56.3566  18.7002
  8537.293  8537.280  0.500  0.811853  127.234  56.4965  18.8031
  8539.904  8539.900  0.500  0.810343  127.21  56.571  18.8729
  8542.566  8542.550  0.500  0.809040  127.163  56.6237  18.9246
  8545.211  8545.210  0.500  0.808049  127.106  56.6546  18.9608
  8547.899  8547.890  0.500  0.807285  127.042  56.6693  18.9788
  8550.598  8550.590  0.500  0.806434  126.981  56.6905  18.9909
  8553.321  8553.310  0.500  0.805382  126.92  56.7227  19.0023
  8556.061  8556.050  0.500  0.804454  126.847  56.7426  19.0133
  8558.812  8558.800  0.500  0.803514  126.774  56.7633  19.023
  8561.591  8561.580  0.500  0.802648  126.702  56.7802  19.0336
  8564.371  8564.370  0.500  0.801554  126.62  56.8058  19.0441
  8567.204  8567.190  0.500  0.800450  126.544  56.8341  19.0588
  8570.025  8570.020  0.500  0.799104  126.466  56.8758  19.0811
  8572.878  8572.870  0.500  0.797666  126.38  56.9187  19.1145
  8575.760  8575.750  0.500  0.796277  126.297  56.9604  19.1579
  8578.651  8578.640  0.500  0.794988  126.195  56.9878  19.2064
  8581.566  8581.550  0.500  0.793394  126.086  57.0296  19.2598
  8584.477  8584.470  0.500  0.792134  125.962  57.0452  19.3009
  8587.440  8587.420  0.500  0.790826  125.742  57.0205  19.3224
  8590.390  8590.390  0.500  0.789571  124.906  56.7124  19.2457
  8593.389  8593.370  0.500  0.788096  110.344  50.1746  17.0394
  8596.394  8596.380  0.500  0.786739  125.211  57.0117  19.3738
  8599.417  8599.400  0.500  0.785635  125.452  57.1847  19.4383
  8602.457  8602.450  0.500  0.784661  125.35  57.194  19.4458
  8605.529  8605.510  0.500  0.783676  125.165  57.1656  19.437
  8608.606  8608.590  0.500  0.782726  124.871  57.0857  19.4132
  8611.708  8611.690  0.500  0.781886  124.303  56.8738  19.3479
  8614.834  8614.810  0.500  0.780903  122.36  56.0399  19.0688
  8617.963  8617.950  0.500  0.780437  88.1184  40.3764  13.7459
  8621.122  8621.100  0.500  0.778862  126.315  57.9694  19.7396
  8624.291  8624.280  0.500  0.777630  126.144  57.9624  19.75
  8627.477  8627.470  0.500  0.776357  125.856  57.9038  19.7509
  8630.715  8630.690  0.500  0.774919  125.626  57.8812  19.764
  8633.929  8633.920  0.500  0.773516  125.421  57.8676  19.7804
  8637.197  8637.170  0.500  0.772076  125.167  57.8339  19.7928
  8640.464  8640.450  0.500  0.770719  124.376  57.5464  19.7189
  8643.762  8643.740  0.500  0.769077  110.663  51.2855  17.5983
  8647.070  8647.050  0.500  0.767846  124.702  57.8631  19.8879
  8650.387  8650.370  0.500  0.766453  124.906  58.0385  19.9848
  8653.751  8653.720  0.500  0.765005  124.856  58.0994  20.0397
  8657.099  8657.090  0.500  0.763378  124.759  58.149  20.0848
  8660.481  8660.470  0.500  0.761955  124.675  58.1925  20.1174
  8663.899  8663.880  0.500  0.760724  124.585  58.2221  20.145
  8667.319  8667.300  0.500  0.759233  124.506  58.2717  20.1772
  8670.771  8670.750  0.500  0.757797  124.406  58.3088  20.2001
  8674.233  8674.210  0.500  0.756471  124.314  58.3428  20.2239
  8677.713  8677.690  0.500  0.755108  124.217  58.3768  20.2518
  8681.213  8681.190  0.500  0.753585  124.128  58.4241  20.2876
  8684.735  8684.710  0.500  0.752132  124.026  58.4608  20.3251
  8688.269  8688.250  0.500  0.750668  123.922  58.4977  20.3659
  8691.823  8691.800  0.500  0.749204  123.811  58.5309  20.4078
  8695.393  8695.380  0.500  0.747721  123.686  58.5584  20.4427
  8698.992  8698.980  0.500  0.746149  124.053  58.8248  20.5584
  8702.613  8702.590  0.500  0.744641  123.769  58.7784  20.5651
  8706.241  8706.220  0.500  0.743080  120.582  57.3546  20.0883
  8709.894  8709.880  0.500  0.741884  122.712  58.4373  20.4822
  8713.577  8713.550  0.500  0.740379  123.78  59.0347  20.7083
  8717.260  8717.240  0.500  0.738919  123.741  59.1024  20.7536
  8720.976  8720.950  0.500  0.737690  123.656  59.1344  20.7886
  8724.698  8724.680  0.500  0.736424  123.562  59.1644  20.829
  8728.439  8728.420  0.500  0.735018  123.467  59.202  20.8684
  8732.210  8732.190  0.500  0.733587  123.369  59.2399  20.9026
  8735.995  8735.980  0.500  0.732071  123.267  59.2807  20.9334
  8739.802  8739.780  0.500  0.730584  123.171  59.3227  20.9672
  8743.623  8743.610  0.500  0.728895  123.064  59.3713  21.0031
  8747.470  8747.450  0.500  0.727438  122.97  59.4124  21.0332
  8751.327  8751.310  0.500  0.725908  122.877  59.4585  21.0672
  8755.201  8755.190  0.500  0.724529  122.784  59.4951  21.1022
  8759.108  8759.090  0.500  0.722804  122.681  59.548  21.1473
  8763.026  8763.010  0.500  0.721088  122.568  59.5952  21.1898
  8766.970  8766.950  0.500  0.719501  122.471  59.6428  21.2347
  8770.927  8770.910  0.500  0.717818  122.37  59.6943  21.2777
  8774.905  8774.880  0.500  0.716237  122.268  59.7385  21.3239
  8778.903  8778.880  0.500  0.714611  122.166  59.786  21.3739
  8782.898  8782.890  0.500  0.713019  122.051  59.8248  21.4166
  8786.950  8786.930  0.500  0.711428  121.931  59.8611  21.4576
  8790.996  8790.980  0.500  0.709729  121.825  59.9105  21.5062
  8795.069  8795.050  0.500  0.708130  121.703  59.9466  21.5534
  8799.150  8799.140  0.500  0.706837  121.601  59.9739  21.5966
  8803.270  8803.250  0.500  0.705216  121.505  60.0235  21.6471
  8807.402  8807.380  0.500  0.703433  121.397  60.0776  21.694
  8811.551  8811.530  0.500  0.701703  121.289  60.1278  21.734
  8815.704  8815.690  0.500  0.700150  121.182  60.1682  21.7676
  8819.897  8819.880  0.500  0.698380  121.076  60.2221  21.8022
  8824.098  8824.080  0.500  0.696798  120.97  60.2646  21.833
  8828.327  8828.310  0.500  0.695150  120.858  60.3081  21.8668
  8832.566  8832.550  0.500  0.693508  120.756  60.3563  21.9039
  8836.830  8836.810  0.500  0.691768  120.645  60.4058  21.9477
  8841.115  8841.090  0.500  0.690059  120.53  60.4513  21.9951
  8845.411  8845.390  0.500  0.688526  120.42  60.4891  22.0386
  8849.725  8849.710  0.500  0.686784  120.313  60.5405  22.0882
  8854.059  8854.050  0.500  0.685271  120.198  60.5742  22.1321
  8858.429  8858.410  0.500  0.683606  120.085  60.6181  22.1803
  8862.813  8862.790  0.500  0.681807  119.965  60.6665  22.2292
  8867.205  8867.180  0.500  0.680125  119.85  60.7107  22.278
  8871.615  8871.600  0.500  0.678563  119.738  60.7485  22.324
  8876.047  8876.030  0.500  0.676930  119.611  60.7835  22.3665
  8880.510  8880.480  0.500  0.675069  119.486  60.8326  22.4183
  8884.967  8884.950  0.500  0.673367  119.371  60.8778  22.4696
  8889.453  8889.440  0.500  0.671585  119.26  60.9295  22.5206
  8893.971  8893.950  0.500  0.669839  119.115  60.962  22.5615
  8898.497  8898.480  0.500  0.668364  119  60.993  22.596
  8903.055  8903.030  0.500  0.666710  118.872  61.0284  22.629