File: xdidata/Er/Er-L1-Er2TiO5.xdi
# XDI/1.0 BlueSky/1.10.0 BMM/2023-1.0-py310-tiled
# Beamline.name: BMM (06BM) -- Beamline for Materials Measurement (NIST)
# Beamline.xray_source: NSLS-II three-pole wiggler
# Beamline.collimation: paraboloid mirror, 5 nm Rh on 30 nm Pt
# Beamline.focusing: not in use
# Beamline.harmonic_rejection: flat mirror, Pt stripe, pitch = 7.0 mrad relative to beam
# Beamline.software: Bluesky 1.10.0, Ophyd 1.7.0, DataBroker 2.0.0b13, Python 3.10.8, 2023-1.0-py310-tiled
# Detector.I0: 10 cm N2
# Detector.I1: 25 cm N2
# Detector.I2: 25 cm N2
# Element.symbol: Er
# Element.edge: L1
# Element.reference: Er
# Element.reference_material: Er2O3
# Facility.name: NSLS-II
# Facility.energy: 3.0
# Facility.current: 400.3
# Facility.mode: top-off
# Facility.GUP: 123456
# Facility.SAF: 301027
# Facility.cycle: 2023-2
# Mono.name: Si(111)
# Mono.d_spacing: 3.13519
# Mono.encoder_resolution: 0.0000050 deg/ct
# Mono.angle_offset: 16.0754 deg
# Mono.scan_mode: pseudo channel cut
# Mono.scan_type: step
# Mono.direction: forward in energy
# Sample.name: Er2TiO5
# Sample.prep: Powder in PEG pellet
# Sample.x: 149.848 mm
# Sample.y: 114.690 mm
# Sample.SDD_position: 205.000 mm
# Scan.experimenters: Bruce Ravel
# Scan.edge_energy: 9751.3
# Scan.start_time: 2023-05-08T22:45:27
# Scan.end_time: 2023-05-08T22:51:12
# Scan.transient_id: 75690
# Scan.uid: a526b6fd-e22a-4eb3-b1b8-57da77ac87cf
# Scan.plot_hint: ln(I0/It)  --  ln($5/$6)
# Column.1: energy eV
# Column.2: requested_energy eV
# Column.3: measurement_time seconds
# Column.4: xmu
# Column.5: I0 nA
# Column.6: It nA
# Column.7: Ir nA
# ///////////
# sample courtesy Martin Stennett, University of Sheffield
# -----------
# energy  requested_energy  measurement_time  xmu  I0  It  Ir
  9551.289  9551.300  0.500  0.557433  104.855  60.0482  23.2167
  9561.309  9561.300  0.500  0.554338  104.66  60.1221  23.3186
  9571.334  9571.300  0.500  0.551199  104.458  60.1951  23.3943
  9581.354  9581.300  0.500  0.548322  104.257  60.2518  23.4579
  9591.378  9591.300  0.500  0.545442  104.039  60.2994  23.5297
  9601.377  9601.300  0.500  0.542407  103.826  60.3589  23.6171
  9611.329  9611.300  0.500  0.539582  103.597  60.3965  23.6857
  9621.374  9621.300  0.500  0.536795  103.38  60.4378  23.7493
  9631.328  9631.300  0.500  0.534023  103.174  60.485  23.8227
  9641.344  9641.300  0.500  0.531223  102.963  60.5304  23.89
  9651.344  9651.300  0.500  0.528495  102.756  60.5736  23.9498
  9661.338  9661.300  0.500  0.526316  102.571  60.5969  24.0059
  9671.341  9671.300  0.500  0.541957  102.34  59.5216  23.6304
  9681.365  9681.300  0.500  0.528269  102.153  60.2318  23.9678
  9691.329  9691.300  0.500  0.525421  101.947  60.2816  24.045
  9701.338  9701.300  0.500  0.522224  101.742  60.3533  24.1273
  9711.332  9711.300  0.500  0.521876  101.495  60.2278  24.1331
  9721.273  9721.300  0.500  0.520129  101.358  60.2515  24.1799
  9723.279  9723.300  0.500  0.519538  101.29  60.2466  24.1825
  9725.293  9725.300  0.500  0.518656  101.254  60.2787  24.1993
  9727.280  9727.300  0.500  0.518000  101.177  60.272  24.2016
  9729.296  9729.300  0.500  0.517262  101.157  60.3048  24.2218
  9731.293  9731.300  0.500  0.516678  101.116  60.3158  24.2299
  9733.569  9733.300  0.500  0.516021  101.059  60.3213  24.236
  9735.334  9735.300  0.500  0.515593  101.014  60.32  24.2369
  9737.308  9737.300  0.500  0.515243  100.978  60.3196  24.2405
  9739.304  9739.300  0.500  0.515080  100.93  60.3007  24.2358
  9741.313  9741.300  0.500  0.514778  100.905  60.304  24.2369
  9741.789  9741.800  0.500  0.514751  100.89  60.2971  24.2346
  9742.285  9742.300  0.500  0.514467  100.87  60.3021  24.2345
  9742.798  9742.800  0.500  0.514488  100.867  60.2988  24.2344
  9743.286  9743.300  0.500  0.514418  100.856  60.2965  24.2334
  9743.791  9743.800  0.500  0.514373  100.85  60.2958  24.2289
  9744.295  9744.300  0.500  0.514486  100.831  60.2776  24.2207
  9744.792  9744.800  0.500  0.514426  100.81  60.2686  24.2176
  9745.280  9745.300  0.500  0.514530  100.799  60.2557  24.2064
  9745.789  9745.800  0.500  0.514667  100.798  60.247  24.2033
  9746.282  9746.300  0.500  0.514655  100.79  60.2432  24.1971
  9746.778  9746.800  0.500  0.514632  100.769  60.232  24.1898
  9747.288  9747.300  0.500  0.514781  100.769  60.2226  24.1807
  9747.788  9747.800  0.500  0.514953  100.753  60.2027  24.1706
  9748.281  9748.300  0.500  0.515115  100.737  60.1838  24.1551
  9748.791  9748.800  0.500  0.515507  100.719  60.1491  24.1335
  9749.296  9749.300  0.500  0.515810  100.71  60.1258  24.1136
  9749.797  9749.800  0.500  0.516211  100.713  60.1034  24.0917
  9750.290  9750.300  0.500  0.516737  100.7  60.0641  24.0588
  9750.804  9750.800  0.500  0.517365  100.691  60.0208  24.0217
  9751.301  9751.300  0.500  0.518139  100.678  59.9666  23.9767
  9751.790  9751.800  0.500  0.519180  100.677  59.9035  23.9248
  9752.295  9752.300  0.500  0.520378  100.659  59.821  23.8606
  9752.797  9752.800  0.500  0.521613  100.645  59.7388  23.7889
  9753.290  9753.300  0.500  0.523079  100.632  59.6441  23.7164
  9753.792  9753.800  0.500  0.524496  100.622  59.5537  23.6413
  9754.297  9754.300  0.500  0.525892  100.607  59.4615  23.5736
  9754.787  9754.800  0.500  0.527167  100.59  59.3759  23.5068
  9755.284  9755.300  0.500  0.528456  100.586  59.2968  23.4439
  9755.790  9755.800  0.500  0.529716  100.574  59.215  23.3808
  9756.292  9756.300  0.500  0.530916  100.558  59.1346  23.3139
  9756.790  9756.800  0.500  0.532216  100.553  59.0549  23.249
  9757.300  9757.300  0.500  0.533445  100.535  58.9721  23.1812
  9757.806  9757.800  0.500  0.534837  100.533  58.8886  23.1147
  9758.288  9758.300  0.500  0.536219  100.522  58.8007  23.0451
  9758.802  9758.800  0.500  0.537579  100.495  58.7054  22.9739
  9759.304  9759.300  0.500  0.539076  100.493  58.6165  22.9016
  9759.794  9759.800  0.500  0.540592  100.487  58.5241  22.8291
  9760.301  9760.300  0.500  0.542382  100.481  58.4159  22.7502
  9760.799  9760.800  0.500  0.544277  100.469  58.2982  22.6611
  9761.293  9761.300  0.500  0.546204  100.461  58.1813  22.5736
  9761.795  9761.800  0.500  0.548141  100.441  58.0574  22.4745
  9762.302  9762.300  0.500  0.550492  100.422  57.9097  22.3632
  9762.792  9762.800  0.500  0.552800  100.412  57.7705  22.2552
  9763.291  9763.300  0.500  0.554998  100.412  57.6437  22.1486
  9763.797  9763.800  0.500  0.557635  100.408  57.4896  22.0311
  9764.296  9764.300  0.500  0.560230  100.398  57.3351  21.9156
  9764.791  9764.800  0.500  0.562819  100.379  57.1761  21.7983
  9765.310  9765.300  0.500  0.565318  100.369  57.0279  21.6924
  9765.800  9765.800  0.500  0.567376  100.356  56.9031  21.6085
  9766.299  9766.300  0.500  0.568913  100.343  56.808  21.5434
  9766.806  9766.800  0.500  0.569967  100.328  56.7399  21.4985
  9767.305  9767.300  0.500  0.570589  100.314  56.6965  21.4774
  9767.800  9767.800  0.500  0.570832  100.314  56.6827  21.4767
  9768.307  9768.300  0.500  0.570533  100.297  56.6901  21.4865
  9768.798  9768.800  0.500  0.570010  100.285  56.7134  21.5096
  9769.297  9769.300  0.500  0.569343  100.267  56.7411  21.5316
  9769.788  9769.800  0.500  0.568606  100.259  56.778  21.5576
  9770.299  9770.300  0.500  0.567873  100.235  56.8063  21.5803
  9770.795  9770.800  0.500  0.567090  100.192  56.8263  21.594
  9771.290  9771.300  0.500  0.566419  100.166  56.8496  21.6047
  9771.801  9771.800  0.500  0.565744  100.133  56.8692  21.6123
  9772.293  9772.300  0.500  0.565173  100.476  57.0968  21.696
  9772.800  9772.800  0.500  0.564613  100.29  57.0229  21.6646
  9773.308  9773.300  0.500  0.564130  99.5188  56.6117  21.5053
  9773.808  9773.800  0.500  0.563749  99.0194  56.3491  21.3994
  9774.311  9774.300  0.500  0.563247  99.504  56.6534  21.5076
  9774.803  9774.800  0.500  0.562733  100.195  57.076  21.6678
  9775.307  9775.300  0.500  0.562247  100.551  57.3065  21.7578
  9775.802  9775.800  0.500  0.561583  100.6  57.3729  21.7806
  9776.306  9776.300  0.500  0.561308  100.586  57.3803  21.7894
  9777.290  9777.290  0.500  0.560410  100.566  57.4206  21.8168
  9778.298  9778.290  0.500  0.559344  100.533  57.4627  21.8522
  9779.310  9779.310  0.500  0.558649  100.492  57.4798  21.8927
  9780.381  9780.360  0.500  0.557932  100.452  57.4981  21.9384
  9781.436  9781.420  0.500  0.557080  100.389  57.5108  21.9871
  9782.527  9782.500  0.500  0.555932  100.158  57.4442  22.0071
  9783.607  9783.600  0.500  0.554430  98.8646  56.7878  21.8008
  9784.733  9784.720  0.500  0.552944  100.032  57.5438  22.1365
  9785.867  9785.860  0.500  0.551199  100.406  57.8598  22.3006
  9787.017  9787.010  0.500  0.549642  100.386  57.9382  22.3749
  9788.202  9788.190  0.500  0.548114  100.331  57.9951  22.4355
  9789.386  9789.380  0.500  0.546945  100.276  58.0311  22.4782
  9790.613  9790.600  0.500  0.545637  100.153  58.0359  22.5018
  9791.835  9791.830  0.500  0.544657  98.9765  57.4104  22.2788
  9793.078  9793.080  0.500  0.543810  99.679  57.8668  22.4643
  9794.347  9794.350  0.500  0.543191  100.281  58.2526  22.6231
  9795.649  9795.640  0.500  0.542816  100.231  58.2451  22.6233
  9796.960  9796.950  0.500  0.542538  100.186  58.2355  22.6213
  9798.288  9798.280  0.500  0.542718  100.149  58.2034  22.6071
  9799.637  9799.630  0.500  0.542930  100.098  58.1611  22.5897
  9801.003  9801.000  0.500  0.543157  99.9895  58.0851  22.5561
  9802.390  9802.380  0.500  0.543487  98.725  57.3315  22.2604
  9803.798  9803.790  0.500  0.543824  99.6792  57.8661  22.4618
  9805.215  9805.210  0.500  0.544322  100.04  58.0468  22.5276
  9806.658  9806.650  0.500  0.544687  99.9902  57.9966  22.5008
  9808.121  9808.110  0.500  0.544939  99.9464  57.9566  22.4764
  9809.602  9809.590  0.500  0.545309  99.9125  57.9155  22.4479
  9811.104  9811.090  0.500  0.545500  99.8721  57.8811  22.4174
  9812.614  9812.610  0.500  0.545656  99.8349  57.8505  22.3905
  9814.159  9814.150  0.500  0.545576  99.8056  57.8381  22.3706
  9815.725  9815.710  0.500  0.545510  99.7569  57.8137  22.3433
  9817.299  9817.280  0.500  0.545360  99.7316  57.8077  22.3228
  9818.887  9818.880  0.500  0.545083  99.6852  57.7969  22.3034
  9820.496  9820.490  0.500  0.544678  99.1319  57.4994  22.1766
  9822.143  9822.130  0.500  0.544136  99.4863  57.7362  22.2603
  9823.791  9823.780  0.500  0.543661  99.5563  57.8043  22.2894
  9825.452  9825.450  0.500  0.543157  99.5307  57.8185  22.3018
  9827.142  9827.140  0.500  0.542588  99.4386  57.7979  22.3093
  9828.858  9828.850  0.500  0.541972  98.9136  57.5282  22.2229
  9830.600  9830.580  0.500  0.541286  99.3834  57.8411  22.3749
  9832.343  9832.330  0.500  0.540590  99.3635  57.8698  22.4176
  9834.107  9834.090  0.500  0.539663  99.1688  57.8099  22.4277
  9835.897  9835.880  0.500  0.538719  98.9042  57.7101  22.4215
  9837.700  9837.680  0.500  0.537923  99.2231  57.9423  22.537
  9839.524  9839.510  0.500  0.537167  99.2027  57.9742  22.5706
  9841.362  9841.350  0.500  0.536468  99.1708  57.9961  22.5949
  9843.230  9843.210  0.500  0.535753  98.6006  57.7039  22.4959
  9845.095  9845.090  0.500  0.534983  99.0217  57.995  22.6177
  9846.993  9846.990  0.500  0.534333  99.0298  58.0374  22.6378
  9848.922  9848.910  0.500  0.533752  98.9996  58.0534  22.654
  9850.864  9850.850  0.500  0.533060  98.9426  58.0602  22.6586
  9852.816  9852.810  0.500  0.532508  98.9143  58.0756  22.6776
  9854.793  9854.780  0.500  0.531810  98.8785  58.0952  22.6976
  9856.801  9856.780  0.500  0.531190  98.8324  58.1041  22.7188
  9858.792  9858.790  0.500  0.530420  98.7763  58.1158  22.7405
  9860.835  9860.820  0.500  0.529807  98.7404  58.1303  22.7625
  9862.896  9862.880  0.500  0.529078  98.6863  58.1408  22.7819
  9864.953  9864.950  0.500  0.528481  98.6419  58.1494  22.8053
  9867.040  9867.040  0.500  0.527771  98.6118  58.1729  22.829
  9869.167  9869.150  0.500  0.527120  98.5639  58.1825  22.8483
  9871.290  9871.280  0.500  0.526630  98.5057  58.1767  22.8602
  9873.431  9873.420  0.500  0.526247  98.4615  58.1729  22.8699
  9875.606  9875.590  0.500  0.525870  98.4132  58.1662  22.8754
  9877.783  9877.780  0.500  0.525481  98.3501  58.1516  22.8749
  9879.998  9879.980  0.500  0.525237  98.1308  58.0361  22.831
  9882.219  9882.200  0.500  0.524970  95.9455  56.7588  22.3292
  9884.453  9884.450  0.500  0.524571  98.0524  58.0283  22.8243
  9886.723  9886.710  0.500  0.524225  98.1156  58.0858  22.8455
  9889.010  9888.990  0.500  0.523825  98.0913  58.0946  22.8411
  9891.285  9891.290  0.500  0.523305  98.0493  58.1  22.8378
  9893.621  9893.610  0.500  0.522760  97.9901  58.0966  22.8404
  9895.959  9895.950  0.500  0.522116  97.9317  58.0994  22.8508
  9898.309  9898.300  0.500  0.521480  97.8815  58.1065  22.8686
  9900.695  9900.680  0.500  0.520583  97.8299  58.128  22.8917
  9903.083  9903.070  0.500  0.519662  97.7763  58.1497  22.91
  9905.509  9905.490  0.500  0.518876  97.7239  58.1642  22.9276
  9907.928  9907.920  0.500  0.518004  97.6685  58.1819  22.9468
  9910.383  9910.370  0.500  0.517096  97.6176  58.2044  22.9738
  9912.873  9912.850  0.500  0.516170  97.5575  58.2225  23.002
  9915.346  9915.340  0.500  0.515243  97.5087  58.2473  23.0341
  9917.877  9917.850  0.500  0.514361  97.4423  58.259  23.0644
  9920.379  9920.370  0.500  0.513610  97.3803  58.2657  23.0937
  9922.933  9922.920  0.500  0.512836  97.3119  58.2699  23.1212
  9925.493  9925.490  0.500  0.512164  97.2401  58.266  23.142
  9928.089  9928.070  0.500  0.511638  97.1399  58.2366  23.1456
  9930.694  9930.680  0.500  0.510994  96.8371  58.0925  23.0984
  9933.314  9933.300  0.500  0.510366  95.6406  57.4107  22.8315
  9935.956  9935.950  0.500  0.509656  97.1004  58.3284  23.204
  9938.613  9938.610  0.500  0.508904  97.0337  58.3322  23.2149
  9941.305  9941.290  0.500  0.508141  96.9651  58.3355  23.2258
  9943.995  9943.990  0.500  0.507307  96.8919  58.34  23.239
  9946.737  9946.710  0.500  0.506607  96.8214  58.3384  23.2527
  9949.459  9949.450  0.500  0.505877  96.7333  58.3279  23.2611
  9952.222  9952.200  0.500  0.505152  96.0624  57.9654  23.1345
  9954.995  9954.980  0.500  0.504361  95.9873  57.9659  23.1482
  9957.795  9957.770  0.500  0.503703  96.5113  58.3207  23.3041
  9960.596  9960.590  0.500  0.502924  96.4608  58.3356  23.3289
  9963.429  9963.420  0.500  0.502123  96.3583  58.3203  23.3381
  9966.269  9966.270  0.500  0.501407  96.1151  58.2148  23.3159
  9969.165  9969.150  0.500  0.500575  94.7082  57.4104  23.0086
  9972.047  9972.040  0.500  0.499798  96.3097  58.4266  23.4351
  9974.968  9974.950  0.500  0.499014  96.2205  58.4182  23.442
  9977.874  9977.870  0.500  0.498401  96.1461  58.4089  23.4518
  9980.838  9980.820  0.500  0.497559  96.0063  58.373  23.4426
  9983.800  9983.790  0.500  0.496813  91.8356  55.8789  22.4493
  9986.780  9986.770  0.500  0.495938  95.8356  58.3638  23.4545
  9989.788  9989.780  0.500  0.495147  95.8429  58.4145  23.4834
  9992.803  9992.800  0.500  0.494366  95.7594  58.4092  23.4911
  9995.867  9995.850  0.500  0.493594  95.6109  58.3636  23.4825
  9998.919  9998.910  0.500  0.492847  92.8635  56.7289  22.8397
  10002.009  10001.990  0.500  0.491917  95.6376  58.4779  23.5576
  10005.096  10005.090  0.500  0.491068  95.5915  58.4994  23.5816
  10008.236  10008.210  0.500  0.490139  95.5178  58.5086  23.6024
  10011.353  10011.350  0.500  0.489288  95.3982  58.4851  23.6108
  10014.515  10014.500  0.500  0.488478  93.1682  57.1642  23.0987
  10017.693  10017.680  0.500  0.487632  95.1821  58.4493  23.6403
  10020.881  10020.870  0.500  0.486540  95.1735  58.5079  23.6813
  10024.092  10024.090  0.500  0.485634  95.113  58.5237  23.7101
  10027.332  10027.320  0.500  0.484886  95.0347  58.5192  23.7296
  10030.583  10030.570  0.500  0.483876  94.925  58.5108  23.7457
  10033.875  10033.850  0.500  0.482959  94.6726  58.4088  23.7252
  10037.148  10037.140  0.500  0.482095  94.2593  58.2041  23.6603
  10040.458  10040.450  0.500  0.481162  94.8341  58.6136  23.8459
  10043.791  10043.770  0.500  0.480341  94.7629  58.6177  23.8657
  10047.141  10047.120  0.500  0.479429  94.6685  58.6127  23.8758
  10050.505  10050.490  0.500  0.478450  94.5843  58.618  23.8934
  10053.885  10053.870  0.500  0.477669  94.5063  58.6154  23.9082
  10057.298  10057.280  0.500  0.476736  94.4254  58.6199  23.924
  10060.722  10060.700  0.500  0.475890  94.3555  58.6261  23.9447
  10064.170  10064.150  0.500  0.474902  94.2874  58.6417  23.9647
  10067.634  10067.610  0.500  0.474075  94.2121  58.6433  23.9861
  10071.105  10071.090  0.500  0.473062  94.1146  58.642  24.0012
  10074.613  10074.590  0.500  0.472175  94.0424  58.649  24.0214
  10078.133  10078.110  0.500  0.471397  93.9893  58.6615  24.0463
  10081.663  10081.650  0.500  0.470277  93.9036  58.6737  24.0668
  10085.223  10085.200  0.500  0.469286  93.7989  58.6664  24.0786
  10088.790  10088.780  0.500  0.468533  91.4249  57.2247  23.504
  10092.403  10092.380  0.500  0.467706  93.5925  58.6298  24.0941
  10096.024  10095.990  0.500  0.466753  93.5699  58.6716  24.1287
  10099.643  10099.620  0.500  0.465764  93.5064  58.6898  24.1526
  10103.313  10103.280  0.500  0.464704  93.4271  58.7022  24.1766
  10106.972  10106.950  0.500  0.463808  93.3592  58.7122  24.1991
  10110.656  10110.640  0.500  0.462908  93.2743  58.7115  24.2176
  10114.374  10114.350  0.500  0.461899  93.1979  58.7227  24.2414
  10118.095  10118.080  0.500  0.460834  93.0992  58.723  24.261
  10121.845  10121.820  0.500  0.459813  93.027  58.7374  24.2827
  10125.616  10125.590  0.500  0.458850  92.9527  58.747  24.3047
  10129.412  10129.380  0.500  0.457866  92.8833  58.761  24.3311
  10133.202  10133.180  0.500  0.456880  92.8  58.7662  24.3524
  10137.034  10137.010  0.500  0.455829  92.719  58.7767  24.375
  10140.883  10140.850  0.500  0.454923  92.6246  58.77  24.394
  10144.744  10144.710  0.500  0.453847  92.545  58.7827  24.4188
  10148.622  10148.590  0.500  0.452832  92.4636  58.7906  24.443
  10152.507  10152.490  0.500  0.451783  92.3801  58.7992  24.468
  10156.448  10156.410  0.500  0.450932  92.2993  58.7978  24.4906
  10160.379  10160.350  0.500  0.449757  92.2208  58.8168  24.5189
  10164.349  10164.310  0.500  0.448747  92.1277  58.8169  24.5416
  10168.305  10168.280  0.500  0.447843  92.0352  58.8109  24.5629
  10172.312  10172.280  0.500  0.446824  91.9522  58.8178  24.5835
  10176.319  10176.290  0.500  0.445687  91.8714  58.833  24.608
  10180.369  10180.330  0.500  0.444635  91.7873  58.841  24.6337
  10184.413  10184.380  0.500  0.443537  91.7011  58.8503  24.6549
  10188.488  10188.450  0.500  0.442538  91.615  58.8538  24.676
  10192.570  10192.540  0.500  0.441531  91.4609  58.814  24.6799
  10196.688  10196.650  0.500  0.440454  91.4452  58.8673  24.7183
  10200.813  10200.780  0.500  0.439391  91.3172  58.8474  24.7297
  10204.964  10204.930  0.500  0.438373  91.236  58.855  24.7512
  10209.123  10209.090  0.500  0.437431  91.1583  58.8603  24.7694
  10213.308  10213.280  0.500  0.436170  91.0741  58.8801  24.7942
  10217.510  10217.480  0.500  0.435175  90.9778  58.8764  24.8171
  10221.730  10221.710  0.500  0.434064  91.0321  58.9771  24.8773
  10225.975  10225.950  0.500  0.432962  91.1006  59.0865  24.9469
  10230.233  10230.210  0.500  0.431965  91.0348  59.1027  24.9773
  10234.522  10234.490  0.500  0.430800  90.9374  59.1083  25.0034
  10238.815  10238.790  0.500  0.429738  90.5094  58.8926  24.9343
  10243.143  10243.110  0.500  0.428665  90.7706  59.1259  25.0559
  10247.484  10247.450  0.500  0.427613  90.676  59.1265  25.083
  10251.833  10251.810  0.500  0.426584  90.5672  59.1164  25.0985
  10256.218  10256.190  0.500  0.425509  90.479  59.1223  25.1253
  10260.607  10260.580  0.500  0.424525  90.3774  59.1141  25.142
  10265.022  10265.000  0.500  0.423429  90.2768  59.113  25.1653
  10269.451  10269.430  0.500  0.422309  90.1682  59.1081  25.1837
  10273.915  10273.880  0.500  0.421163  90.0579  59.1035  25.2039
  10278.379  10278.350  0.500  0.420064  89.9821  59.1187  25.2316
  10282.865  10282.840  0.500  0.418869  89.89  59.1288  25.2574
  10287.373  10287.350  0.500  0.417583  89.7768  59.1303  25.2747
  10291.904  10291.880  0.500  0.416618  89.6854  59.1271  25.2949
  10296.457  10296.430  0.500  0.415393  89.5819  59.1313  25.3186