File: xdidata/Er/Eu-L1-Eu2O3-c.xdi
# XDI/1.0 BlueSky/1.10.0 BMM/2023-1.0-py310-tiled
# Beamline.name: BMM (06BM) -- Beamline for Materials Measurement (NIST)
# Beamline.xray_source: NSLS-II three-pole wiggler
# Beamline.collimation: paraboloid mirror, 5 nm Rh on 30 nm Pt
# Beamline.focusing: not in use
# Beamline.harmonic_rejection: flat mirror, Pt stripe, pitch = 7.0 mrad relative to beam
# Beamline.software: Bluesky 1.10.0, Ophyd 1.7.0, DataBroker 2.0.0b13, Python 3.10.8, 2023-1.0-py310-tiled
# Detector.I0: 10 cm N2
# Detector.I1: 25 cm N2
# Detector.I2: 25 cm N2
# Element.symbol: Eu
# Element.edge: L1
# Element.reference: Eu
# Element.reference_material: Eu2O3
# Facility.name: NSLS-II
# Facility.energy: 3.0
# Facility.current: 400.2
# Facility.mode: top-off
# Facility.GUP: 123456
# Facility.SAF: 301027
# Facility.cycle: 2023-2
# Mono.name: Si(111)
# Mono.d_spacing: 3.13519
# Mono.encoder_resolution: 0.0000050 deg/ct
# Mono.angle_offset: 16.0754 deg
# Mono.scan_mode: pseudo channel cut
# Mono.scan_type: step
# Mono.direction: forward in energy
# Sample.name: cubic Eu2O3
# Sample.prep: Powder in PEG pellet
# Sample.x: 123.848 mm
# Sample.y: 114.690 mm
# Sample.SDD_position: 205.000 mm
# Scan.experimenters: Bruce Ravel
# Scan.edge_energy: 8052.0
# Scan.start_time: 2023-05-08T21:22:42
# Scan.end_time: 2023-05-08T21:28:36
# Scan.transient_id: 75625
# Scan.uid: a7751e2c-4dba-456b-b808-8ddd3bc96d79
# Scan.plot_hint: ln(I0/It)  --  ln($5/$6)
# Column.1: energy eV
# Column.2: requested_energy eV
# Column.3: measurement_time seconds
# Column.4: xmu
# Column.5: I0 nA
# Column.6: It nA
# Column.7: Ir nA
# ///////////
# sample courtesy Martin Stennett, University of Sheffield
# -----------
# energy  requested_energy  measurement_time  xmu  I0  It  Ir
  7852.001  7852.000  0.500  2.267258  135.669  14.0548  3.760596
  7862.010  7862.000  0.500  2.262284  135.435  14.1005  3.783467
  7872.019  7872.000  0.500  2.255346  135.264  14.1807  3.819720
  7882.042  7882.000  0.500  2.245806  135.077  14.2969  3.867758
  7892.027  7892.000  0.500  2.235432  134.885  14.4254  3.921616
  7902.096  7902.000  0.500  2.225482  134.652  14.5445  3.972096
  7912.019  7912.000  0.500  2.217899  134.482  14.6367  4.012656
  7922.024  7922.000  0.500  2.210805  134.288  14.7196  4.050948
  7932.017  7932.000  0.500  2.201865  134.015  14.8216  4.095883
  7942.042  7942.000  0.500  2.192277  134.028  14.9659  4.154738
  7951.979  7952.000  0.500  2.187663  133.594  14.9864  4.170264
  7962.029  7962.000  0.500  2.176168  133.449  15.1432  4.238812
  7972.018  7972.000  0.500  2.169155  133.206  15.2219  4.275243
  7982.022  7982.000  0.500  2.162290  132.958  15.2983  4.312798
  7992.025  7992.000  0.500  2.155137  132.794  15.3892  4.354590
  8002.021  8002.000  0.500  2.147010  132.517  15.4823  4.398062
  8012.020  8012.000  0.500  2.138851  132.317  15.5857  4.445007
  8022.519  8022.000  0.500  2.130563  132.32  15.7157  4.502212
  8023.973  8024.000  0.500  2.129794  132.336  15.7297  4.507069
  8025.978  8026.000  0.500  2.128402  132.271  15.7439  4.514614
  8027.979  8028.000  0.500  2.126978  132.243  15.7629  4.523230
  8029.979  8030.000  0.500  2.125708  132.212  15.7793  4.530324
  8032.404  8032.000  0.500  2.124312  132.112  15.7894  4.536229
  8034.212  8034.000  0.500  2.123384  132.059  15.7977  4.541834
  8036.106  8036.000  0.500  2.122357  132.046  15.8124  4.549413
  8038.016  8038.000  0.500  2.121615  131.954  15.8131  4.551860
  8040.009  8040.000  0.500  2.120639  131.892  15.8211  4.554963
  8042.001  8042.000  0.500  2.120523  131.838  15.8164  4.556372
  8042.482  8042.500  0.500  2.120573  131.803  15.8114  4.554909
  8042.986  8043.000  0.500  2.120665  131.798  15.8094  4.554146
  8043.484  8043.500  0.500  2.120678  131.763  15.805  4.552596
  8043.982  8044.000  0.500  2.120875  131.744  15.7996  4.552395
  8044.489  8044.500  0.500  2.120747  131.788  15.8069  4.553349
  8044.984  8045.000  0.500  2.121060  131.753  15.7978  4.552387
  8045.488  8045.500  0.500  2.121122  131.752  15.7966  4.551663
  8045.989  8046.000  0.500  2.121321  131.758  15.7942  4.551566
  8046.485  8046.500  0.500  2.121639  131.732  15.7861  4.548621
  8046.989  8047.000  0.500  2.121953  131.717  15.7794  4.546770
  8047.485  8047.500  0.500  2.122381  131.695  15.77  4.543487
  8047.984  8048.000  0.500  2.122993  131.65  15.7549  4.539405
  8048.483  8048.500  0.500  2.124121  131.643  15.7363  4.533214
  8048.987  8049.000  0.500  2.124714  131.621  15.7243  4.528604
  8049.486  8049.500  0.500  2.125594  131.595  15.7075  4.521484
  8049.988  8050.000  0.500  2.126915  131.584  15.6854  4.514994
  8050.490  8050.500  0.500  2.128350  131.562  15.6603  4.505947
  8050.989  8051.000  0.500  2.129975  131.543  15.6326  4.495486
  8051.494  8051.500  0.500  2.131727  131.52  15.6025  4.484916
  8051.996  8052.000  0.500  2.134255  131.473  15.5575  4.469554
  8052.495  8052.500  0.500  2.137056  131.496  15.5168  4.455418
  8052.989  8053.000  0.500  2.140209  131.413  15.4581  4.432892
  8053.491  8053.500  0.500  2.144417  131.404  15.3922  4.408841
  8053.988  8054.000  0.500  2.149411  131.394  15.3143  4.380560
  8054.487  8054.500  0.500  2.154949  131.346  15.2242  4.346857
  8054.993  8055.000  0.500  2.160633  131.264  15.1284  4.312661
  8055.492  8055.500  0.500  2.166515  131.254  15.0386  4.278469
  8055.998  8056.000  0.500  2.172137  131.119  14.9389  4.244189
  8056.495  8056.500  0.500  2.177331  130.996  14.8475  4.211346
  8057.003  8057.000  0.500  2.182241  131.034  14.7791  4.185896
  8057.494  8057.500  0.500  2.186668  130.438  14.6469  4.141946
  8057.997  8058.000  0.500  2.191306  127.747  14.2783  4.033082
  8058.489  8058.500  0.500  2.196060  125.989  14.0151  3.952753
  8058.995  8059.000  0.500  2.201211  127.776  14.1409  3.982409
  8059.489  8059.500  0.500  2.206514  130.977  14.4184  4.054312
  8059.998  8060.000  0.500  2.212196  131.893  14.4371  4.052164
  8060.501  8060.500  0.500  2.218072  131.914  14.3547  4.023268
  8061.001  8061.000  0.500  2.224509  131.989  14.2707  3.991358
  8061.502  8061.500  0.500  2.231124  131.937  14.171  3.954807
  8062.002  8062.000  0.500  2.238603  131.915  14.0631  3.915831
  8062.500  8062.500  0.500  2.246747  131.869  13.9441  3.872559
  8063.004  8063.000  0.500  2.255412  131.856  13.8225  3.827784
  8063.499  8063.500  0.500  2.264595  131.819  13.6923  3.781903
  8064.000  8064.000  0.500  2.274122  131.777  13.5582  3.732114
  8064.495  8064.500  0.500  2.284193  131.743  13.4189  3.681817
  8064.993  8065.000  0.500  2.294694  131.746  13.279  3.631529
  8065.491  8065.500  0.500  2.305042  131.704  13.1381  3.582277
  8066.003  8066.000  0.500  2.314670  131.662  13.008  3.535306
  8066.496  8066.500  0.500  2.323441  131.519  12.8805  3.490799
  8067.000  8067.000  0.500  2.331213  131.641  12.7926  3.458418
  8067.501  8067.500  0.500  2.337710  131.539  12.6999  3.426254
  8068.006  8068.000  0.500  2.343124  131.448  12.6226  3.400412
  8068.499  8068.500  0.500  2.347111  131.304  12.5586  3.378738
  8069.003  8069.000  0.500  2.349768  130.932  12.4897  3.356909
  8069.499  8069.500  0.500  2.351277  129.215  12.3074  3.305597
  8069.995  8070.000  0.500  2.352086  126.144  12.0052  3.224161
  8070.491  8070.500  0.500  2.352257  127.068  12.091  3.246232
  8070.995  8071.000  0.500  2.351895  130.146  12.3884  3.326717
  8071.494  8071.500  0.500  2.351115  131.493  12.5264  3.365042
  8072.004  8072.000  0.500  2.350320  131.571  12.5438  3.370749
  8072.498  8072.500  0.500  2.349306  131.591  12.5584  3.375867
  8073.000  8073.000  0.500  2.348290  131.55  12.5673  3.380033
  8073.499  8073.500  0.500  2.347026  131.557  12.5839  3.386415
  8073.998  8074.000  0.500  2.346169  131.541  12.5931  3.390204
  8074.498  8074.500  0.500  2.345110  131.514  12.6039  3.395078
  8074.994  8075.000  0.500  2.344216  131.492  12.613  3.399749
  8075.494  8075.500  0.500  2.343444  131.43  12.6168  3.402104
  8075.990  8076.000  0.500  2.342311  131.398  12.628  3.407652
  8076.498  8076.500  0.500  2.341169  131.333  12.6362  3.411538
  8076.995  8077.000  0.500  2.339888  131.278  12.6472  3.417323
  8077.995  8077.990  0.500  2.337109  130.904  12.6462  3.420195
  8078.995  8078.990  0.500  2.333659  126.807  12.2927  3.329594
  8080.017  8080.010  0.500  2.329525  128.924  12.5498  3.403799
  8081.065  8081.060  0.500  2.324437  131.343  12.8504  3.491719
  8082.130  8082.120  0.500  2.317934  131.37  12.9369  3.523100
  8083.214  8083.200  0.500  2.310898  131.33  13.0243  3.555574
  8084.308  8084.300  0.500  2.303274  131.293  13.1202  3.589704
  8085.429  8085.420  0.500  2.295339  131.224  13.2179  3.625467
  8086.565  8086.560  0.500  2.288087  131.106  13.302  3.657174
  8087.721  8087.710  0.500  2.281169  131.045  13.3882  3.689278
  8088.903  8088.890  0.500  2.275283  130.929  13.4553  3.715976
  8090.087  8090.080  0.500  2.270224  130.446  13.4736  3.727338
  8091.306  8091.300  0.500  2.266077  125.536  13.0204  3.607031
  8092.539  8092.530  0.500  2.262377  130.396  13.5745  3.764860
  8093.786  8093.780  0.500  2.259546  131.292  13.7066  3.806549
  8095.057  8095.050  0.500  2.257118  131.194  13.7296  3.816479
  8096.358  8096.340  0.500  2.255378  131.141  13.7481  3.824505
  8097.660  8097.650  0.500  2.254864  131.107  13.7515  3.827349
  8098.985  8098.980  0.500  2.254812  131.073  13.7487  3.826434
  8100.338  8100.330  0.500  2.255446  131.027  13.7351  3.823087
  8101.717  8101.700  0.500  2.256694  130.978  13.7129  3.815306
  8103.091  8103.080  0.500  2.258373  130.923  13.6842  3.805596
  8104.502  8104.490  0.500  2.260071  130.881  13.6565  3.796157
  8105.925  8105.910  0.500  2.261988  130.778  13.6197  3.784305
  8107.363  8107.350  0.500  2.263916  130.808  13.5965  3.775098
  8108.817  8108.810  0.500  2.265751  130.786  13.5693  3.766301
  8110.306  8110.290  0.500  2.268003  130.747  13.5348  3.755464
  8111.796  8111.790  0.500  2.269921  130.698  13.5037  3.744231
  8113.320  8113.310  0.500  2.272178  130.63  13.4663  3.732953
  8114.859  8114.850  0.500  2.274156  130.599  13.4365  3.723236
  8116.429  8116.410  0.500  2.275628  130.548  13.4115  3.715000
  8117.986  8117.980  0.500  2.276802  130.548  13.3957  3.710919
  8119.594  8119.580  0.500  2.277249  130.473  13.3821  3.707803
  8121.200  8121.190  0.500  2.277213  130.42  13.3771  3.708163
  8122.835  8122.830  0.500  2.276104  130.442  13.3942  3.714273
  8124.493  8124.480  0.500  2.274213  130.37  13.4122  3.723289
  8126.164  8126.150  0.500  2.271714  130.323  13.4409  3.735402
  8127.849  8127.840  0.500  2.268271  130.309  13.4858  3.751347
  8129.563  8129.550  0.500  2.264393  130.242  13.5312  3.770127
  8131.295  8131.280  0.500  2.260188  130.221  13.5861  3.791598
  8133.036  8133.030  0.500  2.255599  130.199  13.6463  3.814160
  8134.806  8134.790  0.500  2.251535  130.097  13.6911  3.831462
  8136.586  8136.580  0.500  2.248101  130.077  13.7361  3.850386
  8138.392  8138.380  0.500  2.245127  130.008  13.7696  3.863084
  8140.227  8140.210  0.500  2.242724  129.941  13.7957  3.874742
  8142.062  8142.050  0.500  2.240661  129.933  13.8233  3.886324
  8143.928  8143.910  0.500  2.238986  129.892  13.8421  3.894573
  8145.796  8145.790  0.500  2.237615  129.818  13.8532  3.900212
  8147.703  8147.690  0.500  2.236725  129.809  13.8646  3.906071
  8149.625  8149.610  0.500  2.235635  129.712  13.8693  3.910910
  8151.556  8151.550  0.500  2.233837  129.652  13.8879  3.918967
  8153.523  8153.510  0.500  2.231886  129.613  13.9108  3.929070
  8155.496  8155.480  0.500  2.229653  129.502  13.9299  3.937312
  8157.487  8157.480  0.500  2.227217  129.505  13.9643  3.951567
  8159.502  8159.490  0.500  2.224776  129.48  13.9957  3.963343
  8161.532  8161.520  0.500  2.222219  129.421  14.0252  3.976007
  8163.595  8163.580  0.500  2.219569  129.43  14.0633  3.991401
  8165.656  8165.650  0.500  2.217067  129.351  14.0899  4.002347
  8167.758  8167.740  0.500  2.214792  129.283  14.1146  4.012757
  8169.858  8169.850  0.500  2.213054  129.227  14.133  4.021931
  8171.994  8171.980  0.500  2.211489  129.204  14.1526  4.029964
  8174.128  8174.120  0.500  2.210322  129.131  14.1612  4.035016
  8176.309  8176.290  0.500  2.208907  129.076  14.1752  4.041791
  8178.488  8178.480  0.500  2.207962  129.054  14.1861  4.048137
  8180.694  8180.680  0.500  2.207554  128.975  14.1833  4.049856
  8182.916  8182.900  0.500  2.207085  128.9  14.1817  4.051389
  8185.162  8185.150  0.500  2.206999  128.878  14.1805  4.051286
  8187.421  8187.410  0.500  2.206361  128.817  14.1828  4.055080
  8189.709  8189.690  0.500  2.204968  128.759  14.1962  4.061321
  8192.002  8191.990  0.500  2.203075  128.706  14.2172  4.070937
  8194.325  8194.310  0.500  2.201120  128.648  14.2386  4.080660
  8196.661  8196.650  0.500  2.199141  128.62  14.2638  4.092157
  8199.022  8199.000  0.500  2.196647  128.552  14.2918  4.104931
  8201.401  8201.380  0.500  2.194302  128.474  14.3167  4.116147
  8203.778  8203.770  0.500  2.191626  128.425  14.3495  4.131316
  8206.212  8206.190  0.500  2.188899  128.37  14.3826  4.145914
  8208.636  8208.620  0.500  2.185891  128.298  14.4178  4.160444
  8211.084  8211.070  0.500  2.182668  128.227  14.4564  4.177399
  8213.563  8213.550  0.500  2.179476  128.201  14.4996  4.194031
  8216.052  8216.040  0.500  2.176587  128.111  14.5314  4.208025
  8218.568  8218.550  0.500  2.174230  128.068  14.5608  4.221426
  8221.078  8221.070  0.500  2.172372  127.977  14.5775  4.231297
  8223.638  8223.620  0.500  2.170730  127.943  14.5976  4.239331
  8226.203  8226.190  0.500  2.169389  127.859  14.6076  4.245821
  8228.795  8228.770  0.500  2.168030  127.809  14.6217  4.253374
  8231.398  8231.380  0.500  2.166784  127.733  14.6312  4.260387
  8234.014  8234.000  0.500  2.165042  127.667  14.6491  4.268510
  8236.667  8236.650  0.500  2.163495  127.605  14.6647  4.277458
  8239.319  8239.310  0.500  2.161656  127.546  14.6849  4.287637
  8242.007  8241.990  0.500  2.159451  127.476  14.7093  4.299191
  8244.706  8244.690  0.500  2.157051  127.406  14.7365  4.311357
  8247.427  8247.410  0.500  2.154340  127.32  14.7666  4.324657
  8250.168  8250.150  0.500  2.152033  127.227  14.7898  4.337031
  8252.919  8252.900  0.500  2.149070  127.14  14.8236  4.351490
  8255.699  8255.680  0.500  2.145938  127.091  14.8644  4.368795
  8258.491  8258.470  0.500  2.143372  127.024  14.8947  4.383153
  8261.301  8261.290  0.500  2.140819  126.961  14.9254  4.397237
  8264.136  8264.120  0.500  2.138243  126.905  14.9573  4.410752
  8266.982  8266.970  0.500  2.136387  126.822  14.9753  4.422293
  8269.867  8269.850  0.500  2.134222  126.718  14.9953  4.431754
  8272.758  8272.740  0.500  2.132385  126.664  15.0165  4.442543
  8275.669  8275.650  0.500  2.130594  126.564  15.0316  4.451506
  8278.590  8278.570  0.500  2.128856  125.03  14.8752  4.408638
  8281.546  8281.520  0.500  2.126977  126.329  15.0581  4.467134
  8284.504  8284.490  0.500  2.125145  126.303  15.0825  4.478832
  8287.485  8287.470  0.500  2.122835  126.269  15.1134  4.494021
  8290.495  8290.480  0.500  2.120469  126.193  15.1401  4.507059
  8293.512  8293.500  0.500  2.117647  126.093  15.1708  4.520690
  8296.571  8296.550  0.500  2.115029  125.982  15.1972  4.533576
  8299.622  8299.610  0.500  2.112477  125.924  15.229  4.549742
  8302.709  8302.690  0.500  2.109771  125.826  15.2583  4.563923
  8305.804  8305.790  0.500  2.106828  125.754  15.2946  4.580199
  8308.934  8308.910  0.500  2.104063  125.674  15.3271  4.596334
  8312.063  8312.050  0.500  2.101406  125.54  15.3516  4.608768
  8315.219  8315.200  0.500  2.098759  125.453  15.3816  4.624329
  8318.400  8318.380  0.500  2.096029  125.377  15.4143  4.639224
  8321.587  8321.570  0.500  2.093491  125.235  15.436  4.651305
  8324.801  8324.790  0.500  2.090872  125.187  15.4705  4.667272
  8328.038  8328.020  0.500  2.088266  125.048  15.4937  4.679850
  8331.277  8331.270  0.500  2.085684  125.007  15.5286  4.696742
  8334.567  8334.550  0.500  2.083325  124.73  15.5308  4.702675
  8337.856  8337.840  0.500  2.081124  124.637  15.5535  4.714877
  8341.163  8341.150  0.500  2.078479  124.489  15.5762  4.727579
  8344.469  8344.470  0.500  2.075984  124.345  15.597  4.739066
  8347.839  8347.820  0.500  2.073238  124.171  15.6179  4.750789
  8351.205  8351.190  0.500  2.070522  123.933  15.6305  4.761852
  8354.573  8354.570  0.500  2.067537  123.747  15.6537  4.773902
  8357.999  8357.980  0.500  2.064862  123.677  15.6867  4.789908
  8361.412  8361.400  0.500  2.061849  123.639  15.7291  4.808325
  8364.855  8364.850  0.500  2.058737  123.529  15.7641  4.824673
  8368.325  8368.310  0.500  2.056018  123.498  15.8031  4.844965
  8371.804  8371.790  0.500  2.053325  123.424  15.8362  4.861943
  8375.299  8375.290  0.500  2.050402  123.347  15.8726  4.879542
  8378.823  8378.810  0.500  2.047758  123.215  15.8977  4.892297
  8382.365  8382.350  0.500  2.045286  123.102  15.9224  4.906085
  8385.920  8385.900  0.500  2.042752  122.998  15.9493  4.921233
  8389.489  8389.480  0.500  2.040185  122.79  15.9632  4.931258
  8393.092  8393.080  0.500  2.037416  122.7  15.9958  4.946343
  8396.705  8396.690  0.500  2.035103  122.584  16.0177  4.960738
  8400.332  8400.320  0.500  2.032391  123.166  16.1375  5.003040
  8403.984  8403.980  0.500  2.029905  123.018  16.1582  5.017079
  8407.673  8407.650  0.500  2.027211  122.94  16.1915  5.033127
  8411.356  8411.340  0.500  2.024305  122.839  16.2253  5.049901
  8415.063  8415.050  0.500  2.021625  122.712  16.2519  5.064567
  8418.795  8418.780  0.500  2.018391  122.63  16.2937  5.084937
  8422.537  8422.520  0.500  2.015455  122.536  16.3292  5.104833
  8426.306  8426.290  0.500  2.012439  122.42  16.3629  5.121792
  8430.088  8430.080  0.500  2.009372  122.306  16.3979  5.140360
  8433.892  8433.880  0.500  2.006220  122.167  16.431  5.157009
  8437.733  8437.710  0.500  2.002883  122.09  16.4756  5.178723
  8441.565  8441.550  0.500  2.000044  122.033  16.5146  5.198553
  8445.423  8445.410  0.500  1.996751  121.871  16.5471  5.216242
  8449.308  8449.290  0.500  1.993527  121.723  16.5805  5.234530
  8453.206  8453.190  0.500  1.990527  121.569  16.6092  5.250181
  8457.121  8457.110  0.500  1.987459  121.484  16.6486  5.269350
  8461.070  8461.050  0.500  1.984521  121.351  16.6793  5.287145
  8465.028  8465.010  0.500  1.981521  121.211  16.7101  5.304502
  8469.006  8468.980  0.500  1.978422  121.083  16.7443  5.322906
  8473.003  8472.980  0.500  1.975445  120.965  16.7778  5.340635
  8477.011  8476.990  0.500  1.972728  120.803  16.8009  5.355319
  8481.050  8481.030  0.500  1.969961  120.733  16.8376  5.374405
  8485.108  8485.080  0.500  1.967118  120.566  16.8623  5.389954
  8489.176  8489.150  0.500  1.964542  120.44  16.8881  5.405532
  8493.261  8493.240  0.500  1.961479  120.361  16.9289  5.426239
  8497.372  8497.350  0.500  1.958252  120.162  16.9555  5.442969
  8501.505  8501.480  0.500  1.955149  120.025  16.9888  5.460695
  8505.655  8505.630  0.500  1.951865  119.886  17.0249  5.481602
  8509.822  8509.790  0.500  1.948712  119.772  17.0623  5.501223
  8514.005  8513.980  0.500  1.945642  119.592  17.0892  5.517354
  8518.205  8518.180  0.500  1.942370  119.398  17.1174  5.535048
  8522.434  8522.410  0.500  1.939419  119.132  17.1297  5.547506
  8526.676  8526.650  0.500  1.936189  118.556  17.102  5.545968
  8530.924  8530.910  0.500  1.933221  103.235  14.9361  4.851783
  8535.234  8535.190  0.500  1.929878  119.138  17.2948  5.625241
  8539.515  8539.490  0.500  1.926518  119.025  17.3366  5.646941
  8543.829  8543.810  0.500  1.923195  118.859  17.3699  5.666006
  8548.178  8548.150  0.500  1.919856  118.671  17.4004  5.684802
  8552.523  8552.510  0.500  1.916892  118.484  17.4247  5.701310
  8556.910  8556.890  0.500  1.913744  118.346  17.4593  5.720321
  8561.304  8561.280  0.500  1.910629  118.203  17.4925  5.739545
  8565.719  8565.700  0.500  1.907637  118.088  17.5279  5.760657
  8570.155  8570.130  0.500  1.904577  117.972  17.5643  5.781484
  8574.601  8574.580  0.500  1.901216  117.754  17.591  5.796807
  8579.090  8579.050  0.500  1.897888  117.613  17.6284  5.817763
  8583.584  8583.540  0.500  1.894557  117.414  17.6573  5.837206
  8588.070  8588.050  0.500  1.891067  117.231  17.6915  5.857753
  8592.606  8592.580  0.500  1.887390  105.729  16.0145  5.311069
  8597.152  8597.130  0.500  1.883934  116.116  17.6485  5.861883