File: xdidata/Hf/Hf-L3-HafniumOxide.xdi
# XDI/1.0 BlueSky/1.10.0 BMM/2023-1.0-py310-tiled
# Beamline.name: BMM (06BM) -- Beamline for Materials Measurement (NIST)
# Beamline.xray_source: NSLS-II three-pole wiggler
# Beamline.collimation: paraboloid mirror, 5 nm Rh on 30 nm Pt
# Beamline.focusing: not in use
# Beamline.harmonic_rejection: flat mirror, Pt stripe, pitch = 7.0 mrad relative to beam
# Beamline.software: Bluesky 1.10.0, Ophyd 1.7.0, DataBroker 2.0.0b13, Python 3.10.8, 2023-1.0-py310-tiled
# Detector.I0: 10 cm N2
# Detector.I1: 25 cm N2
# Detector.I2: 25 cm N2
# Element.symbol: Hf
# Element.edge: L3
# Element.reference: Hf
# Element.reference_material: HfO2
# Facility.name: NSLS-II
# Facility.energy: 3.0
# Facility.current: 399.3
# Facility.mode: top-off
# Facility.GUP: 301027
# Facility.SAF: 310583
# Facility.cycle: 2023-2
# Mono.name: Si(111)
# Mono.d_spacing: 3.13519
# Mono.encoder_resolution: 0.0000050 deg/ct
# Mono.angle_offset: 16.0754 deg
# Mono.scan_mode: pseudo channel cut
# Mono.scan_type: step
# Mono.direction: forward in energy
# Sample.name: HfO2
# Sample.prep: PEG pellet
# Sample.x: 109.138 mm
# Sample.y: 153.150 mm
# Sample.SDD_position: 205.000 mm
# Scan.experimenters: Bruce Ravel
# Scan.edge_energy: 9560.7
# Scan.start_time: 2023-05-28T16:44:06
# Scan.end_time: 2023-05-28T16:53:12
# Scan.transient_id: 78847
# Scan.uid: b54d7538-60e3-40ba-a7f1-1cbbecca431b
# Scan.plot_hint: ln(It/Ir)  --  ln($6/$7)
# Column.1: energy eV
# Column.2: requested_energy eV
# Column.3: measurement_time seconds
# Column.4: xmu
# Column.5: I0 nA
# Column.6: It nA
# Column.7: Ir nA
# ///////////
# sample courtesy Martin Stennett, University of Sheffield
# -----------
# energy  requested_energy  measurement_time  xmu  I0  It  Ir
  9360.688  9360.700  0.500  1.629817  109.133  158.508  31.0622
  9370.716  9370.700  0.500  1.624927  109.229  158.797  31.2713
  9380.743  9380.700  0.500  1.620106  109.206  158.905  31.4438
  9390.727  9390.700  0.500  1.615382  109.048  158.842  31.5802
  9400.760  9400.700  0.500  1.610679  108.869  158.716  31.7038
  9410.715  9410.700  0.500  1.605987  108.692  158.61  31.8317
  9420.734  9420.700  0.500  1.601184  108.494  158.447  31.9519
  9430.733  9430.700  0.500  1.596717  108.333  158.371  32.0797
  9440.757  9440.700  0.500  1.592127  108.147  158.252  32.2031
  9450.733  9450.700  0.500  1.587599  107.98  158.176  32.3337
  9460.751  9460.700  0.500  1.583262  107.825  158.046  32.4475
  9470.736  9470.700  0.500  1.579102  107.631  157.925  32.5578
  9480.751  9480.700  0.500  1.575202  107.455  157.815  32.6623
  9490.752  9490.700  0.500  1.571604  107.324  157.78  32.7728
  9500.735  9500.700  0.500  1.568731  107.098  157.591  32.8277
  9510.717  9510.700  0.500  1.566944  106.953  157.508  32.8691
  9520.728  9520.700  0.500  1.567466  106.778  157.391  32.8275
  9530.730  9530.700  0.500  1.572975  106.585  157.239  32.6157
  9532.695  9532.700  0.500  1.575323  106.546  157.213  32.5338
  9534.680  9534.700  0.500  1.578207  106.487  157.148  32.4267
  9536.675  9536.700  0.500  1.582091  106.469  157.136  32.2985
  9538.678  9538.700  0.500  1.586908  106.433  157.122  32.1405
  9540.682  9540.700  0.500  1.593333  106.394  157.103  31.9308
  9542.675  9542.700  0.500  1.601558  106.346  157.03  31.6544
  9544.688  9544.700  0.500  1.612917  106.324  157.04  31.2989
  9546.683  9546.700  0.500  1.627832  106.277  157.023  30.8321
  9548.682  9548.700  0.500  1.649276  106.257  157.024  30.1782
  9550.734  9550.700  0.500  1.681332  106.208  156.976  29.2173
  9550.978  9551.000  0.500  1.685409  106.176  156.924  29.0887
  9551.270  9551.300  0.500  1.691646  106.235  157.005  28.9228
  9551.569  9551.600  0.500  1.698297  106.164  156.903  28.7124
  9551.864  9551.900  0.500  1.705313  106.191  156.928  28.5162
  9552.164  9552.200  0.500  1.712910  106.183  156.921  28.2991
  9552.467  9552.500  0.500  1.721093  106.165  156.905  28.0656
  9552.771  9552.800  0.500  1.729958  106.134  156.861  27.8101
  9553.074  9553.100  0.500  1.739383  106.124  156.892  27.5548
  9553.366  9553.400  0.500  1.748910  106.122  156.885  27.2922
  9553.673  9553.700  0.500  1.759497  106.128  156.898  27.0071
  9553.965  9554.000  0.500  1.770662  106.127  156.913  26.7098
  9554.268  9554.300  0.500  1.783119  106.119  156.887  26.3747
  9554.572  9554.600  0.500  1.796699  106.125  156.899  26.0209
  9554.867  9554.900  0.500  1.811399  106.121  156.899  25.6413
  9555.171  9555.200  0.500  1.827791  106.096  156.869  25.2195
  9555.466  9555.500  0.500  1.845592  106.084  156.847  24.7711
  9555.774  9555.800  0.500  1.865333  106.086  156.862  24.2892
  9556.070  9556.100  0.500  1.886583  106.078  156.854  23.7773
  9556.377  9556.400  0.500  1.911004  106.05  156.815  23.1979
  9556.677  9556.700  0.500  1.936816  106.06  156.85  22.6118
  9556.981  9557.000  0.500  1.965391  106.052  156.809  21.9691
  9557.280  9557.300  0.500  1.997258  106.077  156.858  21.2867
  9557.580  9557.600  0.500  2.032012  106.049  156.823  20.555
  9557.888  9557.900  0.500  2.072208  106.014  156.779  19.7396
  9558.184  9558.200  0.500  2.114841  106.018  156.786  18.9166
  9558.491  9558.500  0.500  2.165869  106.022  156.795  17.9766
  9558.787  9558.800  0.500  2.220717  105.979  156.725  17.0095
  9559.099  9559.100  0.500  2.287085  105.984  156.759  15.9208
  9559.379  9559.400  0.500  2.354896  106.017  156.804  14.8812
  9559.711  9559.700  0.500  2.443506  105.961  156.705  13.6108
  9560.034  9560.000  0.500  2.540309  105.949  156.714  12.3556
  9560.259  9560.300  0.500  2.623641  105.925  156.66  11.3638
  9560.567  9560.600  0.500  2.739871  105.935  156.68  10.1182
  9560.855  9560.900  0.500  2.860944  105.938  156.701  8.965586
  9561.179  9561.200  0.500  3.003979  105.923  156.688  7.770058
  9561.495  9561.500  0.500  3.154613  105.877  156.646  6.681715
  9561.838  9561.800  0.500  3.330605  105.878  156.655  5.603759
  9562.055  9562.100  0.500  3.449116  105.825  156.58  4.975121
  9562.375  9562.400  0.500  3.613496  105.808  156.528  4.219587
  9562.750  9562.700  0.500  3.804797  105.794  156.534  3.485022
  9562.999  9563.000  0.500  3.923435  105.733  156.441  3.093326
  9563.299  9563.300  0.500  4.051022  106.052  156.932  2.731332
  9563.591  9563.600  0.500  4.157497  106.033  156.931  2.455448
  9563.911  9563.900  0.500  4.252030  106.04  156.907  2.233614
  9564.195  9564.200  0.500  4.323260  106.042  156.913  2.080127
  9564.500  9564.500  0.500  4.382199  106.065  156.951  1.961554
  9564.800  9564.800  0.500  4.425648  106.064  156.965  1.878309
  9565.096  9565.100  0.500  4.453488  106.053  156.959  1.826673
  9565.408  9565.400  0.500  4.466732  106.041  156.941  1.802437
  9565.705  9565.700  0.500  4.460926  106.034  156.94  1.812924
  9566.009  9566.000  0.500  4.434381  106.037  156.938  1.861661
  9566.301  9566.300  0.500  4.387786  106.054  156.966  1.950812
  9566.606  9566.600  0.500  4.318380  106.055  156.977  2.091161
  9566.906  9566.900  0.500  4.230030  106.007  156.897  2.283153
  9567.202  9567.200  0.500  4.126877  106.004  156.898  2.531260
  9567.507  9567.500  0.500  4.010351  105.994  156.903  2.844179
  9567.799  9567.800  0.500  3.894316  106.005  156.906  3.194190
  9568.115  9568.100  0.500  3.764422  105.992  156.917  3.637498
  9568.400  9568.400  0.500  3.649002  105.985  156.893  4.081887
  9568.704  9568.700  0.500  3.533894  105.959  156.863  4.578980
  9569.001  9569.000  0.500  3.429833  105.971  156.885  5.081873
  9569.309  9569.300  0.500  3.328168  105.959  156.859  5.624781
  9569.610  9569.600  0.500  3.240106  105.975  156.887  6.143653
  9569.895  9569.900  0.500  3.158826  105.968  156.879  6.663515
  9570.203  9570.200  0.500  3.080291  105.918  156.824  7.205432
  9570.492  9570.500  0.500  3.013488  105.923  156.833  7.703667
  9570.796  9570.800  0.500  2.948321  105.909  156.814  8.221387
  9571.097  9571.100  0.500  2.892637  105.908  156.822  8.692613
  9571.394  9571.400  0.500  2.841932  105.897  156.8  9.143449
  9571.690  9571.700  0.500  2.797863  105.923  156.843  9.558058
  9571.995  9572.000  0.500  2.757923  105.918  156.846  9.947700
  9572.300  9572.300  0.500  2.722272  105.909  156.825  10.3074
  9572.597  9572.600  0.500  2.692288  105.849  156.738  10.6152
  9572.901  9572.900  0.500  2.664510  105.866  156.769  10.9164
  9573.198  9573.200  0.500  2.641325  105.861  156.765  11.1722
  9573.507  9573.500  0.500  2.619299  105.878  156.809  11.4242
  9573.808  9573.800  0.500  2.599676  105.859  156.796  11.6496
  9574.104  9574.100  0.500  2.581897  105.828  156.761  11.8559
  9574.409  9574.400  0.500  2.565210  105.81  156.701  12.0508
  9574.706  9574.700  0.500  2.550664  105.807  156.691  12.2266
  9575.007  9575.000  0.500  2.536989  105.83  156.736  12.3985
  9575.304  9575.300  0.500  2.525457  105.805  156.714  12.5406
  9575.605  9575.600  0.500  2.514989  105.789  156.692  12.6707
  9575.906  9575.900  0.500  2.505488  105.794  156.695  12.7919
  9576.211  9576.200  0.500  2.497227  105.791  156.7  12.8984
  9576.508  9576.500  0.500  2.490151  105.775  156.682  12.9886
  9576.797  9576.800  0.500  2.483991  105.771  156.671  13.0679
  9577.110  9577.100  0.500  2.478619  105.763  156.653  13.1368
  9577.395  9577.400  0.500  2.474302  105.752  156.654  13.1937
  9577.704  9577.700  0.500  2.470373  105.777  156.706  13.25
  9577.997  9578.000  0.500  2.467510  105.744  156.659  13.284
  9578.294  9578.300  0.500  2.465361  105.738  156.649  13.3117
  9578.599  9578.600  0.500  2.463847  105.741  156.65  13.332
  9578.896  9578.900  0.500  2.462770  105.747  156.676  13.3486
  9579.197  9579.200  0.500  2.462321  105.741  156.677  13.3546
  9579.483  9579.500  0.500  2.461994  105.696  156.619  13.3541
  9579.800  9579.800  0.500  2.461771  105.695  156.625  13.3576
  9580.097  9580.100  0.500  2.461440  105.681  156.601  13.36
  9580.402  9580.400  0.500  2.460968  105.689  156.62  13.3679
  9580.700  9580.700  0.500  2.460103  105.691  156.623  13.3797
  9580.997  9581.000  0.500  2.458952  105.698  156.644  13.3969
  9581.310  9581.300  0.500  2.457265  105.655  156.582  13.4142
  9581.595  9581.600  0.500  2.455341  105.644  156.549  13.4372
  9581.909  9581.900  0.500  2.452774  105.68  156.631  13.4788
  9582.198  9582.200  0.500  2.449957  105.65  156.581  13.5125
  9582.503  9582.500  0.500  2.446668  105.638  156.578  13.5568
  9582.805  9582.800  0.500  2.443111  105.612  156.539  13.6017
  9583.106  9583.100  0.500  2.439210  105.619  156.555  13.6563
  9583.408  9583.400  0.500  2.435127  105.613  156.539  13.7107
  9583.705  9583.700  0.500  2.431032  105.597  156.521  13.7654
  9584.003  9584.000  0.500  2.427358  105.603  156.54  13.8178
  9584.296  9584.300  0.500  2.423730  105.636  156.584  13.8718
  9584.610  9584.600  0.500  2.420225  105.579  156.511  13.914
  9584.903  9584.900  0.500  2.417116  105.549  156.476  13.9543
  9585.201  9585.200  0.500  2.414445  105.547  156.475  13.9915
  9585.502  9585.500  0.500  2.412250  105.589  156.541  14.0282
  9585.689  9585.700  0.500  2.411201  105.582  156.539  14.0427
  9586.693  9586.690  0.500  2.407137  105.528  156.46  14.0928
  9587.697  9587.690  0.500  2.407268  105.51  156.451  14.0902
  9588.729  9588.710  0.500  2.411585  105.464  156.392  14.0242
  9589.774  9589.760  0.500  2.419102  105.453  156.409  13.9207
  9590.846  9590.820  0.500  2.429796  105.447  156.405  13.7722
  9591.911  9591.900  0.500  2.442572  105.43  156.388  13.5959
  9593.023  9593.000  0.500  2.456267  105.4  156.34  13.4069
  9594.124  9594.120  0.500  2.469838  105.399  156.353  13.2272
  9595.265  9595.260  0.500  2.484963  105.363  156.321  13.026
  9596.427  9596.410  0.500  2.501376  105.357  156.354  12.8167
  9597.600  9597.590  0.500  2.520600  105.32  156.315  12.5695
  9598.802  9598.780  0.500  2.542785  105.299  156.299  12.2924
  9600.019  9600.000  0.500  2.567748  105.295  156.293  11.9889
  9601.230  9601.230  0.500  2.592679  105.278  156.286  11.6932
  9602.484  9602.480  0.500  2.617229  105.238  156.244  11.4066
  9603.754  9603.750  0.500  2.640513  105.23  156.26  11.1452
  9605.053  9605.040  0.500  2.660054  105.181  156.188  10.9245
  9606.368  9606.350  0.500  2.673535  105.148  156.164  10.7766
  9607.696  9607.680  0.500  2.679853  105.126  156.162  10.7085
  9609.039  9609.030  0.500  2.678736  105.085  156.109  10.7168
  9610.403  9610.400  0.500  2.671494  105.07  156.103  10.7944
  9611.788  9611.780  0.500  2.658927  105.065  156.124  10.9323
  9613.208  9613.190  0.500  2.643352  105.009  156.056  11.0991
  9614.622  9614.610  0.500  2.625659  104.983  156.035  11.2957
  9616.051  9616.050  0.500  2.606097  104.962  156.022  11.5179
  9617.501  9617.510  0.500  2.586600  104.728  155.696  11.7201
  9618.999  9618.990  0.500  2.566336  104.816  155.825  11.9699
  9620.498  9620.490  0.500  2.547614  104.833  155.889  12.2012
  9622.018  9622.010  0.500  2.531381  104.865  155.948  12.4055
  9623.553  9623.550  0.500  2.517645  104.8  155.873  12.5711
  9625.122  9625.110  0.500  2.507027  104.761  155.848  12.7032
  9626.695  9626.680  0.500  2.499035  104.749  155.859  12.806
  9628.280  9628.280  0.500  2.492843  104.672  155.752  12.8767
  9629.890  9629.890  0.500  2.488163  104.67  155.745  12.9365
  9631.549  9631.530  0.500  2.484672  104.678  155.772  12.984
  9633.184  9633.180  0.500  2.482979  104.641  155.737  13.0031
  9634.848  9634.850  0.500  2.483305  104.389  155.387  12.9697
  9636.536  9636.540  0.500  2.485751  104.537  155.635  12.9586
  9638.261  9638.250  0.500  2.490025  104.514  155.63  12.9029
  9639.987  9639.980  0.500  2.494969  104.461  155.576  12.8348
  9641.745  9641.730  0.500  2.499775  104.444  155.604  12.7757
  9643.497  9643.490  0.500  2.504229  104.424  155.585  12.7173
  9645.309  9645.280  0.500  2.508512  104.417  155.616  12.6655
  9647.089  9647.080  0.500  2.512463  104.341  155.513  12.6072
  9648.919  9648.910  0.500  2.515554  104.175  155.293  12.5505
  9650.757  9650.750  0.500  2.517819  104.191  155.347  12.5265
  9652.628  9652.610  0.500  2.518665  104.251  155.453  12.5244
  9654.488  9654.490  0.500  2.518757  104.203  155.397  12.5188
  9656.393  9656.390  0.500  2.518678  104.179  155.393  12.5194
  9658.327  9658.310  0.500  2.519529  104.132  155.338  12.5043
  9660.262  9660.250  0.500  2.522165  104.123  155.339  12.4715
  9662.205  9662.210  0.500  2.526560  104.085  155.325  12.4157
  9664.186  9664.180  0.500  2.533048  104.028  155.253  12.3297
  9666.192  9666.180  0.500  2.540388  103.983  155.208  12.236
  9668.194  9668.190  0.500  2.547688  103.724  154.827  12.1171
  9670.226  9670.220  0.500  2.554264  103.91  155.136  12.0617
  9672.295  9672.280  0.500  2.559928  103.832  155.055  11.9874
  9674.352  9674.350  0.500  2.564110  103.813  155.072  11.9387
  9676.451  9676.440  0.500  2.566876  103.778  155.047  11.9037
  9678.559  9678.550  0.500  2.567204  103.721  154.989  11.8954
  9680.689  9680.680  0.500  2.564411  103.703  154.97  11.9272
  9682.831  9682.820  0.500  2.558670  103.665  154.943  11.9938
  9684.998  9684.990  0.500  2.550594  103.606  154.885  12.0865
  9687.195  9687.180  0.500  2.540964  103.57  154.865  12.2019
  9689.377  9689.380  0.500  2.530925  103.533  154.854  12.3242
  9691.613  9691.600  0.500  2.521055  103.524  154.866  12.4473
  9693.853  9693.850  0.500  2.511770  103.444  154.767  12.5554
  9696.120  9696.110  0.500  2.503157  103.407  154.737  12.6616
  9698.411  9698.390  0.500  2.496372  103.361  154.7  12.7447
  9700.708  9700.690  0.500  2.491553  103.335  154.701  12.8063
  9703.014  9703.010  0.500  2.488846  103.29  154.652  12.837
  9705.374  9705.350  0.500  2.487531  103.225  154.599  12.8495
  9707.707  9707.700  0.500  2.486852  103.157  154.527  12.8522
  9710.097  9710.080  0.500  2.486551  102.145  153.036  12.732
  9712.477  9712.470  0.500  2.486563  103.134  154.55  12.8579
  9714.895  9714.890  0.500  2.487769  103.1  154.532  12.8408
  9717.338  9717.320  0.500  2.490443  103.032  154.454  12.8001
  9719.787  9719.770  0.500  2.493886  102.986  154.417  12.7531
  9722.258  9722.250  0.500  2.497655  102.945  154.388  12.7027
  9724.758  9724.740  0.500  2.500797  102.897  154.352  12.6599
  9727.260  9727.250  0.500  2.502754  102.824  154.27  12.6285
  9729.787  9729.770  0.500  2.503824  102.783  154.246  12.613
  9732.328  9732.320  0.500  2.503822  102.737  154.201  12.6093
  9734.908  9734.890  0.500  2.502678  102.673  154.139  12.6187
  9737.480  9737.470  0.500  2.499978  102.647  154.141  12.6529
  9740.091  9740.080  0.500  2.496766  102.581  154.077  12.6884
  9742.712  9742.700  0.500  2.494135  102.573  154.107  12.7243
  9745.354  9745.350  0.500  2.492579  102.519  154.055  12.7398
  9748.031  9748.010  0.500  2.492086  102.433  153.958  12.738
  9750.705  9750.690  0.500  2.492106  102.608  154.246  12.7616
  9753.385  9753.390  0.500  2.491955  102.553  154.205  12.7602
  9756.124  9756.110  0.500  2.491472  102.536  154.194  12.7654
  9758.848  9758.850  0.500  2.490807  102.507  154.184  12.7731
  9761.622  9761.600  0.500  2.490437  102.414  154.091  12.7701
  9764.391  9764.380  0.500  2.489981  102.385  154.083  12.7753
  9767.198  9767.170  0.500  2.489606  102.328  154.028  12.7755
  9769.994  9769.990  0.500  2.489103  102.241  153.936  12.7743
  9772.837  9772.820  0.500  2.488216  102.084  153.734  12.7688
  9775.683  9775.670  0.500  2.487186  101.946  153.549  12.7666
  9778.571  9778.550  0.500  2.485777  102.103  153.821  12.8072
  9781.456  9781.440  0.500  2.484150  101.983  153.681  12.8165
  9784.364  9784.350  0.500  2.482032  100.361  151.256  12.641
  9787.291  9787.270  0.500  2.478883  101.975  153.73  12.8882
  9790.231  9790.220  0.500  2.475291  101.853  153.599  12.9236
  9793.211  9793.190  0.500  2.472023  100.407  151.444  12.784
  9796.180  9796.170  0.500  2.469143  101.845  153.637  13.0065
  9799.201  9799.180  0.500  2.466217  101.771  153.575  13.0394
  9802.207  9802.200  0.500  2.463704  101.528  153.226  13.0425
  9805.265  9805.250  0.500  2.461872  101.685  153.513  13.0909
  9808.329  9808.310  0.500  2.460188  101.618  153.458  13.1082
  9811.403  9811.390  0.500  2.458027  101.584  153.447  13.1357
  9814.500  9814.490  0.500  2.456272  101.5  153.35  13.1504
  9817.620  9817.610  0.500  2.455315  101.429  153.28  13.157
  9820.784  9820.750  0.500  2.454424  101.041  152.737  13.122
  9823.904  9823.900  0.500  2.453492  101.267  153.114  13.1667
  9827.105  9827.080  0.500  2.452350  101.244  153.125  13.1826
  9830.274  9830.270  0.500  2.451631  100.951  152.716  13.1569
  9833.522  9833.490  0.500  2.451320  101.098  152.986  13.1843
  9836.746  9836.720  0.500  2.451068  100.729  152.462  13.1425
  9839.997  9839.970  0.500  2.450777  100.983  152.888  13.183
  9843.264  9843.250  0.500  2.450281  100.69  152.466  13.1531
  9846.574  9846.540  0.500  2.449117  100.859  152.773  13.195
  9849.866  9849.850  0.500  2.447599  100.783  152.7  13.2087
  9853.181  9853.170  0.500  2.445588  100.757  152.69  13.2344
  9856.536  9856.520  0.500  2.444085  100.674  152.596  13.2462
  9859.893  9859.890  0.500  2.442163  100.599  152.509  13.2641
  9863.274  9863.270  0.500  2.440175  100.534  152.462  13.2864
  9866.682  9866.680  0.500  2.437651  100.47  152.407  13.3151
  9870.119  9870.100  0.500  2.435087  100.412  152.368  13.3459
  9873.553  9873.550  0.500  2.432733  100.335  152.312  13.3725
  9877.036  9877.010  0.500  2.430510  100.273  152.22  13.3941
  9880.496  9880.490  0.500  2.428959  100.154  152.075  13.4021
  9884.001  9883.990  0.500  2.428096  99.1238  150.556  13.2797
  9887.522  9887.510  0.500  2.426699  100.02  151.97  13.4232
  9891.061  9891.050  0.500  2.425034  99.9554  151.907  13.44
  9894.620  9894.600  0.500  2.423345  99.8973  151.862  13.4587
  9898.191  9898.180  0.500  2.421563  99.8352  151.816  13.4786
  9901.798  9901.780  0.500  2.419687  99.7584  151.743  13.4974
  9905.403  9905.390  0.500  2.417419  99.7044  151.713  13.5254
  9909.049  9909.020  0.500  2.414885  99.614  151.625  13.5518
  9912.694  9912.680  0.500  2.412430  99.5399  151.559  13.5793
  9916.376  9916.350  0.500  2.410440  99.4662  151.467  13.5981
  9920.051  9920.040  0.500  2.408682  99.3755  151.369  13.6132
  9923.777  9923.750  0.500  2.406609  99.313  151.307  13.6359
  9927.475  9927.480  0.500  2.404229  99.2062  151.203  13.6589
  9931.245  9931.220  0.500  2.401380  98.9442  150.852  13.6661
  9934.983  9934.990  0.500  2.398441  99.0152  150.995  13.7193
  9938.809  9938.780  0.500  2.395918  99.0603  151.106  13.7641
  9942.588  9942.580  0.500  2.393520  98.9752  151.028  13.79
  9946.433  9946.410  0.500  2.391406  98.9076  150.968  13.8137
  9950.256  9950.250  0.500  2.389277  98.8127  150.867  13.8338
  9954.129  9954.110  0.500  2.387446  96.3527  147.165  13.5191
  9958.005  9957.990  0.500  2.386123  98.6212  150.659  13.8584
  9961.897  9961.890  0.500  2.384784  98.5502  150.584  13.8701
  9965.817  9965.810  0.500  2.383632  98.3645  150.349  13.8644
  9969.763  9969.750  0.500  2.382801  96.5816  147.672  13.6289
  9973.724  9973.710  0.500  2.381348  98.4321  150.547  13.9145
  9977.694  9977.680  0.500  2.379773  98.3267  150.432  13.9257
  9981.705  9981.680  0.500  2.378148  98.1522  150.203  13.9271
  9985.710  9985.690  0.500  2.376252  96.1267  147.15  13.67
  9989.750  9989.730  0.500  2.373998  98.0415  150.116  13.9769
  9993.805  9993.780  0.500  2.371234  97.929  150.001  14.0049
  9997.877  9997.850  0.500  2.368205  97.5205  149.407  13.9918
  10001.970  10001.940  0.500  2.364867  97.915  150.055  14.0994
  10006.061  10006.050  0.500  2.361746  97.8209  149.954  14.134
  10010.208  10010.180  0.500  2.359118  97.6929  149.815  14.158
  10014.329  10014.330  0.500  2.356486  96.498  148.024  14.0256
  10018.522  10018.490  0.500  2.354288  97.4624  149.542  14.2007
  10022.701  10022.680  0.500  2.352292  97.4446  149.572  14.2319
  10026.915  10026.880  0.500  2.350316  97.3305  149.454  14.2488
  10031.132  10031.110  0.500  2.348701  97.2255  149.317  14.2588
  10035.370  10035.350  0.500  2.346957  96.6169  148.424  14.1982
  10039.642  10039.610  0.500  2.345538  97.1676  149.323  14.3045
  10043.914  10043.890  0.500  2.344226  97.068  149.22  14.3134
  10048.215  10048.190  0.500  2.342832  96.9737  149.116  14.3234
  10052.534  10052.510  0.500  2.340898  96.871  149.018  14.3417
  10056.886  10056.850  0.500  2.338529  96.7854  148.914  14.3657
  10061.256  10061.210  0.500  2.335907  96.6943  148.837  14.3959
  10065.595  10065.590  0.500  2.332832  96.6118  148.753  14.4321
  10070.003  10069.980  0.500  2.329559  96.5184  148.669  14.4712
  10074.433  10074.400  0.500  2.326178  96.4274  148.567  14.5103
  10078.849  10078.830  0.500  2.322844  96.3278  148.456  14.5478
  10083.313  10083.280  0.500  2.319641  96.2468  148.358  14.585
  10087.768  10087.750  0.500  2.316937  95.8623  147.825  14.5718
  10092.276  10092.240  0.500  2.314462  95.9263  147.982  14.6235
  10096.774  10096.750  0.500  2.312312  95.9481  148.059  14.6626
  10101.325  10101.280  0.500  2.310074  95.8528  147.976  14.6872
  10105.867  10105.830  0.500  2.307919  95.7913  147.906  14.7119
  10110.431  10110.400  0.500  2.306155  95.6762  147.758  14.7231
  10115.012  10114.980  0.500  2.304592  95.5832  147.666  14.737
  10119.611  10119.590  0.500  2.302815  95.4923  147.584  14.755
  10124.240  10124.210  0.500  2.301123  95.3982  147.49  14.7705
  10128.892  10128.860  0.500  2.299265  95.3094  147.408  14.7898
  10133.544  10133.520  0.500  2.297162  95.2093  147.3  14.8101
  10138.240  10138.200  0.500  2.294872  95.1104  147.19  14.833
  10142.927  10142.900  0.500  2.291934  95.0179  147.1  14.8675
  10147.650  10147.620  0.500  2.288964  94.9159  146.993  14.9009
  10152.395  10152.360  0.500  2.285799  94.8345  146.906  14.9393
  10157.127  10157.110  0.500  2.282731  94.74  146.809  14.9753
  10161.926  10161.890  0.500  2.279980  94.6475  146.713  15.0067
  10166.729  10166.690  0.500  2.276944  94.4958  146.526  15.0332
  10171.528  10171.500  0.500  2.274063  94.4395  146.48  15.0718
  10176.355  10176.330  0.500  2.271222  94.3547  146.409  15.1073
  10181.221  10181.190  0.500  2.268408  94.2401  146.279  15.1365
  10186.093  10186.060  0.500  2.265692  94.1434  146.183  15.1677
  10190.983  10190.950  0.500  2.263074  94.0463  146.08  15.1968
  10195.891  10195.860  0.500  2.260600  93.6594  145.511  15.1751
  10200.831  10200.790  0.500  2.258572  93.8518  145.857  15.242
  10205.767  10205.730  0.500  2.256761  93.7258  145.714  15.2546
  10210.730  10210.700  0.500  2.255028  93.6207  145.595  15.2686
  10215.721  10215.690  0.500  2.252988  93.5196  145.48  15.2877
  10220.721  10220.690  0.500  2.250733  93.4215  145.399  15.3137
  10225.740  10225.720  0.500  2.247798  93.282  145.211  15.3389
  10230.813  10230.760  0.500  2.245061  93.2191  145.169  15.3765
  10235.847  10235.820  0.500  2.242104  93.1131  145.062  15.4106
  10240.917  10240.900  0.500  2.239249  92.9724  144.894  15.4368
  10246.034  10246.000  0.500  2.236202  92.9173  144.872  15.4815
  10251.142  10251.120  0.500  2.232997  92.8056  144.731  15.5161
  10256.282  10256.260  0.500  2.229646  92.7056  144.628  15.5571
  10261.446  10261.420  0.500  2.226554  92.5994  144.506  15.5922
  10266.624  10266.600  0.500  2.223387  92.4846  144.372  15.6271
  10271.813  10271.790  0.500  2.220622  92.3711  144.244  15.6564
  10277.047  10277.010  0.500  2.218016  92.0391  143.775  15.6462
  10282.265  10282.240  0.500  2.215521  92.168  144.024  15.7126
  10287.520  10287.490  0.500  2.212768  92.0612  143.907  15.7431
  10292.784  10292.760  0.500  2.210218  91.9466  143.762  15.7673
  10298.069  10298.050  0.500  2.207713  91.8437  143.653  15.7949
  10303.395  10303.360  0.500  2.205225  91.7339  143.544  15.8222
  10308.718  10308.690  0.500  2.202989  91.6235  143.425  15.8445
  10314.056  10314.040  0.500  2.200395  91.5087  143.307  15.8726
  10319.445  10319.410  0.500  2.197722  91.3907  143.165  15.8993
  10324.817  10324.790  0.500  2.194934  91.3036  143.075  15.9337
  10330.223  10330.200  0.500  2.192282  91.1832  142.921  15.9588
  10335.648  10335.620  0.500  2.189736  91.0675  142.784  15.9842
  10341.098  10341.070  0.500  2.186722  90.9579  142.654  16.0178
  10346.544  10346.530  0.500  2.183833  90.8437  142.533  16.0505
  10352.042  10352.010  0.500  2.180729  90.7341  142.4  16.0853
  10357.538  10357.510  0.500  2.177662  90.6177  142.281  16.1213
  10363.066  10363.030  0.500  2.174236  90.4937  142.123  16.1587
  10368.597  10368.570  0.500  2.171135  90.3731  141.99  16.1937
  10374.138  10374.120  0.500  2.168000  90.2251  141.828  16.2261
  10379.727  10379.700  0.500  2.164811  90.1094  141.691  16.2621
  10385.336  10385.300  0.500  2.161736  89.9907  141.554  16.2964
  10390.928  10390.910  0.500  2.158782  89.8703  141.422  16.3294
  10396.578  10396.550  0.500  2.156394  89.7577  141.286  16.3527
  10402.229  10402.200  0.500  2.153976  89.6363  141.157  16.3774
  10407.891  10407.870  0.500  2.151577  89.7524  141.394  16.4442
  10413.583  10413.560  0.500  2.149029  89.7489  141.441  16.4916