File: xdidata/Data/Fe/Fe-Almandine.xdi
# XDI/1.0 BlueSky/1.10.0 BMM/2023-1.0-py310-tiled
# Beamline.name: BMM (06BM) -- Beamline for Materials Measurement (NIST)
# Beamline.xray_source: NSLS-II three-pole wiggler
# Beamline.collimation: paraboloid mirror, 5 nm Rh on 30 nm Pt
# Beamline.focusing: not in use
# Beamline.harmonic_rejection: flat mirror, Si stripe, pitch = 7.0 mrad relative to beam
# Beamline.software: Bluesky 1.10.0, Ophyd 1.7.0, DataBroker 2.0.0b13, Python 3.10.8, 2023-1.0-py310-tiled
# Detector.I0: 10 cm N2
# Detector.I1: 25 cm N2
# Detector.I2: 25 cm N2
# Element.symbol: Fe
# Element.edge: K
# Element.reference: Fe
# Element.reference_material: Fe foil
# Facility.name: NSLS-II
# Facility.energy: 3.0
# Facility.current: 400.6
# Facility.mode: top-off
# Facility.GUP: 123456
# Facility.SAF: 301027
# Facility.cycle: 2023-2
# Mono.name: Si(111)
# Mono.d_spacing: 3.13519
# Mono.encoder_resolution: 0.0000050 deg/ct
# Mono.angle_offset: 16.0754 deg
# Mono.scan_mode: pseudo channel cut
# Mono.scan_type: step
# Mono.direction: forward in energy
# Sample.name: Fe3Al2Si3O12
# Sample.prep: PEG pellet
# Sample.x: 142.329 mm
# Sample.y: 114.126 mm
# Sample.SDD_position: 205.000 mm
# Scan.experimenters: Bruce Ravel
# Scan.edge_energy: 7112.0
# Scan.start_time: 2023-05-05T19:53:02
# Scan.end_time: 2023-05-05T20:01:12
# Scan.transient_id: 74601
# Scan.uid: 445b1a8d-1bfa-493a-a9ec-00d9cb938fdc
# Scan.plot_hint: ln(I0/It)  --  ln($5/$6)
# Column.1: energy eV
# Column.2: requested_energy eV
# Column.3: measurement_time seconds
# Column.4: xmu
# Column.5: I0 nA
# Column.6: It nA
# Column.7: Ir nA
# ///////////
# courtesy Martin Stennett, University of Sheffield
# -----------
# energy  requested_energy  measurement_time  xmu  I0  It  Ir
  6912.007  6912.000  0.500  2.582085  154.688  11.6969  2.197077
  6922.009  6922.000  0.500  2.568602  154.515  11.8425  2.239980
  6932.017  6932.000  0.500  2.556554  154.472  11.9826  2.282306
  6942.033  6942.000  0.500  2.544102  154.476  12.1331  2.327747
  6951.993  6952.000  0.500  2.531765  154.451  12.2817  2.372759
  6962.006  6962.000  0.500  2.519449  154.435  12.4326  2.418724
  6972.018  6972.000  0.500  2.507008  154.419  12.587  2.465082
  6982.010  6982.000  0.500  2.495364  154.377  12.7309  2.510170
  6992.010  6992.000  0.500  2.482980  154.374  12.8893  2.559092
  7002.017  7002.000  0.500  2.470857  154.318  13.0418  2.606401
  7012.012  7012.000  0.500  2.459210  154.238  13.1877  2.653387
  7022.014  7022.000  0.500  2.447219  154.16  13.34  2.701572
  7032.008  7032.000  0.500  2.435564  154.078  13.4893  2.748882
  7042.008  7042.000  0.500  2.424342  153.975  13.6324  2.795370
  7052.005  7052.000  0.500  2.412550  153.893  13.7867  2.843688
  7062.004  7062.000  0.500  2.400952  153.19  13.8839  2.879360
  7072.009  7072.000  0.500  2.390392  153.685  14.0766  2.934063
  7081.978  7082.000  0.500  2.381386  153.613  14.1973  2.970249
  7083.981  7084.000  0.500  2.379285  153.345  14.2023  2.972408
  7085.982  7086.000  0.500  2.377895  153.464  14.2332  2.979595
  7087.988  7088.000  0.500  2.376073  153.463  14.259  2.985457
  7089.992  7090.000  0.500  2.374294  153.45  14.2832  2.990595
  7091.989  7092.000  0.500  2.372608  153.407  14.3032  2.993248
  7093.993  7094.000  0.500  2.371325  153.417  14.3226  2.995035
  7095.986  7096.000  0.500  2.370273  153.401  14.3361  2.994407
  7097.980  7098.000  0.500  2.369443  153.348  14.3431  2.990789
  7099.996  7100.000  0.500  2.369206  153.312  14.3431  2.982740
  7102.001  7102.000  0.500  2.368898  153.31  14.3473  2.971469
  7102.292  7102.300  0.500  2.368798  153.274  14.3454  2.968269
  7102.585  7102.600  0.500  2.369050  153.281  14.3425  2.964751
  7102.891  7102.900  0.500  2.368998  153.291  14.3442  2.962923
  7103.190  7103.200  0.500  2.369322  153.267  14.3372  2.958617
  7103.490  7103.500  0.500  2.369708  153.238  14.329  2.953918
  7103.785  7103.800  0.500  2.369798  153.24  14.3279  2.950590
  7104.089  7104.100  0.500  2.370065  153.229  14.323  2.945626
  7104.388  7104.400  0.500  2.369972  153.224  14.3239  2.942216
  7104.683  7104.700  0.500  2.369984  153.215  14.3228  2.936820
  7104.985  7105.000  0.500  2.370182  153.216  14.3202  2.932000
  7105.291  7105.300  0.500  2.370361  153.206  14.3166  2.926133
  7105.587  7105.600  0.500  2.371064  153.198  14.3059  2.918543
  7105.886  7105.900  0.500  2.371332  153.184  14.3007  2.910904
  7106.188  7106.200  0.500  2.371741  153.174  14.2939  2.903116
  7106.488  7106.500  0.500  2.372105  153.168  14.2881  2.894498
  7106.792  7106.800  0.500  2.372533  153.162  14.2814  2.885487
  7107.092  7107.100  0.500  2.372776  153.157  14.2776  2.875638
  7107.385  7107.400  0.500  2.373198  153.159  14.2717  2.863086
  7107.687  7107.700  0.500  2.373930  153.153  14.2607  2.848545
  7107.989  7108.000  0.500  2.374645  153.147  14.2499  2.833036
  7108.289  7108.300  0.500  2.375300  153.121  14.2382  2.813739
  7108.593  7108.600  0.500  2.376279  153.129  14.225  2.792835
  7108.888  7108.900  0.500  2.377024  153.123  14.2139  2.767908
  7109.188  7109.200  0.500  2.378378  153.097  14.1922  2.735896
  7109.495  7109.500  0.500  2.379692  153.1  14.1738  2.695860
  7109.795  7109.800  0.500  2.381393  153.077  14.1476  2.642652
  7110.097  7110.100  0.500  2.383630  153.04  14.1126  2.572631
  7110.393  7110.400  0.500  2.386745  153.02  14.0668  2.473666
  7110.695  7110.700  0.500  2.391251  152.992  14.001  2.334551
  7110.993  7111.000  0.500  2.397535  152.962  13.9107  2.154156
  7111.299  7111.300  0.500  2.405769  152.945  13.795  1.938066
  7111.591  7111.600  0.500  2.414322  152.928  13.676  1.720979
  7111.891  7111.900  0.500  2.421221  152.878  13.5776  1.523957
  7112.194  7112.200  0.500  2.423628  152.856  13.543  1.373535
  7112.492  7112.500  0.500  2.421587  152.811  13.5667  1.268670
  7112.794  7112.800  0.500  2.418136  152.78  13.6108  1.190419
  7113.097  7113.100  0.500  2.416097  152.763  13.637  1.127348
  7113.393  7113.400  0.500  2.415919  152.757  13.6389  1.070557
  7113.699  7113.700  0.500  2.417523  152.743  13.6158  1.016043
  7114.002  7114.000  0.500  2.418759  152.732  13.5981  0.967580
  7114.302  7114.300  0.500  2.419758  152.709  13.5824  0.925670
  7114.600  7114.600  0.500  2.420409  152.72  13.5746  0.891469
  7114.899  7114.900  0.500  2.421865  152.68  13.5513  0.863717
  7115.197  7115.200  0.500  2.424641  152.684  13.5141  0.841961
  7115.500  7115.500  0.500  2.428950  152.679  13.4555  0.824732
  7115.800  7115.800  0.500  2.434748  152.676  13.3774  0.809719
  7116.092  7116.100  0.500  2.441560  152.661  13.2853  0.797099
  7116.395  7116.400  0.500  2.450152  152.645  13.1703  0.782128
  7116.693  7116.700  0.500  2.460908  152.627  13.0279  0.763510
  7116.998  7117.000  0.500  2.474677  152.609  12.8482  0.737211
  7117.299  7117.300  0.500  2.491529  152.6  12.6327  0.703191
  7117.598  7117.600  0.500  2.513107  152.586  12.3619  0.659109
  7117.900  7117.900  0.500  2.540812  152.58  12.0236  0.606960
  7118.201  7118.200  0.500  2.575521  152.58  11.6135  0.548237
  7118.506  7118.500  0.500  2.618648  152.555  11.1215  0.487498
  7118.803  7118.800  0.500  2.671163  152.531  10.5509  0.428750
  7119.099  7119.100  0.500  2.734879  152.52  9.898827  0.372563
  7119.400  7119.400  0.500  2.811051  152.509  9.172129  0.319571
  7119.701  7119.700  0.500  2.897389  152.493  8.412578  0.271001
  7120.002  7120.000  0.500  2.996293  152.483  7.619887  0.225924
  7120.296  7120.300  0.500  3.100880  152.481  6.863102  0.186868
  7120.595  7120.600  0.500  3.206995  152.448  6.170818  0.153779
  7120.892  7120.900  0.500  3.308884  152.436  5.572601  0.127222
  7121.197  7121.200  0.500  3.405117  152.439  5.061411  0.106006
  7121.498  7121.500  0.500  3.490559  152.421  4.646382  0.090141
  7121.799  7121.800  0.500  3.569167  152.398  4.294477  0.077845
  7122.102  7122.100  0.500  3.646726  152.39  3.973787  0.067346
  7122.399  7122.400  0.500  3.726712  152.361  3.667619  0.058888
  7122.705  7122.700  0.500  3.816013  152.362  3.354300  0.050933
  7123.004  7123.000  0.500  3.910870  152.336  3.050244  0.044169
  7123.303  7123.300  0.500  4.006131  152.326  2.772888  0.038392
  7123.602  7123.600  0.500  4.096862  152.31  2.532117  0.033647
  7123.901  7123.900  0.500  4.183056  152.289  2.322679  0.029741
  7124.202  7124.200  0.500  4.265336  152.242  2.138566  0.026440
  7124.501  7124.500  0.500  4.342143  152.236  1.980373  0.023719
  7124.796  7124.800  0.500  4.410373  152.218  1.849541  0.021418
  7125.095  7125.100  0.500  4.465822  152.203  1.749613  0.019678
  7125.394  7125.400  0.500  4.505711  152.181  1.680955  0.018191
  7125.702  7125.700  0.500  4.526476  152.157  1.646152  0.017335
  7125.999  7126.000  0.500  4.527981  152.133  1.643413  0.016843
  7126.303  7126.300  0.500  4.514856  152.132  1.665109  0.016459
  7126.600  7126.600  0.500  4.494337  152.107  1.699353  0.016356
  7126.902  7126.900  0.500  4.474117  152.071  1.733656  0.016064
  7127.203  7127.200  0.500  4.457853  152.037  1.761688  0.015738
  7127.505  7127.500  0.500  4.445466  152.022  1.783463  0.015376
  7127.802  7127.800  0.500  4.432737  151.996  1.806001  0.014831
  7128.099  7128.100  0.500  4.413680  151.986  1.840631  0.014525
  7128.401  7128.400  0.500  4.383838  151.94  1.895810  0.014181
  7128.701  7128.700  0.500  4.341751  152.395  1.983223  0.014055
  7128.994  7129.000  0.500  4.287225  152.388  2.094269  0.014338
  7129.300  7129.300  0.500  4.221549  152.342  2.235751  0.014354
  7129.597  7129.600  0.500  4.148670  152.319  2.404412  0.014683
  7129.899  7129.900  0.500  4.070910  152.289  2.598325  0.015124
  7130.207  7130.200  0.500  3.993342  152.254  2.807259  0.015830
  7130.502  7130.500  0.500  3.922983  152.212  3.011065  0.016345
  7130.802  7130.800  0.500  3.857469  152.169  3.214016  0.017278
  7131.104  7131.100  0.500  3.799770  152.158  3.404672  0.018035
  7131.402  7131.400  0.500  3.752171  152.135  3.570122  0.019045
  7131.706  7131.700  0.500  3.712535  152.126  3.714236  0.020026
  7132.003  7132.000  0.500  3.682438  152.127  3.827756  0.021322
  7132.301  7132.300  0.500  3.658152  152.131  3.921962  0.022481
  7132.601  7132.600  0.500  3.637200  152.112  4.004504  0.023882
  7132.901  7132.900  0.500  3.616970  152.092  4.085791  0.025365
  7133.203  7133.200  0.500  3.596659  152.082  4.169342  0.027004
  7133.498  7133.500  0.500  3.577091  152.059  4.251113  0.028847
  7133.798  7133.800  0.500  3.558277  152.074  4.332258  0.030655
  7134.098  7134.100  0.500  3.540012  152.071  4.412023  0.032251
  7134.403  7134.400  0.500  3.522528  152.068  4.489754  0.034022
  7134.703  7134.700  0.500  3.504765  152.062  4.570032  0.035794
  7135.001  7135.000  0.500  3.487073  152.07  4.651858  0.037366
  7135.303  7135.300  0.500  3.470124  152.061  4.731109  0.038770
  7135.601  7135.600  0.500  3.455702  152.04  4.799170  0.039927
  7135.899  7135.900  0.500  3.443911  152.039  4.856057  0.041093
  7136.203  7136.200  0.500  3.435433  152.045  4.897579  0.041876
  7136.503  7136.500  0.500  3.430156  152.059  4.923945  0.042576
  7136.801  7136.800  0.500  3.427499  152.04  4.936436  0.042621
  7136.989  7137.000  0.500  3.426992  152.022  4.938363  0.042747
  7137.998  7137.990  0.500  3.443179  152.014  4.858810  0.041326
  7139.007  7138.990  0.500  3.481362  152.004  4.676466  0.038101
  7140.023  7140.010  0.500  3.507360  152.018  4.556867  0.035285
  7141.085  7141.060  0.500  3.512629  152.02  4.532999  0.034020
  7142.108  7142.120  0.500  3.508560  151.966  4.549852  0.033968
  7143.188  7143.200  0.500  3.501063  151.991  4.584850  0.034686
  7144.298  7144.300  0.500  3.493655  151.983  4.618710  0.035413
  7145.422  7145.420  0.500  3.489342  151.958  4.637911  0.035490
  7146.563  7146.560  0.500  3.491320  151.948  4.628427  0.034214
  7147.711  7147.710  0.500  3.500660  151.963  4.585862  0.031808
  7148.892  7148.890  0.500  3.507368  151.947  4.554707  0.029474
  7150.087  7150.080  0.500  3.511871  151.937  4.533944  0.028038
  7151.301  7151.300  0.500  3.528154  151.949  4.461079  0.026751
  7152.532  7152.530  0.500  3.563332  151.958  4.307140  0.025261
  7153.788  7153.780  0.500  3.612370  151.932  4.100309  0.023767
  7155.056  7155.050  0.500  3.665976  151.907  3.885646  0.022797
  7156.342  7156.340  0.500  3.718392  151.894  3.686928  0.021991
  7157.650  7157.650  0.500  3.756765  151.894  3.548117  0.021597
  7158.980  7158.980  0.500  3.771896  151.876  3.494426  0.021302
  7160.332  7160.330  0.500  3.772936  151.853  3.490271  0.021296
  7161.703  7161.700  0.500  3.770638  151.822  3.497581  0.021676
  7163.080  7163.080  0.500  3.765006  151.784  3.516454  0.021995
  7164.500  7164.490  0.500  3.753832  151.749  3.555140  0.022828
  7165.915  7165.910  0.500  3.742744  151.702  3.593663  0.023393
  7167.353  7167.350  0.500  3.735882  151.659  3.617378  0.023920
  7168.822  7168.810  0.500  3.725800  151.616  3.653005  0.024307
  7170.296  7170.290  0.500  3.711706  151.601  3.704503  0.025053
  7171.795  7171.790  0.500  3.701562  151.579  3.741728  0.026233
  7173.325  7173.310  0.500  3.688091  151.538  3.791436  0.027672
  7174.851  7174.850  0.500  3.674454  151.506  3.842680  0.029548
  7176.420  7176.410  0.500  3.660064  151.49  3.897966  0.031665
  7177.991  7177.980  0.500  3.645774  151.437  3.952693  0.033775
  7179.583  7179.580  0.500  3.635388  151.47  3.994814  0.035306
  7181.197  7181.190  0.500  3.627159  151.415  4.026369  0.035873
  7182.834  7182.830  0.500  3.619440  151.366  4.056256  0.035819
  7184.485  7184.480  0.500  3.611983  151.345  4.086037  0.035219
  7186.159  7186.150  0.500  3.605091  151.326  4.113792  0.034346
  7187.849  7187.840  0.500  3.596963  151.294  4.146487  0.032685
  7189.561  7189.550  0.500  3.589919  151.266  4.175022  0.031340
  7191.299  7191.280  0.500  3.586631  149.706  4.145569  0.029108
  7193.039  7193.030  0.500  3.585099  150.903  4.185137  0.027803
  7194.798  7194.790  0.500  3.582327  151.091  4.201969  0.027443
  7196.593  7196.580  0.500  3.579977  151.074  4.211399  0.028148
  7198.387  7198.380  0.500  3.576309  151.029  4.225613  0.029761
  7200.224  7200.210  0.500  3.570749  150.988  4.248026  0.031748
  7202.057  7202.050  0.500  3.565331  150.964  4.270408  0.034358
  7203.926  7203.910  0.500  3.564392  150.896  4.272503  0.037097
  7205.799  7205.790  0.500  3.569565  150.851  4.249183  0.039827
  7207.703  7207.690  0.500  3.578018  150.778  4.211378  0.040724
  7209.618  7209.610  0.500  3.586471  150.722  4.174385  0.039050
  7211.562  7211.550  0.500  3.593271  150.7  4.145475  0.034995
  7213.520  7213.510  0.500  3.598291  150.658  4.123570  0.029596
  7215.495  7215.480  0.500  3.602745  150.61  4.103936  0.024605
  7217.487  7217.480  0.500  3.607138  150.558  4.084550  0.021027
  7219.513  7219.490  0.500  3.609119  150.488  4.074569  0.019053
  7221.529  7221.520  0.500  3.607201  150.426  4.080713  0.018664
  7223.590  7223.580  0.500  3.602287  150.358  4.098945  0.020021
  7225.662  7225.650  0.500  3.595743  150.238  4.122569  0.022576
  7227.748  7227.740  0.500  3.587667  147.591  4.082777  0.025925
  7229.867  7229.850  0.500  3.580342  150.399  4.191056  0.030829
  7231.991  7231.980  0.500  3.573746  150.338  4.217078  0.035553
  7234.128  7234.120  0.500  3.571366  150.295  4.225909  0.040211
  7236.303  7236.290  0.500  3.573038  150.287  4.218630  0.043443
  7238.487  7238.480  0.500  3.576955  150.249  4.201066  0.044519
  7240.694  7240.680  0.500  3.579311  150.193  4.189614  0.044342
  7242.910  7242.900  0.500  3.578719  150.157  4.191093  0.042747
  7245.165  7245.150  0.500  3.574864  147.338  4.128289  0.039958
  7247.423  7247.410  0.500  3.568940  149.891  4.224773  0.038998
  7249.703  7249.690  0.500  3.561140  149.893  4.257912  0.038509
  7252.000  7251.990  0.500  3.552318  149.819  4.293536  0.039329
  7254.326  7254.310  0.500  3.543704  147.507  4.263840  0.040189
  7256.666  7256.650  0.500  3.535821  149.898  4.367260  0.041936
  7259.008  7259.000  0.500  3.529996  149.725  4.387691  0.041644
  7261.394  7261.380  0.500  3.525632  149.281  4.393817  0.040679
  7263.782  7263.770  0.500  3.522788  138.776  4.096267  0.036867
  7266.198  7266.190  0.500  3.519904  149.463  4.424445  0.038993
  7268.637  7268.620  0.500  3.516124  150.1  4.460119  0.038346
  7271.081  7271.070  0.500  3.512180  150.035  4.475815  0.036532
  7273.565  7273.550  0.500  3.509532  148.881  4.453176  0.034449
  7276.047  7276.040  0.500  3.507212  150.066  4.499051  0.033776
  7278.559  7278.550  0.500  3.507389  150.015  4.496698  0.033135
  7281.083  7281.070  0.500  3.508545  149.979  4.490431  0.032152
  7283.628  7283.620  0.500  3.509752  148.932  4.453706  0.030819
  7286.200  7286.190  0.500  3.508574  149.555  4.477622  0.029819
  7288.783  7288.770  0.500  3.503500  149.663  4.503649  0.029481
  7291.389  7291.380  0.500  3.494485  149.648  4.543963  0.030981
  7294.014  7294.000  0.500  3.484432  149.616  4.588887  0.033992
  7296.664  7296.650  0.500  3.475442  149.54  4.627998  0.037727
  7299.322  7299.310  0.500  3.469227  149.439  4.653684  0.041648
  7302.003  7301.990  0.500  3.466148  147.703  4.613827  0.044429
  7304.707  7304.690  0.500  3.466384  149.55  4.670417  0.047266
  7307.422  7307.410  0.500  3.468450  149.442  4.657392  0.048880
  7310.166  7310.150  0.500  3.470964  149.362  4.643227  0.049198
  7312.919  7312.900  0.500  3.472564  149.331  4.634843  0.049333
  7315.692  7315.680  0.500  3.471434  149.236  4.637127  0.049199
  7318.481  7318.470  0.500  3.468415  149.189  4.649683  0.049554
  7321.304  7321.290  0.500  3.462751  149.126  4.674106  0.050137
  7324.132  7324.120  0.500  3.455686  149.056  4.705049  0.050456
  7326.983  7326.970  0.500  3.448688  148.962  4.735095  0.050822
  7329.861  7329.850  0.500  3.444604  148.965  4.754591  0.051504
  7332.755  7332.740  0.500  3.442451  148.878  4.762046  0.052541
  7335.665  7335.650  0.500  3.441130  148.821  4.766511  0.053571
  7338.585  7338.570  0.500  3.438092  147.594  4.741601  0.054191
  7341.532  7341.520  0.500  3.432365  148.593  4.801119  0.054333
  7344.502  7344.490  0.500  3.426210  148.596  4.830855  0.052613
  7347.484  7347.470  0.500  3.420857  148.526  4.854486  0.050073
  7350.498  7350.480  0.500  3.415623  148.452  4.877529  0.047571
  7353.517  7353.500  0.500  3.409748  148.79  4.917430  0.045802
  7356.562  7356.550  0.500  3.402514  148.708  4.950413  0.044084
  7359.623  7359.610  0.500  3.394870  148.623  4.985538  0.042841
  7362.698  7362.690  0.500  3.388348  148.539  5.015316  0.041882
  7365.802  7365.790  0.500  3.382757  148.472  5.041187  0.041666
  7368.928  7368.910  0.500  3.378444  148.424  5.061342  0.042273
  7372.067  7372.050  0.500  3.375552  148.357  5.073703  0.044253
  7375.211  7375.200  0.500  3.373443  148.287  5.082016  0.047607
  7378.393  7378.380  0.500  3.372247  148.195  5.084946  0.052594
  7381.577  7381.570  0.500  3.371277  148.135  5.087805  0.058109
  7384.799  7384.790  0.500  3.369311  148.044  5.094704  0.062671
  7388.028  7388.020  0.500  3.366245  147.964  5.107582  0.064594
  7391.282  7391.270  0.500  3.362053  147.879  5.126072  0.064391
  7394.561  7394.550  0.500  3.357782  147.79  5.144942  0.063470
  7397.851  7397.840  0.500  3.354098  147.676  5.159924  0.062915
  7401.162  7401.150  0.500  3.351205  147.625  5.173091  0.063033
  7404.481  7404.470  0.500  3.348158  147.547  5.186135  0.063434
  7407.833  7407.820  0.500  3.344378  147.462  5.202783  0.063559
  7411.198  7411.190  0.500  3.338871  147.386  5.228800  0.063703
  7414.580  7414.570  0.500  3.332478  147.289  5.258893  0.064025
  7417.987  7417.980  0.500  3.326437  147.186  5.287061  0.064651
  7421.404  7421.400  0.500  3.321340  147.07  5.309864  0.065721
  7424.859  7424.850  0.500  3.317216  146.95  5.327457  0.067272
  7428.322  7428.310  0.500  3.313546  146.831  5.342732  0.068503
  7431.800  7431.790  0.500  3.309494  146.738  5.361030  0.068921
  7435.310  7435.290  0.500  3.304900  146.643  5.382208  0.068681
  7438.821  7438.810  0.500  3.299711  146.524  5.405818  0.068053
  7442.359  7442.350  0.500  3.294307  146.371  5.429460  0.066483
  7445.907  7445.900  0.500  3.288726  142.5  5.315438  0.063157
  7449.488  7449.480  0.500  3.284236  146.347  5.483513  0.063710
  7453.093  7453.080  0.500  3.279625  145.038  5.459560  0.063056
  7456.700  7456.690  0.500  3.275197  146.104  5.524100  0.063911
  7460.333  7460.320  0.500  3.270900  145.48  5.524208  0.064313
  7463.992  7463.980  0.500  3.266949  145.88  5.561324  0.065513
  7467.660  7467.650  0.500  3.263273  141.876  5.428595  0.065945
  7471.352  7471.340  0.500  3.259944  145.758  5.595714  0.070118
  7475.060  7475.050  0.500  3.256430  145.64  5.610891  0.072536
  7478.786  7478.780  0.500  3.252978  145.533  5.626159  0.074620
  7482.531  7482.520  0.500  3.248895  145.4  5.644014  0.076319
  7486.305  7486.290  0.500  3.243738  145.26  5.667740  0.078872
  7490.093  7490.080  0.500  3.238640  145.13  5.691597  0.081339
  7493.895  7493.880  0.500  3.232592  145.015  5.721588  0.083409
  7497.727  7497.710  0.500  3.226813  144.936  5.751611  0.084277
  7501.567  7501.550  0.500  3.221607  144.825  5.777187  0.084525
  7505.427  7505.410  0.500  3.217135  144.669  5.796840  0.084275
  7509.304  7509.290  0.500  3.212674  144.55  5.817982  0.084447
  7513.210  7513.190  0.500  3.208322  144.4  5.837290  0.084973
  7517.106  7517.110  0.500  3.204044  144.275  5.857241  0.086104
  7521.047  7521.050  0.500  3.199828  144.114  5.875432  0.086900
  7525.009  7525.010  0.500  3.195460  144.016  5.897114  0.087471
  7528.973  7528.980  0.500  3.190327  143.897  5.922555  0.087678
  7532.975  7532.980  0.500  3.185224  143.74  5.946377  0.088084
  7537.023  7536.990  0.500  3.179969  143.597  5.971745  0.088702
  7541.048  7541.030  0.500  3.174468  143.473  5.999531  0.089549
  7545.110  7545.080  0.500  3.169396  143.31  6.023178  0.090731
  7549.168  7549.150  0.500  3.165256  143.17  6.042257  0.091519
  7553.241  7553.240  0.500  3.161553  143.023  6.058426  0.091800
  7557.382  7557.350  0.500  3.157465  142.864  6.076491  0.091304
  7561.496  7561.480  0.500  3.153829  142.707  6.091919  0.090877
  7565.622  7565.630  0.500  3.150093  142.561  6.108465  0.090972
  7569.823  7569.790  0.500  3.145651  142.41  6.129149  0.091857
  7573.983  7573.980  0.500  3.141406  142.226  6.147294  0.093841
  7578.199  7578.180  0.500  3.136343  142.083  6.172304  0.096297
  7582.432  7582.410  0.500  3.131036  141.931  6.198477  0.099000
  7586.640  7586.650  0.500  3.125319  141.776  6.227200  0.101405
  7590.907  7590.910  0.500  3.119656  141.572  6.253583  0.102761
  7595.212  7595.190  0.500  3.114489  141.361  6.276588  0.103968
  7599.474  7599.490  0.500  3.109538  141.099  6.296063  0.104661
  7603.796  7603.810  0.500  3.104584  140.538  6.302156  0.105109
  7608.140  7608.150  0.500  3.099663  140.319  6.323388  0.106520
  7612.496  7612.510  0.500  3.094728  140.085  6.344056  0.108162
  7616.883  7616.890  0.500  3.089382  139.991  6.373785  0.109878
  7621.275  7621.280  0.500  3.085008  140.13  6.408107  0.110726
  7625.721  7625.700  0.500  3.080568  140.17  6.438439  0.111316
  7630.151  7630.130  0.500  3.075423  140.037  6.465539  0.112230
  7634.566  7634.580  0.500  3.070292  139.916  6.493148  0.113660
  7639.039  7639.050  0.500  3.065187  139.706  6.516588  0.115561
  7643.544  7643.540  0.500  3.060111  139.494  6.539807  0.117637
  7648.027  7648.050  0.500  3.055597  139.332  6.561797  0.119406
  7652.559  7652.580  0.500  3.050459  139.179  6.588352  0.120809
  7657.116  7657.130  0.500  3.046045  139.014  6.609663  0.121635
  7661.681  7661.700  0.500  3.041245  138.824  6.632387  0.122495
  7666.262  7666.280  0.500  3.036467  138.651  6.655834  0.123161
  7670.913  7670.890  0.500  3.032126  138.473  6.676224  0.123432
  7675.503  7675.510  0.500  3.027499  138.304  6.698983  0.123783
  7680.151  7680.160  0.500  3.022708  138.07  6.719748  0.124266
  7684.808  7684.820  0.500  3.017489  137.795  6.741458  0.125160
  7689.508  7689.500  0.500  3.012170  137.921  6.783633  0.126738
  7694.192  7694.200  0.500  3.006936  137.612  6.803937  0.128528
  7698.924  7698.920  0.500  3.001606  137.39  6.829257  0.130350
  7703.665  7703.660  0.500  2.996614  137.165  6.852228  0.132102
  7708.417  7708.410  0.500  2.992180  137.061  6.877440  0.133967
  7713.195  7713.190  0.500  2.987175  136.794  6.898503  0.135593
  7717.967  7717.990  0.500  2.982008  136.57  6.922841  0.137708
  7722.809  7722.800  0.500  2.976758  136.438  6.952563  0.139922
  7727.608  7727.630  0.500  2.972147  136.24  6.974559  0.141331
  7732.473  7732.490  0.500  2.966952  136.018  6.999479  0.142767
  7737.343  7737.360  0.500  2.961853  135.718  7.019733  0.143940
  7742.271  7742.250  0.500  2.957082  135.805  7.057811  0.145888
  7747.142  7747.160  0.500  2.952122  135.513  7.077678  0.147108
  7752.111  7752.090  0.500  2.946814  135.287  7.103498  0.148488
  7757.041  7757.030  0.500  2.942031  135.067  7.125950  0.150036
  7761.990  7762.000  0.500  2.936497  134.858  7.154366  0.151807
  7767.010  7766.990  0.500  2.931136  134.615  7.179891  0.153907
  7772.019  7771.990  0.500  2.926256  134.455  7.206405  0.155955
  7777.039  7777.020  0.500  2.921103  134.169  7.228246  0.157735
  7782.082  7782.060  0.500  2.916266  134.052  7.256981  0.159907
  7787.118  7787.120  0.500  2.911371  133.855  7.281871  0.161325
  7792.185  7792.200  0.500  2.906481  133.652  7.306441  0.162983
  7797.302  7797.300  0.500  2.901422  133.451  7.332461  0.164590
  7802.406  7802.420  0.500  2.896066  133.256  7.361085  0.165963
  7807.538  7807.560  0.500  2.891214  133.063  7.386149  0.167475
  7812.731  7812.720  0.500  2.886117  132.837  7.411315  0.168961
  7817.881  7817.900  0.500  2.881180  132.628  7.436249  0.170412
  7823.073  7823.090  0.500  2.875906  132.395  7.462471  0.171941
  7828.288  7828.310  0.500  2.870787  132.203  7.489853  0.173787
  7833.525  7833.540  0.500  2.865570  131.957  7.515051  0.175298
  7838.780  7838.790  0.500  2.860139  131.467  7.527892  0.176563
  7844.043  7844.060  0.500  2.855067  131.528  7.569672  0.179003
  7849.368  7849.350  0.500  2.849981  131.232  7.591178  0.180782
  7854.643  7854.660  0.500  2.844977  130.169  7.567477  0.181441
  7859.967  7859.990  0.500  2.840083  130.802  7.641559  0.184936
  7865.317  7865.340  0.500  2.835046  130.592  7.667848  0.187228
  7870.691  7870.710  0.500  2.829710  130.346  7.694319  0.189529
  7876.106  7876.090  0.500  2.824757  130.157  7.721323  0.191710
  7881.476  7881.500  0.500  2.819595  129.885  7.745030  0.193966
  7886.894  7886.920  0.500  2.814343  129.681  7.773631  0.196298
  7892.343  7892.370  0.500  2.809513  129.466  7.798293  0.198410
  7897.798  7897.830  0.500  2.804202  129.132  7.819623  0.200129
  7903.287  7903.310  0.500  2.799227  128.934  7.846536  0.202669
  7908.783  7908.810  0.500  2.794159  128.684  7.871151  0.205005
  7914.312  7914.330  0.500  2.788753  128.417  7.897369  0.206877
  7919.844  7919.870  0.500  2.783913  128.197  7.922105  0.209052
  7925.399  7925.420  0.500  2.778909  127.922  7.944754  0.211193
  7930.982  7931.000  0.500  2.773376  127.537  7.964791  0.213116
  7936.607  7936.600  0.500  2.768492  127.172  7.980862  0.214884
  7942.179  7942.210  0.500  2.763234  127.206  8.025083  0.217416
  7947.835  7947.850  0.500  2.757913  126.886  8.047610  0.219349
  7953.471  7953.500  0.500  2.752754  126.44  8.060789  0.221105
  7959.143  7959.170  0.500  2.747381  126.557  8.111713  0.223692
  7964.846  7964.860  0.500  2.741998  126.282  8.137815  0.225966