File: xdidata/Data/Fe/Fe-Andradite.xdi
# XDI/1.0 BlueSky/1.10.0 BMM/2023-1.0-py310-tiled
# Beamline.name: BMM (06BM) -- Beamline for Materials Measurement (NIST)
# Beamline.xray_source: NSLS-II three-pole wiggler
# Beamline.collimation: paraboloid mirror, 5 nm Rh on 30 nm Pt
# Beamline.focusing: not in use
# Beamline.harmonic_rejection: flat mirror, Si stripe, pitch = 7.0 mrad relative to beam
# Beamline.software: Bluesky 1.10.0, Ophyd 1.7.0, DataBroker 2.0.0b13, Python 3.10.8, 2023-1.0-py310-tiled
# Detector.I0: 10 cm N2
# Detector.I1: 25 cm N2
# Detector.I2: 25 cm N2
# Element.symbol: Fe
# Element.edge: K
# Element.reference: Fe
# Element.reference_material: Fe foil
# Facility.name: NSLS-II
# Facility.energy: 3.0
# Facility.current: 399.9
# Facility.mode: top-off
# Facility.GUP: 123456
# Facility.SAF: 301027
# Facility.cycle: 2023-2
# Mono.name: Si(111)
# Mono.d_spacing: 3.13519
# Mono.encoder_resolution: 0.0000050 deg/ct
# Mono.angle_offset: 16.0754 deg
# Mono.scan_mode: pseudo channel cut
# Mono.scan_type: step
# Mono.direction: forward in energy
# Sample.name: Ca3Fe2Si3O12
# Sample.prep: PEG pellet
# Sample.x: 142.329 mm
# Sample.y: 114.126 mm
# Sample.SDD_position: 205.000 mm
# Scan.experimenters: Bruce Ravel
# Scan.edge_energy: 7112.0
# Scan.start_time: 2023-05-05T19:17:03
# Scan.end_time: 2023-05-05T19:25:17
# Scan.transient_id: 74581
# Scan.uid: a7717a87-a9c9-43f2-93ae-b62938e1b53a
# Scan.plot_hint: ln(I0/It)  --  ln($5/$6)
# Column.1: energy eV
# Column.2: requested_energy eV
# Column.3: measurement_time seconds
# Column.4: xmu
# Column.5: I0 nA
# Column.6: It nA
# Column.7: Ir nA
# ///////////
# courtesy Martin Stennett, University of Sheffield
# -----------
# energy  requested_energy  measurement_time  xmu  I0  It  Ir
  6912.005  6912.000  0.500  2.255592  154.325  16.175  3.035486
  6922.009  6922.000  0.500  2.243992  154.123  16.3423  3.088761
  6932.013  6932.000  0.500  2.232469  154.048  16.5237  3.145731
  6942.015  6942.000  0.500  2.220603  154.063  16.7225  3.205757
  6952.004  6952.000  0.500  2.209285  154.047  16.9111  3.264932
  6962.018  6962.000  0.500  2.198068  154.044  17.1016  3.324063
  6972.014  6972.000  0.500  2.187125  154.014  17.2864  3.383266
  6982.029  6982.000  0.500  2.175858  153.972  17.4774  3.443548
  6992.008  6992.000  0.500  2.164841  153.897  17.6625  3.504158
  7002.013  7002.000  0.500  2.153603  153.855  17.8573  3.566524
  7012.008  7012.000  0.500  2.142408  153.79  18.0506  3.629191
  7022.008  7022.000  0.500  2.131513  153.718  18.2399  3.691239
  7032.008  7032.000  0.500  2.120724  153.655  18.4301  3.753054
  7042.006  7042.000  0.500  2.109780  153.555  18.6208  3.814877
  7052.005  7052.000  0.500  2.099452  153.462  18.8027  3.875537
  7062.008  7062.000  0.500  2.088752  152.724  18.9135  3.920368
  7072.009  7072.000  0.500  2.078536  153.245  19.173  3.994044
  7081.984  7082.000  0.500  2.068284  153.161  19.36  4.047313
  7083.985  7084.000  0.500  2.066571  153.416  19.4254  4.061794
  7085.980  7086.000  0.500  2.064444  153.538  19.4823  4.074424
  7087.990  7088.000  0.500  2.062380  153.539  19.5226  4.084521
  7089.988  7090.000  0.500  2.060384  153.518  19.559  4.092891
  7091.993  7092.000  0.500  2.058627  153.491  19.5899  4.096583
  7093.991  7094.000  0.500  2.056696  153.442  19.6215  4.099550
  7095.986  7096.000  0.500  2.054955  153.449  19.6566  4.102733
  7097.982  7098.000  0.500  2.053493  153.378  19.6763  4.100055
  7099.996  7100.000  0.500  2.051485  153.315  19.7077  4.095586
  7102.001  7102.000  0.500  2.049652  153.288  19.7404  4.084812
  7102.292  7102.300  0.500  2.049310  153.272  19.7451  4.083001
  7102.587  7102.600  0.500  2.049544  153.253  19.7381  4.078121
  7102.884  7102.900  0.500  2.049065  153.264  19.7488  4.076891
  7103.188  7103.200  0.500  2.048683  153.206  19.7489  4.072433
  7103.483  7103.500  0.500  2.048487  153.193  19.7511  4.068941
  7103.787  7103.800  0.500  2.048348  153.188  19.7532  4.065028
  7104.089  7104.100  0.500  2.047978  153.179  19.7594  4.060872
  7104.386  7104.400  0.500  2.048034  153.185  19.759  4.054896
  7104.686  7104.700  0.500  2.047542  153.181  19.7683  4.051365
  7104.989  7105.000  0.500  2.047213  153.153  19.7712  4.046249
  7105.285  7105.300  0.500  2.047287  153.136  19.7674  4.038032
  7105.593  7105.600  0.500  2.047057  153.122  19.7702  4.030644
  7105.886  7105.900  0.500  2.046983  153.101  19.769  4.020817
  7106.188  7106.200  0.500  2.046807  153.084  19.7703  4.011555
  7106.490  7106.500  0.500  2.046737  153.07  19.7699  4.001737
  7106.794  7106.800  0.500  2.046653  153.096  19.7749  3.991409
  7107.094  7107.100  0.500  2.046234  153.062  19.7788  3.980279
  7107.385  7107.400  0.500  2.046054  153.048  19.7806  3.966497
  7107.685  7107.700  0.500  2.046174  153.056  19.7792  3.948498
  7107.987  7108.000  0.500  2.045702  153.028  19.7849  3.929747
  7108.291  7108.300  0.500  2.045547  153.044  19.79  3.908335
  7108.586  7108.600  0.500  2.045593  153.055  19.7906  3.882921
  7108.888  7108.900  0.500  2.045532  153.024  19.7877  3.850973
  7109.188  7109.200  0.500  2.045238  153  19.7904  3.812455
  7109.493  7109.500  0.500  2.045186  152.991  19.7903  3.762826
  7109.799  7109.800  0.500  2.045140  152.973  19.7889  3.694995
  7110.093  7110.100  0.500  2.045231  152.965  19.786  3.603685
  7110.395  7110.400  0.500  2.045527  152.905  19.7725  3.472720
  7110.697  7110.700  0.500  2.045684  152.877  19.7657  3.291794
  7110.995  7111.000  0.500  2.046128  152.869  19.7559  3.053359
  7111.297  7111.300  0.500  2.046555  152.838  19.7435  2.769001
  7111.595  7111.600  0.500  2.047197  152.81  19.7272  2.475705
  7111.891  7111.900  0.500  2.047958  152.753  19.7049  2.208997
  7112.194  7112.200  0.500  2.049092  152.724  19.6788  1.995709
  7112.490  7112.500  0.500  2.050438  152.704  19.6497  1.836109
  7112.796  7112.800  0.500  2.052407  152.7  19.6105  1.712781
  7113.092  7113.100  0.500  2.054459  152.672  19.5668  1.616234
  7113.399  7113.400  0.500  2.055343  152.67  19.5492  1.531164
  7113.697  7113.700  0.500  2.055217  152.646  19.5486  1.456150
  7114.000  7114.000  0.500  2.054495  152.634  19.5611  1.389955
  7114.304  7114.300  0.500  2.054539  152.635  19.5604  1.330212
  7114.600  7114.600  0.500  2.054804  152.619  19.5533  1.281859
  7114.901  7114.900  0.500  2.054736  152.587  19.5504  1.243573
  7115.199  7115.200  0.500  2.053745  152.572  19.5679  1.216655
  7115.502  7115.500  0.500  2.052252  152.571  19.597  1.198469
  7115.802  7115.800  0.500  2.050701  152.553  19.6251  1.185373
  7116.092  7116.100  0.500  2.050295  152.548  19.6324  1.175289
  7116.393  7116.400  0.500  2.050228  152.504  19.6281  1.162983
  7116.693  7116.700  0.500  2.050876  152.522  19.6177  1.146827
  7116.998  7117.000  0.500  2.051886  152.518  19.5973  1.121850
  7117.299  7117.300  0.500  2.052872  152.508  19.5768  1.085637
  7117.595  7117.600  0.500  2.054691  152.517  19.5423  1.037998
  7117.896  7117.900  0.500  2.056983  152.483  19.4933  0.979149
  7118.199  7118.200  0.500  2.059764  152.459  19.4361  0.912687
  7118.502  7118.500  0.500  2.063612  152.438  19.3588  0.843708
  7118.805  7118.800  0.500  2.068414  152.435  19.2656  0.776032
  7119.104  7119.100  0.500  2.074344  152.437  19.152  0.713789
  7119.398  7119.400  0.500  2.081135  152.411  19.0192  0.655236
  7119.701  7119.700  0.500  2.088493  152.393  18.8775  0.600081
  7120.000  7120.000  0.500  2.096760  152.381  18.7206  0.547330
  7120.301  7120.300  0.500  2.105962  152.368  18.5476  0.497122
  7120.595  7120.600  0.500  2.116604  152.362  18.3504  0.450379
  7120.892  7120.900  0.500  2.128425  152.332  18.1313  0.407963
  7121.199  7121.200  0.500  2.141589  152.314  17.892  0.370155
  7121.500  7121.500  0.500  2.155322  152.293  17.6456  0.338302
  7121.801  7121.800  0.500  2.170888  152.299  17.3737  0.310852
  7122.102  7122.100  0.500  2.188758  152.292  17.0652  0.286643
  7122.401  7122.400  0.500  2.209647  152.298  16.713  0.264846
  7122.705  7122.700  0.500  2.233531  152.287  16.3175  0.244813
  7123.001  7123.000  0.500  2.259564  152.268  15.8962  0.227208
  7123.305  7123.300  0.500  2.286892  152.263  15.4671  0.211101
  7123.597  7123.600  0.500  2.311986  152.241  15.0816  0.197436
  7123.899  7123.900  0.500  2.334898  152.218  14.7378  0.185744
  7124.204  7124.200  0.500  2.354948  152.193  14.4429  0.175575
  7124.499  7124.500  0.500  2.372148  152.194  14.1967  0.166411
  7124.794  7124.800  0.500  2.387889  152.161  13.9719  0.158529
  7125.095  7125.100  0.500  2.402107  152.171  13.7755  0.151208
  7125.397  7125.400  0.500  2.415841  152.152  13.586  0.144617
  7125.702  7125.700  0.500  2.428532  152.123  13.4121  0.138374
  7126.002  7126.000  0.500  2.441429  152.114  13.2394  0.132713
  7126.299  7126.300  0.500  2.456585  152.094  13.0386  0.126574
  7126.605  7126.600  0.500  2.476719  152.057  12.7756  0.120023
  7126.902  7126.900  0.500  2.502336  152.031  12.4504  0.112889
  7127.203  7127.200  0.500  2.533934  152.021  12.0623  0.105382
  7127.505  7127.500  0.500  2.568930  152.009  11.6465  0.097752
  7127.802  7127.800  0.500  2.603579  151.995  11.2489  0.090545
  7128.093  7128.100  0.500  2.635147  151.899  10.8924  0.083942
  7128.397  7128.400  0.500  2.664669  151.936  10.5782  0.077747
  7128.701  7128.700  0.500  2.690773  151.922  10.3046  0.072008
  7128.996  7129.000  0.500  2.711802  151.908  10.0893  0.067005
  7129.295  7129.300  0.500  2.729252  151.88  9.912912  0.062500
  7129.597  7129.600  0.500  2.742837  151.856  9.777608  0.058847
  7129.899  7129.900  0.500  2.752606  151.812  9.679783  0.055544
  7130.203  7130.200  0.500  2.759064  151.796  9.616460  0.053198
  7130.502  7130.500  0.500  2.761642  151.752  9.588896  0.051461
  7130.800  7130.800  0.500  2.760556  151.731  9.598011  0.050445
  7131.102  7131.100  0.500  2.754592  151.694  9.653042  0.050470
  7131.404  7131.400  0.500  2.744244  151.674  9.752161  0.051092
  7131.706  7131.700  0.500  2.730925  151.664  9.882264  0.052633
  7132.001  7132.000  0.500  2.717540  151.638  10.0137  0.054742
  7132.299  7132.300  0.500  2.706554  151.649  10.1251  0.057267
  7132.597  7132.600  0.500  2.699167  151.641  10.1996  0.059879
  7132.899  7132.900  0.500  2.695978  151.632  10.2316  0.062629
  7133.201  7133.200  0.500  2.696604  151.64  10.2257  0.065399
  7133.496  7133.500  0.500  2.700278  151.638  10.1881  0.068130
  7133.798  7133.800  0.500  2.705051  151.635  10.1394  0.070721
  7134.098  7134.100  0.500  2.709137  151.62  10.097  0.072994
  7134.398  7134.400  0.500  2.711466  151.619  10.0735  0.075499
  7134.703  7134.700  0.500  2.710792  151.62  10.0803  0.077867
  7135.001  7135.000  0.500  2.707073  151.621  10.1179  0.080392
  7135.301  7135.300  0.500  2.700982  151.605  10.1787  0.082665
  7135.601  7135.600  0.500  2.693702  151.589  10.252  0.084762
  7135.905  7135.900  0.500  2.686516  151.594  10.3262  0.086773
  7136.203  7136.200  0.500  2.680632  151.586  10.3866  0.088088
  7136.503  7136.500  0.500  2.676400  151.582  10.4304  0.089127
  7136.797  7136.800  0.500  2.673090  151.559  10.4634  0.089696
  7136.998  7137.000  0.500  2.671247  151.577  10.4839  0.090082
  7138.003  7137.990  0.500  2.660637  151.579  10.5959  0.089182
  7139.005  7138.990  0.500  2.642700  151.571  10.7871  0.087070
  7140.017  7140.010  0.500  2.625602  151.561  10.9724  0.084452
  7141.087  7141.060  0.500  2.620427  151.56  11.0293  0.081811
  7142.108  7142.120  0.500  2.620284  151.974  11.061  0.081524
  7143.186  7143.200  0.500  2.607573  151.985  11.2033  0.083908
  7144.289  7144.300  0.500  2.583284  151.991  11.4792  0.087476
  7145.417  7145.420  0.500  2.560523  151.988  11.7433  0.088994
  7146.559  7146.560  0.500  2.542881  151.974  11.9512  0.087344
  7147.707  7147.710  0.500  2.527471  151.881  12.1293  0.083335
  7148.890  7148.890  0.500  2.513922  151.931  12.2989  0.078881
  7150.087  7150.080  0.500  2.501882  151.931  12.4478  0.075800
  7151.297  7151.300  0.500  2.488312  151.939  12.6185  0.074892
  7152.529  7152.530  0.500  2.474373  151.925  12.7945  0.074150
  7153.786  7153.780  0.500  2.462011  151.91  12.9524  0.074407
  7155.047  7155.050  0.500  2.450749  151.901  13.0983  0.075850
  7156.342  7156.340  0.500  2.439091  151.899  13.2517  0.078162
  7157.656  7157.650  0.500  2.427918  151.858  13.397  0.080373
  7158.975  7158.980  0.500  2.419701  151.82  13.5041  0.081342
  7160.332  7160.330  0.500  2.414640  151.841  13.5745  0.081878
  7161.701  7161.700  0.500  2.413187  151.788  13.5895  0.082720
  7163.080  7163.080  0.500  2.415817  151.751  13.5505  0.083843
  7164.491  7164.490  0.500  2.421234  151.708  13.4735  0.084942
  7165.917  7165.910  0.500  2.428258  151.645  13.3736  0.085961
  7167.351  7167.350  0.500  2.437637  151.581  13.2432  0.086129
  7168.811  7168.810  0.500  2.450812  151.569  13.0688  0.085942
  7170.292  7170.290  0.500  2.466102  151.558  12.8696  0.086157
  7171.795  7171.790  0.500  2.481759  151.535  12.6677  0.087294
  7173.321  7173.310  0.500  2.497220  151.491  12.4697  0.089712
  7174.849  7174.850  0.500  2.513355  151.453  12.2671  0.093051
  7176.420  7176.410  0.500  2.525978  151.437  12.1119  0.097311
  7177.985  7177.980  0.500  2.528787  151.403  12.0753  0.102252
  7179.585  7179.580  0.500  2.526203  151.39  12.1054  0.105911
  7181.197  7181.190  0.500  2.521967  151.36  12.1544  0.107355
  7182.839  7182.830  0.500  2.517446  151.338  12.2078  0.106710
  7184.485  7184.480  0.500  2.510898  151.277  12.283  0.105246
  7186.152  7186.150  0.500  2.500793  151.249  12.4054  0.102073
  7187.842  7187.840  0.500  2.489399  151.21  12.5443  0.098109
  7189.568  7189.550  0.500  2.480249  151.198  12.6586  0.093776
  7191.288  7191.280  0.500  2.474974  149.647  12.5951  0.087801
  7193.041  7193.030  0.500  2.474526  150.818  12.6993  0.083831
  7194.796  7194.790  0.500  2.477518  151.007  12.6772  0.081842
  7196.593  7196.580  0.500  2.481981  150.954  12.6163  0.083162
  7198.385  7198.380  0.500  2.487108  150.939  12.5506  0.087003
  7200.222  7200.210  0.500  2.489588  150.889  12.5154  0.092767
  7202.061  7202.050  0.500  2.487814  150.853  12.5346  0.100068
  7203.918  7203.910  0.500  2.483627  150.81  12.5836  0.108799
  7205.801  7205.790  0.500  2.478470  150.757  12.6442  0.117101
  7207.695  7207.690  0.500  2.472863  150.724  12.7125  0.121705
  7209.620  7209.610  0.500  2.466036  150.648  12.7932  0.118858
  7211.562  7211.550  0.500  2.458548  150.605  12.8856  0.107621
  7213.516  7213.510  0.500  2.451350  150.552  12.9741  0.091881
  7215.493  7215.480  0.500  2.443968  150.468  13.063  0.077274
  7217.494  7217.480  0.500  2.436171  150.426  13.1616  0.066861
  7219.504  7219.490  0.500  2.428506  150.362  13.2572  0.061114
  7221.536  7221.520  0.500  2.421889  150.318  13.3413  0.060335
  7223.590  7223.580  0.500  2.415636  150.265  13.4202  0.064583
  7225.660  7225.650  0.500  2.409065  150.154  13.4987  0.073082
  7227.753  7227.740  0.500  2.402271  147.521  13.3524  0.083708
  7229.858  7229.850  0.500  2.396931  150.318  13.6784  0.099481
  7231.991  7231.980  0.500  2.393858  150.264  13.7156  0.114916
  7234.125  7234.120  0.500  2.393340  150.192  13.7161  0.128994
  7236.305  7236.290  0.500  2.394923  150.134  13.6891  0.139195
  7238.491  7238.480  0.500  2.397538  150.111  13.6514  0.143674
  7240.690  7240.680  0.500  2.400653  150.047  13.603  0.142190
  7242.910  7242.900  0.500  2.404030  150.028  13.5555  0.136835
  7245.162  7245.150  0.500  2.407652  147.213  13.253  0.127010
  7247.421  7247.410  0.500  2.411758  149.762  13.4273  0.122988
  7249.699  7249.690  0.500  2.415506  149.776  13.3783  0.120099
  7252.003  7251.990  0.500  2.417636  149.674  13.3408  0.121056
  7254.321  7254.310  0.500  2.416971  147.327  13.1403  0.122818
  7256.666  7256.650  0.500  2.414225  149.753  13.3934  0.127734
  7259.006  7259.000  0.500  2.410726  149.581  13.4249  0.127071
  7261.394  7261.380  0.500  2.407506  149.144  13.4289  0.123506
  7263.787  7263.770  0.500  2.403198  138.389  12.5143  0.111888
  7266.201  7266.190  0.500  2.399878  149.328  13.5484  0.118525
  7268.632  7268.620  0.500  2.395790  149.937  13.6594  0.116240
  7271.081  7271.070  0.500  2.391354  149.896  13.7163  0.111022
  7273.563  7273.550  0.500  2.386012  148.728  13.6823  0.105120
  7276.049  7276.040  0.500  2.380274  149.895  13.8691  0.103160
  7278.559  7278.550  0.500  2.375206  149.832  13.9337  0.101811
  7281.080  7281.070  0.500  2.372342  149.79  13.9697  0.099236
  7283.633  7283.620  0.500  2.370376  148.746  13.8996  0.095196
  7286.202  7286.190  0.500  2.369329  149.399  13.9753  0.092085
  7288.786  7288.770  0.500  2.367852  149.517  14.0071  0.090938
  7291.389  7291.380  0.500  2.366306  149.491  14.0262  0.094376
  7294.012  7294.000  0.500  2.363837  149.464  14.0583  0.102641
  7296.666  7296.650  0.500  2.360772  149.402  14.0957  0.113727
  7299.322  7299.310  0.500  2.356809  149.259  14.1381  0.125187
  7302.006  7301.990  0.500  2.351931  147.55  14.0446  0.133721
  7304.705  7304.690  0.500  2.347142  149.379  14.2869  0.143737
  7307.419  7307.410  0.500  2.342751  149.294  14.3416  0.149133
  7310.166  7310.150  0.500  2.338968  149.244  14.3911  0.151802
  7312.916  7312.900  0.500  2.335438  149.161  14.434  0.152163
  7315.696  7315.680  0.500  2.331628  149.112  14.4844  0.152500
  7318.479  7318.470  0.500  2.327093  149.049  14.544  0.154056
  7321.304  7321.290  0.500  2.322382  148.997  14.6076  0.155316
  7324.137  7324.120  0.500  2.317465  148.933  14.6733  0.156458
  7326.983  7326.970  0.500  2.312847  148.852  14.7332  0.157388
  7329.859  7329.850  0.500  2.308738  148.769  14.7857  0.158679
  7332.755  7332.740  0.500  2.305935  148.708  14.8211  0.161944
  7335.661  7335.650  0.500  2.302784  148.648  14.8618  0.166158
  7338.589  7338.570  0.500  2.299136  147.41  14.7919  0.167480
  7341.529  7341.520  0.500  2.296751  148.446  14.9314  0.167649
  7344.500  7344.490  0.500  2.293569  148.419  14.9763  0.161963
  7347.481  7347.470  0.500  2.291699  148.383  15.0007  0.153734
  7350.496  7350.480  0.500  2.290556  148.301  15.0096  0.145430
  7353.517  7353.500  0.500  2.290014  148.228  15.0103  0.138389
  7356.564  7356.550  0.500  2.289334  148.148  15.0125  0.132879
  7359.621  7359.610  0.500  2.288539  148.067  15.0161  0.128210
  7362.703  7362.690  0.500  2.286597  147.989  15.0374  0.124737
  7365.799  7365.790  0.500  2.283992  147.903  15.0679  0.123754
  7368.924  7368.910  0.500  2.280554  147.86  15.1154  0.125648
  7372.067  7372.050  0.500  2.276130  147.815  15.1777  0.131180
  7375.216  7375.200  0.500  2.271722  147.735  15.2366  0.141542
  7378.395  7378.380  0.500  2.267621  147.631  15.2884  0.157033
  7381.579  7381.570  0.500  2.263573  147.532  15.3402  0.174345
  7384.801  7384.790  0.500  2.259557  147.44  15.3923  0.188163
  7388.031  7388.020  0.500  2.255596  147.404  15.4496  0.194006
  7391.282  7391.270  0.500  2.250918  147.316  15.5128  0.193999
  7394.561  7394.550  0.500  2.247110  147.261  15.5662  0.191191
  7397.851  7397.840  0.500  2.243684  147.18  15.611  0.189068
  7401.153  7401.150  0.500  2.240100  147.104  15.6589  0.189470
  7404.483  7404.470  0.500  2.236043  146.993  15.7107  0.190775
  7407.833  7407.820  0.500  2.231815  146.909  15.7683  0.191477
  7411.201  7411.190  0.500  2.227603  146.829  15.8262  0.191844
  7414.580  7414.570  0.500  2.223543  146.718  15.8786  0.192372
  7417.989  7417.980  0.500  2.219502  146.635  15.9338  0.193567
  7421.404  7421.400  0.500  2.215801  146.537  15.9822  0.196680
  7424.863  7424.850  0.500  2.212032  146.448  16.0329  0.201556
  7428.319  7428.310  0.500  2.208437  146.367  16.0816  0.205018
  7431.805  7431.790  0.500  2.205194  146.252  16.1213  0.205867
  7435.305  7435.290  0.500  2.202274  146.118  16.1536  0.205172
  7438.821  7438.810  0.500  2.198948  146.002  16.1945  0.202274
  7442.352  7442.350  0.500  2.195269  145.834  16.2355  0.197564
  7445.907  7445.900  0.500  2.191244  141.983  15.8705  0.187390
  7449.490  7449.480  0.500  2.187011  145.784  16.3645  0.188992
  7453.091  7453.080  0.500  2.182632  144.528  16.2947  0.186853
  7456.702  7456.690  0.500  2.178604  145.626  16.4848  0.189288
  7460.331  7460.320  0.500  2.174542  145.219  16.5056  0.190783
  7463.992  7463.980  0.500  2.170687  145.569  16.6093  0.194968
  7467.669  7467.650  0.500  2.167180  141.647  16.2186  0.195522
  7471.345  7471.340  0.500  2.163603  145.51  16.7206  0.208392
  7475.058  7475.050  0.500  2.160151  145.38  16.7634  0.215538
  7478.791  7478.780  0.500  2.156851  145.287  16.8081  0.221241
  7482.533  7482.520  0.500  2.153420  145.154  16.8504  0.226697
  7486.308  7486.290  0.500  2.150251  145.029  16.8893  0.233479
  7490.093  7490.080  0.500  2.147054  144.901  16.9285  0.240250
  7493.890  7493.880  0.500  2.144016  144.813  16.9696  0.246111
  7497.731  7497.710  0.500  2.140556  144.68  17.0128  0.248290
  7501.579  7501.550  0.500  2.136930  144.573  17.0621  0.248136
  7505.427  7505.410  0.500  2.133219  144.43  17.1085  0.247281
  7509.307  7509.290  0.500  2.129292  144.278  17.1577  0.247413
  7513.208  7513.190  0.500  2.125607  144.138  17.2044  0.249606
  7517.104  7517.110  0.500  2.121758  143.943  17.2473  0.252143
  7521.040  7521.050  0.500  2.118003  143.872  17.3037  0.254396
  7525.009  7525.010  0.500  2.113802  143.789  17.3666  0.256150
  7528.983  7528.980  0.500  2.109627  143.649  17.4222  0.256696
  7532.982  7532.980  0.500  2.105162  143.515  17.4838  0.257444
  7537.025  7536.990  0.500  2.100895  143.365  17.5402  0.259187
  7541.058  7541.030  0.500  2.096542  143.247  17.6023  0.262053
  7545.115  7545.080  0.500  2.092407  143.08  17.6547  0.264672
  7549.183  7549.150  0.500  2.088323  142.908  17.7056  0.267012
  7553.273  7553.240  0.500  2.083981  142.733  17.7608  0.267668
  7557.373  7557.350  0.500  2.079993  142.577  17.8123  0.266501
  7561.479  7561.480  0.500  2.076028  142.443  17.8662  0.265063
  7565.651  7565.630  0.500  2.071598  142.254  17.9218  0.265239
  7569.809  7569.790  0.500  2.067708  142.168  17.9808  0.268116
  7573.971  7573.980  0.500  2.063939  142.037  18.032  0.273337
  7578.174  7578.180  0.500  2.059953  141.874  18.0832  0.280654
  7582.402  7582.410  0.500  2.055836  141.727  18.139  0.288249
  7586.672  7586.650  0.500  2.051747  141.515  18.1862  0.294175
  7590.930  7590.910  0.500  2.048085  141.341  18.2304  0.298292
  7595.177  7595.190  0.500  2.044461  141.071  18.2617  0.300892
  7599.477  7599.490  0.500  2.040420  140.814  18.3021  0.302399
  7603.833  7603.810  0.500  2.036411  140.257  18.303  0.303838
  7608.140  7608.150  0.500  2.032488  140.032  18.3454  0.307857
  7612.494  7612.510  0.500  2.028772  139.796  18.3827  0.312243
  7616.913  7616.890  0.500  2.024612  139.83  18.4639  0.316264
  7621.297  7621.280  0.500  2.020715  139.923  18.5483  0.319056
  7625.716  7625.700  0.500  2.016752  139.929  18.6227  0.320310
  7630.146  7630.130  0.500  2.012673  139.797  18.6813  0.322508
  7634.578  7634.580  0.500  2.008319  139.581  18.7337  0.326220
  7639.073  7639.050  0.500  2.004112  139.443  18.7941  0.332087
  7643.529  7643.540  0.500  2.000141  139.263  18.8445  0.337438
  7648.062  7648.050  0.500  1.996481  139.104  18.8921  0.342112
  7652.599  7652.580  0.500  1.992360  138.977  18.9527  0.345942
  7657.121  7657.130  0.500  1.988070  138.801  19.0101  0.348502
  7661.688  7661.700  0.500  1.983962  138.622  19.0637  0.351019
  7666.289  7666.280  0.500  1.980021  138.392  19.1073  0.351667
  7670.878  7670.890  0.500  1.975871  138.106  19.1471  0.352548
  7675.498  7675.510  0.500  1.971372  138.02  19.2214  0.353349
  7680.146  7680.160  0.500  1.967228  137.807  19.2715  0.354601
  7684.805  7684.820  0.500  1.963223  137.498  19.3054  0.356369
  7689.523  7689.500  0.500  1.959183  137.664  19.407  0.361321
  7694.187  7694.200  0.500  1.954952  137.379  19.4489  0.365608
  7698.909  7698.920  0.500  1.950418  137.183  19.5094  0.370778
  7703.675  7703.660  0.500  1.946150  136.965  19.5617  0.375458
  7708.404  7708.410  0.500  1.941936  136.873  19.6312  0.380492
  7713.185  7713.190  0.500  1.937753  136.606  19.675  0.385478
  7717.977  7717.990  0.500  1.933302  136.355  19.7265  0.391018
  7722.783  7722.800  0.500  1.928738  136.222  19.7974  0.396679
  7727.613  7727.630  0.500  1.924248  136.009  19.8554  0.400595
  7732.483  7732.490  0.500  1.919763  135.804  19.9145  0.404373
  7737.343  7737.360  0.500  1.915505  135.516  19.9572  0.407230
  7742.238  7742.250  0.500  1.911129  135.595  20.0562  0.412150
  7747.157  7747.160  0.500  1.906659  135.271  20.098  0.415886
  7752.078  7752.090  0.500  1.902560  135.046  20.147  0.419527
  7757.015  7757.030  0.500  1.898389  134.843  20.2009  0.423482
  7762.023  7762.000  0.500  1.894017  134.641  20.2589  0.427963
  7766.987  7766.990  0.500  1.889907  134.418  20.3086  0.433624
  7772.019  7771.990  0.500  1.885713  134.196  20.3604  0.438748
  7777.013  7777.020  0.500  1.881631  133.996  20.4131  0.443686
  7782.056  7782.060  0.500  1.877325  133.802  20.4715  0.448412
  7787.105  7787.120  0.500  1.873103  133.616  20.5296  0.453003
  7792.216  7792.200  0.500  1.868934  133.496  20.5969  0.458058
  7797.315  7797.300  0.500  1.864890  133.285  20.6477  0.461605
  7802.422  7802.420  0.500  1.860319  133.089  20.7116  0.465250
  7807.553  7807.560  0.500  1.855976  132.853  20.765  0.468706
  7812.694  7812.720  0.500  1.851462  132.647  20.8265  0.472557
  7817.887  7817.900  0.500  1.847054  132.443  20.8865  0.476291
  7823.112  7823.090  0.500  1.842930  132.217  20.937  0.480838
  7828.330  7828.310  0.500  1.838376  132.033  21.0032  0.485198
  7833.544  7833.540  0.500  1.833872  131.796  21.0602  0.489432
  7838.799  7838.790  0.500  1.829428  131.311  21.0761  0.492732
  7844.035  7844.060  0.500  1.825111  131.4  21.1817  0.498826
  7849.334  7849.350  0.500  1.820622  131.107  21.2294  0.503507
  7854.651  7854.660  0.500  1.816265  130.047  21.1498  0.505506
  7859.970  7859.990  0.500  1.811834  130.688  21.3485  0.514269
  7865.322  7865.340  0.500  1.807217  130.483  21.4137  0.520384
  7870.698  7870.710  0.500  1.802994  130.255  21.4667  0.526115
  7876.096  7876.090  0.500  1.798717  130.049  21.5245  0.532032
  7881.479  7881.500  0.500  1.794086  129.808  21.5843  0.538351
  7886.907  7886.920  0.500  1.789580  129.577  21.6434  0.544033
  7892.346  7892.370  0.500  1.785288  129.318  21.6928  0.549609
  7897.808  7897.830  0.500  1.780605  129.014  21.7434  0.555056
  7903.287  7903.310  0.500  1.776244  128.811  21.8041  0.561199
  7908.783  7908.810  0.500  1.771789  128.591  21.8641  0.567047
  7914.304  7914.330  0.500  1.767527  128.342  21.9149  0.572217
  7919.844  7919.870  0.500  1.762816  128.126  21.9815  0.578135
  7925.399  7925.420  0.500  1.758335  127.875  22.0369  0.583692
  7930.974  7931.000  0.500  1.753770  127.507  22.0741  0.588617
  7936.572  7936.600  0.500  1.749354  127.187  22.116  0.593409
  7942.187  7942.210  0.500  1.745004  127.199  22.2146  0.599348
  7947.826  7947.850  0.500  1.740516  126.861  22.2552  0.604033
  7953.479  7953.500  0.500  1.736051  126.507  22.2924  0.609167
  7959.152  7959.170  0.500  1.731655  126.24  22.3435  0.614190
  7964.829  7964.860  0.500  1.727255  125.928  22.3864  0.619499