File: xdidata/Data/Fe/Fe-Hedenbergite.xdi
# XDI/1.0 BlueSky/1.10.0 BMM/2023-1.0-py310-tiled
# Beamline.name: BMM (06BM) -- Beamline for Materials Measurement (NIST)
# Beamline.xray_source: NSLS-II three-pole wiggler
# Beamline.collimation: paraboloid mirror, 5 nm Rh on 30 nm Pt
# Beamline.focusing: not in use
# Beamline.harmonic_rejection: flat mirror, Si stripe, pitch = 7.0 mrad relative to beam
# Beamline.software: Bluesky 1.10.0, Ophyd 1.7.0, DataBroker 2.0.0b13, Python 3.10.8, 2023-1.0-py310-tiled
# Detector.I0: 10 cm N2
# Detector.I1: 25 cm N2
# Detector.I2: 25 cm N2
# Element.symbol: Fe
# Element.edge: K
# Element.reference: Fe
# Element.reference_material: Fe foil
# Facility.name: NSLS-II
# Facility.energy: 3.0
# Facility.current: 400.2
# Facility.mode: top-off
# Facility.GUP: 123456
# Facility.SAF: 301027
# Facility.cycle: 2023-2
# Mono.name: Si(111)
# Mono.d_spacing: 3.13519
# Mono.encoder_resolution: 0.0000050 deg/ct
# Mono.angle_offset: 16.0754 deg
# Mono.scan_mode: pseudo channel cut
# Mono.scan_type: step
# Mono.direction: forward in energy
# Sample.name: CaFeSi2O6
# Sample.prep: PEG pellet
# Sample.x: 142.329 mm
# Sample.y: 114.126 mm
# Sample.SDD_position: 205.000 mm
# Scan.experimenters: Bruce Ravel
# Scan.edge_energy: 7112.0
# Scan.start_time: 2023-05-05T19:08:19
# Scan.end_time: 2023-05-05T19:16:21
# Scan.transient_id: 74576
# Scan.uid: bfc24902-2e86-461c-92aa-a3c7fc4224bc
# Scan.plot_hint: ln(I0/It)  --  ln($5/$6)
# Column.1: energy eV
# Column.2: requested_energy eV
# Column.3: measurement_time seconds
# Column.4: xmu
# Column.5: I0 nA
# Column.6: It nA
# Column.7: Ir nA
# ///////////
# courtesy Martin Stennett, University of Sheffield
# -----------
# energy  requested_energy  measurement_time  xmu  I0  It  Ir
  6912.003  6912.000  0.500  1.683876  154.182  28.6244  5.374436
  6922.011  6922.000  0.500  1.674810  154.093  28.8683  5.459068
  6932.017  6932.000  0.500  1.665780  154.063  29.1245  5.546587
  6942.033  6942.000  0.500  1.656969  154.092  29.3878  5.635333
  6951.983  6952.000  0.500  1.648022  154.099  29.6532  5.726139
  6962.002  6962.000  0.500  1.639152  154.086  29.9149  5.816580
  6972.006  6972.000  0.500  1.630015  154.043  30.1811  5.908954
  6982.017  6982.000  0.500  1.621206  154.041  30.4477  6.002335
  6992.014  6992.000  0.500  1.612562  154.022  30.7084  6.094384
  7002.011  7002.000  0.500  1.603804  153.971  30.9681  6.186719
  7012.014  7012.000  0.500  1.595464  153.899  31.213  6.277954
  7022.008  7022.000  0.500  1.586858  153.838  31.4702  6.370573
  7032.014  7032.000  0.500  1.578614  153.769  31.7166  6.461843
  7042.013  7042.000  0.500  1.569688  153.677  31.9817  6.556263
  7052.011  7052.000  0.500  1.560883  153.612  32.251  6.650314
  7062.004  7062.000  0.500  1.552532  152.913  32.3733  6.712534
  7072.013  7072.000  0.500  1.544602  153.424  32.7402  6.822197
  7081.978  7082.000  0.500  1.536019  153.366  33.0098  6.903292
  7083.978  7084.000  0.500  1.534667  153.087  32.9945  6.902527
  7085.978  7086.000  0.500  1.533134  153.255  33.0813  6.923031
  7087.985  7088.000  0.500  1.531098  153.228  33.1429  6.935946
  7089.983  7090.000  0.500  1.529650  153.231  33.1915  6.947199
  7091.991  7092.000  0.500  1.528086  153.199  33.2366  6.952241
  7093.991  7094.000  0.500  1.525961  153.172  33.3015  6.961792
  7096.325  7096.000  0.500  1.524090  153.134  33.3555  6.964651
  7098.003  7098.000  0.500  1.522851  153.158  33.4021  6.962848
  7099.996  7100.000  0.500  1.520980  153.135  33.4596  6.955176
  7102.003  7102.000  0.500  1.519250  153.114  33.5129  6.938308
  7102.296  7102.300  0.500  1.519116  153.091  33.5125  6.931901
  7102.591  7102.600  0.500  1.518781  153.05  33.5148  6.927902
  7102.889  7102.900  0.500  1.518528  153.057  33.5248  6.924532
  7103.190  7103.200  0.500  1.518039  153.083  33.5468  6.920321
  7103.485  7103.500  0.500  1.518039  153.081  33.5464  6.913603
  7103.785  7103.800  0.500  1.517712  153.054  33.5515  6.905843
  7104.089  7104.100  0.500  1.517537  153.056  33.5577  6.898911
  7104.384  7104.400  0.500  1.517463  153.024  33.5531  6.888526
  7104.683  7104.700  0.500  1.516909  153.036  33.5745  6.884007
  7104.989  7105.000  0.500  1.516862  153.077  33.5849  6.874102
  7105.287  7105.300  0.500  1.516537  153.087  33.598  6.865257
  7105.589  7105.600  0.500  1.516314  153.071  33.6021  6.852814
  7105.890  7105.900  0.500  1.516010  153.394  33.6831  6.854486
  7106.188  7106.200  0.500  1.515740  153.409  33.6955  6.840448
  7106.488  7106.500  0.500  1.515417  153.369  33.6977  6.823741
  7106.794  7106.800  0.500  1.515356  153.382  33.7026  6.805417
  7107.092  7107.100  0.500  1.515251  153.364  33.7022  6.784076
  7107.383  7107.400  0.500  1.515129  153.376  33.7089  6.760284
  7107.685  7107.700  0.500  1.514831  153.386  33.7213  6.734134
  7107.987  7108.000  0.500  1.514425  153.364  33.73  6.702782
  7108.289  7108.300  0.500  1.514178  153.356  33.7366  6.664487
  7108.593  7108.600  0.500  1.513958  153.33  33.7383  6.618911
  7108.886  7108.900  0.500  1.513743  153.33  33.7456  6.567049
  7109.191  7109.200  0.500  1.513599  153.312  33.7464  6.500820
  7109.491  7109.500  0.500  1.513399  153.313  33.7534  6.416397
  7109.799  7109.800  0.500  1.513000  153.299  33.7639  6.301959
  7110.099  7110.100  0.500  1.512837  153.29  33.7673  6.147456
  7110.395  7110.400  0.500  1.512800  153.262  33.7624  5.924695
  7110.693  7110.700  0.500  1.512491  153.234  33.7666  5.615869
  7110.995  7111.000  0.500  1.512314  153.226  33.7709  5.207936
  7111.297  7111.300  0.500  1.512199  153.199  33.7689  4.720286
  7111.595  7111.600  0.500  1.512006  153.173  33.7696  4.221631
  7111.891  7111.900  0.500  1.511696  153.111  33.7665  3.774097
  7112.194  7112.200  0.500  1.511594  153.08  33.763  3.415811
  7112.492  7112.500  0.500  1.511353  153.041  33.7626  3.148045
  7112.798  7112.800  0.500  1.511565  153.023  33.7514  2.943799
  7113.094  7113.100  0.500  1.511662  153.014  33.7461  2.781684
  7113.397  7113.400  0.500  1.511093  153.001  33.7624  2.641303
  7113.697  7113.700  0.500  1.510774  152.992  33.7712  2.513766
  7114.000  7114.000  0.500  1.510585  152.983  33.7756  2.397476
  7114.302  7114.300  0.500  1.510260  152.975  33.7849  2.295745
  7114.598  7114.600  0.500  1.510252  152.971  33.7843  2.212222
  7114.901  7114.900  0.500  1.509966  152.959  33.7913  2.147226
  7115.197  7115.200  0.500  1.509597  152.914  33.7939  2.100657
  7115.500  7115.500  0.500  1.509234  152.886  33.8  2.066845
  7115.802  7115.800  0.500  1.508793  152.884  33.8144  2.043389
  7116.099  7116.100  0.500  1.508596  152.876  33.8194  2.024227
  7116.393  7116.400  0.500  1.508464  152.893  33.8276  2.004801
  7116.689  7116.700  0.500  1.508155  152.876  33.8341  1.977337
  7116.998  7117.000  0.500  1.508131  152.866  33.8329  1.934849
  7117.299  7117.300  0.500  1.507930  152.858  33.8378  1.874636
  7117.598  7117.600  0.500  1.508017  152.834  33.8297  1.794123
  7117.896  7117.900  0.500  1.508460  152.826  33.8129  1.695092
  7118.197  7118.200  0.500  1.508901  152.801  33.7925  1.583249
  7118.502  7118.500  0.500  1.509167  152.801  33.7833  1.468258
  7118.807  7118.800  0.500  1.509364  152.802  33.7769  1.356711
  7119.104  7119.100  0.500  1.510055  152.78  33.7487  1.253413
  7119.398  7119.400  0.500  1.510721  152.751  33.7199  1.157778
  7119.699  7119.700  0.500  1.511799  152.727  33.6783  1.067173
  7120.000  7120.000  0.500  1.512860  152.721  33.6413  0.980050
  7120.296  7120.300  0.500  1.514260  152.698  33.5891  0.896976
  7120.593  7120.600  0.500  1.515457  152.663  33.5413  0.819807
  7120.894  7120.900  0.500  1.516635  152.649  33.4987  0.750790
  7121.197  7121.200  0.500  1.517896  152.639  33.4542  0.689239
  7121.500  7121.500  0.500  1.518854  152.613  33.4166  0.638008
  7121.801  7121.800  0.500  1.519812  152.608  33.3835  0.594492
  7122.105  7122.100  0.500  1.520819  152.583  33.3445  0.557968
  7122.397  7122.400  0.500  1.522037  152.573  33.3016  0.526059
  7122.705  7122.700  0.500  1.523430  152.58  33.2569  0.497229
  7123.004  7123.000  0.500  1.524831  152.557  33.2053  0.472711
  7123.305  7123.300  0.500  1.526717  152.538  33.1384  0.450335
  7123.600  7123.600  0.500  1.528664  152.497  33.0652  0.431403
  7123.901  7123.900  0.500  1.530550  152.498  33.0031  0.414649
  7124.200  7124.200  0.500  1.532034  152.469  32.9478  0.399011
  7124.501  7124.500  0.500  1.533642  152.466  32.8944  0.384613
  7124.803  7124.800  0.500  1.535249  152.443  32.8365  0.371573
  7125.097  7125.100  0.500  1.536890  152.428  32.7794  0.359277
  7125.399  7125.400  0.500  1.538308  152.408  32.7287  0.347460
  7125.700  7125.700  0.500  1.539434  152.393  32.6886  0.336336
  7126.002  7126.000  0.500  1.540110  152.348  32.657  0.326015
  7126.303  7126.300  0.500  1.540458  152.347  32.6453  0.315572
  7126.605  7126.600  0.500  1.540723  152.323  32.6316  0.305520
  7126.900  7126.900  0.500  1.541313  152.306  32.6088  0.294692
  7127.203  7127.200  0.500  1.541898  152.22  32.5712  0.283532
  7127.503  7127.500  0.500  1.543043  152.281  32.5469  0.271767
  7127.804  7127.800  0.500  1.544075  152.255  32.5078  0.260018
  7128.102  7128.100  0.500  1.545580  152.208  32.4489  0.248367
  7128.397  7128.400  0.500  1.546770  152.175  32.4034  0.236781
  7128.698  7128.700  0.500  1.547895  152.156  32.3629  0.224883
  7128.998  7129.000  0.500  1.549012  152.162  32.328  0.213234
  7129.300  7129.300  0.500  1.549868  152.11  32.2892  0.202289
  7129.599  7129.600  0.500  1.551004  152.024  32.2344  0.192303
  7129.899  7129.900  0.500  1.551072  152.041  32.2358  0.184014
  7130.205  7130.200  0.500  1.551300  152.02  32.224  0.177091
  7130.505  7130.500  0.500  1.551398  151.995  32.2156  0.171951
  7130.804  7130.800  0.500  1.550669  151.98  32.2358  0.168590
  7131.100  7131.100  0.500  1.549940  151.96  32.2552  0.167577
  7131.404  7131.400  0.500  1.549059  151.941  32.2795  0.168504
  7131.706  7131.700  0.500  1.548319  151.919  32.2987  0.171497
  7132.003  7132.000  0.500  1.547625  151.888  32.3145  0.176339
  7132.301  7132.300  0.500  1.547093  151.92  32.3386  0.182516
  7132.601  7132.600  0.500  1.546222  151.862  32.3544  0.189786
  7132.899  7132.900  0.500  1.545364  151.854  32.3804  0.197913
  7133.201  7133.200  0.500  1.544425  151.854  32.411  0.206984
  7133.496  7133.500  0.500  1.543492  151.881  32.4468  0.216484
  7133.798  7133.800  0.500  1.542915  151.866  32.4624  0.225969
  7134.098  7134.100  0.500  1.542134  151.873  32.4892  0.234968
  7134.403  7134.400  0.500  1.540918  151.854  32.5249  0.243576
  7134.707  7134.700  0.500  1.539854  151.889  32.567  0.251574
  7135.001  7135.000  0.500  1.538870  151.882  32.5975  0.258274
  7135.301  7135.300  0.500  1.538038  151.846  32.6168  0.264298
  7135.603  7135.600  0.500  1.537213  151.839  32.6423  0.269525
  7135.905  7135.900  0.500  1.536416  151.833  32.6671  0.273941
  7136.203  7136.200  0.500  1.535604  151.836  32.6941  0.276902
  7136.503  7136.500  0.500  1.534819  151.853  32.7235  0.279109
  7136.795  7136.800  0.500  1.534440  151.842  32.7335  0.280218
  7136.998  7137.000  0.500  1.533871  151.848  32.7534  0.280342
  7137.998  7137.990  0.500  1.531728  151.847  32.8235  0.275831
  7139.003  7138.990  0.500  1.530131  151.831  32.8724  0.264520
  7140.021  7140.010  0.500  1.528826  151.83  32.9153  0.252199
  7141.079  7141.060  0.500  1.528046  151.806  32.9357  0.243825
  7142.134  7142.120  0.500  1.527057  151.8  32.9669  0.242787
  7143.214  7143.200  0.500  1.525956  151.818  33.0071  0.246719
  7144.313  7144.300  0.500  1.524179  151.814  33.0651  0.251201
  7145.435  7145.420  0.500  1.522404  151.815  33.1241  0.250542
  7146.578  7146.560  0.500  1.520714  151.808  33.1785  0.241644
  7147.724  7147.710  0.500  1.518743  151.803  33.2428  0.227262
  7148.903  7148.890  0.500  1.516412  151.797  33.3192  0.212640
  7150.098  7150.080  0.500  1.514138  151.811  33.398  0.202835
  7151.314  7151.300  0.500  1.512019  151.778  33.4617  0.197563
  7152.547  7152.530  0.500  1.510018  151.763  33.5253  0.193782
  7153.801  7153.780  0.500  1.508364  151.734  33.5745  0.192129
  7155.058  7155.050  0.500  1.506920  151.7  33.6153  0.193926
  7156.355  7156.340  0.500  1.505731  151.734  33.6629  0.198012
  7157.669  7157.650  0.500  1.504658  151.721  33.6962  0.201182
  7158.993  7158.980  0.500  1.503683  151.696  33.7235  0.202542
  7160.339  7160.330  0.500  1.502980  151.673  33.7422  0.203232
  7161.714  7161.700  0.500  1.502824  151.617  33.735  0.204702
  7163.093  7163.080  0.500  1.502615  151.581  33.7339  0.207987
  7164.502  7164.490  0.500  1.502377  151.539  33.7326  0.212648
  7165.924  7165.910  0.500  1.502458  151.502  33.7216  0.216228
  7167.360  7167.350  0.500  1.502229  151.476  33.7237  0.218778
  7168.820  7168.810  0.500  1.501680  151.427  33.7311  0.221546
  7170.303  7170.290  0.500  1.500948  151.409  33.752  0.225579
  7171.795  7171.790  0.500  1.500281  151.368  33.7653  0.232482
  7173.327  7173.310  0.500  1.499208  151.328  33.7927  0.242908
  7174.860  7174.850  0.500  1.498373  151.281  33.8104  0.256118
  7176.424  7176.410  0.500  1.497682  151.246  33.8259  0.271502
  7177.991  7177.980  0.500  1.496541  151.234  33.8619  0.286057
  7179.598  7179.580  0.500  1.495122  151.23  33.909  0.296316
  7181.202  7181.190  0.500  1.493810  151.179  33.9421  0.299193
  7182.843  7182.830  0.500  1.492595  151.172  33.9816  0.296876
  7184.490  7184.480  0.500  1.491283  151.149  34.0212  0.290984
  7186.161  7186.150  0.500  1.489882  151.217  34.0842  0.280328
  7187.849  7187.840  0.500  1.488373  151.611  34.2245  0.267175
  7189.563  7189.550  0.500  1.486617  151.543  34.2695  0.253079
  7191.292  7191.280  0.500  1.485029  149.948  33.9627  0.236050
  7193.050  7193.030  0.500  1.483490  151.207  34.3005  0.225722
  7194.801  7194.790  0.500  1.481829  151.388  34.3986  0.221731
  7196.600  7196.580  0.500  1.479983  151.355  34.4548  0.226758
  7198.392  7198.380  0.500  1.478619  151.317  34.4931  0.238545
  7200.224  7200.210  0.500  1.476902  151.292  34.5466  0.255387
  7202.059  7202.050  0.500  1.475002  151.26  34.6049  0.275765
  7203.920  7203.910  0.500  1.473242  151.202  34.6526  0.299113
  7205.799  7205.790  0.500  1.471415  151.128  34.6992  0.321495
  7207.710  7207.690  0.500  1.469677  151.077  34.7478  0.332510
  7209.620  7209.610  0.500  1.468242  151.015  34.7833  0.322575
  7211.560  7211.550  0.500  1.466840  150.946  34.8161  0.290527
  7213.525  7213.510  0.500  1.465371  150.914  34.8599  0.246374
  7215.500  7215.480  0.500  1.463566  150.833  34.9043  0.206024
  7217.496  7217.480  0.500  1.461687  150.821  34.967  0.176913
  7219.500  7219.490  0.500  1.460160  150.767  35.008  0.161099
  7221.536  7221.520  0.500  1.458511  150.719  35.0546  0.158122
  7223.597  7223.580  0.500  1.456773  150.678  35.1059  0.168500
  7225.664  7225.650  0.500  1.455125  150.546  35.1331  0.190150
  7227.755  7227.740  0.500  1.453631  147.909  34.5692  0.216464
  7229.860  7229.850  0.500  1.451892  150.717  35.2869  0.256520
  7231.993  7231.980  0.500  1.450187  150.652  35.3318  0.295966
  7234.132  7234.120  0.500  1.448445  150.56  35.3719  0.333006
  7236.305  7236.290  0.500  1.446937  150.54  35.4205  0.360038
  7238.494  7238.480  0.500  1.445532  150.486  35.4576  0.372593
  7240.697  7240.680  0.500  1.443905  150.459  35.509  0.371076
  7242.914  7242.900  0.500  1.442419  150.457  35.5613  0.358928
  7245.160  7245.150  0.500  1.440966  147.583  34.9328  0.334583
  7247.423  7247.410  0.500  1.439209  150.195  35.6135  0.325900
  7249.699  7249.690  0.500  1.437806  150.197  35.6641  0.319837
  7252.005  7251.990  0.500  1.436124  150.083  35.697  0.323310
  7254.326  7254.310  0.500  1.434459  147.717  35.1928  0.328421
  7256.666  7256.650  0.500  1.432701  150.137  35.8323  0.341503
  7259.004  7259.000  0.500  1.430801  149.992  35.8656  0.339162
  7261.394  7261.380  0.500  1.428748  149.532  35.8291  0.329138
  7263.784  7263.770  0.500  1.427214  138.58  33.2558  0.297090
  7266.203  7266.190  0.500  1.425080  149.719  36.0059  0.314682
  7268.639  7268.620  0.500  1.423211  150.341  36.223  0.307753
  7271.083  7271.070  0.500  1.421080  150.279  36.2855  0.293773
  7273.565  7273.550  0.500  1.418975  149.073  36.0699  0.276878
  7276.049  7276.040  0.500  1.416781  150.306  36.4483  0.270870
  7278.564  7278.550  0.500  1.414655  150.248  36.5117  0.266424
  7281.085  7281.070  0.500  1.412853  150.236  36.5746  0.259408
  7283.637  7283.620  0.500  1.411010  149.145  36.3761  0.248252
  7286.202  7286.190  0.500  1.408820  149.827  36.6225  0.241169
  7288.783  7288.770  0.500  1.406876  149.923  36.7172  0.238203
  7291.391  7291.380  0.500  1.404801  149.896  36.7867  0.247335
  7294.012  7294.000  0.500  1.402438  149.831  36.8578  0.269420
  7296.661  7296.650  0.500  1.400404  149.789  36.9225  0.298208
  7299.318  7299.310  0.500  1.398289  149.671  36.9716  0.327160
  7302.001  7301.990  0.500  1.396141  147.977  36.6317  0.349086
  7304.707  7304.690  0.500  1.393926  149.795  37.164  0.373575
  7307.419  7307.410  0.500  1.391747  149.708  37.2234  0.387242
  7310.161  7310.150  0.500  1.389911  149.645  37.2761  0.392865
  7312.919  7312.900  0.500  1.387990  149.595  37.3353  0.393534
  7315.699  7315.680  0.500  1.385704  149.507  37.3989  0.393810
  7318.481  7318.470  0.500  1.383727  149.464  37.4621  0.396185
  7321.302  7321.290  0.500  1.381426  149.413  37.5355  0.398712
  7324.141  7324.120  0.500  1.379414  149.349  37.595  0.400950
  7326.981  7326.970  0.500  1.377423  149.27  37.6501  0.402095
  7329.859  7329.850  0.500  1.375333  149.187  37.7077  0.404790
  7332.757  7332.740  0.500  1.372996  149.119  37.7788  0.412878
  7335.663  7335.650  0.500  1.370803  149.054  37.8452  0.423564
  7338.587  7338.570  0.500  1.368584  147.809  37.6125  0.426116
  7341.534  7341.520  0.500  1.366385  148.857  37.9625  0.426093
  7344.500  7344.490  0.500  1.363965  148.844  38.0513  0.411752
  7347.481  7347.470  0.500  1.362095  148.788  38.1081  0.390225
  7350.498  7350.480  0.500  1.359745  148.721  38.1805  0.369988
  7353.519  7353.500  0.500  1.357333  148.649  38.2542  0.353254
  7356.564  7356.550  0.500  1.354880  148.578  38.33  0.339002
  7359.621  7359.610  0.500  1.352604  148.494  38.3956  0.327178
  7362.698  7362.690  0.500  1.350428  148.424  38.4611  0.318607
  7365.799  7365.790  0.500  1.348245  148.368  38.5305  0.315907
  7368.926  7368.910  0.500  1.345790  148.291  38.6052  0.320688
  7372.065  7372.050  0.500  1.343587  148.25  38.6795  0.334785
  7375.218  7375.200  0.500  1.341079  148.147  38.7497  0.360530
  7378.393  7378.380  0.500  1.338628  148.055  38.8207  0.398332
  7381.584  7381.570  0.500  1.336314  147.953  38.8838  0.441982
  7384.806  7384.790  0.500  1.334002  147.913  38.9635  0.476536
  7388.033  7388.020  0.500  1.331551  147.836  39.0385  0.490543
  7391.282  7391.270  0.500  1.329390  147.788  39.1104  0.488750
  7394.559  7394.550  0.500  1.327072  147.709  39.1801  0.481237
  7397.848  7397.840  0.500  1.324504  147.646  39.2641  0.475914
  7401.160  7401.150  0.500  1.322016  147.556  39.3381  0.476416
  7404.481  7404.470  0.500  1.319157  147.464  39.426  0.479120
  7407.833  7407.820  0.500  1.316971  147.351  39.4821  0.479817
  7411.198  7411.190  0.500  1.314298  147.305  39.5755  0.479619
  7414.578  7414.570  0.500  1.311748  147.194  39.6467  0.480057
  7417.992  7417.980  0.500  1.309279  147.059  39.708  0.482692
  7421.401  7421.400  0.500  1.307043  146.977  39.7747  0.489452
  7424.861  7424.850  0.500  1.304499  146.887  39.8516  0.500654
  7428.319  7428.310  0.500  1.301870  146.831  39.9414  0.509410
  7431.802  7431.790  0.500  1.299208  146.732  40.0207  0.511270
  7435.301  7435.290  0.500  1.296681  146.642  40.0973  0.509588
  7438.819  7438.810  0.500  1.294049  146.508  40.1665  0.502285
  7442.354  7442.350  0.500  1.291482  146.35  40.2263  0.489979
  7445.910  7445.900  0.500  1.289080  142.446  39.2472  0.463518
  7449.483  7449.480  0.500  1.286342  146.281  40.4143  0.467054
  7453.091  7453.080  0.500  1.283771  144.959  40.1524  0.460497
  7456.704  7456.690  0.500  1.281268  146.025  40.549  0.466096
  7460.333  7460.320  0.500  1.278689  145.446  40.4924  0.468736
  7463.992  7463.980  0.500  1.276172  145.842  40.7049  0.478147
  7467.660  7467.650  0.500  1.273562  141.85  39.6944  0.478933
  7471.345  7471.340  0.500  1.270878  145.772  40.9016  0.510197
  7475.060  7475.050  0.500  1.268257  145.637  40.9709  0.527292
  7478.798  7478.780  0.500  1.265720  145.498  41.0358  0.540784
  7482.533  7482.520  0.500  1.263123  145.368  41.1056  0.553451
  7486.303  7486.290  0.500  1.260519  145.245  41.178  0.569716
  7490.098  7490.080  0.500  1.257733  145.117  41.2563  0.586607
  7493.897  7493.880  0.500  1.254923  145.006  41.3408  0.599527
  7497.727  7497.710  0.500  1.252234  144.904  41.4229  0.604770
  7501.587  7501.550  0.500  1.249473  144.786  41.5038  0.603410
  7505.431  7505.410  0.500  1.246860  144.635  41.5689  0.600944
  7509.302  7509.290  0.500  1.244482  144.502  41.6295  0.601172
  7513.206  7513.190  0.500  1.241914  144.386  41.7031  0.605041
  7517.101  7517.110  0.500  1.238942  144.257  41.7899  0.610919
  7521.047  7521.050  0.500  1.236104  144.114  41.8672  0.615950
  7525.031  7525.010  0.500  1.233267  143.975  41.9456  0.618693
  7529.004  7528.980  0.500  1.230247  143.838  42.0325  0.619503
  7532.985  7532.980  0.500  1.227506  143.718  42.1125  0.620095
  7537.015  7536.990  0.500  1.224872  143.554  42.1755  0.623540
  7541.029  7541.030  0.500  1.221937  143.415  42.2585  0.629283
  7545.102  7545.080  0.500  1.219327  143.261  42.3235  0.634643
  7549.171  7549.150  0.500  1.216377  143.113  42.4045  0.639387
  7553.241  7553.240  0.500  1.213557  142.971  42.4823  0.640296
  7557.382  7557.350  0.500  1.210997  142.847  42.5543  0.636536
  7561.501  7561.480  0.500  1.208337  142.655  42.61  0.632549
  7565.656  7565.630  0.500  1.205348  142.511  42.6946  0.632327
  7569.811  7569.790  0.500  1.202552  142.392  42.7784  0.638706
  7573.966  7573.980  0.500  1.199512  142.222  42.8574  0.650781
  7578.201  7578.180  0.500  1.196775  142.044  42.921  0.666494
  7582.432  7582.410  0.500  1.193795  141.891  43.0027  0.683833
  7586.672  7586.650  0.500  1.190919  141.713  43.0725  0.697178
  7590.902  7590.910  0.500  1.188047  141.525  43.1392  0.706480
  7595.172  7595.190  0.500  1.185133  141.282  43.1906  0.711925
  7599.479  7599.490  0.500  1.182388  141.05  43.2382  0.714954
  7603.833  7603.810  0.500  1.179759  140.479  43.1766  0.717614
  7608.172  7608.150  0.500  1.176652  140.259  43.2431  0.725720
  7612.492  7612.510  0.500  1.173857  140.056  43.3013  0.736295
  7616.915  7616.890  0.500  1.171058  140.483  43.5551  0.747542
  7621.299  7621.280  0.500  1.167839  140.569  43.7223  0.752128
  7625.716  7625.700  0.500  1.164890  140.558  43.848  0.754519
  7630.148  7630.130  0.500  1.162012  140.463  43.9447  0.759390
  7634.601  7634.580  0.500  1.159253  140.331  44.0246  0.768183
  7639.071  7639.050  0.500  1.156315  140.139  44.0937  0.779486
  7643.556  7643.540  0.500  1.153340  139.958  44.1681  0.791004
  7648.027  7648.050  0.500  1.150496  139.818  44.2495  0.801708
  7652.584  7652.580  0.500  1.147565  139.661  44.3297  0.809031
  7657.151  7657.130  0.500  1.144499  139.463  44.4026  0.814779
  7661.713  7661.700  0.500  1.141550  139.293  44.4797  0.819208
  7666.264  7666.280  0.500  1.138913  139.08  44.5288  0.820386
  7670.878  7670.890  0.500  1.135501  138.912  44.6271  0.821821
  7675.528  7675.510  0.500  1.132552  138.716  44.6957  0.822726
  7680.169  7680.160  0.500  1.129888  138.491  44.7421  0.824088
  7684.825  7684.820  0.500  1.127071  138.209  44.7771  0.827635
  7689.480  7689.500  0.500  1.124190  138.386  44.9639  0.837291
  7694.207  7694.200  0.500  1.120861  138.071  45.0109  0.847560
  7698.906  7698.920  0.500  1.117966  137.842  45.0667  0.857100
  7703.650  7703.660  0.500  1.114394  137.565  45.1369  0.866755
  7708.419  7708.410  0.500  1.111420  137.5  45.2502  0.877738
  7713.185  7713.190  0.500  1.108362  137.248  45.3056  0.888713
  7718.010  7717.990  0.500  1.105373  137.001  45.3594  0.899799
  7722.788  7722.800  0.500  1.102650  136.891  45.4463  0.910759
  7727.616  7727.630  0.500  1.099756  136.654  45.4992  0.918545
  7732.480  7732.490  0.500  1.096352  136.394  45.5677  0.925616
  7737.361  7737.360  0.500  1.093473  136.132  45.6111  0.931815
  7742.248  7742.250  0.500  1.090409  136.225  45.7825  0.941882
  7747.134  7747.160  0.500  1.087298  135.92  45.8223  0.949535
  7752.116  7752.090  0.500  1.084443  135.701  45.8793  0.956265
  7757.015  7757.030  0.500  1.081169  135.508  45.964  0.964155
  7761.985  7762.000  0.500  1.078060  135.269  46.0261  0.973636
  7767.013  7766.990  0.500  1.074886  135.05  46.0976  0.984669
  7772.006  7771.990  0.500  1.071667  134.842  46.1749  0.996267
  7777.013  7777.020  0.500  1.068461  134.614  46.245  1.006970
  7782.051  7782.060  0.500  1.065435  134.421  46.3187  1.016211
  7787.108  7787.120  0.500  1.062390  134.191  46.3803  1.024968
  7792.187  7792.200  0.500  1.059299  134.037  46.4705  1.033605
  7797.295  7797.300  0.500  1.056528  133.843  46.532  1.041600
  7802.430  7802.420  0.500  1.053449  133.603  46.5916  1.047915
  7807.584  7807.560  0.500  1.049995  133.405  46.6835  1.054961
  7812.697  7812.720  0.500  1.046903  133.207  46.7587  1.061919
  7817.910  7817.900  0.500  1.044021  132.976  46.8124  1.069158
  7823.068  7823.090  0.500  1.041544  132.709  46.8341  1.076228
  7828.285  7828.310  0.500  1.038502  132.469  46.8919  1.083923
  7833.544  7833.540  0.500  1.034919  132.229  46.9751  1.092568
  7838.773  7838.790  0.500  1.031908  131.704  46.9296  1.098060
  7844.085  7844.060  0.500  1.028485  131.833  47.1366  1.110797
  7849.331  7849.350  0.500  1.025399  131.553  47.182  1.120547
  7854.659  7854.660  0.500  1.022120  130.512  46.9623  1.123273
  7859.972  7859.990  0.500  1.019147  131.144  47.3302  1.141025
  7865.341  7865.340  0.500  1.016160  130.902  47.3843  1.152507
  7870.696  7870.710  0.500  1.012979  130.68  47.4545  1.164312
  7876.085  7876.090  0.500  1.009953  130.419  47.5033  1.176050
  7881.482  7881.500  0.500  1.006777  130.176  47.5657  1.187544
  7886.929  7886.920  0.500  1.003438  129.941  47.6385  1.198776
  7892.343  7892.370  0.500  1.000177  129.704  47.7071  1.209754
  7897.819  7897.830  0.500  0.996846  129.408  47.7568  1.220019
  7903.289  7903.310  0.500  0.993642  129.234  47.8456  1.231969
  7908.786  7908.810  0.500  0.990132  128.997  47.9259  1.243348
  7914.302  7914.330  0.500  0.987287  128.719  47.9591  1.253524
  7919.846  7919.870  0.500  0.984036  128.45  48.0144  1.263499
  7925.394  7925.420  0.500  0.980662  128.254  48.1032  1.275491
  7930.976  7931.000  0.500  0.977612  127.845  48.0963  1.284773
  7936.575  7936.600  0.500  0.974514  127.479  48.1074  1.292851
  7942.187  7942.210  0.500  0.971650  127.504  48.2549  1.303468
  7947.829  7947.850  0.500  0.968576  127.176  48.2791  1.311751
  7953.479  7953.500  0.500  0.965093  126.817  48.3106  1.321055
  7959.138  7959.170  0.500  0.961804  126.533  48.3612  1.331143
  7964.843  7964.860  0.500  0.958874  126.184  48.3694  1.339783