File: xdidata/Data/Fe/Fe-Ilvaite.xdi
# XDI/1.0 BlueSky/1.10.0 BMM/2023-1.0-py310-tiled
# Beamline.name: BMM (06BM) -- Beamline for Materials Measurement (NIST)
# Beamline.xray_source: NSLS-II three-pole wiggler
# Beamline.collimation: paraboloid mirror, 5 nm Rh on 30 nm Pt
# Beamline.focusing: not in use
# Beamline.harmonic_rejection: flat mirror, Si stripe, pitch = 7.0 mrad relative to beam
# Beamline.software: Bluesky 1.10.0, Ophyd 1.7.0, DataBroker 2.0.0b13, Python 3.10.8, 2023-1.0-py310-tiled
# Detector.I0: 10 cm N2
# Detector.I1: 25 cm N2
# Detector.I2: 25 cm N2
# Element.symbol: Fe
# Element.edge: K
# Element.reference: Fe
# Element.reference_material: Fe foil
# Facility.name: NSLS-II
# Facility.energy: 3.0
# Facility.current: 400.6
# Facility.mode: top-off
# Facility.GUP: 123456
# Facility.SAF: 301027
# Facility.cycle: 2023-2
# Mono.name: Si(111)
# Mono.d_spacing: 3.13519
# Mono.encoder_resolution: 0.0000050 deg/ct
# Mono.angle_offset: 16.0754 deg
# Mono.scan_mode: pseudo channel cut
# Mono.scan_type: step
# Mono.direction: forward in energy
# Sample.name: CaFe(2+)2Fe(3+)(Si2O7)OOH
# Sample.prep: PEG pellet
# Sample.x: 142.329 mm
# Sample.y: 114.126 mm
# Sample.SDD_position: 205.000 mm
# Scan.experimenters: Bruce Ravel
# Scan.edge_energy: 7112.0
# Scan.start_time: 2023-05-05T19:26:02
# Scan.end_time: 2023-05-05T19:34:19
# Scan.transient_id: 74586
# Scan.uid: 17d95919-5ff0-4b7b-b6e3-35f2cf83b0e4
# Scan.plot_hint: ln(I0/It)  --  ln($5/$6)
# Column.1: energy eV
# Column.2: requested_energy eV
# Column.3: measurement_time seconds
# Column.4: xmu
# Column.5: I0 nA
# Column.6: It nA
# Column.7: Ir nA
# ///////////
# courtesy Martin Stennett, University of Sheffield
# -----------
# energy  requested_energy  measurement_time  xmu  I0  It  Ir
  6911.999  6912.000  0.500  1.723868  154.477  27.5548  5.176612
  6921.803  6922.000  0.500  1.714930  154.332  27.7761  5.253500
  6932.015  6932.000  0.500  1.705387  154.29  28.0348  5.341095
  6942.013  6942.000  0.500  1.696400  154.314  28.2923  5.428331
  6952.010  6952.000  0.500  1.687114  154.291  28.5519  5.516251
  6962.014  6962.000  0.500  1.677993  154.275  28.8105  5.604866
  6972.026  6972.000  0.500  1.668969  154.267  29.0703  5.695326
  6982.010  6982.000  0.500  1.659809  154.231  29.3309  5.784962
  6992.004  6992.000  0.500  1.650688  154.223  29.5981  5.877702
  7002.011  7002.000  0.500  1.641958  154.147  29.8429  5.965257
  7012.006  7012.000  0.500  1.632965  154.085  30.1005  6.057769
  7022.012  7022.000  0.500  1.624234  154.022  30.3521  6.146768
  7032.006  7032.000  0.500  1.615243  153.958  30.6135  6.240222
  7042.008  7042.000  0.500  1.607193  153.871  30.8434  6.325991
  7052.009  7052.000  0.500  1.598643  153.771  31.0879  6.413307
  7062.004  7062.000  0.500  1.590271  153.062  31.2047  6.473725
  7072.009  7072.000  0.500  1.582388  153.551  31.5523  6.577360
  7081.978  7082.000  0.500  1.574620  153.555  31.7991  6.652794
  7083.978  7084.000  0.500  1.573082  153.328  31.8009  6.656664
  7085.978  7086.000  0.500  1.571835  153.43  31.8619  6.671472
  7087.988  7088.000  0.500  1.570536  153.451  31.9077  6.681423
  7089.992  7090.000  0.500  1.569483  153.408  31.9322  6.686778
  7091.989  7092.000  0.500  1.568325  153.413  31.9703  6.691780
  7093.987  7094.000  0.500  1.567345  153.372  31.9931  6.692712
  7096.150  7096.000  0.500  1.566179  153.329  32.0215  6.690131
  7098.003  7098.000  0.500  1.565315  153.325  32.0484  6.684020
  7099.992  7100.000  0.500  1.564707  153.294  32.0614  6.669112
  7101.999  7102.000  0.500  1.564517  153.275  32.0634  6.641033
  7102.294  7102.300  0.500  1.564404  153.263  32.0646  6.636161
  7102.587  7102.600  0.500  1.564711  153.273  32.0567  6.628945
  7102.884  7102.900  0.500  1.564823  153.244  32.0471  6.621401
  7103.192  7103.200  0.500  1.564915  153.234  32.042  6.614073
  7103.485  7103.500  0.500  1.564774  153.218  32.0433  6.606530
  7103.785  7103.800  0.500  1.564549  153.191  32.0448  6.600292
  7104.089  7104.100  0.500  1.564694  153.208  32.0437  6.592395
  7104.382  7104.400  0.500  1.564643  153.178  32.039  6.581391
  7104.688  7104.700  0.500  1.564685  153.195  32.0413  6.572485
  7104.987  7105.000  0.500  1.564777  153.196  32.0386  6.562196
  7105.291  7105.300  0.500  1.564888  153.199  32.0357  6.548959
  7105.584  7105.600  0.500  1.564986  153.204  32.0335  6.535190
  7105.884  7105.900  0.500  1.565283  153.19  32.0212  6.519793
  7106.186  7106.200  0.500  1.565449  153.164  32.0104  6.502399
  7106.490  7106.500  0.500  1.565629  153.161  32.004  6.484074
  7106.794  7106.800  0.500  1.565833  153.121  31.9891  6.463190
  7107.094  7107.100  0.500  1.566492  153.13  31.9699  6.438575
  7107.385  7107.400  0.500  1.566903  153.138  31.9583  6.413374
  7107.685  7107.700  0.500  1.567182  153.115  31.9447  6.383477
  7107.989  7108.000  0.500  1.567604  153.11  31.9302  6.348810
  7108.289  7108.300  0.500  1.567707  153.089  31.9224  6.310269
  7108.586  7108.600  0.500  1.567972  153.11  31.9186  6.267128
  7108.886  7108.900  0.500  1.568669  153.095  31.8932  6.211700
  7109.188  7109.200  0.500  1.569399  153.075  31.8657  6.143067
  7109.493  7109.500  0.500  1.570108  153.062  31.8404  6.057614
  7109.797  7109.800  0.500  1.571051  153.049  31.8076  5.941857
  7110.093  7110.100  0.500  1.572355  153.026  31.7615  5.790145
  7110.395  7110.400  0.500  1.574169  153.021  31.7029  5.568628
  7110.695  7110.700  0.500  1.576760  153.006  31.6176  5.265545
  7110.993  7111.000  0.500  1.580460  152.975  31.4946  4.872279
  7111.299  7111.300  0.500  1.585127  152.935  31.3397  4.395183
  7111.593  7111.600  0.500  1.589862  152.918  31.1883  3.912763
  7111.889  7111.900  0.500  1.593709  152.877  31.0602  3.486743
  7112.194  7112.200  0.500  1.596935  152.853  30.9553  3.140143
  7112.490  7112.500  0.500  1.599199  152.823  30.8793  2.887583
  7112.798  7112.800  0.500  1.600943  152.794  30.8195  2.694018
  7113.094  7113.100  0.500  1.602718  152.774  30.7607  2.541405
  7113.397  7113.400  0.500  1.604304  152.748  30.7068  2.407904
  7113.695  7113.700  0.500  1.605652  152.735  30.6628  2.288027
  7114.000  7114.000  0.500  1.606929  152.721  30.6209  2.178124
  7114.302  7114.300  0.500  1.608076  152.706  30.5828  2.082906
  7114.598  7114.600  0.500  1.609239  152.704  30.5468  2.004830
  7114.899  7114.900  0.500  1.610817  152.691  30.4961  1.942753
  7115.201  7115.200  0.500  1.612538  152.697  30.4449  1.896262
  7115.500  7115.500  0.500  1.614998  152.667  30.3642  1.861176
  7115.802  7115.800  0.500  1.618249  152.648  30.2618  1.832376
  7116.094  7116.100  0.500  1.622770  152.658  30.1272  1.806907
  7116.393  7116.400  0.500  1.628654  152.658  29.9505  1.779407
  7116.693  7116.700  0.500  1.636325  152.619  29.7141  1.741107
  7116.998  7117.000  0.500  1.645936  152.614  29.4289  1.687767
  7117.299  7117.300  0.500  1.658588  152.604  29.0569  1.615261
  7117.595  7117.600  0.500  1.674564  152.589  28.5936  1.523307
  7117.898  7117.900  0.500  1.694696  152.568  28.0199  1.411406
  7118.201  7118.200  0.500  1.720197  152.543  27.3099  1.287244
  7118.504  7118.500  0.500  1.750963  152.54  26.482  1.158190
  7118.805  7118.800  0.500  1.787216  152.517  25.5353  1.033094
  7119.104  7119.100  0.500  1.827467  152.509  24.5266  0.918438
  7119.402  7119.400  0.500  1.872085  152.496  23.4544  0.812615
  7119.699  7119.700  0.500  1.919933  152.456  22.3527  0.715800
  7120.000  7120.000  0.500  1.969549  152.458  21.2709  0.625915
  7120.301  7120.300  0.500  2.017356  152.44  20.2756  0.546447
  7120.595  7120.600  0.500  2.060067  152.432  19.4268  0.478859
  7120.896  7120.900  0.500  2.096782  152.419  18.7248  0.422747
  7121.197  7121.200  0.500  2.129805  152.396  18.1138  0.376331
  7121.502  7121.500  0.500  2.160560  152.384  17.5639  0.337864
  7121.803  7121.800  0.500  2.190777  152.367  17.0392  0.306074
  7122.105  7122.100  0.500  2.222005  152.349  16.5134  0.278385
  7122.401  7122.400  0.500  2.255274  152.333  15.9713  0.254138
  7122.700  7122.700  0.500  2.291815  152.309  15.3959  0.231864
  7123.004  7123.000  0.500  2.331748  152.287  14.791  0.212269
  7123.305  7123.300  0.500  2.375342  152.269  14.1584  0.194055
  7123.602  7123.600  0.500  2.417351  152.261  13.5752  0.178483
  7123.897  7123.900  0.500  2.457869  152.231  13.0336  0.164918
  7124.202  7124.200  0.500  2.496159  152.235  12.5443  0.153180
  7124.499  7124.500  0.500  2.529569  152.191  12.1286  0.143087
  7124.803  7124.800  0.500  2.557641  152.693  11.8317  0.134712
  7125.095  7125.100  0.500  2.577394  152.663  11.5981  0.128050
  7125.397  7125.400  0.500  2.590318  152.634  11.4469  0.122341
  7125.700  7125.700  0.500  2.597651  152.536  11.3561  0.117777
  7126.002  7126.000  0.500  2.601801  152.56  11.3108  0.113756
  7126.303  7126.300  0.500  2.604003  152.523  11.2832  0.110165
  7126.605  7126.600  0.500  2.605299  152.509  11.2675  0.106301
  7126.904  7126.900  0.500  2.607566  152.478  11.2397  0.102452
  7127.203  7127.200  0.500  2.611232  152.457  11.197  0.098163
  7127.507  7127.500  0.500  2.616871  152.434  11.1324  0.093842
  7127.804  7127.800  0.500  2.624293  152.428  11.0497  0.089179
  7128.099  7128.100  0.500  2.632924  152.393  10.9522  0.084631
  7128.395  7128.400  0.500  2.643441  152.364  10.8356  0.079963
  7128.703  7128.700  0.500  2.655265  152.29  10.703  0.075049
  7128.998  7129.000  0.500  2.667902  152.35  10.5728  0.070481
  7129.302  7129.300  0.500  2.680813  152.294  10.4333  0.066066
  7129.597  7129.600  0.500  2.692679  152.279  10.3092  0.062060
  7129.903  7129.900  0.500  2.701925  152.235  10.2114  0.058888
  7130.205  7130.200  0.500  2.707276  152.209  10.1552  0.056325
  7130.505  7130.500  0.500  2.708139  152.178  10.1443  0.054713
  7130.804  7130.800  0.500  2.704889  152.136  10.1745  0.053731
  7131.104  7131.100  0.500  2.697811  152.122  10.2459  0.053742
  7131.404  7131.400  0.500  2.688175  152.071  10.3416  0.054470
  7131.704  7131.700  0.500  2.676698  152.056  10.4599  0.056100
  7132.003  7132.000  0.500  2.665049  152.039  10.5813  0.058283
  7132.299  7132.300  0.500  2.653196  152.023  10.7064  0.060918
  7132.594  7132.600  0.500  2.641645  152.014  10.8301  0.064219
  7132.901  7132.900  0.500  2.629884  152.019  10.9586  0.067666
  7133.201  7133.200  0.500  2.617877  152.011  11.0904  0.071423
  7133.501  7133.500  0.500  2.605768  152.001  11.2247  0.075433
  7133.796  7133.800  0.500  2.594386  151.982  11.3518  0.079565
  7134.103  7134.100  0.500  2.582929  152  11.484  0.083844
  7134.407  7134.400  0.500  2.572016  151.999  11.6099  0.087570
  7134.703  7134.700  0.500  2.561632  152.007  11.7317  0.091290
  7135.003  7135.000  0.500  2.552288  151.997  11.8411  0.094555
  7135.301  7135.300  0.500  2.543994  151.985  11.9387  0.097459
  7135.603  7135.600  0.500  2.536855  151.971  12.0232  0.100086
  7135.903  7135.900  0.500  2.530684  151.964  12.097  0.102105
  7136.201  7136.200  0.500  2.525250  151.947  12.1616  0.103665
  7136.497  7136.500  0.500  2.520967  151.948  12.2139  0.104873
  7136.799  7136.800  0.500  2.516134  151.946  12.2729  0.105836
  7136.996  7137.000  0.500  2.512700  151.956  12.3159  0.106166
  7137.998  7137.990  0.500  2.497786  151.961  12.5013  0.105870
  7139.003  7138.990  0.500  2.486605  151.955  12.6414  0.102527
  7140.021  7140.010  0.500  2.478876  151.938  12.7381  0.098401
  7141.085  7141.060  0.500  2.474914  151.933  12.7882  0.095565
  7142.104  7142.120  0.500  2.471908  151.9  12.824  0.095058
  7143.184  7143.200  0.500  2.467281  151.881  12.8818  0.096867
  7144.287  7144.300  0.500  2.459507  151.907  12.9846  0.099453
  7145.420  7145.420  0.500  2.445969  151.899  13.1608  0.100211
  7146.554  7146.560  0.500  2.427488  151.885  13.4051  0.098478
  7147.703  7147.710  0.500  2.406749  151.874  13.6851  0.094375
  7148.895  7148.890  0.500  2.384888  151.868  13.9869  0.089950
  7150.080  7150.080  0.500  2.364332  151.854  14.2761  0.087523
  7151.304  7151.300  0.500  2.348655  151.875  14.5037  0.086261
  7152.529  7152.530  0.500  2.340111  151.856  14.6263  0.085270
  7153.786  7153.780  0.500  2.337646  151.841  14.6609  0.084532
  7155.052  7155.050  0.500  2.337771  151.814  14.6565  0.085283
  7156.346  7156.340  0.500  2.338754  151.807  14.6414  0.086733
  7157.652  7157.650  0.500  2.340401  151.798  14.6164  0.087942
  7158.980  7158.980  0.500  2.343526  151.769  14.5681  0.088326
  7160.334  7160.330  0.500  2.349808  151.753  14.4753  0.087820
  7161.701  7161.700  0.500  2.358943  151.707  14.3394  0.087601
  7163.082  7163.080  0.500  2.370677  151.689  14.1704  0.088113
  7164.495  7164.490  0.500  2.385547  151.623  13.9551  0.088525
  7165.911  7165.910  0.500  2.401854  151.563  13.724  0.088561
  7167.351  7167.350  0.500  2.419344  151.53  13.4831  0.088257
  7168.818  7168.810  0.500  2.435493  151.499  13.2645  0.087767
  7170.294  7170.290  0.500  2.448697  151.484  13.0891  0.088078
  7171.795  7171.790  0.500  2.459094  151.448  12.9507  0.089815
  7173.316  7173.310  0.500  2.464711  151.429  12.8765  0.093045
  7174.849  7174.850  0.500  2.465728  151.389  12.86  0.098085
  7176.418  7176.410  0.500  2.463414  151.38  12.8891  0.104159
  7177.985  7177.980  0.500  2.458492  151.351  12.9502  0.110247
  7179.587  7179.580  0.500  2.453155  151.339  13.0185  0.114500
  7181.197  7181.190  0.500  2.447909  151.307  13.0842  0.116043
  7182.830  7182.830  0.500  2.442280  151.27  13.1548  0.115668
  7184.490  7184.480  0.500  2.436121  151.243  13.2337  0.113900
  7186.159  7186.150  0.500  2.429334  151.206  13.3206  0.110333
  7187.842  7187.840  0.500  2.421788  151.188  13.4199  0.105615
  7189.552  7189.550  0.500  2.413924  151.151  13.5225  0.100531
  7191.290  7191.280  0.500  2.406029  149.586  13.4886  0.094370
  7193.039  7193.030  0.500  2.399964  150.793  13.6801  0.090705
  7194.796  7194.790  0.500  2.395951  150.955  13.7499  0.089266
  7196.589  7196.580  0.500  2.393442  150.945  13.7835  0.091325
  7198.387  7198.380  0.500  2.392028  150.898  13.7987  0.095916
  7200.219  7200.210  0.500  2.391184  150.861  13.807  0.102777
  7202.057  7202.050  0.500  2.390738  150.822  13.8096  0.110673
  7203.920  7203.910  0.500  2.390598  150.79  13.8086  0.119896
  7205.799  7205.790  0.500  2.389510  150.711  13.8164  0.128717
  7207.703  7207.690  0.500  2.387394  150.663  13.8412  0.133192
  7209.620  7209.610  0.500  2.383238  150.595  13.8926  0.129697
  7211.560  7211.550  0.500  2.378231  150.587  13.9616  0.117215
  7213.518  7213.510  0.500  2.373140  150.524  14.027  0.099967
  7215.491  7215.480  0.500  2.369297  150.477  14.0766  0.083746
  7217.494  7217.480  0.500  2.366783  150.445  14.109  0.072028
  7219.504  7219.490  0.500  2.364802  150.381  14.131  0.065412
  7221.533  7221.520  0.500  2.362717  150.316  14.1544  0.064510
  7223.595  7223.580  0.500  2.360503  150.245  14.179  0.068562
  7225.660  7225.650  0.500  2.358158  150.139  14.2023  0.077449
  7227.755  7227.740  0.500  2.355527  147.499  13.9893  0.088038
  7229.862  7229.850  0.500  2.352644  150.299  14.296  0.104540
  7231.989  7231.980  0.500  2.349999  150.234  14.3277  0.120875
  7234.128  7234.120  0.500  2.347832  150.182  14.3538  0.135889
  7236.299  7236.290  0.500  2.346656  150.131  14.3659  0.147032
  7238.491  7238.480  0.500  2.346799  150.097  14.3605  0.151876
  7240.694  7240.680  0.500  2.348257  150.043  14.3344  0.150640
  7242.910  7242.900  0.500  2.350558  150.018  14.2991  0.145079
  7245.162  7245.150  0.500  2.353014  147.219  13.9979  0.134768
  7247.416  7247.410  0.500  2.354912  149.76  14.2125  0.130962
  7249.701  7249.690  0.500  2.356356  149.777  14.1936  0.128170
  7252.000  7251.990  0.500  2.357442  149.684  14.1694  0.129273
  7254.324  7254.310  0.500  2.358326  147.341  13.9353  0.130814
  7256.662  7256.650  0.500  2.358116  149.767  14.1677  0.135746
  7259.008  7259.000  0.500  2.355908  149.587  14.1819  0.134873
  7261.394  7261.380  0.500  2.351608  149.167  14.2031  0.131307
  7263.789  7263.770  0.500  2.347700  138.327  13.2225  0.118845
  7266.207  7266.190  0.500  2.341109  149.329  14.3686  0.126367
  7268.639  7268.620  0.500  2.335879  149.962  14.5052  0.123984
  7271.085  7271.070  0.500  2.330792  149.888  14.5719  0.118784
  7273.563  7273.550  0.500  2.326332  148.743  14.5253  0.112149
  7276.053  7276.040  0.500  2.322575  149.915  14.6948  0.109871
  7278.562  7278.550  0.500  2.319748  149.846  14.7296  0.108171
  7281.080  7281.070  0.500  2.317650  149.804  14.7564  0.105254
  7283.633  7283.620  0.500  2.315868  148.751  14.6788  0.100883
  7286.200  7286.190  0.500  2.314048  149.43  14.7727  0.097826
  7288.786  7288.770  0.500  2.311881  149.526  14.8142  0.096785
  7291.398  7291.380  0.500  2.309272  149.489  14.8492  0.100484
  7294.014  7294.000  0.500  2.306226  149.47  14.8927  0.109507
  7296.668  7296.650  0.500  2.302547  149.385  14.9391  0.121421
  7299.318  7299.310  0.500  2.298373  149.249  14.9879  0.133244
  7302.001  7301.990  0.500  2.294134  147.53  14.8782  0.142353
  7304.705  7304.690  0.500  2.290676  149.376  15.1166  0.152797
  7307.426  7307.410  0.500  2.287867  149.302  15.1516  0.158572
  7310.161  7310.150  0.500  2.285739  149.535  15.2075  0.161256
  7312.916  7312.900  0.500  2.283959  149.618  15.2431  0.161505
  7315.696  7315.680  0.500  2.282712  149.554  15.2556  0.161467
  7318.481  7318.470  0.500  2.281585  149.477  15.2649  0.162297
  7321.302  7321.290  0.500  2.279702  149.421  15.288  0.163390
  7324.141  7324.120  0.500  2.276975  149.376  15.3251  0.164137
  7326.987  7326.970  0.500  2.273575  149.3  15.3695  0.164980
  7329.859  7329.850  0.500  2.269625  149.248  15.4249  0.166410
  7332.755  7332.740  0.500  2.265457  149.175  15.4818  0.169950
  7335.663  7335.650  0.500  2.262008  149.105  15.5279  0.174511
  7338.585  7338.570  0.500  2.258746  147.88  15.4507  0.175826
  7341.532  7341.520  0.500  2.255412  148.87  15.6061  0.176022
  7344.500  7344.490  0.500  2.253114  148.867  15.6417  0.170085
  7347.481  7347.470  0.500  2.251041  148.808  15.6679  0.161284
  7350.496  7350.480  0.500  2.249201  148.74  15.6896  0.152821
  7353.517  7353.500  0.500  2.247814  148.685  15.7055  0.145746
  7356.566  7356.550  0.500  2.245870  148.597  15.7268  0.139924
  7359.621  7359.610  0.500  2.243522  148.524  15.7561  0.135038
  7362.698  7362.690  0.500  2.240865  148.473  15.7926  0.131557
  7365.802  7365.790  0.500  2.237876  148.396  15.8316  0.130545
  7368.928  7368.910  0.500  2.234495  148.328  15.8779  0.132504
  7372.063  7372.050  0.500  2.231261  148.272  15.9234  0.138427
  7375.216  7375.200  0.500  2.228147  148.18  15.9631  0.149210
  7378.397  7378.380  0.500  2.225050  148.11  16.0051  0.164980
  7381.586  7381.570  0.500  2.222031  148.027  16.0445  0.183198
  7384.806  7384.790  0.500  2.218937  147.951  16.0859  0.197788
  7388.033  7388.020  0.500  2.216129  147.879  16.1233  0.203523
  7391.284  7391.270  0.500  2.213024  147.783  16.163  0.202980
  7394.563  7394.550  0.500  2.209743  147.719  16.2091  0.199807
  7397.851  7397.840  0.500  2.205992  147.594  16.2562  0.197980
  7401.160  7401.150  0.500  2.201835  147.543  16.3183  0.198463
  7404.479  7404.470  0.500  2.197517  147.468  16.3806  0.200010
  7407.824  7407.820  0.500  2.193439  147.366  16.4361  0.200770
  7411.198  7411.190  0.500  2.189832  147.286  16.4865  0.200693
  7414.578  7414.570  0.500  2.186667  147.207  16.5299  0.201130
  7417.989  7417.980  0.500  2.183919  147.076  16.5607  0.202206
  7421.404  7421.400  0.500  2.181269  146.977  16.5934  0.205031
  7424.863  7424.850  0.500  2.178678  146.882  16.6257  0.209729
  7428.322  7428.310  0.500  2.175936  146.77  16.6587  0.213436
  7431.802  7431.790  0.500  2.172865  146.672  16.6987  0.214364
  7435.301  7435.290  0.500  2.169828  146.544  16.7349  0.213448
  7438.816  7438.810  0.500  2.166952  146.423  16.7693  0.210798
  7442.364  7442.350  0.500  2.163710  146.318  16.8117  0.205586
  7445.907  7445.900  0.500  2.160111  142.411  16.4218  0.194910
  7449.488  7449.480  0.500  2.156526  146.243  16.9242  0.196528
  7453.095  7453.080  0.500  2.153322  144.941  16.8274  0.194123
  7456.702  7456.690  0.500  2.149697  146.012  17.0133  0.196545
  7460.336  7460.320  0.500  2.146203  145.35  16.9954  0.197389
  7463.988  7463.980  0.500  2.142940  145.765  17.0996  0.201724
  7467.662  7467.650  0.500  2.139740  141.788  16.6864  0.202083
  7471.350  7471.340  0.500  2.136876  145.753  17.2022  0.215725
  7475.060  7475.050  0.500  2.133696  145.592  17.238  0.222717
  7478.796  7478.780  0.500  2.130522  145.465  17.2777  0.228652
  7482.538  7482.520  0.500  2.127545  145.333  17.3134  0.234043
  7486.308  7486.290  0.500  2.124063  145.188  17.3565  0.241026
  7490.096  7490.080  0.500  2.120999  145.029  17.3907  0.248431
  7493.895  7493.880  0.500  2.118322  144.915  17.4236  0.253870
  7497.731  7497.710  0.500  2.114832  144.832  17.4745  0.256065
  7501.570  7501.550  0.500  2.111626  144.744  17.52  0.255598
  7505.431  7505.410  0.500  2.108464  144.598  17.5578  0.254926
  7509.312  7509.290  0.500  2.104916  144.446  17.6016  0.255268
  7513.184  7513.190  0.500  2.101121  144.335  17.655  0.256927
  7517.104  7517.110  0.500  2.097582  144.219  17.7033  0.259796
  7521.040  7521.050  0.500  2.094066  144.088  17.7495  0.262077
  7525.031  7525.010  0.500  2.090762  143.917  17.7871  0.263492
  7529.009  7528.980  0.500  2.087570  143.768  17.8255  0.263800
  7532.997  7532.980  0.500  2.084233  143.638  17.8689  0.264081
  7537.008  7536.990  0.500  2.080651  143.522  17.9185  0.265846
  7541.051  7541.030  0.500  2.077204  143.388  17.9636  0.268508
  7545.098  7545.080  0.500  2.073683  143.246  18.0091  0.271328
  7549.183  7549.150  0.500  2.069986  143.092  18.0565  0.273530
  7553.275  7553.240  0.500  2.066495  142.969  18.104  0.273941
  7557.380  7557.350  0.500  2.063089  142.817  18.1465  0.272640
  7561.513  7561.480  0.500  2.059388  142.653  18.1929  0.270890
  7565.622  7565.630  0.500  2.055774  142.486  18.2373  0.271373
  7569.799  7569.790  0.500  2.052172  142.333  18.2834  0.273856
  7573.978  7573.980  0.500  2.048520  142.198  18.333  0.279294
  7578.169  7578.180  0.500  2.044858  142.055  18.3817  0.286653
  7582.395  7582.410  0.500  2.041133  141.891  18.429  0.294018
  7586.643  7586.650  0.500  2.037979  141.73  18.4663  0.300347
  7590.893  7590.910  0.500  2.034453  141.558  18.509  0.304432
  7595.177  7595.190  0.500  2.031129  141.312  18.5384  0.306808
  7599.484  7599.490  0.500  2.027474  141.053  18.5721  0.308343
  7603.833  7603.810  0.500  2.024290  140.482  18.5559  0.309639
  7608.135  7608.150  0.500  2.020784  140.259  18.5915  0.313298
  7612.496  7612.510  0.500  2.017264  140.06  18.6306  0.317788
  7616.888  7616.890  0.500  2.014009  139.981  18.6808  0.321834
  7621.297  7621.280  0.500  2.010710  140.059  18.753  0.323753
  7625.721  7625.700  0.500  2.006807  140.094  18.831  0.325136
  7630.153  7630.130  0.500  2.003094  139.975  18.885  0.327366
  7634.566  7634.580  0.500  1.999254  139.787  18.9322  0.331547
  7639.071  7639.050  0.500  1.995686  139.645  18.9805  0.336819
  7643.559  7643.540  0.500  1.992152  139.471  19.0241  0.342159
  7648.055  7648.050  0.500  1.988480  139.293  19.0697  0.346803
  7652.559  7652.580  0.500  1.984964  139.163  19.119  0.350274
  7657.118  7657.130  0.500  1.981468  138.97  19.1594  0.352877
  7661.691  7661.700  0.500  1.977861  138.792  19.204  0.354965
  7666.277  7666.280  0.500  1.974344  138.612  19.2466  0.355961
  7670.883  7670.890  0.500  1.970628  138.418  19.2913  0.356587
  7675.496  7675.510  0.500  1.967036  138.22  19.333  0.357097
  7680.154  7680.160  0.500  1.963314  137.997  19.3737  0.358238
  7684.825  7684.820  0.500  1.959746  137.717  19.4036  0.359974
  7689.488  7689.500  0.500  1.955899  137.853  19.4976  0.364471
  7694.209  7694.200  0.500  1.952260  137.566  19.5279  0.369089
  7698.904  7698.920  0.500  1.948617  137.354  19.569  0.373881
  7703.647  7703.660  0.500  1.944649  137.105  19.6111  0.378079
  7708.399  7708.410  0.500  1.940814  137.068  19.6812  0.383132
  7713.175  7713.190  0.500  1.937138  136.797  19.7146  0.387889
  7717.975  7717.990  0.500  1.933532  136.538  19.7483  0.393259
  7722.786  7722.800  0.500  1.929773  136.383  19.8003  0.398384
  7727.611  7727.630  0.500  1.926016  136.135  19.8387  0.401907
  7732.475  7732.490  0.500  1.921929  135.93  19.8899  0.405358
  7737.338  7737.360  0.500  1.918182  135.616  19.9184  0.408597
  7742.259  7742.250  0.500  1.914415  135.69  20.0046  0.413041
  7747.134  7747.160  0.500  1.910593  135.418  20.0408  0.416574
  7752.070  7752.090  0.500  1.906923  135.219  20.0849  0.420096
  7757.051  7757.030  0.500  1.903485  135.003  20.122  0.423607
  7762.005  7762.000  0.500  1.899546  134.818  20.1737  0.428136
  7766.987  7766.990  0.500  1.895883  134.581  20.2121  0.433563
  7771.995  7771.990  0.500  1.892197  134.352  20.2523  0.438357
  7777.011  7777.020  0.500  1.888245  134.168  20.3045  0.443351
  7782.046  7782.060  0.500  1.884462  133.968  20.3512  0.447990
  7787.108  7787.120  0.500  1.880862  133.766  20.3937  0.452196
  7792.221  7792.200  0.500  1.877160  133.555  20.4371  0.456259
  7797.284  7797.300  0.500  1.873248  133.367  20.4883  0.459985
  7802.427  7802.420  0.500  1.869547  133.216  20.5411  0.463594
  7807.569  7807.560  0.500  1.865772  132.964  20.5798  0.466552
  7812.728  7812.720  0.500  1.862211  132.709  20.6135  0.469620
  7817.881  7817.900  0.500  1.858433  132.475  20.6551  0.473024
  7823.105  7823.090  0.500  1.854458  132.278  20.7065  0.477587
  7828.335  7828.310  0.500  1.850559  132.03  20.7484  0.481049
  7833.525  7833.540  0.500  1.846641  131.811  20.7954  0.485177
  7838.775  7838.790  0.500  1.843084  131.399  20.8042  0.488568
  7844.054  7844.060  0.500  1.839240  131.498  20.9001  0.494069
  7849.339  7849.350  0.500  1.835486  131.237  20.937  0.498789
  7854.651  7854.660  0.500  1.831776  130.164  20.843  0.500146
  7859.970  7859.990  0.500  1.828053  130.824  21.0269  0.508423
  7865.330  7865.340  0.500  1.824101  130.594  21.073  0.514490
  7870.693  7870.710  0.500  1.820140  130.316  21.1116  0.519678
  7876.077  7876.090  0.500  1.816260  130.276  21.1872  0.526262
  7881.484  7881.500  0.500  1.812729  130.332  21.2713  0.532689
  7886.902  7886.920  0.500  1.809032  130.085  21.3096  0.537780
  7892.343  7892.370  0.500  1.805010  129.879  21.3616  0.543413
  7897.811  7897.830  0.500  1.801226  129.557  21.3894  0.548117
  7903.281  7903.310  0.500  1.797569  129.403  21.4422  0.554357
  7908.786  7908.810  0.500  1.793810  129.196  21.4886  0.559142
  7914.296  7914.330  0.500  1.789979  128.95  21.5299  0.564592
  7919.852  7919.870  0.500  1.786157  128.695  21.5697  0.569555
  7925.397  7925.420  0.500  1.782272  128.405  21.6048  0.574888
  7930.974  7931.000  0.500  1.778917  128.02  21.6125  0.578990
  7936.580  7936.600  0.500  1.775006  127.681  21.6398  0.583228
  7942.182  7942.210  0.500  1.771266  127.725  21.7283  0.588701
  7947.826  7947.850  0.500  1.767536  127.425  21.7582  0.593016
  7953.477  7953.500  0.500  1.763801  127.071  21.779  0.597389
  7959.146  7959.170  0.500  1.759861  126.827  21.823  0.602686
  7964.832  7964.860  0.500  1.756098  126.52  21.8522  0.607146