File: xdidata/Data/Fe/Fe-K-Bustamite.xdi
# XDI/1.0 BlueSky/1.5.3
# Beamline.name: 6BM
# Beamline.xray_source: NSLS-II three-pole wiggler
# Beamline.collimation: paraboloid mirror, 5 nm Rh on 30 nm Pt
# Beamline.focusing: not in use
# Beamline.harmonic_rejection: flat mirror, Si stripe, pitch = 7.0 mrad relative to beam
# Detector.i0: 10 cm N2
# Detector.i1: 25 cm N2
# Detector.i2: 25 cm N2
# Element.symbol: Fe
# Element.edge: K
# Facility.name: NSLS-II
# Facility.energy: 3.0
# Facility.current: 400.4
# Facility.mode: top-off
# Facility.gup: 301027
# Facility.saf: 304793
# Facility.cycle: 2020-1
# Mono.name: Si(111)
# Mono.d_spacing: 3.13532
# Mono.encoder_resolution: 0.0000050 deg/ct
# Mono.angle_offset: 16.0581 deg
# Mono.scan_mode: fixed exit
# Mono.scan_type: step
# Mono.direction: forward in energy
# Sample.name: CaMnSi2O6
# Sample.prep: Powder in polyethylene glycol pellet
# Sample.x_position: -122.297 mm
# Sample.y_position: 119.848 mm
# Scan.experimenters: Bruce Ravel
# Scan.edge_energy: 7112.0
# Scan.start_time: 2020-01-14T21:38:46
# Scan.end_time: 2020-01-15T07:16:50
# Scan.transient_id: 19543
# Scan.uid: 09327789-7958-44d7-90ed-12e4cb02125b
# Scan.plot_hint: ln(I0/It)  --  ln($5/$6)
# Scan.sequence: merge of 4 scans
# Column.1: energy eV
# Column.2: requested_energy eV
# Column.3: measurement_time seconds
# Column.4: mutrans
# Column.5: i0
# Column.6: itrans
# Column.7: irefer
# /////
#  Broken Hill, NSW, Australia
# -----
# energy   requested_energy   measurement_time   mutrans   i0   itrans   irefer
6911.99 6912 0.500000 2.743674 71.5789 4.605112 1.269977
6922.01 6922 0.500000 2.731813 71.3749 4.646736 1.289583
6932.01 6932 0.500000 2.719107 71.2362 4.696998 1.308548
6942.01 6942 0.500000 2.706590 71.0535 4.743879 1.327622
6952.02 6952 0.500000 2.694275 70.8712 4.790384 1.345966
6962.02 6962 0.500000 2.681870 70.7322 4.840635 1.365333
6972.02 6972 0.500000 2.670007 70.5676 4.886978 1.384427
6982.01 6982 0.500000 2.657798 70.4072 4.935747 1.403554
6992.01 6992 0.500000 2.645678 70.2488 4.984718 1.424048
7002.01 7002 0.500000 2.633548 70.1076 5.035411 1.444194
7012.02 7012 0.500000 2.621454 69.9552 5.085599 1.463865
7022.01 7022 0.500000 2.609134 69.7891 5.136410 1.484589
7032.01 7032 0.500000 2.597184 69.6481 5.187655 1.504515
7042.01 7042 0.500000 2.585095 69.4765 5.237785 1.524964
7052.01 7052 0.500000 2.573325 69.307 5.286862 1.544433
7062.01 7062 0.500000 2.561802 68.5506 5.289757 1.549202
7072.01 7072 0.500000 2.549833 69.0389 5.391559 1.583405
7082.01 7082 0.500000 2.538207 68.8538 5.440036 1.598727
7084.01 7084 0.500000 2.535689 68.8659 5.454696 1.602530
7086.01 7086 0.500000 2.533532 68.8531 5.465469 1.605391
7088 7088 0.500000 2.531339 68.8341 5.475949 1.608577
7090.01 7090 0.500000 2.529067 68.8189 5.487179 1.610072
7092 7092 0.500000 2.526706 68.7829 5.497260 1.612013
7094 7094 0.500000 2.524419 68.7574 5.507801 1.613253
7096.01 7096 0.500000 2.522164 68.7359 5.518546 1.613648
7098 7098 0.500000 2.520095 68.7045 5.527424 1.612001
7100 7100 0.500000 2.518042 68.6603 5.535212 1.608416
7102 7102 0.500000 2.515989 68.63 5.544131 1.604075
7102.08 7102.1 0.500000 2.515613 68.6318 5.546336 1.603923
7102.18 7102.2 0.500000 2.515679 68.6357 5.546341 1.603868
7102.28 7102.3 0.500000 2.515493 68.6075 5.545070 1.602320
7102.38 7102.4 0.500000 2.515434 68.6155 5.546063 1.602363
7102.48 7102.5 0.500000 2.515291 68.6065 5.546110 1.601939
7102.58 7102.6 0.500000 2.515268 68.6069 5.546273 1.601003
7102.68 7102.7 0.500000 2.515023 68.5843 5.545761 1.600529
7102.78 7102.8 0.500000 2.514960 68.5861 5.546314 1.601038
7102.88 7102.9 0.500000 2.514815 68.5741 5.546139 1.599956
7102.98 7103 0.500000 2.514776 68.5363 5.543294 1.598524
7103.08 7103.1 0.500000 2.514701 68.5537 5.545116 1.598200
7103.19 7103.2 0.500000 2.514657 68.573 5.546918 1.598329
7103.28 7103.3 0.500000 2.514521 68.5555 5.546246 1.596894
7103.39 7103.4 0.500000 2.514388 68.5661 5.547861 1.596908
7103.49 7103.5 0.500000 2.514225 68.5407 5.546690 1.596018
7103.59 7103.6 0.500000 2.514213 68.5389 5.546606 1.595395
7103.69 7103.7 0.500000 2.514002 68.5345 5.547427 1.595055
7103.79 7103.8 0.500000 2.513992 68.5278 5.546989 1.593790
7103.9 7103.9 0.500000 2.513866 68.517 5.546790 1.592603
7103.99 7104 0.500000 2.513852 68.5153 5.546737 1.592171
7104.09 7104.1 0.500000 2.513689 68.5202 5.548052 1.591896
7104.19 7104.2 0.500000 2.513449 68.5022 5.547896 1.590737
7104.3 7104.3 0.500000 2.513472 68.5068 5.548147 1.590820
7104.4 7104.4 0.500000 2.513371 68.4931 5.547602 1.589682
7104.49 7104.5 0.500000 2.513368 68.4835 5.546869 1.588309
7104.6 7104.6 0.500000 2.513144 68.5002 5.549438 1.588325
7104.69 7104.7 0.500000 2.513019 68.4675 5.547470 1.586027
7104.79 7104.8 0.500000 2.513008 68.4716 5.547860 1.586155
7104.9 7104.9 0.500000 2.512770 68.478 5.549692 1.585569
7105 7105 0.500000 2.512816 68.4662 5.548523 1.583797
7105.1 7105.1 0.500000 2.512608 68.464 5.549492 1.583977
7105.2 7105.2 0.500000 2.512597 68.4281 5.546641 1.581411
7105.3 7105.3 0.500000 2.512417 68.4634 5.550482 1.582251
7105.4 7105.4 0.500000 2.512245 68.4189 5.547853 1.580296
7105.5 7105.5 0.500000 2.512059 68.43 5.549740 1.579547
7105.59 7105.6 0.500000 2.512074 68.4342 5.550012 1.577935
7105.69 7105.7 0.500000 2.511950 68.4229 5.549772 1.576481
7105.8 7105.8 0.500000 2.511831 68.4213 5.550325 1.576310
7105.9 7105.9 0.500000 2.511788 68.4196 5.550428 1.574443
7106 7106 0.500000 2.511715 68.4204 5.550892 1.573595
7106.1 7106.1 0.500000 2.511532 68.421 5.551947 1.572224
7106.2 7106.2 0.500000 2.511601 68.3997 5.549830 1.570773
7106.29 7106.3 0.500000 2.511442 68.3939 5.550250 1.569075
7106.39 7106.4 0.500000 2.511340 68.3977 5.551097 1.567081
7106.5 7106.5 0.500000 2.511311 68.3933 5.550948 1.565849
7106.59 7106.6 0.500000 2.511179 68.3955 5.551829 1.565386
7106.69 7106.7 0.500000 2.511178 68.3535 5.548455 1.561995
7106.79 7106.8 0.500000 2.511048 68.3947 5.552458 1.561661
7106.9 7106.9 0.500000 2.510967 68.4075 5.553979 1.559625
7107 7107 0.500000 2.510877 68.4707 5.559601 1.559820
7107.1 7107.1 0.500000 2.510769 68.4453 5.558158 1.556985
7107.19 7107.2 0.500000 2.510516 68.4427 5.559336 1.555704
7107.3 7107.3 0.500000 2.510416 68.443 5.559919 1.552959
7107.4 7107.4 0.500000 2.510342 68.4563 5.561410 1.551338
7107.49 7107.5 0.500000 2.510282 68.431 5.559690 1.548525
7107.6 7107.6 0.500000 2.510228 68.4214 5.559221 1.545771
7107.7 7107.7 0.500000 2.510185 68.4169 5.559138 1.543257
7107.8 7107.8 0.500000 2.509939 68.4093 5.559844 1.541358
7107.9 7107.9 0.500000 2.509742 68.4224 5.561988 1.538350
7108 7108 0.500000 2.509676 68.3988 5.560472 1.534516
7108.1 7108.1 0.500000 2.509629 68.4655 5.566135 1.533006
7108.2 7108.2 0.500000 2.509619 68.4624 5.565939 1.529255
7108.3 7108.3 0.500000 2.509527 68.4641 5.566616 1.526042
7108.4 7108.4 0.500000 2.509437 68.4538 5.566256 1.521545
7108.5 7108.5 0.500000 2.509419 68.5322 5.572747 1.519220
7108.6 7108.6 0.500000 2.509297 68.5143 5.571953 1.514587
7108.7 7108.7 0.500000 2.509200 68.5227 5.573186 1.509892
7108.8 7108.8 0.500000 2.509209 68.5545 5.575743 1.505518
7108.9 7108.9 0.500000 2.508977 68.5577 5.577275 1.499767
7109 7109 0.500000 2.508902 68.5525 5.577242 1.493981
7109.1 7109.1 0.500000 2.508986 68.5778 5.578865 1.488103
7109.2 7109.2 0.500000 2.508773 68.5614 5.578730 1.481001
7109.3 7109.3 0.500000 2.508741 68.5522 5.578118 1.472895
7109.4 7109.4 0.500000 2.508780 68.5371 5.576724 1.464746
7109.5 7109.5 0.500000 2.508565 68.5482 5.578790 1.456393
7109.6 7109.6 0.500000 2.508749 68.5367 5.576845 1.445749
7109.7 7109.7 0.500000 2.508694 68.5229 5.576072 1.433547
7109.8 7109.8 0.500000 2.508494 68.5209 5.576973 1.421593
7109.9 7109.9 0.500000 2.508379 68.5015 5.576029 1.407364
7109.99 7110 0.500000 2.508367 68.5046 5.576303 1.391827
7110.1 7110.1 0.500000 2.508332 68.4824 5.574732 1.372625
7110.2 7110.2 0.500000 2.508380 68.4937 5.575373 1.352324
7110.29 7110.3 0.500000 2.508505 68.4894 5.574357 1.329275
7110.4 7110.4 0.500000 2.508464 68.4837 5.574082 1.301135
7110.5 7110.5 0.500000 2.508602 68.4706 5.572274 1.272971
7110.59 7110.6 0.500000 2.508482 68.4523 5.571436 1.241845
7110.7 7110.7 0.500000 2.508656 68.4567 5.570859 1.206434
7110.8 7110.8 0.500000 2.508800 68.4465 5.569234 1.169168
7110.89 7110.9 0.500000 2.508845 68.43 5.567602 1.131890
7111 7111 0.500000 2.508747 68.429 5.568083 1.087604
7111.1 7111.1 0.500000 2.508819 68.4186 5.566835 1.050022
7111.2 7111.2 0.500000 2.508966 68.4139 5.565668 1.011115
7111.3 7111.3 0.500000 2.509092 68.4107 5.564656 0.971250
7111.4 7111.4 0.500000 2.508994 68.3914 5.563616 0.936878
7111.5 7111.5 0.500000 2.509229 68.3912 5.562329 0.902475
7111.6 7111.6 0.500000 2.509247 68.3919 5.562298 0.871108
7111.69 7111.7 0.500000 2.509203 68.3836 5.561847 0.843947
7111.8 7111.8 0.500000 2.509054 68.3477 5.559733 0.816397
7111.9 7111.9 0.500000 2.509030 68.3709 5.561786 0.791958
7112 7112 0.500000 2.508940 68.3408 5.559810 0.771244
7112.1 7112.1 0.500000 2.508777 68.3325 5.560044 0.749231
7112.2 7112.2 0.500000 2.508861 68.3102 5.557803 0.731744
7112.3 7112.3 0.500000 2.508453 68.3095 5.559953 0.715738
7112.4 7112.4 0.500000 2.508424 68.2999 5.559404 0.699300
7112.5 7112.5 0.500000 2.508289 68.3053 5.560583 0.685917
7112.6 7112.6 0.500000 2.508244 68.272 5.558211 0.671483
7112.7 7112.7 0.500000 2.507912 68.2726 5.559981 0.660004
7112.8 7112.8 0.500000 2.507784 68.2641 5.559998 0.647775
7112.9 7112.9 0.500000 2.507817 68.2667 5.560081 0.635653
7113 7113 0.500000 2.507671 68.2434 5.558960 0.625375
7113.1 7113.1 0.500000 2.507645 68.2362 5.558520 0.614167
7113.2 7113.2 0.500000 2.507542 68.2262 5.558275 0.604689
7113.3 7113.3 0.500000 2.507463 68.2248 5.558605 0.595296
7113.4 7113.4 0.500000 2.507477 68.1988 5.556497 0.585027
7113.49 7113.5 0.500000 2.507157 68.1884 5.557292 0.576387
7113.6 7113.6 0.500000 2.507186 68.1898 5.557290 0.567602
7113.7 7113.7 0.500000 2.506934 68.1675 5.556820 0.559461
7113.8 7113.8 0.500000 2.506893 68.1703 5.557305 0.552225
7113.9 7113.9 0.500000 2.506800 68.1764 5.558352 0.544177
7114 7114 0.500000 2.506578 68.1523 5.557561 0.537304
7114.1 7114.1 0.500000 2.506468 68.1547 5.558414 0.530160
7114.2 7114.2 0.500000 2.506409 68.1538 5.558675 0.524289
7114.3 7114.3 0.500000 2.506383 68.1378 5.557519 0.518173
7114.4 7114.4 0.500000 2.506188 68.1495 5.559523 0.512636
7114.5 7114.5 0.500000 2.505978 68.131 5.559172 0.507376
7114.6 7114.6 0.500000 2.506077 68.1246 5.558131 0.502295
7114.7 7114.7 0.500000 2.506022 68.1154 5.557685 0.498310
7114.8 7114.8 0.500000 2.506051 68.1028 5.556549 0.494224
7114.9 7114.9 0.500000 2.505905 68.1163 5.558400 0.490863
7115 7115 0.500000 2.506074 68.1107 5.557058 0.487947
7115.11 7115.1 0.500000 2.505866 68.1354 5.560141 0.485024
7115.2 7115.2 0.500000 2.505988 68.1117 5.557545 0.482696
7115.3 7115.3 0.500000 2.506179 68.0944 5.555125 0.480649
7115.4 7115.4 0.500000 2.506046 68.1353 5.559130 0.478958
7115.5 7115.5 0.500000 2.506122 68.1351 5.558751 0.477140
7115.6 7115.6 0.500000 2.506475 68.1141 5.555119 0.475252
7115.7 7115.7 0.500000 2.506272 68.1248 5.557044 0.474174
7115.8 7115.8 0.500000 2.506613 68.1095 5.553922 0.472307
7115.9 7115.9 0.500000 2.506788 68.1029 5.552431 0.470833
7115.99 7116 0.500000 2.507033 68.1112 5.551780 0.469609
7116.1 7116.1 0.500000 2.506989 68.0863 5.549863 0.467293
7116.19 7116.2 0.500000 2.507362 68.0902 5.548246 0.465433
7116.3 7116.3 0.500000 2.507558 68.0835 5.546604 0.463540
7116.4 7116.4 0.500000 2.508109 68.0844 5.543656 0.461030
7116.49 7116.5 0.500000 2.508250 68.0658 5.541327 0.458379
7116.6 7116.6 0.500000 2.508603 68.0566 5.538623 0.454605
7116.7 7116.7 0.500000 2.509008 68.0702 5.537449 0.451227
7116.8 7116.8 0.500000 2.509704 68.0506 5.532145 0.446509
7116.9 7116.9 0.500000 2.510237 68.0434 5.528510 0.441601
7117 7117 0.500000 2.510896 68.0375 5.524404 0.436134
7117.1 7117.1 0.500000 2.511743 68.0154 5.517683 0.429457
7117.2 7117.2 0.500000 2.512685 68.028 5.513691 0.423014
7117.31 7117.3 0.500000 2.513396 68.0102 5.508016 0.415736
7117.4 7117.4 0.500000 2.514588 68.0161 5.502127 0.408139
7117.5 7117.5 0.500000 2.515844 67.9901 5.493191 0.399994
7117.6 7117.6 0.500000 2.516972 68.0054 5.488158 0.391345
7117.7 7117.7 0.500000 2.518354 67.9857 5.479065 0.383103
7117.81 7117.8 0.500000 2.519906 67.9788 5.469638 0.373768
7117.9 7117.9 0.500000 2.521519 67.9656 5.460127 0.365390
7118 7118 0.500000 2.523288 67.9595 5.449879 0.356557
7118.1 7118.1 0.500000 2.525155 67.9624 5.440264 0.347964
7118.2 7118.2 0.500000 2.527161 67.9443 5.427753 0.338861
7118.3 7118.3 0.500000 2.529274 67.9493 5.416754 0.329918
7118.4 7118.4 0.500000 2.531320 67.9454 5.405516 0.321541
7118.5 7118.5 0.500000 2.533657 67.9387 5.392358 0.312347
7118.59 7118.6 0.500000 2.536036 67.9232 5.378598 0.304179
7118.7 7118.7 0.500000 2.538381 67.8942 5.363760 0.295539
7118.8 7118.8 0.500000 2.540694 67.9111 5.352626 0.287394
7118.9 7118.9 0.500000 2.543384 67.8992 5.336941 0.279060
7119 7119 0.500000 2.545996 67.8921 5.322636 0.271120
7119.1 7119.1 0.500000 2.548984 67.8399 5.303244 0.262962
7119.2 7119.2 0.500000 2.551570 67.8424 5.289677 0.254894
7119.3 7119.3 0.500000 2.554207 67.8418 5.275981 0.247908
7119.4 7119.4 0.500000 2.557237 67.8274 5.258373 0.239446
7119.5 7119.5 0.500000 2.559929 67.8211 5.243974 0.232575
7119.6 7119.6 0.500000 2.562684 67.7986 5.227379 0.225363
7119.7 7119.7 0.500000 2.565384 67.7954 5.212880 0.218432
7119.8 7119.8 0.500000 2.568360 67.7709 5.195834 0.211485
7119.9 7119.9 0.500000 2.571053 67.8305 5.185776 0.205087
7120 7120 0.500000 2.573940 67.8198 5.170303 0.198984
7120.1 7120.1 0.500000 2.576901 67.8067 5.154108 0.192984
7120.2 7120.2 0.500000 2.579683 67.7928 5.138529 0.187240
7120.3 7120.3 0.500000 2.582410 67.7766 5.123362 0.181515
7120.41 7120.4 0.500000 2.585357 67.7606 5.106310 0.175393
7120.5 7120.5 0.500000 2.588246 67.7273 5.090055 0.170210
7120.6 7120.6 0.500000 2.590968 67.7167 5.075050 0.165570
7120.7 7120.7 0.500000 2.593880 67.6901 5.058454 0.160479
7120.8 7120.8 0.500000 2.596537 67.6874 5.044891 0.155604
7120.9 7120.9 0.500000 2.599219 67.6666 5.029856 0.150834
7121 7121 0.500000 2.601499 67.6432 5.016782 0.146789
7121.1 7121.1 0.500000 2.604097 67.6945 5.007636 0.142955
7121.2 7121.2 0.500000 2.606428 67.6823 4.994919 0.139446
7121.3 7121.3 0.500000 2.608466 67.6553 4.982780 0.135877
7121.4 7121.4 0.500000 2.610840 67.6258 4.968752 0.131915
7121.5 7121.5 0.500000 2.612687 67.608 4.958363 0.128671
7121.6 7121.6 0.500000 2.614954 67.6518 4.950210 0.125904
7121.7 7121.7 0.500000 2.616557 67.6376 4.941374 0.122960
7121.8 7121.8 0.500000 2.618342 67.6141 4.931026 0.120205
7121.9 7121.9 0.500000 2.620323 67.658 4.923965 0.117936
7121.99 7122 0.500000 2.621830 67.6442 4.916020 0.115970
7122.1 7122.1 0.500000 2.623798 67.6091 4.903436 0.113496
7122.2 7122.2 0.500000 2.625560 67.5639 4.891597 0.111179
7122.3 7122.3 0.500000 2.627517 67.5408 4.880624 0.109071
7122.4 7122.4 0.500000 2.629450 67.5096 4.868650 0.107126
7122.5 7122.5 0.500000 2.631305 67.4809 4.857693 0.105540
7122.6 7122.6 0.500000 2.633635 67.4582 4.844965 0.103597
7122.7 7122.7 0.500000 2.636049 67.4373 4.831382 0.101448
7122.8 7122.8 0.500000 2.638579 67.3857 4.815476 0.099343
7122.9 7122.9 0.500000 2.641189 67.3456 4.800518 0.098225
7123.01 7123 0.500000 2.644146 67.3176 4.783382 0.096275
7123.1 7123.1 0.500000 2.647495 67.2745 4.765187 0.094320
7123.2 7123.2 0.500000 2.650914 67.2478 4.747192 0.092925
7123.31 7123.3 0.500000 2.654497 67.2051 4.725960 0.090940
7123.4 7123.4 0.500000 2.658319 67.1653 4.706156 0.089849
7123.5 7123.5 0.500000 2.662537 67.1255 4.683357 0.088266
7123.6 7123.6 0.500000 2.666784 67.0896 4.660916 0.085877
7123.7 7123.7 0.500000 2.671208 67.0585 4.638219 0.085165
7123.8 7123.8 0.500000 2.676074 67.0132 4.612975 0.083432
7123.9 7123.9 0.500000 2.680818 66.9767 4.587897 0.081884
7124 7124 0.500000 2.685819 66.9404 4.562939 0.080599
7124.1 7124.1 0.500000 2.690911 66.9176 4.538624 0.079788
7124.2 7124.2 0.500000 2.695979 66.8912 4.512780 0.077994
7124.29 7124.3 0.500000 2.700938 66.8586 4.489974 0.077010
7124.4 7124.4 0.500000 2.705633 66.7964 4.464118 0.075540
7124.5 7124.5 0.500000 2.710589 66.8057 4.442514 0.074438
7124.6 7124.6 0.500000 2.715132 66.7824 4.421143 0.073038
7124.7 7124.7 0.500000 2.719660 66.7608 4.399545 0.072610
7124.8 7124.8 0.500000 2.723835 66.6932 4.376294 0.071160
7124.9 7124.9 0.500000 2.727544 66.6697 4.358988 0.070376
7125 7125 0.500000 2.731032 66.6453 4.342411 0.069256
7125.1 7125.1 0.500000 2.734336 66.6281 4.326509 0.068339
7125.2 7125.2 0.500000 2.737103 66.586 4.312231 0.067456
7125.3 7125.3 0.500000 2.739515 66.5646 4.300361 0.066773
7125.4 7125.4 0.500000 2.741540 66.5183 4.288371 0.065941
7125.5 7125.5 0.500000 2.743037 66.5067 4.281338 0.065229
7125.6 7125.6 0.500000 2.744412 66.4751 4.273448 0.064468
7125.7 7125.7 0.500000 2.745241 66.4292 4.267013 0.063156
7125.8 7125.8 0.500000 2.745822 66.3815 4.261422 0.062677
7125.9 7125.9 0.500000 2.746255 66.3383 4.256810 0.062109
7126 7126 0.500000 2.746279 66.3135 4.255089 0.061258
7126.1 7126.1 0.500000 2.746217 66.2743 4.252844 0.060307
7126.2 7126.2 0.500000 2.745600 66.2504 4.253896 0.059683
7126.31 7126.3 0.500000 2.744879 66.202 4.253990 0.059415
7126.4 7126.4 0.500000 2.743966 66.1688 4.255707 0.059043
7126.5 7126.5 0.500000 2.742678 66.1448 4.259734 0.058559
7126.6 7126.6 0.500000 2.741455 66.09 4.261541 0.057632
7126.7 7126.7 0.500000 2.739778 66.0649 4.267002 0.057033
7126.8 7126.8 0.500000 2.737966 66.0287 4.272066 0.056437
7126.9 7126.9 0.500000 2.735843 65.983 4.277930 0.056001
7127.01 7127 0.500000 2.733863 65.9474 4.284602 0.055406
7127.1 7127.1 0.500000 2.731685 65.9273 4.292371 0.054651
7127.2 7127.2 0.500000 2.729592 65.8789 4.298290 0.054108
7127.3 7127.3 0.500000 2.726996 65.8441 4.306557 0.053388
7127.38 7127.4 0.500000 2.724698 65.8135 4.313577 0.053101
7127.51 7127.5 0.500000 2.722046 65.7784 4.324921 0.052227
7127.62 7127.6 0.500000 2.719450 65.7454 4.334382 0.051534
7127.71 7127.7 0.500000 2.717059 65.6999 4.341255 0.051215
7127.81 7127.8 0.500000 2.714809 65.6813 4.350483 0.050129
7127.91 7127.9 0.500000 2.712304 65.6449 4.358594 0.049120
7128.01 7128 0.500000 2.710011 65.6126 4.366210 0.048634
7128.11 7128.1 0.500000 2.707696 65.5895 4.374404 0.048252
7128.21 7128.2 0.500000 2.705122 65.5687 4.384841 0.047672
7128.31 7128.3 0.500000 2.702816 65.5357 4.392720 0.046990
7128.41 7128.4 0.500000 2.700452 65.5161 4.401220 0.046286
7128.51 7128.5 0.500000 2.698066 65.4876 4.410116 0.045549
7128.61 7128.6 0.500000 2.695287 65.4645 4.421467 0.044495
7128.71 7128.7 0.500000 2.692771 65.4201 4.429241 0.044474
7128.8 7128.8 0.500000 2.689994 65.4124 4.440292 0.043841
7128.9 7128.9 0.500000 2.687271 65.3789 4.450374 0.043596
7129.01 7129 0.500000 2.684406 65.3715 4.463320 0.042802
7129.1 7129.1 0.500000 2.681250 65.3427 4.474634 0.041906
7129.2 7129.2 0.500000 2.678283 65.3223 4.486321 0.041588
7129.3 7129.3 0.500000 2.675206 65.303 4.499396 0.041143
7129.4 7129.4 0.500000 2.672243 65.2676 4.510446 0.040493
7129.5 7129.5 0.500000 2.669473 65.2393 4.520590 0.040161
7129.6 7129.6 0.500000 2.666524 65.2133 4.532077 0.039801
7129.7 7129.7 0.500000 2.663848 65.1688 4.540820 0.038863
7129.8 7129.8 0.500000 2.661005 65.1493 4.552580 0.039128
7129.9 7129.9 0.500000 2.658428 65.1037 4.560921 0.038560
7130 7130 0.500000 2.656291 65.073 4.568525 0.037801
7130.1 7130.1 0.500000 2.653877 65.037 4.577626 0.037743
7130.2 7130.2 0.500000 2.651612 65.0002 4.585226 0.037561
7130.3 7130.3 0.500000 2.649634 64.9664 4.591822 0.037436
7130.4 7130.4 0.500000 2.647602 64.925 4.598061 0.037318
7130.5 7130.5 0.500000 2.646006 64.8957 4.603589 0.036818
7130.6 7130.6 0.500000 2.644431 64.8345 4.606331 0.036451
7130.7 7130.7 0.500000 2.642783 64.8214 4.613001 0.037072
7130.81 7130.8 0.500000 2.641288 64.7752 4.616790 0.036976
7130.91 7130.9 0.500000 2.639997 64.7673 4.622234 0.037061
7131.01 7131 0.500000 2.638701 64.7276 4.625133 0.036909
7131.1 7131.1 0.500000 2.637624 64.6674 4.625615 0.036878
7131.2 7131.2 0.500000 2.636445 64.6284 4.628316 0.037585
7131.31 7131.3 0.500000 2.635539 64.6179 4.632063 0.037296
7131.4 7131.4 0.500000 2.634441 64.5893 4.634854 0.038100
7131.5 7131.5 0.500000 2.633608 64.5567 4.636302 0.038206
7131.61 7131.6 0.500000 2.632702 64.5258 4.638525 0.038172
7131.71 7131.7 0.500000 2.631740 64.5165 4.642270 0.038685
7131.8 7131.8 0.500000 2.631024 64.4946 4.643884 0.039639
7131.9 7131.9 0.500000 2.630152 64.4878 4.647475 0.039880
7132.01 7132 0.500000 2.629512 64.4844 4.650436 0.040063
7132.1 7132.1 0.500000 2.628453 64.4795 4.654784 0.040540
7132.2 7132.2 0.500000 2.627839 64.4658 4.656607 0.041173
7132.3 7132.3 0.500000 2.627316 64.4529 4.658158 0.041067
7132.41 7132.4 0.500000 2.626609 64.4587 4.662101 0.042573
7132.5 7132.5 0.500000 2.625818 64.4572 4.665456 0.042705
7132.6 7132.6 0.500000 2.625250 64.4693 4.668936 0.043509
7132.7 7132.7 0.500000 2.624585 64.5423 4.677445 0.044619
7132.8 7132.8 0.500000 2.623929 64.5343 4.679917 0.044323
7132.9 7132.9 0.500000 2.623465 64.5309 4.681807 0.045702
7133 7133 0.500000 2.622638 64.5552 4.687395 0.045561
7133.1 7133.1 0.500000 2.622113 64.5513 4.689630 0.046756
7133.2 7133.2 0.500000 2.621427 64.5574 4.693315 0.047643
7133.3 7133.3 0.500000 2.620775 64.5661 4.696841 0.047652
7133.4 7133.4 0.500000 2.620261 64.5721 4.699800 0.048841
7133.5 7133.5 0.500000 2.619552 64.5785 4.703698 0.048964
7133.6 7133.6 0.500000 2.619101 64.5926 4.706783 0.050217
7133.69 7133.7 0.500000 2.618296 64.5852 4.709873 0.051041
7133.8 7133.8 0.500000 2.617765 64.5965 4.713372 0.051259
7133.9 7133.9 0.500000 2.617171 64.5881 4.715598 0.052065
7134 7134 0.500000 2.616447 64.6759 4.725288 0.052433
7134.1 7134.1 0.500000 2.615864 64.6706 4.727649 0.052985
7134.2 7134.2 0.500000 2.615201 64.7171 4.734255 0.053902
7134.3 7134.3 0.500000 2.614675 64.7186 4.736824 0.054545
7134.4 7134.4 0.500000 2.614071 64.8192 4.747089 0.055240
7134.5 7134.5 0.500000 2.613494 64.8372 4.751029 0.055674
7134.6 7134.6 0.500000 2.612818 64.8332 4.754051 0.055992
7134.7 7134.7 0.500000 2.612291 64.8619 4.758685 0.056548
7134.8 7134.8 0.500000 2.611712 64.8845 4.763072 0.057256
7134.9 7134.9 0.500000 2.611056 64.9524 4.771140 0.057781
7135 7135 0.500000 2.610650 64.9782 4.775062 0.057757
7135.1 7135.1 0.500000 2.610209 65.005 4.779071 0.058217
7135.2 7135.2 0.500000 2.609757 65.0236 4.782498 0.059162
7135.3 7135.3 0.500000 2.609411 65.031 4.784846 0.058940
7135.4 7135.4 0.500000 2.609012 65.0544 4.788500 0.059617
7135.5 7135.5 0.500000 2.608934 65.0504 4.788537 0.059885
7135.6 7135.6 0.500000 2.608622 65.0767 4.791980 0.060058
7135.7 7135.7 0.500000 2.608522 65.103 4.794409 0.060234
7135.8 7135.8 0.500000 2.608254 65.1187 4.796860 0.060644
7135.9 7135.9 0.500000 2.608025 65.1488 4.800163 0.060582
7136 7136 0.500000 2.607895 65.1428 4.800307 0.060802
7136.1 7136.1 0.500000 2.607754 65.168 4.802884 0.061428
7136.2 7136.2 0.500000 2.607727 65.191 4.804728 0.061317
7136.3 7136.3 0.500000 2.607599 65.219 4.807391 0.061642
7136.4 7136.4 0.500000 2.607717 65.2205 4.806930 0.061087
7136.5 7136.5 0.500000 2.607740 65.2383 4.808097 0.061542
7136.6 7136.6 0.500000 2.607919 65.23 4.806656 0.061590
7136.7 7136.7 0.500000 2.607944 65.263 4.808967 0.061521
7136.8 7136.8 0.500000 2.608179 65.2805 4.809140 0.061485
7136.9 7136.9 0.500000 2.608245 65.2957 4.809927 0.061366
7137.01 7137 0.500000 2.608366 65.2766 4.807841 0.061378
7137.1 7137.1 0.500000 2.608556 65.3042 4.809067 0.061561
7137.2 7137.2 0.500000 2.608671 65.3112 4.809012 0.060882
7137.3 7137.3 0.500000 2.608805 65.3301 4.809726 0.061483
7137.4 7137.4 0.500000 2.609147 65.3346 4.808450 0.060671
7137.5 7137.5 0.500000 2.609424 65.3594 4.808980 0.060845
7137.6 7137.6 0.500000 2.609459 65.3636 4.809081 0.060303
7137.7 7137.7 0.500000 2.609897 65.3783 4.808032 0.060624
7137.8 7137.8 0.500000 2.610152 65.3669 4.806013 0.060320
7137.9 7137.9 0.500000 2.610259 65.3725 4.805894 0.059775
7138 7138 0.500000 2.610615 65.3951 4.805866 0.059809
7138.1 7138.1 0.500000 2.610826 65.4022 4.805382 0.059836
7138.2 7138.2 0.500000 2.611131 65.4171 4.805000 0.059353
7138.29 7138.3 0.500000 2.611408 65.4172 4.803707 0.058906
7138.4 7138.4 0.500000 2.611616 65.4277 4.803431 0.058430
7138.5 7138.5 0.500000 2.611859 65.4198 4.801640 0.058595
7138.6 7138.6 0.500000 2.612366 65.424 4.799684 0.058066
7138.69 7138.7 0.500000 2.612677 65.4314 4.798688 0.057922
7138.8 7138.8 0.500000 2.613067 65.4346 4.797059 0.057414
7138.9 7138.9 0.500000 2.613207 65.469 4.798840 0.057357
7139 7139 0.500000 2.613559 65.4461 4.795484 0.056986
7139.1 7139.1 0.500000 2.613707 65.4622 4.795972 0.056916
7139.2 7139.2 0.500000 2.613971 65.4658 4.794896 0.056453
7139.3 7139.3 0.500000 2.614273 65.4559 4.792796 0.056120
7139.4 7139.4 0.500000 2.614498 65.4624 4.792200 0.055693
7139.5 7139.5 0.500000 2.614486 65.4973 4.794746 0.055368
7139.6 7139.6 0.500000 2.614784 65.4818 4.792175 0.055403
7139.7 7139.7 0.500000 2.614967 65.478 4.791034 0.055236
7139.8 7139.8 0.500000 2.615191 65.502 4.791802 0.054860
7139.9 7139.9 0.500000 2.615139 65.4957 4.791485 0.054716
7140.01 7140 0.500000 2.615409 65.5022 4.790694 0.054106
7140.1 7140.1 0.500000 2.615517 65.4865 4.789034 0.054240
7140.2 7140.2 0.500000 2.615504 65.4954 4.789714 0.054348
7140.3 7140.3 0.500000 2.615438 65.4844 4.789250 0.053992
7140.4 7140.4 0.500000 2.615272 65.5133 4.792158 0.053752
7140.5 7140.5 0.500000 2.615279 65.5114 4.791965 0.053680
7140.6 7140.6 0.500000 2.615065 65.5111 4.793002 0.053566
7140.7 7140.7 0.500000 2.614816 65.5101 4.794090 0.053410
7140.81 7140.8 0.500000 2.614629 65.52 4.795772 0.053299
7140.9 7140.9 0.500000 2.614140 65.5152 4.797690 0.053303
7141 7141 0.500000 2.613896 65.5325 4.800140 0.053577
7141.1 7141.1 0.500000 2.613542 65.5356 4.802119 0.053115
7141.2 7141.2 0.500000 2.613007 65.5377 4.804842 0.053801
7141.3 7141.3 0.500000 2.612513 65.5499 4.808020 0.053366
7141.4 7141.4 0.500000 2.611964 65.5554 4.811126 0.053312
7141.5 7141.5 0.500000 2.611379 65.5547 4.813988 0.053115
7141.6 7141.6 0.500000 2.611017 65.5581 4.815898 0.053085
7141.7 7141.7 0.500000 2.610262 65.5368 4.817891 0.052924
7141.8 7141.8 0.500000 2.609676 65.538 4.820871 0.053233
7141.9 7141.9 0.500000 2.608908 66.0438 4.861900 0.053564
7142 7142 0.700000 2.608284 90.9596 6.700076 0.074061
7143.09 7143.08 0.710000 2.600423 93.1241 6.913579 0.078230
7144.21 7144.18 0.730000 2.593635 95.7631 7.158667 0.081820
7145.28 7145.29 0.740000 2.587240 97.0597 7.301436 0.082700
7146.43 7146.43 0.750000 2.581078 98.4109 7.448654 0.080933
7147.58 7147.58 0.760000 2.575754 99.7914 7.593644 0.077666
7148.78 7148.76 0.780000 2.572065 102.467 7.826272 0.074789
7149.95 7149.95 0.790000 2.570507 103.845 7.943687 0.073077
7151.16 7151.16 0.800000 2.570324 105.207 8.049463 0.071688
7152.4 7152.39 0.810000 2.570937 106.597 8.150836 0.071588
7153.65 7153.64 0.830000 2.572236 109.279 8.345073 0.072347
7154.91 7154.91 0.840000 2.574379 110.639 8.430868 0.074893
7156.21 7156.2 0.850000 2.578116 111.973 8.500705 0.075251
7157.52 7157.51 0.860000 2.582603 113.301 8.562918 0.077291
7158.83 7158.83 0.880000 2.587231 115.907 8.719596 0.078917
7160.18 7160.18 0.890000 2.590926 117.159 8.781238 0.080075
7161.55 7161.54 0.900000 2.593609 118.406 8.850885 0.081321
7162.94 7162.93 0.910000 2.594542 119.632 8.934114 0.083292
7164.32 7164.33 0.930000 2.593910 122.242 9.134762 0.087044
7165.75 7165.75 0.940000 2.591793 123.482 9.246864 0.089086
7167.19 7167.19 0.950000 2.588748 124.674 9.364752 0.091191
7168.66 7168.65 0.960000 2.585640 125.854 9.482711 0.093737
7170.14 7170.13 0.980000 2.582981 128.379 9.698822 0.097537
7171.63 7171.63 0.990000 2.581227 129.591 9.807607 0.101425
7173.15 7173.14 1.000000 2.579052 130.799 9.920524 0.106808
7174.69 7174.68 1.010000 2.576732 132.142 10.0456 0.113969
7176.24 7176.24 1.030000 2.574890 134.651 10.2553 0.122562
7177.81 7177.81 1.040000 2.573394 135.877 10.3642 0.129771
7179.4 7179.4 1.050000 2.572507 137.102 10.4669 0.135410
7181.02 7181.01 1.060000 2.571194 138.361 10.5769 0.137276
7182.66 7182.65 1.080000 2.568977 140.871 10.7926 0.139280
7184.31 7184.3 1.090000 2.566235 142.127 10.9187 0.137887
7185.98 7185.97 1.100000 2.562796 143.375 11.0527 0.133975
7187.67 7187.65 1.110000 2.559065 144.63 11.191 0.129235
7189.37 7189.36 1.130000 2.555478 146.802 11.4 0.124668
7191.1 7191.09 1.140000 2.551750 148.014 11.5369 0.118791
7192.85 7192.83 1.150000 2.548480 149.823 11.7163 0.114505
7194.62 7194.6 1.160000 2.545653 151.051 11.8457 0.114306
7196.4 7196.38 1.180000 2.543133 153.759 12.0885 0.119055
7198.19 7198.18 1.190000 2.540790 155.089 12.2216 0.125695
7200.02 7200 1.200000 2.538437 156.384 12.3528 0.135483
7201.85 7201.84 1.210000 2.535436 157.674 12.492 0.146894
7203.71 7203.7 1.230000 2.532327 160.291 12.7389 0.161701
7205.59 7205.58 1.240000 2.529341 161.562 12.8783 0.175528
7207.5 7207.48 1.250000 2.526401 162.827 13.0174 0.182240
7209.41 7209.4 1.260000 2.523873 164.061 13.1492 0.178168
7211.35 7211.33 1.280000 2.521590 166.6 13.3833 0.162564
7213.3 7213.29 1.290000 2.519773 167.836 13.507 0.140047
7215.27 7215.26 1.300000 2.518385 169.035 13.6224 0.118946
7217.27 7217.26 1.310000 2.517168 170.273 13.7389 0.103675
7219.29 7219.27 1.330000 2.516086 172.766 13.9552 0.097011
7221.31 7221.3 1.340000 2.515369 173.9 14.0569 0.096815
7223.37 7223.35 1.350000 2.514408 175.037 14.1624 0.102775
7225.43 7225.42 1.360000 2.513260 175.928 14.2508 0.115553
7227.52 7227.51 1.380000 2.511315 177.301 14.39 0.134695
7229.62 7229.61 1.390000 2.510161 180.179 14.6404 0.157707
7231.75 7231.74 1.400000 2.508205 181.296 14.7601 0.181470
7233.91 7233.89 1.410000 2.506181 182.445 14.8836 0.204528
7236.06 7236.05 1.430000 2.503918 184.902 15.1183 0.223747
7238.24 7238.23 1.440000 2.501365 186.054 15.2514 0.231856
7240.45 7240.44 1.450000 2.498404 187.185 15.3896 0.232584
7242.67 7242.66 1.460000 2.495438 188.386 15.5343 0.226661
7244.91 7244.9 1.480000 2.492597 190.908 15.7871 0.218697
7247.18 7247.16 1.490000 2.489832 188.683 15.6464 0.208373
7249.45 7249.44 1.500000 2.486753 192.872 16.0431 0.208785
7251.74 7251.74 1.510000 2.483819 194.193 16.2003 0.212787
7254.05 7254.05 1.530000 2.480880 196.464 16.438 0.221578
7256.39 7256.39 1.540000 2.477836 197.783 16.5988 0.228792
7258.75 7258.74 1.550000 2.475171 198.817 16.7303 0.228852
7261.12 7261.12 1.560000 2.472477 199.352 16.8203 0.223562
7263.5 7263.51 1.580000 2.472618 188.355 15.8904 0.204715
7265.94 7265.92 1.590000 2.466855 203.895 17.3009 0.218708
7268.35 7268.35 1.600000 2.464243 205.655 17.4956 0.215275
7270.8 7270.8 1.610000 2.461694 206.673 17.6271 0.206948
7273.28 7273.27 1.630000 2.458302 208.181 17.8162 0.198420
7275.76 7275.76 1.640000 2.455677 210.467 18.0591 0.195084
7278.28 7278.27 1.650000 2.452811 211.613 18.2097 0.192965
7280.79 7280.79 1.660000 2.450195 212.072 18.2969 0.188671
7283.34 7283.34 1.680000 2.446905 214.543 18.5709 0.184348
7285.92 7285.9 1.690000 2.443842 215.969 18.7522 0.179680
7288.48 7288.49 1.700000 2.440725 217.114 18.91 0.179409
7291.09 7291.09 1.710000 2.437864 218.243 19.0629 0.187059
7293.71 7293.71 1.730000 2.434937 220.692 19.3333 0.205512
7296.35 7296.35 1.740000 2.431934 221.825 19.491 0.227218
7299.01 7299.01 1.750000 2.428943 222.853 19.6399 0.250513
7301.69 7301.69 1.760000 2.426112 220.553 19.4925 0.266021
7304.39 7304.39 1.780000 2.423049 226.855 20.1108 0.288359
7307.11 7307.11 1.790000 2.420127 227.844 20.2576 0.300196
7309.84 7309.84 1.800000 2.417240 229.098 20.4281 0.306505
7312.6 7312.6 1.810000 2.414328 230.628 20.6244 0.309115
7315.37 7315.37 1.830000 2.411553 233.007 20.8951 0.313022
7318.16 7318.17 1.840000 2.408845 234.127 21.0524 0.315844
7320.99 7320.98 1.850000 2.406257 235.222 21.2058 0.319894
7323.81 7323.81 1.860000 2.403665 236.336 21.3613 0.322924
7326.66 7326.66 1.880000 2.400691 238.643 21.6342 0.327396
7329.53 7329.53 1.890000 2.397696 239.724 21.7974 0.332028
7332.42 7332.42 1.900000 2.394530 240.755 21.9606 0.339564
7335.32 7335.32 1.910000 2.391401 241.886 22.1329 0.350261
7338.25 7338.25 1.930000 2.388194 244.219 22.4181 0.358502
7341.2 7341.2 1.940000 2.384988 245.506 22.6086 0.358146
7344.17 7344.16 1.950000 2.381921 247.004 22.8167 0.348501
7347.14 7347.14 1.960000 2.378668 248.086 22.9912 0.333261
7350.15 7350.15 1.980000 2.375397 250.374 23.2792 0.319871
7353.17 7353.17 1.990000 2.372003 251.462 23.4597 0.306899
7356.21 7356.21 2.000000 2.368109 252.529 23.6512 0.297307
7359.27 7359.27 2.010000 2.364377 253.598 23.8404 0.288877
7362.35 7362.35 2.030000 2.360708 255.932 24.1481 0.285495
7365.44 7365.45 2.040000 2.357466 256.925 24.3205 0.282655
7368.56 7368.56 2.050000 2.354161 258.013 24.5045 0.288022
7371.7 7371.7 2.060000 2.350980 259.011 24.6776 0.302390
7374.85 7374.85 2.080000 2.347675 261.35 24.9829 0.328445
7378.02 7378.03 2.090000 2.344321 262.414 25.1687 0.362553
7381.22 7381.22 2.100000 2.341019 263.473 25.3539 0.403379
7384.43 7384.43 2.110000 2.337771 264.504 25.5361 0.435578
7387.66 7387.66 2.130000 2.334411 266.747 25.8392 0.452748
7390.92 7390.92 2.140000 2.330828 267.892 26.0433 0.454125
7394.17 7394.18 2.150000 2.327388 268.878 26.2292 0.449223
7397.47 7397.47 2.160000 2.323831 269.936 26.4263 0.447070
7400.79 7400.78 2.180000 2.320387 272.203 26.7402 0.451616
7404.11 7404.11 2.190000 2.317113 273.32 26.9379 0.456428
7407.45 7407.45 2.200000 2.313955 274.319 27.1218 0.457922
7410.82 7410.82 2.210000 2.310631 275.384 27.3178 0.460390
7414.21 7414.2 2.230000 2.307328 277.63 27.632 0.464930
7417.61 7417.6 2.240000 2.303702 278.698 27.8392 0.469269
7421.04 7421.03 2.250000 2.300228 279.654 28.0316 0.477977
7424.48 7424.47 2.260000 2.296798 280.672 28.2303 0.490833
7427.93 7427.93 2.280000 2.292998 282.952 28.5679 0.503958
7431.4 7431.4 2.290000 2.289480 283.836 28.758 0.507758
7434.91 7434.9 2.300000 2.285957 284.805 28.9583 0.508129
7438.42 7438.42 2.310000 2.282384 285.82 29.1654 0.504511
7441.97 7441.96 2.330000 2.278766 287.826 29.4768 0.496327
7445.51 7445.51 2.340000 2.275252 281.216 28.901 0.471686
7449.09 7449.09 2.350000 2.271612 290.506 29.9645 0.479720
7452.68 7452.68 2.360000 2.268056 291.046 30.1273 0.477809
7456.29 7456.29 2.380000 2.264499 293.582 30.498 0.484024
7459.92 7459.92 2.390000 2.260908 294.592 30.7129 0.490706
7463.57 7463.57 2.400000 2.257309 295.418 30.9102 0.499715
7467.24 7467.24 2.410000 2.254153 290.78 30.5211 0.505578
7470.93 7470.93 2.430000 2.249886 299.126 31.5314 0.539862
7474.64 7474.64 2.440000 2.246032 299.989 31.7443 0.559827
7478.36 7478.36 2.450000 2.242375 301.385 32.0091 0.577369
7482.12 7482.11 2.460000 2.238646 302.316 32.228 0.594418
7485.88 7485.87 2.480000 2.234935 304.457 32.5768 0.615149
7489.66 7489.66 2.490000 2.231312 305.367 32.7928 0.635646
7493.46 7493.46 2.500000 2.227589 306.238 33.0088 0.652584
7497.28 7497.28 2.510000 2.223782 307.151 33.2336 0.661036
7501.12 7501.12 2.530000 2.220137 309.303 33.5885 0.665507
7504.98 7504.98 2.540000 2.216464 310.264 33.817 0.665096
7508.86 7508.86 2.550000 2.212689 311.748 34.1072 0.669680
7512.77 7512.76 2.560000 2.209005 312.574 34.3238 0.675751
7516.69 7516.68 2.580000 2.205304 314.687 34.6841 0.687910
7520.61 7520.61 2.590000 2.201610 315.514 34.9036 0.696940
7524.57 7524.57 2.600000 2.197895 316.42 35.1343 0.702316
7528.54 7528.54 2.610000 2.194034 317.231 35.3607 0.705540
7532.54 7532.54 2.630000 2.190165 319.208 35.7189 0.711964
7536.55 7536.55 2.640000 2.186414 320.049 35.9476 0.718427
7540.59 7540.58 2.650000 2.182683 320.865 36.1742 0.727989
7544.63 7544.63 2.660000 2.178799 321.639 36.4025 0.737603
7548.7 7548.7 2.680000 2.174965 323.668 36.7727 0.748412
7552.79 7552.79 2.690000 2.171242 324.491 37.0037 0.752412
7556.9 7556.9 2.700000 2.167525 325.265 37.2302 0.750882
7561.02 7561.02 2.710000 2.163526 325.968 37.46 0.748967
7565.17 7565.17 2.730000 2.159658 328.007 37.8406 0.754916
7569.34 7569.33 2.740000 2.155806 328.676 38.0643 0.763647
7573.53 7573.52 2.750000 2.151821 329.402 38.3007 0.780273
7577.73 7577.72 2.760000 2.147922 330.155 38.5383 0.801957
7581.95 7581.94 2.780000 2.144129 331.963 38.8965 0.828449
7586.19 7586.18 2.790000 2.140052 332.587 39.1288 0.848498
7590.45 7590.44 2.800000 2.136173 333.115 39.3433 0.862199
7594.72 7594.72 2.810000 2.132375 333.672 39.5588 0.871357
7599.03 7599.02 2.830000 2.128519 335.377 39.9146 0.881065
7603.34 7603.34 2.840000 2.124532 335.167 40.0488 0.888652
7607.68 7607.67 2.850000 2.120579 334.997 40.1873 0.898131
7612.04 7612.03 2.860000 2.116418 335.293 40.3905 0.913246
7616.41 7616.4 2.880000 2.112454 337.743 40.8473 0.932449
7620.81 7620.8 2.890000 2.108398 338.958 41.1609 0.941021
7625.22 7625.21 2.900000 2.104390 339.724 41.4195 0.946486
7629.65 7629.64 2.910000 2.100478 340.177 41.6375 0.953487
7634.1 7634.09 2.930000 2.096484 341.753 41.9975 0.970597
7638.57 7638.56 2.940000 2.092448 342.2 42.2227 0.986644
7643.05 7643.05 2.950000 2.088470 342.568 42.4361 1.005381
7647.56 7647.56 2.960000 2.084490 343.529 42.7252 1.022130
7652.08 7652.08 2.980000 2.080498 345.266 43.1129 1.039116
7656.63 7656.63 2.990000 2.076419 345.594 43.3301 1.048380
7661.19 7661.19 3.000000 2.072450 345.745 43.5216 1.054814
7665.78 7665.78 3.010000 2.068434 345.991 43.7277 1.059946
7670.38 7670.38 3.030000 2.064411 347.43 44.0865 1.068174
7675 7675 3.040000 2.060256 347.653 44.2986 1.071118
7679.64 7679.64 3.050000 2.056073 347.8 44.5031 1.075765
7684.3 7684.3 3.060000 2.051980 348.015 44.7131 1.082904
7688.99 7688.98 3.080000 2.047726 350.946 45.282 1.104291
7693.68 7693.68 3.090000 2.043664 350.597 45.421 1.117634
7698.41 7698.4 3.100000 2.039471 350.652 45.6191 1.132812
7703.14 7703.13 3.110000 2.035323 350.709 45.8162 1.147849
7707.89 7707.89 3.130000 2.030724 350.008 45.9351 1.161389
7712.67 7712.66 3.140000 2.026982 352.128 46.3868 1.183523
7717.47 7717.46 3.150000 2.022858 352.033 46.5659 1.200226
7722.28 7722.27 3.160000 2.018733 352.312 46.7954 1.217401
7727.11 7727.1 3.180000 2.014380 353.321 47.1342 1.234379
7731.95 7731.95 3.190000 2.010040 353.326 47.3396 1.245299
7736.82 7736.82 3.200000 2.005883 353.078 47.5036 1.255493
7741.71 7741.71 3.210000 2.001695 354.317 47.8701 1.273208
7746.63 7746.62 3.230000 1.997488 354.741 48.1295 1.287445
7751.55 7751.54 3.240000 1.993277 354.551 48.3067 1.298486
7756.49 7756.49 3.250000 1.989006 354.434 48.4973 1.310147
7761.45 7761.45 3.260000 1.984711 354.279 48.6847 1.325021
7766.44 7766.44 3.280000 1.980508 355.224 49.0199 1.345754
7771.44 7771.44 3.290000 1.976216 355.082 49.2113 1.362865
7776.46 7776.46 3.300000 1.971894 354.949 49.4059 1.379384
7781.5 7781.5 3.310000 1.967462 354.669 49.5861 1.392477
7786.56 7786.56 3.330000 1.963137 355.522 49.9207 1.411010
7791.65 7791.64 3.340000 1.958838 355.303 50.105 1.424434
7796.74 7796.74 3.350000 1.954598 355.144 50.2952 1.435695
7801.86 7801.86 3.360000 1.950073 354.729 50.4643 1.446683
7806.99 7806.99 3.380000 1.945762 355.384 50.7755 1.460133
7812.15 7812.15 3.390000 1.941222 354.918 50.9397 1.470912
7817.32 7817.32 3.400000 1.936662 354.551 51.1196 1.481927
7822.52 7822.52 3.410000 1.932271 354.237 51.2991 1.494523
7827.73 7827.73 3.430000 1.927928 355.044 51.6396 1.513560
7832.96 7832.96 3.440000 1.923511 355.339 51.9114 1.527209
7838.21 7838.21 3.450000 1.919068 354.972 52.0885 1.540108
7843.48 7843.48 3.460000 1.914612 354.313 52.2242 1.552517
7848.77 7848.77 3.480000 1.910338 354.673 52.5011 1.571464
7854.08 7854.08 3.490000 1.905970 351.93 52.3231 1.573442