File: xdidata/Data/Fe/Fe-Scorzalite.xdi
# XDI/1.0 BlueSky/1.10.0 BMM/2023-1.0-py310-tiled
# Beamline.name: BMM (06BM) -- Beamline for Materials Measurement (NIST)
# Beamline.xray_source: NSLS-II three-pole wiggler
# Beamline.collimation: paraboloid mirror, 5 nm Rh on 30 nm Pt
# Beamline.focusing: not in use
# Beamline.harmonic_rejection: flat mirror, Si stripe, pitch = 7.0 mrad relative to beam
# Beamline.software: Bluesky 1.10.0, Ophyd 1.7.0, DataBroker 2.0.0b13, Python 3.10.8, 2023-1.0-py310-tiled
# Detector.I0: 10 cm N2
# Detector.I1: 25 cm N2
# Detector.I2: 25 cm N2
# Element.symbol: Fe
# Element.edge: K
# Element.reference: Fe
# Element.reference_material: Fe foil
# Facility.name: NSLS-II
# Facility.energy: 3.0
# Facility.current: 399.8
# Facility.mode: top-off
# Facility.GUP: 123456
# Facility.SAF: 301027
# Facility.cycle: 2023-2
# Mono.name: Si(111)
# Mono.d_spacing: 3.13519
# Mono.encoder_resolution: 0.0000050 deg/ct
# Mono.angle_offset: 16.0754 deg
# Mono.scan_mode: pseudo channel cut
# Mono.scan_type: step
# Mono.direction: forward in energy
# Sample.name: (Fe,Mg)Al2(OH,PO4)2
# Sample.prep: PEG pellet
# Sample.x: 142.329 mm
# Sample.y: 114.126 mm
# Sample.SDD_position: 205.000 mm
# Scan.experimenters: Bruce Ravel
# Scan.edge_energy: 7112.0
# Scan.start_time: 2023-05-05T21:05:32
# Scan.end_time: 2023-05-05T21:13:43
# Scan.transient_id: 74641
# Scan.uid: e7aacf35-d461-4eba-bad8-bccb82b463f0
# Scan.plot_hint: ln(I0/It)  --  ln($5/$6)
# Column.1: energy eV
# Column.2: requested_energy eV
# Column.3: measurement_time seconds
# Column.4: xmu
# Column.5: I0 nA
# Column.6: It nA
# Column.7: Ir nA
# ///////////
# courtesy Martin Stennett, University of Sheffield
# -----------
# energy  requested_energy  measurement_time  xmu  I0  It  Ir
  6911.999  6912.000  0.500  1.473500  154.786  35.465  6.656562
  6922.009  6922.000  0.500  1.464409  154.65  35.7572  6.759438
  6932.015  6932.000  0.500  1.455101  154.571  36.0733  6.866768
  6942.027  6942.000  0.500  1.445989  154.579  36.4054  6.979397
  6951.997  6952.000  0.500  1.436798  154.55  36.7347  7.091537
  6962.004  6962.000  0.500  1.427862  154.542  37.0625  7.203748
  6972.012  6972.000  0.500  1.418793  154.557  37.4037  7.321239
  6982.019  6982.000  0.500  1.409870  154.509  37.7272  7.434234
  6992.014  6992.000  0.500  1.401043  154.496  38.0585  7.551370
  7002.009  7002.000  0.500  1.392307  154.457  38.3828  7.666047
  7012.008  7012.000  0.500  1.383558  154.402  38.7063  7.781371
  7022.018  7022.000  0.500  1.375214  154.336  39.014  7.896107
  7032.010  7032.000  0.500  1.366200  154.264  39.3488  8.013938
  7042.008  7042.000  0.500  1.357560  154.196  39.6727  8.130093
  7052.007  7052.000  0.500  1.348864  154.1  39.9944  8.245260
  7062.010  7062.000  0.500  1.340609  153.337  40.1262  8.317467
  7072.013  7072.000  0.500  1.332052  153.856  40.6081  8.458317
  7081.986  7082.000  0.500  1.323691  153.804  40.9351  8.556763
  7083.987  7084.000  0.500  1.322071  153.555  40.9351  8.561532
  7085.985  7086.000  0.500  1.320510  153.701  41.0381  8.586399
  7087.983  7088.000  0.500  1.318958  153.721  41.107  8.600857
  7089.990  7090.000  0.500  1.317427  153.69  41.1618  8.612714
  7091.997  7092.000  0.500  1.315902  153.654  41.215  8.619698
  7093.993  7094.000  0.500  1.314210  153.622  41.2762  8.627400
  7095.986  7096.000  0.500  1.312522  153.642  41.3513  8.632753
  7098.262  7098.000  0.500  1.310896  153.608  41.4093  8.626674
  7100.003  7100.000  0.500  1.309354  154.059  41.5952  8.644393
  7102.003  7102.000  0.500  1.308192  154.044  41.6395  8.617677
  7102.290  7102.300  0.500  1.307685  154.04  41.6593  8.614722
  7102.587  7102.600  0.500  1.307373  154.037  41.6715  8.609649
  7102.884  7102.900  0.500  1.307072  154.028  41.6816  8.605964
  7103.197  7103.200  0.500  1.307014  154.017  41.6812  8.595594
  7103.488  7103.500  0.500  1.306716  153.996  41.6877  8.588871
  7103.785  7103.800  0.500  1.306363  154.006  41.7052  8.581941
  7104.082  7104.100  0.500  1.306159  154.011  41.7151  8.572522
  7104.382  7104.400  0.500  1.305949  154.001  41.7212  8.563168
  7104.690  7104.700  0.500  1.306057  154.003  41.7172  8.548828
  7104.987  7105.000  0.500  1.305601  153.991  41.7329  8.538720
  7105.289  7105.300  0.500  1.305395  153.99  41.7414  8.526362
  7105.589  7105.600  0.500  1.305258  153.984  41.7454  8.510447
  7105.884  7105.900  0.500  1.305004  153.972  41.7528  8.494236
  7106.190  7106.200  0.500  1.304755  153.968  41.7621  8.476417
  7106.492  7106.500  0.500  1.304701  153.949  41.7592  8.453178
  7106.790  7106.800  0.500  1.304450  153.943  41.7681  8.431401
  7107.087  7107.100  0.500  1.304192  153.947  41.7798  8.406399
  7107.385  7107.400  0.500  1.303964  153.936  41.7864  8.378893
  7107.689  7107.700  0.500  1.303804  153.925  41.7903  8.342785
  7107.989  7108.000  0.500  1.303696  153.909  41.7904  8.302823
  7108.287  7108.300  0.500  1.303336  153.908  41.8052  8.257277
  7108.584  7108.600  0.500  1.303487  153.886  41.7929  8.199276
  7108.888  7108.900  0.500  1.303268  153.872  41.7983  8.133215
  7109.195  7109.200  0.500  1.303155  153.868  41.8018  8.050148
  7109.491  7109.500  0.500  1.302922  153.856  41.8082  7.947186
  7109.793  7109.800  0.500  1.303077  153.826  41.7938  7.803914
  7110.091  7110.100  0.500  1.302804  153.806  41.7996  7.614934
  7110.395  7110.400  0.500  1.302680  153.795  41.8017  7.337206
  7110.701  7110.700  0.500  1.302834  153.762  41.7865  6.949040
  7110.995  7111.000  0.500  1.302866  153.74  41.7791  6.453647
  7111.293  7111.300  0.500  1.303006  153.705  41.7639  5.861680
  7111.595  7111.600  0.500  1.303067  153.679  41.7543  5.233535
  7111.893  7111.900  0.500  1.303079  153.658  41.7481  4.670217
  7112.196  7112.200  0.500  1.302873  153.626  41.7477  4.226441
  7112.492  7112.500  0.500  1.302681  153.586  41.745  3.896641
  7112.788  7112.800  0.500  1.302602  153.551  41.7388  3.650153
  7113.092  7113.100  0.500  1.302578  153.53  41.734  3.445225
  7113.397  7113.400  0.500  1.302656  153.518  41.7276  3.268845
  7113.701  7113.700  0.500  1.302604  153.51  41.7276  3.107798
  7114.000  7114.000  0.500  1.302446  153.507  41.7334  2.965490
  7114.298  7114.300  0.500  1.302344  153.5  41.7357  2.841000
  7114.596  7114.600  0.500  1.302034  153.476  41.7421  2.736322
  7114.901  7114.900  0.500  1.301672  153.468  41.7551  2.654992
  7115.204  7115.200  0.500  1.301511  153.446  41.7557  2.595725
  7115.498  7115.500  0.500  1.301421  153.422  41.753  2.553794
  7115.798  7115.800  0.500  1.301110  153.43  41.7681  2.524457
  7116.094  7116.100  0.500  1.301200  153.426  41.7632  2.500797
  7116.391  7116.400  0.500  1.301318  153.411  41.7543  2.475722
  7116.696  7116.700  0.500  1.301655  153.403  41.7381  2.440249
  7116.996  7117.000  0.500  1.302532  153.385  41.6966  2.386947
  7117.295  7117.300  0.500  1.302986  153.372  41.6741  2.312641
  7117.600  7117.600  0.500  1.303768  153.354  41.6367  2.212183
  7117.896  7117.900  0.500  1.304689  153.333  41.5926  2.088603
  7118.203  7118.200  0.500  1.306128  153.332  41.5326  1.947588
  7118.502  7118.500  0.500  1.307903  153.31  41.453  1.806802
  7118.801  7118.800  0.500  1.310617  153.273  41.3307  1.667366
  7119.099  7119.100  0.500  1.314247  153.262  41.1778  1.535734
  7119.402  7119.400  0.500  1.319210  153.259  40.9733  1.409857
  7119.703  7119.700  0.500  1.326054  153.234  40.6871  1.292944
  7120.000  7120.000  0.500  1.334647  153.227  40.3373  1.179922
  7120.294  7120.300  0.500  1.345706  153.224  39.8926  1.071295
  7120.595  7120.600  0.500  1.359077  153.193  39.3549  0.965374
  7120.898  7120.900  0.500  1.372869  153.188  38.8146  0.872670
  7121.201  7121.200  0.500  1.386614  153.179  38.2824  0.791560
  7121.500  7121.500  0.500  1.398155  153.153  37.8369  0.725385
  7121.799  7121.800  0.500  1.407802  153.14  37.4704  0.670531
  7122.102  7122.100  0.500  1.415950  153.134  37.1648  0.623360
  7122.401  7122.400  0.500  1.422649  153.104  36.9095  0.584197
  7122.705  7122.700  0.500  1.428267  153.09  36.6993  0.550107
  7123.006  7123.000  0.500  1.433155  153.079  36.5177  0.520947
  7123.301  7123.300  0.500  1.438024  153.054  36.3346  0.495408
  7123.602  7123.600  0.500  1.442959  153.048  36.1542  0.472368
  7123.905  7123.900  0.500  1.448268  153.036  35.96  0.452640
  7124.198  7124.200  0.500  1.452806  153.013  35.7918  0.434278
  7124.493  7124.500  0.500  1.456161  153.001  35.6691  0.418466
  7124.796  7124.800  0.500  1.457563  152.999  35.6187  0.403896
  7125.100  7125.100  0.500  1.457162  152.96  35.6238  0.390805
  7125.401  7125.400  0.500  1.455963  152.934  35.6605  0.378911
  7125.698  7125.700  0.500  1.454926  152.892  35.6877  0.368058
  7125.997  7126.000  0.500  1.454902  152.891  35.6884  0.356988
  7126.299  7126.300  0.500  1.456379  152.871  35.6311  0.345626
  7126.607  7126.600  0.500  1.459516  152.83  35.5099  0.333140
  7126.906  7126.900  0.500  1.464124  152.821  35.3446  0.320053
  7127.201  7127.200  0.500  1.469127  152.82  35.168  0.306748
  7127.503  7127.500  0.500  1.473762  152.804  35.0015  0.293114
  7127.802  7127.800  0.500  1.476575  152.78  34.8979  0.280053
  7128.102  7128.100  0.500  1.477531  152.762  34.8604  0.267450
  7128.405  7128.400  0.500  1.477243  152.736  34.8645  0.255010
  7128.703  7128.700  0.500  1.476663  152.719  34.8809  0.243027
  7128.994  7129.000  0.500  1.476545  152.679  34.8757  0.230657
  7129.293  7129.300  0.500  1.477290  152.666  34.8468  0.219207
  7129.599  7129.600  0.500  1.478682  152.639  34.7923  0.208105
  7129.903  7129.900  0.500  1.479887  152.603  34.742  0.198735
  7130.201  7130.200  0.500  1.480924  152.569  34.6984  0.191323
  7130.498  7130.500  0.500  1.480611  152.548  34.7044  0.185386
  7130.800  7130.800  0.500  1.479330  152.518  34.742  0.182136
  7131.104  7131.100  0.500  1.476960  152.483  34.8165  0.181012
  7131.404  7131.400  0.500  1.474163  152.463  34.9095  0.182384
  7131.704  7131.700  0.500  1.471256  152.44  35.0058  0.185806
  7132.001  7132.000  0.500  1.468512  152.422  35.098  0.191450
  7132.297  7132.300  0.500  1.466844  152.411  35.154  0.198351
  7132.599  7132.600  0.500  1.465640  152.407  35.1953  0.206217
  7132.899  7132.900  0.500  1.465155  152.392  35.2091  0.215255
  7133.198  7133.200  0.500  1.465513  152.387  35.1953  0.224654
  7133.494  7133.500  0.500  1.466258  152.39  35.1696  0.234462
  7133.798  7133.800  0.500  1.466492  152.371  35.1571  0.244476
  7134.107  7134.100  0.500  1.466108  152.373  35.171  0.254171
  7134.400  7134.400  0.500  1.464552  152.37  35.2252  0.263771
  7134.701  7134.700  0.500  1.462505  152.385  35.3008  0.272284
  7135.001  7135.000  0.500  1.460383  152.368  35.3719  0.280346
  7135.301  7135.300  0.500  1.458826  152.371  35.4275  0.287173
  7135.605  7135.600  0.500  1.456848  152.378  35.4994  0.293397
  7135.903  7135.900  0.500  1.455290  152.357  35.5499  0.298159
  7136.203  7136.200  0.500  1.453816  152.357  35.6024  0.301777
  7136.499  7136.500  0.500  1.452294  152.352  35.6553  0.304262
  7136.799  7136.800  0.500  1.450847  152.323  35.7003  0.305709
  7136.996  7137.000  0.500  1.449690  152.332  35.7437  0.306355
  7138.000  7137.990  0.500  1.445416  152.325  35.8952  0.302143
  7139.005  7138.990  0.500  1.440166  152.315  36.0818  0.290925
  7140.028  7140.010  0.500  1.432649  152.33  36.3574  0.278707
  7141.083  7141.060  0.500  1.422999  152.324  36.7087  0.271972
  7142.110  7142.120  0.500  1.414228  152.281  37.0214  0.272861
  7143.188  7143.200  0.500  1.407254  152.274  37.2788  0.278673
  7144.292  7144.300  0.500  1.401439  152.286  37.4992  0.285103
  7145.415  7145.420  0.500  1.395674  152.265  37.7108  0.285764
  7146.561  7146.560  0.500  1.390575  152.259  37.9022  0.276757
  7147.711  7147.710  0.500  1.387081  152.274  38.0386  0.260452
  7148.888  7148.890  0.500  1.384200  152.727  38.2617  0.244553
  7150.087  7150.080  0.500  1.381588  152.701  38.3553  0.233541
  7151.297  7151.300  0.500  1.378756  152.697  38.4631  0.227245
  7152.534  7152.530  0.500  1.376316  152.694  38.5562  0.223244
  7153.792  7153.780  0.500  1.374465  152.675  38.6228  0.221264
  7155.043  7155.050  0.500  1.374025  152.671  38.6388  0.223052
  7156.342  7156.340  0.500  1.374856  152.639  38.5988  0.227248
  7157.656  7157.650  0.500  1.376729  152.628  38.5239  0.230138
  7158.975  7158.980  0.500  1.380002  152.601  38.3912  0.230819
  7160.328  7160.330  0.500  1.384481  152.586  38.2158  0.230387
  7161.707  7161.700  0.500  1.389044  152.53  38.0277  0.230793
  7163.080  7163.080  0.500  1.391970  152.478  37.9038  0.233888
  7164.497  7164.490  0.500  1.392817  152.473  37.8705  0.238840
  7165.911  7165.910  0.500  1.391997  152.425  37.8896  0.243085
  7167.353  7167.350  0.500  1.392076  152.392  37.8783  0.245817
  7168.820  7168.810  0.500  1.393248  152.353  37.8243  0.248708
  7170.294  7170.290  0.500  1.395000  152.336  37.7538  0.252455
  7171.797  7171.790  0.500  1.397313  152.297  37.6569  0.259329
  7173.318  7173.310  0.500  1.398565  152.264  37.6017  0.270410
  7174.858  7174.850  0.500  1.398634  152.222  37.5887  0.284962
  7176.418  7176.410  0.500  1.397792  152.205  37.6163  0.301758
  7177.985  7177.980  0.500  1.396007  152.166  37.6738  0.318290
  7179.592  7179.580  0.500  1.393579  152.145  37.7602  0.329956
  7181.197  7181.190  0.500  1.391269  152.105  37.8374  0.333686
  7182.839  7182.830  0.500  1.389050  152.09  37.9178  0.331658
  7184.494  7184.480  0.500  1.386543  152.053  38.0038  0.325678
  7186.157  7186.150  0.500  1.383601  152.008  38.1044  0.313897
  7187.849  7187.840  0.500  1.380157  151.977  38.2281  0.299007
  7189.552  7189.550  0.500  1.377060  151.948  38.3394  0.283743
  7191.288  7191.280  0.500  1.374470  150.416  38.0512  0.265027
  7193.037  7193.030  0.500  1.372131  151.573  38.4338  0.253202
  7194.803  7194.790  0.500  1.369663  151.757  38.5756  0.248955
  7196.596  7196.580  0.500  1.366914  151.742  38.6778  0.254791
  7198.392  7198.380  0.500  1.364657  151.699  38.7542  0.268100
  7200.224  7200.210  0.500  1.362438  151.655  38.8292  0.287133
  7202.061  7202.050  0.500  1.360298  151.611  38.9011  0.310030
  7203.924  7203.910  0.500  1.358056  151.577  38.9795  0.336601
  7205.792  7205.790  0.500  1.355902  151.519  39.0486  0.361817
  7207.703  7207.690  0.500  1.353967  151.437  39.1032  0.374156
  7209.618  7209.610  0.500  1.352334  151.401  39.1576  0.363653
  7211.562  7211.550  0.500  1.350839  151.341  39.2007  0.327643
  7213.518  7213.510  0.500  1.349787  151.308  39.2334  0.278034
  7215.495  7215.480  0.500  1.349002  151.253  39.2501  0.232088
  7217.489  7217.480  0.500  1.347546  151.21  39.2961  0.199285
  7219.506  7219.490  0.500  1.346729  151.139  39.3097  0.181113
  7221.527  7221.520  0.500  1.345589  151.091  39.342  0.177697
  7223.590  7223.580  0.500  1.344013  151.023  39.3862  0.189270
  7225.662  7225.650  0.500  1.342091  150.88  39.4246  0.213302
  7227.755  7227.740  0.500  1.340074  148.237  38.8125  0.242653
  7229.856  7229.850  0.500  1.338069  151.05  39.6282  0.287774
  7231.995  7231.980  0.500  1.335806  150.994  39.7033  0.332395
  7234.130  7234.120  0.500  1.333687  150.938  39.7728  0.374350
  7236.305  7236.290  0.500  1.331716  150.877  39.8353  0.405294
  7238.494  7238.480  0.500  1.329760  150.836  39.9024  0.420016
  7240.697  7240.680  0.500  1.328351  150.806  39.9507  0.417855
  7242.914  7242.900  0.500  1.327593  150.787  39.9759  0.403878
  7245.160  7245.150  0.500  1.326660  147.95  39.2602  0.376575
  7247.423  7247.410  0.500  1.325689  150.505  39.9771  0.366504
  7249.696  7249.690  0.500  1.325025  150.533  40.011  0.358721
  7252.003  7251.990  0.500  1.324049  150.428  40.0222  0.362612
  7254.319  7254.310  0.500  1.323205  148.095  39.4348  0.368329
  7256.666  7256.650  0.500  1.321613  150.495  40.1377  0.382867
  7259.008  7259.000  0.500  1.319643  150.347  40.1772  0.380235
  7261.397  7261.380  0.500  1.317743  149.898  40.1336  0.369195
  7263.782  7263.770  0.500  1.315527  139.332  37.3874  0.334229
  7266.198  7266.190  0.500  1.313618  150.028  40.3344  0.352838
  7268.630  7268.620  0.500  1.311527  150.701  40.6001  0.345389
  7271.085  7271.070  0.500  1.308992  150.62  40.6814  0.329993
  7273.563  7273.550  0.500  1.306666  149.468  40.4641  0.310944
  7276.051  7276.040  0.500  1.303963  150.662  40.8978  0.304469
  7278.564  7278.550  0.500  1.300925  150.593  41.0034  0.299305
  7281.089  7281.070  0.500  1.297884  150.542  41.1144  0.291728
  7283.633  7283.620  0.500  1.295481  149.524  40.9345  0.279431
  7286.200  7286.190  0.500  1.292956  150.149  41.2097  0.271464
  7288.786  7288.770  0.500  1.290761  150.251  41.3282  0.268348
  7291.395  7291.380  0.500  1.288674  150.218  41.4056  0.278459
  7294.016  7294.000  0.500  1.286487  150.181  41.4858  0.303286
  7296.666  7296.650  0.500  1.284078  150.108  41.5657  0.335772
  7299.322  7299.310  0.500  1.281805  150.013  41.6341  0.368612
  7302.003  7301.990  0.500  1.279510  148.288  41.2498  0.393480
  7304.705  7304.690  0.500  1.277119  150.142  41.8654  0.421165
  7307.419  7307.410  0.500  1.274706  150.051  41.9412  0.436679
  7310.163  7310.150  0.500  1.272255  149.972  42.0219  0.443696
  7312.916  7312.900  0.500  1.269957  149.897  42.0976  0.444007
  7315.692  7315.680  0.500  1.267867  149.842  42.1702  0.444398
  7318.481  7318.470  0.500  1.265894  149.778  42.2356  0.446949
  7321.304  7321.290  0.500  1.263998  149.719  42.299  0.449887
  7324.134  7324.120  0.500  1.262034  149.653  42.3634  0.452064
  7326.983  7326.970  0.500  1.259979  149.594  42.434  0.453447
  7329.861  7329.850  0.500  1.258149  149.524  42.4916  0.456603
  7332.762  7332.740  0.500  1.256083  149.473  42.5651  0.465510
  7335.661  7335.650  0.500  1.254421  149.415  42.6192  0.477238
  7338.582  7338.570  0.500  1.252477  148.189  42.3519  0.480168
  7341.536  7341.520  0.500  1.250467  149.17  42.7179  0.479744
  7344.502  7344.490  0.500  1.247944  149.191  42.8319  0.463717
  7347.486  7347.470  0.500  1.245594  149.104  42.9075  0.439832
  7350.496  7350.480  0.500  1.242959  149.069  43.0107  0.417153
  7353.517  7353.500  0.500  1.240363  148.967  43.0929  0.397950
  7356.564  7356.550  0.500  1.237641  148.901  43.1913  0.382251
  7359.621  7359.610  0.500  1.234977  148.827  43.2851  0.369222
  7362.703  7362.690  0.500  1.232547  148.78  43.3767  0.359908
  7365.797  7365.790  0.500  1.230205  148.692  43.4528  0.356641
  7368.928  7368.910  0.500  1.227646  148.627  43.5449  0.361858
  7372.067  7372.050  0.500  1.225287  148.547  43.6243  0.377940
  7375.216  7375.200  0.500  1.222560  148.468  43.7201  0.406731
  7378.393  7378.380  0.500  1.219925  148.388  43.8118  0.450191
  7381.584  7381.570  0.500  1.217246  148.318  43.9087  0.499710
  7384.806  7384.790  0.500  1.214888  148.234  43.9873  0.538373
  7388.033  7388.020  0.500  1.212487  148.162  44.0719  0.554331
  7391.279  7391.270  0.500  1.209934  148.072  44.1575  0.552504
  7394.556  7394.550  0.500  1.207232  148.003  44.2565  0.544316
  7397.848  7397.840  0.500  1.204600  147.912  44.3457  0.537971
  7401.160  7401.150  0.500  1.201898  147.815  44.4365  0.538515
  7404.481  7404.470  0.500  1.199402  147.719  44.5188  0.541573
  7407.829  7407.820  0.500  1.196883  147.643  44.6081  0.542291
  7411.205  7411.190  0.500  1.194158  147.537  44.6976  0.542499
  7414.580  7414.570  0.500  1.191508  147.47  44.7959  0.543145
  7417.992  7417.980  0.500  1.188892  147.357  44.8787  0.545744
  7421.404  7421.400  0.500  1.186442  147.266  44.9611  0.553482
  7424.856  7424.850  0.500  1.183894  147.155  45.0418  0.566115
  7428.319  7428.310  0.500  1.181335  147.074  45.1323  0.576322
  7431.798  7431.790  0.500  1.178877  146.977  45.2138  0.577932
  7435.303  7435.290  0.500  1.176221  146.883  45.3048  0.575851
  7438.821  7438.810  0.500  1.173639  146.767  45.3863  0.568136
  7442.368  7442.350  0.500  1.170972  146.611  45.4589  0.553486
  7445.907  7445.900  0.500  1.168359  142.68  44.3559  0.524236
  7449.486  7449.480  0.500  1.165951  146.547  45.668  0.528159
  7453.086  7453.080  0.500  1.163277  145.185  45.3645  0.520856
  7456.695  7456.690  0.500  1.160543  146.313  45.8421  0.527271
  7460.329  7460.320  0.500  1.158091  145.729  45.7712  0.530074
  7463.992  7463.980  0.500  1.155412  146.112  46.0147  0.540958
  7467.662  7467.650  0.500  1.152749  142.095  44.869  0.541659
  7471.352  7471.340  0.500  1.149960  146.041  46.2439  0.577465
  7475.060  7475.050  0.500  1.147078  145.91  46.3356  0.596602
  7478.798  7478.780  0.500  1.144362  145.772  46.4176  0.612082
  7482.528  7482.520  0.500  1.141608  145.631  46.5007  0.626646
  7486.303  7486.290  0.500  1.138677  145.5  46.5952  0.645130
  7490.093  7490.080  0.500  1.135927  145.377  46.6841  0.663957
  7493.897  7493.880  0.500  1.133094  145.273  46.7832  0.678769
  7497.727  7497.710  0.500  1.130384  145.175  46.8783  0.685086
  7501.565  7501.550  0.500  1.127692  145.066  46.9695  0.683236
  7505.427  7505.410  0.500  1.125018  144.925  47.0494  0.680550
  7509.307  7509.290  0.500  1.122030  145.144  47.2613  0.683070
  7513.208  7513.190  0.500  1.119241  145.087  47.3749  0.687666
  7517.133  7517.110  0.500  1.116534  144.97  47.4651  0.694678
  7521.078  7521.050  0.500  1.113619  144.828  47.5568  0.700083
  7525.031  7525.010  0.500  1.111040  144.693  47.6355  0.703215
  7528.992  7528.980  0.500  1.108300  144.566  47.7242  0.704005
  7532.997  7532.980  0.500  1.105353  144.438  47.8227  0.704981
  7537.006  7536.990  0.500  1.102409  144.291  47.9149  0.708691
  7541.036  7541.030  0.500  1.099632  144.17  48.0075  0.715291
  7545.098  7545.080  0.500  1.096765  144.003  48.0899  0.721819
  7549.168  7549.150  0.500  1.093872  143.866  48.1831  0.727491
  7553.256  7553.240  0.500  1.090972  143.732  48.278  0.728264
  7557.370  7557.350  0.500  1.088029  143.603  48.3771  0.724370
  7561.513  7561.480  0.500  1.085145  143.463  48.4694  0.719809
  7565.649  7565.630  0.500  1.082228  143.31  48.559  0.719874
  7569.828  7569.790  0.500  1.079325  143.153  48.647  0.726864
  7574.010  7573.980  0.500  1.076472  143.006  48.7358  0.740250
  7578.211  7578.180  0.500  1.073526  142.859  48.8294  0.758904
  7582.434  7582.410  0.500  1.070714  142.671  48.9025  0.778356
  7586.665  7586.650  0.500  1.067824  142.49  48.9816  0.793874
  7590.922  7590.910  0.500  1.065002  142.312  49.0589  0.804324
  7595.212  7595.190  0.500  1.062068  142.088  49.1254  0.810366
  7599.509  7599.490  0.500  1.059002  141.835  49.1886  0.813864
  7603.813  7603.810  0.500  1.056321  141.25  49.1172  0.816846
  7608.172  7608.150  0.500  1.053443  141.057  49.1916  0.826003
  7612.531  7612.510  0.500  1.050454  140.837  49.2618  0.838083
  7616.908  7616.890  0.500  1.047503  140.799  49.3941  0.847829
  7621.294  7621.280  0.500  1.044624  140.898  49.5712  0.853375
  7625.716  7625.700  0.500  1.041630  140.903  49.7216  0.856370
  7630.146  7630.130  0.500  1.038668  140.797  49.8317  0.861459
  7634.598  7634.580  0.500  1.035667  140.678  49.9392  0.871524
  7639.081  7639.050  0.500  1.032598  140.503  50.0304  0.885191
  7643.569  7643.540  0.500  1.029609  140.347  50.1244  0.898774
  7648.077  7648.050  0.500  1.026530  140.165  50.214  0.910235
  7652.606  7652.580  0.500  1.023594  139.993  50.2995  0.918819
  7657.153  7657.130  0.500  1.020606  139.818  50.387  0.925706
  7661.696  7661.700  0.500  1.017472  139.642  50.4818  0.930191
  7666.282  7666.280  0.500  1.014376  139.449  50.5683  0.932520
  7670.901  7670.890  0.500  1.011347  139.277  50.659  0.933760
  7675.536  7675.510  0.500  1.008403  139.095  50.7422  0.935009
  7680.154  7680.160  0.500  1.005333  138.906  50.8288  0.936811
  7684.808  7684.820  0.500  1.002418  138.624  50.8738  0.941094
  7689.521  7689.500  0.500  0.999152  138.772  51.0948  0.952696
  7694.219  7694.200  0.500  0.996093  138.483  51.1444  0.963499
  7698.942  7698.920  0.500  0.993058  138.261  51.2176  0.975233
  7703.678  7703.660  0.500  0.990142  138.018  51.2768  0.985633
  7708.394  7708.410  0.500  0.987140  137.926  51.3969  0.997228
  7713.167  7713.190  0.500  0.983973  137.646  51.4551  1.009464
  7717.962  7717.990  0.500  0.981110  137.422  51.5187  1.022656
  7722.814  7722.800  0.500  0.978070  137.289  51.6257  1.035076
  7727.621  7727.630  0.500  0.974967  137.1  51.7147  1.044718
  7732.508  7732.490  0.500  0.971945  136.88  51.7879  1.052623
  7737.374  7737.360  0.500  0.968803  136.615  51.8507  1.059994
  7742.259  7742.250  0.500  0.965715  136.662  52.0285  1.070972
  7747.178  7747.160  0.500  0.962670  136.388  52.0826  1.079749
  7752.106  7752.090  0.500  0.959510  136.175  52.166  1.088168
  7757.041  7757.030  0.500  0.956450  135.963  52.2444  1.096730
  7762.008  7762.000  0.500  0.953380  135.747  52.3216  1.107483
  7767.000  7766.990  0.500  0.950247  135.541  52.4064  1.120585
  7772.003  7771.990  0.500  0.947086  135.32  52.4864  1.133089
  7777.034  7777.020  0.500  0.944136  135.11  52.56  1.144609
  7782.079  7782.060  0.500  0.940915  134.905  52.6496  1.155687
  7787.144  7787.120  0.500  0.937864  134.715  52.7358  1.166078
  7792.182  7792.200  0.500  0.934687  134.516  52.8255  1.175650
  7797.287  7797.300  0.500  0.931575  134.314  52.9106  1.184468
  7802.430  7802.420  0.500  0.928498  134.105  52.9913  1.192214
  7807.551  7807.560  0.500  0.925286  133.892  53.0772  1.199776
  7812.715  7812.720  0.500  0.922080  133.669  53.1589  1.207576
  7817.881  7817.900  0.500  0.918885  133.488  53.2568  1.217031
  7823.089  7823.090  0.500  0.915720  133.265  53.3365  1.226314
  7828.296  7828.310  0.500  0.912958  133.056  53.3999  1.235025
  7833.559  7833.540  0.500  0.909904  132.851  53.4811  1.244560
  7838.773  7838.790  0.500  0.906514  132.325  53.4499  1.251896
  7844.048  7844.060  0.500  0.903330  132.414  53.6564  1.265299
  7849.326  7849.350  0.500  0.900152  132.137  53.7149  1.275855
  7854.685  7854.660  0.500  0.897077  131.048  53.4362  1.279044
  7859.985  7859.990  0.500  0.894051  131.724  53.8743  1.299888
  7865.317  7865.340  0.500  0.890744  131.541  53.9778  1.313976
  7870.701  7870.710  0.500  0.887499  131.306  54.0567  1.327472
  7876.069  7876.090  0.500  0.884404  131.072  54.1277  1.340839
  7881.479  7881.500  0.500  0.881235  130.836  54.2014  1.353890
  7886.923  7886.920  0.500  0.878027  130.618  54.2853  1.366417
  7892.349  7892.370  0.500  0.874766  130.373  54.3603  1.378976
  7897.816  7897.830  0.500  0.871672  130.051  54.394  1.390744
  7903.292  7903.310  0.500  0.868540  129.868  54.4881  1.403956
  7908.786  7908.810  0.500  0.865149  129.63  54.5727  1.416537
  7914.344  7914.330  0.500  0.862240  129.367  54.6207  1.428209
  7919.846  7919.870  0.500  0.858971  129.148  54.7068  1.441307
  7925.405  7925.420  0.500  0.855755  128.903  54.7787  1.452856
  7930.995  7931.000  0.500  0.852746  128.531  54.7856  1.464210
  7936.602  7936.600  0.500  0.849623  128.159  54.7975  1.473189
  7942.184  7942.210  0.500  0.846360  128.203  54.9958  1.486240
  7947.824  7947.850  0.500  0.843251  127.867  55.0224  1.495769
  7953.474  7953.500  0.500  0.840040  127.486  55.0349  1.505505
  7959.149  7959.170  0.500  0.836962  127.217  55.0881  1.516899
  7964.837  7964.860  0.500  0.833773  126.917  55.1337  1.528582