File: xdidata/Bi/Bi-L3-Bi2Ce2Ti4O12.xdi
# XDI/1.0 BlueSky/1.10.0 BMM/2023-1.0-py310-tiled
# Beamline.name: BMM (06BM) -- Beamline for Materials Measurement (NIST)
# Beamline.xray_source: NSLS-II three-pole wiggler
# Beamline.collimation: paraboloid mirror, 5 nm Rh on 30 nm Pt
# Beamline.focusing: not in use
# Beamline.harmonic_rejection: flat mirror, Pt stripe, pitch = 7.0 mrad relative to beam
# Beamline.software: Bluesky 1.10.0, Ophyd 1.7.0, DataBroker 2.0.0b13, Python 3.10.8, 2023-1.0-py310-tiled
# Detector.I0: 10 cm N2
# Detector.I1: 25 cm N2
# Detector.I2: 25 cm N2
# Element.symbol: Bi
# Element.edge: L3
# Element.reference: Bi
# Element.reference_material: BiO2
# Facility.name: NSLS-II
# Facility.energy: 3.0
# Facility.current: 399.7
# Facility.mode: top-off
# Facility.GUP: 301027
# Facility.SAF: 310583
# Facility.cycle: 2023-2
# Mono.name: Si(111)
# Mono.d_spacing: 3.13519
# Mono.encoder_resolution: 0.0000050 deg/ct
# Mono.angle_offset: 16.0754 deg
# Mono.scan_mode: pseudo channel cut
# Mono.scan_type: step
# Mono.direction: forward in energy
# Sample.name: Bi2Ce2Ti4O12
# Sample.prep: Powder in PEG pellet
# Sample.x: 145.711 mm
# Sample.y: 114.376 mm
# Sample.SDD_position: 205.000 mm
# Scan.experimenters: Bruce Ravel
# Scan.edge_energy: 13418.6
# Scan.start_time: 2023-06-27T13:49:32
# Scan.end_time: 2023-06-27T13:56:22
# Scan.transient_id: 85132
# Scan.uid: 56efffd2-53d1-4826-ab5b-607eaa8fae14
# Scan.plot_hint: ln(I0/It)  --  ln($5/$6)
# Column.1: energy eV
# Column.2: requested_energy eV
# Column.3: measurement_time seconds
# Column.4: xmu
# Column.5: I0 nA
# Column.6: It nA
# Column.7: Ir nA
# ///////////
# sample courtesy Martin Stennett, University of Sheffield
# -----------
# energy  requested_energy  measurement_time  xmu  I0  It  Ir
  13218.552  13218.600  0.500  -0.028211  45.0116  46.2996  23.9016
  13228.571  13228.600  0.500  -0.029654  44.9125  46.2643  23.9177
  13238.606  13238.600  0.500  -0.030746  44.826  46.2256  23.93
  13248.586  13248.600  0.500  -0.031990  44.7091  46.1624  23.9345
  13258.590  13258.600  0.500  -0.033311  44.5708  46.0805  23.9251
  13268.586  13268.600  0.500  -0.034551  44.3655  45.9252  23.8753
  13278.659  13278.600  0.500  -0.035903  43.7719  45.372  23.6177
  13288.616  13288.600  0.500  -0.037134  43.6107  45.2605  23.5892
  13298.627  13298.600  0.500  -0.038290  43.5373  45.2367  23.6084
  13308.630  13308.600  0.500  -0.039644  43.4378  45.1944  23.6181
  13318.633  13318.600  0.500  -0.040773  43.3656  45.1703  23.6354
  13328.636  13328.600  0.500  -0.042048  43.2098  45.0654  23.6051
  13338.638  13338.600  0.500  -0.043120  43.1701  45.0723  23.6333
  13348.632  13348.600  0.500  -0.044175  43.1019  45.0486  23.6457
  13358.618  13358.600  0.500  -0.045283  43.0272  45.0203  23.6454
  13368.619  13368.600  0.500  -0.046338  42.9161  44.9515  23.624
  13378.635  13378.600  0.500  -0.047137  42.8185  44.8852  23.5932
  13388.619  13388.600  0.500  -0.047597  42.7362  44.8195  23.5412
  13390.560  13390.600  0.500  -0.047812  42.7117  44.8034  23.5237
  13392.556  13392.600  0.500  -0.047851  42.8233  44.9223  23.5763
  13394.553  13394.600  0.500  -0.047828  42.7957  44.8923  23.5536
  13396.542  13396.600  0.500  -0.047860  42.7746  44.8715  23.524
  13398.564  13398.600  0.500  -0.047737  42.7544  44.8449  23.4958
  13400.562  13400.600  0.500  -0.047670  42.7326  44.819  23.46
  13402.577  13402.600  0.500  -0.047516  42.713  44.7916  23.4226
  13404.569  13404.600  0.500  -0.047235  42.6976  44.7628  23.3758
  13406.562  13406.600  0.500  -0.046952  42.6681  44.7192  23.3103
  13408.563  13408.600  0.500  -0.046376  42.6605  44.6855  23.2422
  13408.845  13408.900  0.500  -0.046387  42.6531  44.6783  23.2294
  13409.136  13409.200  0.500  -0.046261  42.6554  44.6751  23.2184
  13409.434  13409.500  0.500  -0.046242  42.6486  44.667  23.2025
  13409.740  13409.800  0.500  -0.046177  42.6518  44.6675  23.1979
  13410.038  13410.100  0.500  -0.045996  42.6451  44.6524  23.1782
  13410.344  13410.400  0.500  -0.045833  42.647  44.6471  23.1655
  13410.651  13410.700  0.500  -0.045725  42.6432  44.6383  23.1481
  13410.965  13411.000  0.500  -0.045623  42.6409  44.6314  23.1323
  13411.271  13411.300  0.500  -0.045500  42.6372  44.622  23.1146
  13411.561  13411.600  0.500  -0.045372  42.6266  44.6052  23.0943
  13411.868  13411.900  0.500  -0.045183  42.6223  44.5922  23.0717
  13412.166  13412.200  0.500  -0.045006  42.6247  44.5868  23.0537
  13412.464  13412.500  0.500  -0.044993  42.6137  44.5748  23.0308
  13412.771  13412.800  0.500  -0.044816  42.6147  44.5679  23.0152
  13413.069  13413.100  0.500  -0.044586  42.6111  44.5539  22.9905
  13413.383  13413.400  0.500  -0.044367  42.6044  44.5372  22.9643
  13413.682  13413.700  0.500  -0.044093  42.6079  44.5287  22.9421
  13413.972  13414.000  0.500  -0.044023  42.5987  44.5159  22.9159
  13414.279  13414.300  0.500  -0.043779  42.5951  44.5013  22.8851
  13414.593  13414.600  0.500  -0.043443  42.5959  44.4872  22.8565
  13414.883  13414.900  0.500  -0.043242  42.5943  44.4766  22.8275
  13415.174  13415.200  0.500  -0.042899  42.5894  44.4562  22.794
  13415.488  13415.500  0.500  -0.042611  42.5823  44.436  22.7577
  13415.795  13415.800  0.500  -0.042351  42.5774  44.4194  22.7199
  13416.093  13416.100  0.500  -0.042062  42.5748  44.4038  22.6835
  13416.376  13416.400  0.500  -0.041613  42.5644  44.373  22.6388
  13416.675  13416.700  0.500  -0.041414  42.5736  44.3738  22.603
  13416.981  13417.000  0.500  -0.040969  42.5569  44.3366  22.5512
  13417.280  13417.300  0.500  -0.040445  42.5559  44.3124  22.5016
  13417.578  13417.600  0.500  -0.040075  42.5578  44.2979  22.4531
  13417.877  13417.900  0.500  -0.039573  42.5511  44.2688  22.3957
  13418.184  13418.200  0.500  -0.039110  42.5415  44.2383  22.3295
  13418.482  13418.500  0.500  -0.038469  42.5421  44.2106  22.2675
  13418.781  13418.800  0.500  -0.037815  42.5417  44.1813  22.1971
  13419.072  13419.100  0.500  -0.037166  42.5316  44.1421  22.12
  13419.370  13419.400  0.500  -0.036484  42.5256  44.1057  22.0349
  13419.677  13419.700  0.500  -0.035562  42.5227  44.0621  21.9403
  13419.992  13420.000  0.500  -0.034808  42.517  44.023  21.8466
  13420.259  13420.300  0.500  -0.033840  42.5155  43.9788  21.7445
  13420.573  13420.600  0.500  -0.032844  42.5085  43.9279  21.6275
  13420.880  13420.900  0.500  -0.031715  42.5012  43.8707  21.5046
  13421.179  13421.200  0.500  -0.030535  42.5021  43.8199  21.3753
  13421.470  13421.500  0.500  -0.029347  42.5035  43.7693  21.2496
  13421.776  13421.800  0.500  -0.027987  42.4926  43.6986  21.1097
  13422.083  13422.100  0.500  -0.026635  42.4855  43.6324  20.9601
  13422.390  13422.400  0.500  -0.025127  42.4868  43.5679  20.8154
  13422.673  13422.700  0.500  -0.023657  42.4813  43.4982  20.6765
  13422.995  13423.000  0.500  -0.022269  42.4832  43.4399  20.5351
  13423.286  13423.300  0.500  -0.020641  42.4637  43.3494  20.3762
  13423.601  13423.600  0.500  -0.019028  42.4656  43.2814  20.235
  13423.892  13423.900  0.500  -0.017638  42.4579  43.2134  20.1022
  13424.199  13424.200  0.500  -0.016039  42.4605  43.1471  19.9687
  13424.506  13424.500  0.500  -0.014447  42.4554  43.0732  19.8301
  13424.805  13424.800  0.500  -0.013026  42.451  43.0076  19.6977
  13425.088  13425.100  0.500  -0.011545  42.4573  42.9504  19.5772
  13425.395  13425.400  0.500  -0.010012  42.4476  42.8747  19.4371
  13425.709  13425.700  0.500  -0.008491  42.4408  42.8027  19.3002
  13426.008  13426.000  0.500  -0.006843  42.4411  42.7325  19.1622
  13426.307  13426.300  0.500  -0.005240  42.4326  42.6555  19.0215
  13426.606  13426.600  0.500  -0.003584  42.4315  42.5838  18.871
  13426.905  13426.900  0.500  -0.001638  42.4226  42.4921  18.708
  13427.205  13427.200  0.500  0.000179  42.4159  42.4083  18.5392
  13427.504  13427.500  0.500  0.002400  42.4017  42.3  18.3555
  13427.795  13427.800  0.500  0.004596  42.3949  42.2005  18.1592
  13428.102  13428.100  0.500  0.007305  42.3796  42.0711  17.9402
  13428.417  13428.400  0.500  0.010154  42.3682  41.9402  17.7139
  13428.692  13428.700  0.500  0.013147  42.3497  41.7966  17.4757
  13428.999  13429.000  0.500  0.016467  42.3331  41.6417  17.2205
  13429.314  13429.300  0.500  0.020340  42.3271  41.4748  16.9494
  13429.605  13429.600  0.500  0.024301  42.3319  41.3156  16.6886
  13429.889  13429.900  0.500  0.028504  42.3382  41.1484  16.4268
  13430.204  13430.200  0.500  0.033182  42.3322  40.9506  16.138
  13430.503  13430.500  0.500  0.038048  42.3266  40.7464  15.8553
  13430.802  13430.800  0.500  0.042830  42.3523  40.5766  15.6039
  13431.094  13431.100  0.500  0.047683  42.342  40.3703  15.34
  13431.393  13431.400  0.500  0.052911  42.3564  40.1735  15.0847
  13431.684  13431.700  0.500  0.057633  42.3513  39.9794  14.8447
  13431.983  13432.000  0.500  0.062385  42.3493  39.7881  14.6196
  13432.298  13432.300  0.500  0.067044  42.354  39.6075  14.4042
  13432.606  13432.600  0.500  0.071448  42.3327  39.4136  14.1876
  13432.897  13432.900  0.500  0.075526  42.3374  39.2576  14.0033
  13433.181  13433.200  0.500  0.079124  42.3329  39.1125  13.833
  13433.488  13433.500  0.500  0.082554  42.3292  38.9751  13.667
  13433.787  13433.800  0.500  0.085547  42.3198  38.85  13.5124
  13434.079  13434.100  0.500  0.088120  42.3137  38.7445  13.3764
  13434.386  13434.400  0.500  0.090534  42.3122  38.6498  13.2466
  13434.685  13434.700  0.500  0.092642  42.3075  38.5641  13.1239
  13434.993  13435.000  0.500  0.094493  42.3039  38.4896  13.0083
  13435.284  13435.300  0.500  0.095752  42.3109  38.4474  12.9105
  13435.592  13435.600  0.500  0.097044  42.3008  38.3886  12.8094
  13435.891  13435.900  0.500  0.097894  42.2869  38.3435  12.7137
  13436.198  13436.200  0.500  0.098653  42.288  38.3153  12.631
  13436.498  13436.500  0.500  0.099421  42.2789  38.2777  12.5482
  13436.797  13436.800  0.500  0.099919  42.2768  38.2567  12.4687
  13437.113  13437.100  0.500  0.100523  42.2736  38.2307  12.3914
  13437.412  13437.400  0.500  0.101046  42.2698  38.2073  12.3186
  13437.696  13437.700  0.500  0.101660  42.2734  38.1871  12.2499
  13438.003  13438.000  0.500  0.102348  42.2564  38.1455  12.1777
  13438.319  13438.300  0.500  0.103143  42.2568  38.1156  12.1076
  13438.602  13438.600  0.500  0.104028  42.2494  38.0752  12.0431
  13438.902  13438.900  0.500  0.105053  42.2447  38.032  11.9764
  13439.210  13439.200  0.500  0.106295  42.2377  37.9784  11.9105
  13439.501  13439.500  0.500  0.107525  42.2334  37.9279  11.8496
  13439.801  13439.800  0.500  0.108783  42.2337  37.8804  11.7907
  13440.116  13440.100  0.500  0.110343  42.2389  37.826  11.7342
  13440.424  13440.400  0.500  0.111849  42.2231  37.755  11.6726
  13440.700  13440.700  0.500  0.113364  42.2221  37.697  11.6202
  13441.000  13441.000  0.500  0.114945  42.218  37.6337  11.5685
  13441.315  13441.300  0.500  0.116487  42.2264  37.5833  11.5183
  13441.615  13441.600  0.500  0.117970  42.2162  37.5185  11.4666
  13441.899  13441.900  0.500  0.119537  42.2058  37.4506  11.421
  13442.191  13442.200  0.500  0.120882  42.2172  37.4102  11.3835
  13442.490  13442.500  0.500  0.122216  42.2006  37.3457  11.3353
  13442.798  13442.800  0.500  0.123458  42.2062  37.3043  11.2971
  13443.098  13443.100  0.500  0.124388  42.1893  37.2547  11.2591
  13443.390  13443.400  0.500  0.125447  42.1857  37.2121  11.222
  13443.595  13443.600  0.500  0.126115  42.1857  37.1873  11.2004
  13444.581  13444.590  0.500  0.127523  42.172  37.1229  11.1086
  13445.591  13445.590  0.500  0.127532  42.1624  37.1141  11.0497
  13446.609  13446.610  0.500  0.126035  42.159  37.1667  11.0321
  13447.667  13447.660  0.500  0.123495  42.141  37.2453  11.0585
  13448.733  13448.720  0.500  0.120461  42.137  37.355  11.1282
  13449.823  13449.800  0.500  0.117155  42.1138  37.458  11.2192
  13450.912  13450.900  0.500  0.114330  42.0921  37.5446  11.325
  13452.050  13452.020  0.500  0.111968  42.1038  37.6438  11.4476
  13453.188  13453.160  0.500  0.109749  42.0808  37.7069  11.5587
  13454.325  13454.310  0.500  0.107797  42.0779  37.778  11.6695
  13455.503  13455.490  0.500  0.106264  42.0642  37.8236  11.7596
  13456.681  13456.680  0.500  0.104818  42.0497  37.8653  11.835
  13457.890  13457.900  0.500  0.103653  42.0347  37.8959  11.8901
  13459.148  13459.130  0.500  0.102918  42.0255  37.9154  11.9235
  13460.405  13460.380  0.500  0.102611  42.0076  37.9109  11.9341
  13461.671  13461.650  0.500  0.102720  42.0079  37.907  11.9332
  13462.960  13462.940  0.500  0.102976  41.9955  37.8862  11.9267
  13464.282  13464.250  0.500  0.103130  41.9679  37.8555  11.9157
  13465.612  13465.580  0.500  0.103101  41.9546  37.8445  11.9084
  13466.934  13466.930  0.500  0.103014  41.9427  37.8371  11.905
  13468.303  13468.300  0.500  0.102761  41.9308  37.8359  11.9042
  13469.689  13469.680  0.500  0.102311  41.8992  37.8245  11.9003
  13471.115  13471.090  0.500  0.101786  41.8507  37.8005  11.8946
  13472.518  13472.510  0.500  0.101547  41.8678  37.825  11.9048
  13473.976  13473.950  0.500  0.101589  41.8708  37.8261  11.9129
  13475.426  13475.410  0.500  0.101791  41.8639  37.8123  11.913
  13476.909  13476.890  0.500  0.102150  41.8303  37.7683  11.9017
  13478.392  13478.390  0.500  0.103037  41.7799  37.6894  11.8775
  13479.907  13479.910  0.500  0.104275  41.7839  37.6464  11.8604
  13481.462  13481.450  0.500  0.105592  41.5913  37.4235  11.7788
  13483.025  13483.010  0.500  0.107167  41.568  37.3437  11.7342
  13484.605  13484.580  0.500  0.108763  41.7397  37.4382  11.7348
  13486.201  13486.180  0.500  0.110075  41.7579  37.4054  11.6917
  13487.805  13487.790  0.500  0.110960  41.7681  37.3814  11.6438
  13489.449  13489.430  0.500  0.111428  41.7455  37.3437  11.5928
  13491.070  13491.080  0.500  0.111668  41.7291  37.3201  11.548
  13492.755  13492.750  0.500  0.111616  41.6837  37.2814  11.509
  13494.456  13494.440  0.500  0.111122  41.6764  37.2932  11.4945
  13496.157  13496.150  0.500  0.110457  41.6768  37.3184  11.4926
  13497.915  13497.880  0.500  0.109355  41.661  37.3455  11.4973
  13499.641  13499.630  0.500  0.108034  41.6275  37.3647  11.5041
  13501.392  13501.390  0.500  0.106687  41.629  37.4165  11.5299
  13503.183  13503.180  0.500  0.105481  41.6181  37.4518  11.5554
  13504.990  13504.980  0.500  0.104290  41.591  37.472  11.5781
  13506.837  13506.810  0.500  0.103502  41.5688  37.4815  11.6022
  13508.678  13508.650  0.500  0.102796  41.5488  37.4899  11.6262
  13510.542  13510.510  0.500  0.102268  41.5272  37.4902  11.6423
  13512.399  13512.390  0.500  0.101909  41.5106  37.4887  11.6603
  13514.297  13514.290  0.500  0.101551  41.4928  37.4861  11.6751
  13516.219  13516.210  0.500  0.101152  41.4756  37.4854  11.6917
  13518.181  13518.150  0.500  0.100797  41.4501  37.4758  11.7028
  13520.128  13520.110  0.500  0.100458  41.4222  37.4632  11.7151
  13522.084  13522.080  0.500  0.100228  41.4045  37.4558  11.7284
  13524.088  13524.080  0.500  0.100045  41.385  37.445  11.741
  13526.100  13526.090  0.500  0.099696  41.3555  37.4314  11.7497
  13528.137  13528.120  0.500  0.099525  41.4602  37.5326  11.7947
  13530.207  13530.180  0.500  0.099289  41.4501  37.5322  11.8066
  13532.270  13532.250  0.500  0.099213  41.4246  37.5121  11.8113
  13534.349  13534.340  0.500  0.099051  41.3936  37.4901  11.8185
  13536.453  13536.450  0.500  0.098803  41.3172  37.4301  11.8082
  13538.597  13538.580  0.500  0.098642  40.6191  36.8036  11.617
  13540.742  13540.720  0.500  0.098419  40.9484  37.1103  11.7191
  13542.912  13542.890  0.500  0.098028  41.3747  37.5113  11.8487
  13545.090  13545.080  0.500  0.097790  41.3444  37.4928  11.8427
  13547.286  13547.280  0.500  0.097533  41.3206  37.4808  11.8354
  13549.506  13549.500  0.500  0.097437  41.2916  37.4581  11.8251
  13551.774  13551.750  0.500  0.097445  41.2631  37.4319  11.8138
  13554.036  13554.010  0.500  0.097455  41.2232  37.3953  11.7976
  13556.306  13556.290  0.500  0.097526  41.0313  37.2186  11.7349
  13558.578  13558.590  0.500  0.097653  40.6417  36.8606  11.6203
  13560.930  13560.910  0.500  0.097808  41.1939  37.3555  11.7711
  13563.259  13563.250  0.500  0.097706  41.1802  37.347  11.7642
  13565.629  13565.600  0.500  0.097533  41.0871  37.2689  11.7397
  13567.991  13567.980  0.500  0.097240  40.9863  37.1885  11.7153
  13570.387  13570.370  0.500  0.096818  41.0948  37.3026  11.7545
  13572.800  13572.790  0.500  0.096379  41.0309  37.261  11.7463
  13575.254  13575.220  0.500  0.095864  40.4527  36.7548  11.592
  13577.668  13577.670  0.500  0.095305  40.9122  37.1931  11.7352
  13580.156  13580.150  0.500  0.094923  41.0488  37.3316  11.7841
  13582.669  13582.640  0.500  0.094352  41.0108  37.3183  11.785
  13585.174  13585.150  0.500  0.093908  40.9756  37.3028  11.7831
  13587.673  13587.670  0.500  0.093413  40.9449  37.2933  11.7845
  13590.237  13590.220  0.500  0.092816  40.892  37.2674  11.7823
  13592.802  13592.790  0.500  0.092451  40.6424  37.0534  11.7201
  13595.392  13595.370  0.500  0.091831  40.2465  36.7152  11.6178
  13597.975  13597.980  0.500  0.091228  40.771  37.2161  11.7825
  13600.600  13600.600  0.500  0.090733  40.8432  37.3005  11.8204
  13603.274  13603.250  0.500  0.090206  40.8084  37.2884  11.8287
  13605.933  13605.910  0.500  0.089813  40.7672  37.2654  11.8341
  13608.601  13608.590  0.500  0.089584  40.7664  37.2732  11.8526
  13611.294  13611.290  0.500  0.089116  40.725  37.2528  11.8577
  13614.021  13614.010  0.500  0.088935  40.6858  37.2236  11.8641
  13616.781  13616.750  0.500  0.088561  40.6758  37.2285  11.8791
  13619.502  13619.500  0.500  0.088235  40.6585  37.2247  11.8867
  13622.306  13622.280  0.500  0.088023  40.6001  37.1791  11.8858
  13625.102  13625.070  0.500  0.088024  40.6078  37.1861  11.8993
  13627.915  13627.890  0.500  0.087639  40.5783  37.1735  11.899
  13630.714  13630.720  0.500  0.087550  40.5289  37.1315  11.8904
  13633.586  13633.570  0.500  0.087513  40.5248  37.1291  11.8913
  13636.460  13636.450  0.500  0.087236  40.4971  37.1141  11.8837
  13639.344  13639.340  0.500  0.087049  40.4688  37.095  11.8749
  13642.261  13642.250  0.500  0.086790  40.4463  37.084  11.8674
  13645.195  13645.170  0.500  0.086323  40.4151  37.0727  11.8612
  13648.147  13648.120  0.500  0.085916  40.3803  37.0558  11.8526
  13651.101  13651.090  0.500  0.085433  40.3429  37.0394  11.8468
  13654.088  13654.070  0.500  0.085073  40.0921  36.8224  11.7826
  13657.109  13657.080  0.500  0.084630  40.3213  37.0493  11.8578
  13660.099  13660.100  0.500  0.084242  40.2873  37.0324  11.8591
  13663.171  13663.150  0.500  0.083944  40.2522  37.0112  11.86
  13666.246  13666.210  0.500  0.083609  40.2197  36.9937  11.8612
  13669.321  13669.290  0.500  0.083339  40.1922  36.9784  11.8656
  13672.390  13672.390  0.500  0.082938  40.1711  36.9739  11.8728
  13675.534  13675.510  0.500  0.082512  40.142  36.9627  11.8759
  13678.695  13678.650  0.500  0.082141  40.0999  36.9378  11.8737
  13681.817  13681.800  0.500  0.081744  40.067  36.9221  11.8729
  13684.998  13684.980  0.500  0.081472  40.0405  36.9077  11.874
  13688.213  13688.170  0.500  0.080976  40.0095  36.8974  11.8751
  13691.405  13691.390  0.500  0.080496  39.9773  36.8854  11.8731
  13694.631  13694.620  0.500  0.080155  39.9553  36.8777  11.8747
  13697.891  13697.870  0.500  0.079671  39.9175  36.8606  11.8732
  13701.195  13701.150  0.500  0.079232  39.8859  36.8476  11.8753
  13704.450  13704.440  0.500  0.078655  39.8491  36.8349  11.8777
  13707.765  13707.750  0.500  0.078274  39.8285  36.8299  11.8824
  13711.097  13711.070  0.500  0.077725  39.7917  36.816  11.8897
  13714.456  13714.420  0.500  0.077327  39.7618  36.803  11.8963
  13717.792  13717.790  0.500  0.076953  39.737  36.7938  11.9049
  13721.228  13721.170  0.500  0.076445  39.7057  36.7835  11.9138
  13724.608  13724.580  0.500  0.076083  39.6737  36.7672  11.9206
  13728.007  13728.000  0.500  0.075588  39.6496  36.763  11.9309
  13731.473  13731.450  0.500  0.075281  39.6124  36.7398  11.9339
  13734.940  13734.910  0.500  0.074673  39.5772  36.7295  11.9385
  13738.402  13738.390  0.500  0.074334  39.5483  36.7151  11.9414
  13741.931  13741.890  0.500  0.074050  39.518  36.6974  11.9427
  13745.437  13745.410  0.500  0.073622  39.479  36.6769  11.9426
  13748.969  13748.950  0.500  0.073194  39.4402  36.6565  11.9423
  13752.512  13752.500  0.500  0.072879  39.3994  36.6301  11.9391
  13756.131  13756.080  0.500  0.072390  39.3735  36.6239  11.944
  13759.703  13759.680  0.500  0.071991  39.3443  36.6114  11.946
  13763.317  13763.290  0.500  0.071476  39.3  36.589  11.9431
  13766.959  13766.920  0.500  0.071079  39.2692  36.5749  11.945
  13770.610  13770.580  0.500  0.070524  39.2384  36.5665  11.9465
  13774.264  13774.250  0.500  0.070056  39.1987  36.5466  11.9488
  13777.985  13777.940  0.500  0.069429  39.1617  36.5349  11.9494
  13781.676  13781.650  0.500  0.069123  39.1306  36.5172  11.956
  13785.410  13785.380  0.500  0.068572  39.0893  36.4987  11.9576
  13789.155  13789.120  0.500  0.068128  39.0601  36.4876  11.9639
  13792.901  13792.890  0.500  0.067580  39.0211  36.4712  11.9699
  13796.683  13796.680  0.500  0.067131  38.9892  36.4577  11.9717
  13800.509  13800.480  0.500  0.066603  38.9486  36.439  11.976
  13804.337  13804.310  0.500  0.065994  38.9157  36.4304  11.9816
  13808.191  13808.150  0.500  0.065529  38.8819  36.4157  11.9871
  13812.048  13812.010  0.500  0.065053  38.847  36.4004  11.9885
  13815.908  13815.890  0.500  0.064487  38.7845  36.3624  11.984
  13819.836  13819.790  0.500  0.063979  38.7725  36.3696  11.9974
  13823.758  13823.710  0.500  0.063564  38.7429  36.3569  12.0021
  13827.657  13827.650  0.500  0.062988  38.6958  36.3336  12.0028
  13831.667  13831.610  0.500  0.062492  38.6574  36.3156  12.0043
  13835.629  13835.580  0.500  0.061894  38.6095  36.2923  12.0064
  13839.611  13839.580  0.500  0.061459  38.5947  36.2941  12.0176
  13843.644  13843.590  0.500  0.060991  38.5502  36.2692  12.0193
  13847.731  13847.630  0.500  0.060413  38.5063  36.2489  12.0232
  13851.677  13851.680  0.500  0.059928  38.4597  36.2226  12.023
  13855.752  13855.750  0.500  0.059352  38.3858  36.1738  12.0196
  13859.862  13859.840  0.500  0.058888  38.3811  36.1862  12.0351
  13863.984  13863.950  0.500  0.058317  38.3296  36.1583  12.0345
  13868.108  13868.080  0.500  0.057758  38.2824  36.134  12.0364
  13872.259  13872.230  0.500  0.057186  38.2132  36.0892  12.0324
  13876.413  13876.390  0.500  0.056770  38.1532  36.0475  12.0312
  13880.603  13880.580  0.500  0.056331  38.0404  35.9567  12.0089
  13884.813  13884.780  0.500  0.055888  37.9645  35.901  11.9989
  13889.042  13889.010  0.500  0.055336  37.8521  35.8144  11.9789
  13893.274  13893.250  0.500  0.054708  37.7381  35.729  11.9595
  13897.550  13897.510  0.500  0.054179  37.6501  35.6645  11.9463
  13901.838  13901.790  0.500  0.053662  37.6518  35.6845  11.9616
  13906.119  13906.090  0.500  0.053055  37.6573  35.7114  11.9776
  13910.429  13910.410  0.500  0.052538  37.5894  35.6655  11.9712
  13914.775  13914.750  0.500  0.051906  37.5873  35.686  11.9882
  13919.150  13919.110  0.500  0.051456  37.4964  35.6158  11.973
  13923.502  13923.490  0.500  0.050927  37.488  35.6267  11.9876
  13927.899  13927.880  0.500  0.050391  37.4631  35.6221  11.9957
  13932.332  13932.300  0.500  0.049838  37.4485  35.6279  12.0087
  13936.744  13936.730  0.500  0.049233  37.4159  35.6184  12.0157
  13941.200  13941.180  0.500  0.048772  37.3807  35.6014  12.0213
  13945.693  13945.650  0.500  0.048238  37.3305  35.5725  12.0237
  13950.172  13950.140  0.500  0.047606  37.2942  35.5604  12.0284
  13954.688  13954.650  0.500  0.047008  37.2527  35.5421  12.0318
  13959.199  13959.180  0.500  0.046521  37.1979  35.507  12.0292
  13963.755  13963.730  0.500  0.045871  37.1377  35.4727  12.0284
  13968.331  13968.300  0.500  0.045359  37.0457  35.4029  12.0137
  13972.893  13972.880  0.500  0.044853  35.4348  33.8805  11.5071
  13977.510  13977.490  0.500  0.044285  37.0192  35.4156  12.0396
  13982.172  13982.110  0.500  0.043698  37.0702  35.4852  12.0728
  13986.786  13986.760  0.500  0.042933  37.0274  35.4714  12.077
  13991.437  13991.420  0.500  0.042394  36.983  35.4479  12.0797
  13996.134  13996.100  0.500  0.041956  36.9386  35.4209  12.0825
  14000.852  14000.800  0.500  0.041292  36.8932  35.4008  12.0851
  14005.555  14005.520  0.500  0.040673  36.8504  35.3817  12.0906
  14010.279  14010.260  0.500  0.040101  36.8118  35.3648  12.0952
  14015.075  14015.010  0.500  0.039528  36.7662  35.3413  12.0991
  14019.840  14019.790  0.500  0.038980  36.7239  35.3199  12.1031
  14024.616  14024.590  0.500  0.038414  36.6736  35.2915  12.1053
  14029.439  14029.400  0.500  0.037645  36.6326  35.2792  12.1126
  14034.265  14034.230  0.500  0.037228  36.5937  35.2564  12.1166
  14039.104  14039.090  0.500  0.036616  36.5481  35.2341  12.1198
  14043.971  14043.960  0.500  0.035990  36.5043  35.2139  12.1241
  14048.877  14048.850  0.500  0.035483  36.4637  35.1926  12.1266
  14053.785  14053.760  0.500  0.034795  36.4131  35.1679  12.1301
  14058.715  14058.690  0.500  0.034175  36.3603  35.1387  12.1318