File: xdidata/Bi/Bi-L3-BismuthOxide.xdi
# XDI/1.0 BlueSky/1.10.0 BMM/2023-1.0-py310-tiled
# Beamline.name: BMM (06BM) -- Beamline for Materials Measurement (NIST)
# Beamline.xray_source: NSLS-II three-pole wiggler
# Beamline.collimation: paraboloid mirror, 5 nm Rh on 30 nm Pt
# Beamline.focusing: not in use
# Beamline.harmonic_rejection: flat mirror, Pt stripe, pitch = 7.0 mrad relative to beam
# Beamline.software: Bluesky 1.10.0, Ophyd 1.7.0, DataBroker 2.0.0b13, Python 3.10.8, 2023-1.0-py310-tiled
# Detector.I0: 10 cm N2
# Detector.I1: 25 cm N2
# Detector.I2: 25 cm N2
# Element.symbol: Bi
# Element.edge: L3
# Element.reference: Bi
# Element.reference_material: BiO2
# Facility.name: NSLS-II
# Facility.energy: 3.0
# Facility.current: 399.2
# Facility.mode: top-off
# Facility.GUP: 301027
# Facility.SAF: 310583
# Facility.cycle: 2023-2
# Mono.name: Si(111)
# Mono.d_spacing: 3.13519
# Mono.encoder_resolution: 0.0000050 deg/ct
# Mono.angle_offset: 16.0754 deg
# Mono.scan_mode: pseudo channel cut
# Mono.scan_type: step
# Mono.direction: forward in energy
# Sample.name: BiO2
# Sample.prep: powder on tape
# Sample.x: 109.138 mm
# Sample.y: 153.150 mm
# Sample.SDD_position: 205.000 mm
# Scan.experimenters: Bruce Ravel
# Scan.edge_energy: 13418.6
# Scan.start_time: 2023-05-28T20:33:55
# Scan.end_time: 2023-05-28T20:41:37
# Scan.transient_id: 78994
# Scan.uid: c397426a-9ce3-438d-89a4-edf12d9f0932
# Scan.plot_hint: ln(It/Ir)  --  ln($6/$7)
# Column.1: energy eV
# Column.2: requested_energy eV
# Column.3: measurement_time seconds
# Column.4: xmu
# Column.5: I0 nA
# Column.6: It nA
# Column.7: Ir nA
# ///////////
# Welcome to BMM
# -----------
# energy  requested_energy  measurement_time  xmu  I0  It  Ir
  13218.613  13218.600  0.500  0.702281  45.2171  79.4872  39.3823
  13228.655  13228.600  0.500  0.700779  45.1817  79.4544  39.4252
  13238.651  13238.600  0.500  0.699282  45.1158  79.3511  39.4329
  13248.671  13248.600  0.500  0.697740  44.9925  79.148  39.3927
  13258.675  13258.600  0.500  0.696294  44.8495  78.9237  39.3379
  13268.701  13268.600  0.500  0.694912  44.6191  78.5327  39.1971
  13278.621  13278.600  0.500  0.693439  44.0656  77.5688  38.7731
  13288.624  13288.600  0.500  0.692050  43.8735  77.2489  38.6669
  13298.604  13298.600  0.500  0.690701  43.7991  77.1381  38.6635
  13308.630  13308.600  0.500  0.689277  43.691  76.9685  38.6335
  13318.625  13318.600  0.500  0.688015  43.6127  76.8489  38.6221
  13328.628  13328.600  0.500  0.686785  43.4233  76.5314  38.5099
  13338.638  13338.600  0.500  0.685588  43.3882  76.4867  38.5336
  13348.578  13348.600  0.500  0.684554  43.3104  76.3665  38.5128
  13358.587  13358.600  0.500  0.683755  43.2054  76.1989  38.459
  13368.595  13368.600  0.500  0.683097  43.0937  76.0186  38.3933
  13378.596  13378.600  0.500  0.682974  42.9858  75.845  38.3102
  13388.604  13388.600  0.500  0.683629  42.8863  75.692  38.2079
  13390.529  13390.600  0.500  0.683871  42.862  75.6503  38.1777
  13392.548  13392.600  0.500  0.684307  42.843  75.6156  38.1435
  13394.529  13394.600  0.500  0.684703  42.814  75.5633  38.1021
  13396.519  13396.600  0.500  0.685256  42.7928  75.5327  38.0655
  13398.540  13398.600  0.500  0.686063  42.7758  75.5022  38.0194
  13400.547  13400.600  0.500  0.686965  42.7555  75.4748  37.9714
  13402.538  13402.600  0.500  0.688001  42.7353  75.4412  37.9152
  13404.530  13404.600  0.500  0.689448  42.7124  75.4061  37.8428
  13406.530  13406.600  0.500  0.691124  42.6811  75.3524  37.7525
  13408.539  13408.600  0.500  0.693553  42.6808  75.3613  37.6653
  13408.830  13408.900  0.500  0.693838  42.6779  75.3552  37.6516
  13409.120  13409.200  0.500  0.694247  42.6743  75.3542  37.6357
  13409.426  13409.500  0.500  0.694568  42.6707  75.3393  37.6161
  13409.740  13409.800  0.500  0.695131  42.6656  75.3375  37.5941
  13410.030  13410.100  0.500  0.695622  42.6634  75.3331  37.5734
  13410.337  13410.400  0.500  0.696114  42.6583  75.3255  37.5512
  13410.643  13410.700  0.500  0.696524  42.6541  75.3158  37.531
  13410.957  13411.000  0.500  0.697107  42.6535  75.3062  37.5043
  13411.263  13411.300  0.500  0.697632  42.6505  75.3039  37.4835
  13411.553  13411.600  0.500  0.698138  42.6386  75.2926  37.4589
  13411.844  13411.900  0.500  0.698716  42.6347  75.2771  37.4295
  13412.150  13412.200  0.500  0.699535  42.633  75.286  37.4033
  13412.480  13412.500  0.500  0.700137  42.6344  75.2806  37.3781
  13412.755  13412.800  0.500  0.700839  42.6307  75.2766  37.3499
  13413.053  13413.100  0.500  0.701628  42.6307  75.2636  37.314
  13413.352  13413.400  0.500  0.702317  42.6229  75.2607  37.2869
  13413.674  13413.700  0.500  0.703219  42.6192  75.2523  37.2491
  13413.964  13414.000  0.500  0.704196  42.6123  75.2458  37.2095
  13414.263  13414.300  0.500  0.705042  42.6045  75.2349  37.1726
  13414.561  13414.600  0.500  0.706062  42.6004  75.2237  37.1292
  13414.876  13414.900  0.500  0.707194  42.602  75.2274  37.089
  13415.174  13415.200  0.500  0.708281  42.6003  75.2189  37.0445
  13415.465  13415.500  0.500  0.709509  42.5958  75.2196  36.9995
  13415.763  13415.800  0.500  0.710601  42.5874  75.2004  36.9496
  13416.062  13416.100  0.500  0.712019  42.5888  75.2051  36.8996
  13416.368  13416.400  0.500  0.713450  42.5835  75.1992  36.8439
  13416.683  13416.700  0.500  0.715080  42.5741  75.1806  36.7748
  13416.973  13417.000  0.500  0.716684  42.5831  75.199  36.7248
  13417.264  13417.300  0.500  0.718349  42.5769  75.1826  36.6558
  13417.563  13417.600  0.500  0.720241  42.5701  75.1773  36.5839
  13417.869  13417.900  0.500  0.722400  42.5626  75.1765  36.5046
  13418.176  13418.200  0.500  0.724638  42.5633  75.1702  36.4199
  13418.467  13418.500  0.500  0.727006  42.5571  75.1541  36.326
  13418.765  13418.800  0.500  0.729669  42.5505  75.1468  36.2259
  13419.072  13419.100  0.500  0.732575  42.547  75.1429  36.1189
  13419.386  13419.400  0.500  0.735806  42.5387  75.1292  35.9958
  13419.669  13419.700  0.500  0.739179  42.539  75.1298  35.8749
  13419.960  13420.000  0.500  0.742773  42.5339  75.1192  35.7412
  13420.275  13420.300  0.500  0.746861  42.5343  75.1131  35.5925
  13420.573  13420.600  0.500  0.751325  42.5294  75.1056  35.4304
  13420.888  13420.900  0.500  0.756132  42.522  75.104  35.2597
  13421.179  13421.200  0.500  0.760907  42.5195  75.0991  35.0895
  13421.478  13421.500  0.500  0.765980  42.5122  75.0824  34.9042
  13421.792  13421.800  0.500  0.771350  42.5087  75.0777  34.7151
  13422.099  13422.100  0.500  0.776839  42.5032  75.0684  34.5207
  13422.390  13422.400  0.500  0.782175  42.5028  75.0726  34.339
  13422.689  13422.700  0.500  0.787538  42.4904  75.0512  34.1455
  13422.987  13423.000  0.500  0.792713  42.4919  75.0452  33.9666
  13423.294  13423.300  0.500  0.798302  42.4882  75.0367  33.7735
  13423.609  13423.600  0.500  0.803737  42.4822  75.0269  33.586
  13423.892  13423.900  0.500  0.808712  42.4805  75.0169  33.4149
  13424.199  13424.200  0.500  0.813816  42.4724  75.0131  33.2431
  13424.506  13424.500  0.500  0.819120  42.4728  75.0099  33.0658
  13424.820  13424.800  0.500  0.824361  42.4638  75.0052  32.8909
  13425.119  13425.100  0.500  0.829432  42.4602  75.0001  32.7223
  13425.387  13425.400  0.500  0.834419  42.4526  74.9914  32.5558
  13425.694  13425.700  0.500  0.839719  42.4493  74.978  32.3779
  13425.993  13426.000  0.500  0.845332  42.4474  74.971  32.1937
  13426.315  13426.300  0.500  0.851762  42.4368  74.9628  31.9838
  13426.599  13426.600  0.500  0.858001  42.4312  74.948  31.7786
  13426.898  13426.900  0.500  0.864775  42.421  74.9332  31.5578
  13427.189  13427.200  0.500  0.872085  42.4156  74.9265  31.3252
  13427.511  13427.500  0.500  0.880999  42.4023  74.8988  31.0357
  13427.818  13427.800  0.500  0.889870  42.3864  74.8751  30.7519
  13428.102  13428.100  0.500  0.898698  42.3696  74.8381  30.4665
  13428.401  13428.400  0.500  0.909129  42.3599  74.823  30.1443
  13428.692  13428.700  0.500  0.919645  42.3357  74.79  29.8158
  13428.991  13429.000  0.500  0.930898  42.3318  74.7818  29.479
  13429.298  13429.300  0.500  0.942646  42.331  74.7845  29.1357
  13429.582  13429.600  0.500  0.954484  42.3301  74.7759  28.7895
  13429.897  13429.900  0.500  0.967108  42.3288  74.7751  28.4281
  13430.196  13430.200  0.500  0.980085  42.3388  74.787  28.066
  13430.503  13430.500  0.500  0.992421  42.3469  74.8014  27.7273
  13430.810  13430.800  0.500  1.004271  42.3485  74.8074  27.4028
  13431.078  13431.100  0.500  1.015088  42.3516  74.8129  27.11
  13431.393  13431.400  0.500  1.026920  42.3552  74.8217  26.7943
  13431.708  13431.700  0.500  1.037829  42.3547  74.8229  26.504
  13431.991  13432.000  0.500  1.047712  42.3465  74.809  26.2385
  13432.275  13432.300  0.500  1.057126  42.3446  74.7984  25.9889
  13432.574  13432.600  0.500  1.066363  42.3318  74.7896  25.7469
  13432.897  13432.900  0.500  1.075498  42.3336  74.7862  25.5117
  13433.196  13433.200  0.500  1.083965  42.3282  74.7793  25.2942
  13433.488  13433.500  0.500  1.091507  42.3168  74.7638  25.099
  13433.779  13433.800  0.500  1.098729  42.3202  74.771  24.9208
  13434.087  13434.100  0.500  1.106212  42.3151  74.7573  24.7304
  13434.394  13434.400  0.500  1.113282  42.3112  74.7535  24.555
  13434.678  13434.700  0.500  1.119914  42.3098  74.7496  24.3914
  13434.977  13435.000  0.500  1.126322  42.3023  74.737  24.2315
  13435.284  13435.300  0.500  1.132614  42.2995  74.7329  24.0782
  13435.599  13435.600  0.500  1.139159  42.2923  74.7247  23.9185
  13435.891  13435.900  0.500  1.144892  42.289  74.7093  23.7768
  13436.190  13436.200  0.500  1.150786  42.281  74.7024  23.6349
  13436.490  13436.500  0.500  1.156254  42.2759  74.6934  23.5032
  13436.805  13436.800  0.500  1.161871  42.2715  74.6902  23.3706
  13437.097  13437.100  0.500  1.167600  42.2708  74.6874  23.2362
  13437.388  13437.400  0.500  1.172445  42.2703  74.6791  23.1213
  13437.688  13437.700  0.500  1.177286  42.2648  74.669  23.0066
  13437.995  13438.000  0.500  1.182444  42.2556  74.6584  22.8849
  13438.311  13438.300  0.500  1.187220  42.2554  74.66  22.7764
  13438.610  13438.600  0.500  1.191504  42.2511  74.653  22.6769
  13438.910  13438.900  0.500  1.195574  42.2433  74.646  22.5827
  13439.202  13439.200  0.500  1.199400  42.2377  74.6336  22.4927
  13439.517  13439.500  0.500  1.203447  42.2346  74.6266  22.3998
  13439.801  13439.800  0.500  1.206679  42.2328  74.6225  22.3263
  13440.093  13440.100  0.500  1.209872  42.2315  74.616  22.2532
  13440.408  13440.400  0.500  1.213178  42.2235  74.609  22.1776
  13440.716  13440.700  0.500  1.216105  42.2199  74.6031  22.111
  13441.007  13441.000  0.500  1.218731  42.2131  74.5964  22.0511
  13441.299  13441.300  0.500  1.221244  42.205  74.5775  21.9901
  13441.607  13441.600  0.500  1.224009  42.2024  74.5783  21.9297
  13441.914  13441.900  0.500  1.226494  42.2023  74.5771  21.8749
  13442.206  13442.200  0.500  1.228569  42.1998  74.5689  21.8271
  13442.490  13442.500  0.500  1.230761  42.1915  74.5602  21.7768
  13442.806  13442.800  0.500  1.233143  42.1962  74.5599  21.7249
  13443.113  13443.100  0.500  1.235270  42.1863  74.5521  21.6765
  13443.390  13443.400  0.500  1.237092  42.1855  74.5465  21.6354
  13443.595  13443.600  0.500  1.238561  42.181  74.5322  21.5995
  13444.589  13444.590  0.500  1.244808  42.1689  74.5228  21.4623
  13445.575  13445.590  0.500  1.249487  42.1533  74.5028  21.3564
  13446.609  13446.610  0.500  1.251783  42.1451  74.4783  21.3004
  13447.659  13447.660  0.500  1.251074  42.1281  74.4501  21.3074
  13448.733  13448.720  0.500  1.247459  42.1831  74.5473  21.4125
  13449.815  13449.800  0.500  1.241439  42.2266  74.6246  21.5641
  13450.920  13450.900  0.500  1.234225  42.2135  74.6085  21.7156
  13452.034  13452.020  0.500  1.226133  42.2232  74.6272  21.8975
  13453.164  13453.160  0.500  1.218278  42.2175  74.6146  22.0664
  13454.317  13454.310  0.500  1.210830  42.2083  74.5972  22.2262
  13455.487  13455.490  0.500  1.204341  42.2029  74.5939  22.3699
  13456.689  13456.680  0.500  1.199537  42.1886  74.5704  22.4706
  13457.898  13457.900  0.500  1.196001  42.1706  74.5487  22.5436
  13459.140  13459.130  0.500  1.193975  42.1617  74.5317  22.5842
  13460.381  13460.380  0.500  1.192864  42.1463  74.495  22.5981
  13461.663  13461.650  0.500  1.192839  42.134  74.4879  22.5966
  13462.952  13462.940  0.500  1.192790  42.1182  74.4578  22.5885
  13464.290  13464.250  0.500  1.193011  42.1042  74.4319  22.5757
  13465.619  13465.580  0.500  1.193138  42.0904  74.4094  22.566
  13466.949  13466.930  0.500  1.193218  42.0679  74.3691  22.552
  13468.303  13468.300  0.500  1.193431  42.0568  74.3586  22.544
  13469.674  13469.680  0.500  1.193355  42.03  74.3117  22.5315
  13471.092  13471.090  0.500  1.193233  41.978  74.2251  22.508
  13472.534  13472.510  0.500  1.192968  41.9977  74.2703  22.5276
  13473.960  13473.950  0.500  1.192610  41.9941  74.2554  22.5312
  13475.419  13475.410  0.500  1.192226  41.9842  74.2368  22.5342
  13476.933  13476.890  0.500  1.191962  41.9448  74.168  22.5193
  13478.400  13478.390  0.500  1.192070  41.8997  74.0929  22.494
  13479.907  13479.910  0.500  1.192256  41.8985  74.0919  22.4895
  13481.462  13481.450  0.500  1.193182  41.647  73.6511  22.3351
  13483.009  13483.010  0.500  1.194836  41.7129  73.7728  22.335
  13484.597  13484.580  0.500  1.197124  41.8582  74.0256  22.3603
  13486.193  13486.180  0.500  1.200270  41.8709  74.0576  22.2997
  13487.821  13487.790  0.500  1.203490  41.8794  74.0656  22.2304
  13489.457  13489.430  0.500  1.206823  41.8554  74.0371  22.1479
  13491.102  13491.080  0.500  1.209878  41.8305  73.987  22.0654
  13492.762  13492.750  0.500  1.212142  41.7617  73.8785  21.9832
  13494.448  13494.440  0.500  1.213647  41.7892  73.9283  21.965
  13496.157  13496.150  0.500  1.214526  41.7817  73.9156  21.9419
  13497.891  13497.880  0.500  1.214719  41.7577  73.8769  21.9262
  13499.649  13499.630  0.500  1.214545  41.7153  73.8036  21.9082
  13501.432  13501.390  0.500  1.213815  41.7193  73.8158  21.9279
  13503.191  13503.180  0.500  1.212468  41.7039  73.7839  21.9479
  13504.998  13504.980  0.500  1.210861  41.6781  73.7453  21.9717
  13506.806  13506.810  0.500  1.209185  41.6638  73.7201  22.001
  13508.662  13508.650  0.500  1.207444  41.6333  73.671  22.0247
  13510.534  13510.510  0.500  1.205773  41.6078  73.6317  22.0498
  13512.399  13512.390  0.500  1.204318  41.5925  73.6038  22.0735
  13514.305  13514.290  0.500  1.203143  41.5668  73.5666  22.0883
  13516.235  13516.210  0.500  1.201647  41.538  73.517  22.1065
  13518.149  13518.150  0.500  1.200201  41.5205  73.4871  22.1295
  13520.096  13520.110  0.500  1.199010  41.4976  73.4465  22.1436
  13522.092  13522.080  0.500  1.197653  41.4685  73.4065  22.1616
  13524.112  13524.080  0.500  1.196242  41.4377  73.3531  22.1767
  13526.116  13526.090  0.500  1.195210  41.4143  73.3127  22.1874
  13528.145  13528.120  0.500  1.194033  41.3755  73.2483  22.194
  13530.183  13530.180  0.500  1.192912  41.3603  73.2269  22.2124
  13532.246  13532.250  0.500  1.191960  41.3468  73.2054  22.2271
  13534.357  13534.340  0.500  1.190882  41.2964  73.1239  22.2262
  13536.493  13536.450  0.500  1.190215  41.1996  72.9593  22.191
  13538.605  13538.580  0.500  1.189600  40.4513  71.6302  21.8001
  13540.750  13540.720  0.500  1.189105  40.9881  72.579  22.0998
  13542.904  13542.890  0.500  1.188912  41.2764  73.0911  22.2601
  13545.082  13545.080  0.500  1.188876  41.2585  73.0646  22.2528
  13547.278  13547.280  0.500  1.189006  41.2297  73.0236  22.2374
  13549.530  13549.500  0.500  1.189306  41.2  72.9661  22.2132
  13551.774  13551.750  0.500  1.189699  41.1611  72.9016  22.1849
  13554.020  13554.010  0.500  1.189961  41.1124  72.8199  22.1542
  13556.298  13556.290  0.500  1.190273  40.8481  72.3596  22.0073
  13558.610  13558.590  0.500  1.190872  40.6572  72.0271  21.8931
  13560.938  13560.910  0.500  1.190971  41.0873  72.7774  22.1189
  13563.283  13563.250  0.500  1.191335  41.0627  72.7467  22.1016
  13565.621  13565.600  0.500  1.191259  40.9286  72.5131  22.0323
  13567.991  13567.980  0.500  1.191185  40.8981  72.4611  22.0181
  13570.379  13570.370  0.500  1.190882  40.9765  72.6015  22.0674
  13572.800  13572.790  0.500  1.190537  40.9029  72.483  22.039
  13575.229  13575.220  0.500  1.189983  40.2976  71.4167  21.7268
  13577.692  13577.670  0.500  1.189486  40.8355  72.371  22.0281
  13580.180  13580.150  0.500  1.189291  40.8986  72.4871  22.0678
  13582.652  13582.640  0.500  1.188778  40.8695  72.434  22.0629
  13585.174  13585.150  0.500  1.188440  40.8311  72.3695  22.0507
  13587.697  13587.670  0.500  1.188040  40.7983  72.3154  22.043
  13590.253  13590.220  0.500  1.187663  40.74  72.2266  22.0243
  13592.802  13592.790  0.500  1.187212  40.4356  71.6884  21.87
  13595.368  13595.370  0.500  1.186704  40.0029  70.9143  21.6449
  13598.024  13597.980  0.500  1.186072  40.6845  72.1277  22.0291
  13600.624  13600.600  0.500  1.185192  40.6917  72.1503  22.0554
  13603.258  13603.250  0.500  1.184190  40.6521  72.0798  22.056
  13605.917  13605.910  0.500  1.183122  40.6079  72.0157  22.0599
  13608.585  13608.590  0.500  1.181768  40.5906  71.9813  22.0792
  13611.335  13611.290  0.500  1.180458  40.563  71.9376  22.0948
  13614.021  13614.010  0.500  1.179395  40.5158  71.8517  22.0919
  13616.765  13616.750  0.500  1.178174  40.5076  71.851  22.1186
  13619.502  13619.500  0.500  1.177100  40.48  71.7986  22.1263
  13622.322  13622.280  0.500  1.176213  40.434  71.7231  22.1226
  13625.094  13625.070  0.500  1.175325  40.4279  71.7086  22.1378
  13627.899  13627.890  0.500  1.174824  40.3974  71.6691  22.1367
  13630.722  13630.720  0.500  1.174481  40.3365  71.5697  22.1136
  13633.594  13633.570  0.500  1.174406  40.3381  71.571  22.1156
  13636.485  13636.450  0.500  1.174484  40.3047  71.5136  22.0962
  13639.376  13639.340  0.500  1.174742  40.2726  71.4641  22.0752
  13642.252  13642.250  0.500  1.175046  40.2481  71.4187  22.0544
  13645.195  13645.170  0.500  1.175339  40.2062  71.3511  22.0271
  13648.147  13648.120  0.500  1.175277  40.1717  71.2976  22.012
  13651.109  13651.090  0.500  1.175326  40.0903  71.1523  21.966
  13654.071  13654.070  0.500  1.175259  39.9704  70.9457  21.9037
  13657.109  13657.080  0.500  1.174782  40.1067  71.1886  21.9892
  13660.131  13660.100  0.500  1.174260  40.0658  71.1205  21.9796
  13663.163  13663.150  0.500  1.173565  40.0378  71.0768  21.9814
  13666.205  13666.210  0.500  1.172811  40.0004  71.0164  21.9793
  13669.305  13669.290  0.500  1.172260  39.9637  70.9541  21.9721
  13672.414  13672.390  0.500  1.171498  39.9368  70.9173  21.9775
  13675.534  13675.510  0.500  1.170766  39.9059  70.8652  21.9774
  13678.662  13678.650  0.500  1.170207  39.8667  70.8042  21.9707
  13681.833  13681.800  0.500  1.169660  39.8342  70.7394  21.9627
  13685.006  13684.980  0.500  1.169400  39.8016  70.6844  21.9513
  13688.188  13688.170  0.500  1.168913  39.7649  70.6255  21.9436
  13691.405  13691.390  0.500  1.168610  39.7319  70.5765  21.9351
  13694.647  13694.620  0.500  1.168230  39.698  70.5161  21.9246
  13697.883  13697.870  0.500  1.168002  39.6671  70.4719  21.9159
  13701.137  13701.150  0.500  1.167539  39.6264  70.395  21.9021
  13704.475  13704.440  0.500  1.167009  39.5854  70.3316  21.894
  13707.773  13707.750  0.500  1.166212  39.5647  70.3017  21.9021
  13711.081  13711.070  0.500  1.165490  39.546  70.27  21.9081
  13714.439  13714.420  0.500  1.164507  39.5068  70.206  21.9096
  13717.792  13717.790  0.500  1.163315  39.4739  70.1521  21.9189
  13721.187  13721.170  0.500  1.162316  39.4388  70.0945  21.9228
  13724.592  13724.580  0.500  1.161258  39.4051  70.0374  21.9282
  13728.031  13728.000  0.500  1.160295  39.3648  69.9837  21.9325
  13731.481  13731.450  0.500  1.159457  39.3246  69.9134  21.9288
  13734.907  13734.910  0.500  1.158706  39.2899  69.8542  21.9267
  13738.410  13738.390  0.500  1.157907  39.2587  69.799  21.9269
  13741.906  13741.890  0.500  1.157424  39.2248  69.7495  21.9219
  13745.412  13745.410  0.500  1.156836  39.1832  69.6817  21.9135
  13748.953  13748.950  0.500  1.156483  39.1501  69.6286  21.9045
  13752.537  13752.500  0.500  1.155749  39.1056  69.55  21.8959
  13756.098  13756.080  0.500  1.155291  39.0748  69.4957  21.8888
  13759.686  13759.680  0.500  1.154882  39.0354  69.437  21.8792
  13763.317  13763.290  0.500  1.154377  39.0059  69.3911  21.8758
  13766.934  13766.920  0.500  1.153883  38.9695  69.3287  21.8669
  13770.585  13770.580  0.500  1.153387  38.919  69.2464  21.8518
  13774.272  13774.250  0.500  1.152769  38.8877  69.2009  21.8509
  13777.969  13777.940  0.500  1.152100  38.8514  69.1298  21.8431
  13781.651  13781.650  0.500  1.151305  38.8086  69.0691  21.8413
  13785.419  13785.380  0.500  1.150352  38.7646  68.9862  21.8359
  13789.155  13789.120  0.500  1.149588  38.7304  68.9359  21.8366
  13792.910  13792.890  0.500  1.148751  38.6828  68.8528  21.8286
  13796.692  13796.680  0.500  1.148128  38.6395  68.7901  21.8223
  13800.525  13800.480  0.500  1.147201  38.6048  68.7196  21.8201
  13804.328  13804.310  0.500  1.146469  38.5682  68.6638  21.8184
  13808.191  13808.150  0.500  1.145745  38.5303  68.6039  21.8151
  13812.048  13812.010  0.500  1.145018  38.4877  68.5383  21.8101
  13815.908  13815.890  0.500  1.144244  38.4169  68.4149  21.7877
  13819.811  13819.790  0.500  1.143308  38.4032  68.3865  21.7991
  13823.749  13823.710  0.500  1.142668  38.3645  68.3315  21.7955
  13827.674  13827.650  0.500  1.141905  38.3163  68.2439  21.7842
  13831.634  13831.610  0.500  1.141195  38.2799  68.1914  21.7829
  13835.604  13835.580  0.500  1.140387  38.223  68.0909  21.7683
  13839.627  13839.580  0.500  1.139579  38.1964  68.0515  21.7733
  13843.628  13843.590  0.500  1.138887  38.1445  67.9621  21.7598
  13847.672  13847.630  0.500  1.137760  38.0952  67.8818  21.7586
  13851.703  13851.680  0.500  1.136971  38.0473  67.8021  21.7502
  13855.777  13855.750  0.500  1.135973  37.974  67.6745  21.7309
  13859.871  13859.840  0.500  1.134912  37.9587  67.649  21.7458
  13863.967  13863.950  0.500  1.134127  37.913  67.5795  21.7405
  13868.108  13868.080  0.500  1.133119  37.8607  67.4885  21.7331
  13872.276  13872.230  0.500  1.132311  37.7768  67.3458  21.7047
  13876.421  13876.390  0.500  1.131307  37.7305  67.263  21.6998
  13880.595  13880.580  0.500  1.130498  37.5899  67.0146  21.6372
  13884.830  13884.780  0.500  1.129754  37.6217  67.0842  21.6758
  13889.025  13889.010  0.500  1.128912  37.514  66.8947  21.6327
  13893.274  13893.250  0.500  1.128276  37.406  66.7126  21.5876
  13897.542  13897.510  0.500  1.127549  37.3347  66.591  21.5639
  13901.821  13901.790  0.500  1.126861  37.3239  66.5742  21.5733
  13906.128  13906.090  0.500  1.126041  37.3227  66.5743  21.591
  13910.471  13910.410  0.500  1.125387  37.2502  66.4562  21.5668
  13914.759  13914.750  0.500  1.124683  37.2325  66.4299  21.5735
  13919.141  13919.110  0.500  1.123689  37.1321  66.2484  21.5359
  13923.519  13923.490  0.500  1.122869  37.136  66.2639  21.5586
  13927.916  13927.880  0.500  1.122006  37.1024  66.2149  21.5613
  13932.349  13932.300  0.500  1.121071  37.0925  66.2014  21.5771
  13936.777  13936.730  0.500  1.120223  37.0577  66.1419  21.576
  13941.200  13941.180  0.500  1.119351  37.0024  66.0489  21.5644
  13945.685  13945.650  0.500  1.118361  36.9494  65.9619  21.5573
  13950.172  13950.140  0.500  1.117546  36.9218  65.9138  21.5592
  13954.688  13954.650  0.500  1.116612  36.861  65.8208  21.5489
  13959.233  13959.180  0.500  1.115687  36.799  65.7091  21.5322
  13963.798  13963.730  0.500  1.114908  36.7237  65.586  21.5086
  13968.306  13968.300  0.500  1.114092  36.6015  65.3686  21.4548
  13972.936  13972.880  0.500  1.112953  34.5247  61.6643  20.2621
  13977.552  13977.490  0.500  1.112251  36.6865  65.5298  21.5474
  13982.146  13982.110  0.500  1.111513  36.6768  65.522  21.5607
  13986.811  13986.760  0.500  1.110553  36.6369  65.4554  21.5595
  13991.488  13991.420  0.500  1.109676  36.58  65.3627  21.5478
  13996.134  13996.100  0.500  1.108802  36.5328  65.2836  21.5406
  14000.860  14000.800  0.500  1.107927  36.4814  65.1971  21.5309
  14005.589  14005.520  0.500  1.106871  36.4304  65.1113  21.5253
  14010.305  14010.260  0.500  1.106038  36.3863  65.0422  21.5203
  14015.066  14015.010  0.500  1.104955  36.3385  64.9573  21.5155
  14019.900  14019.790  0.500  1.103961  36.2789  64.8618  21.5053
  14024.573  14024.590  0.500  1.102859  36.2323  64.7779  21.5011
  14029.379  14029.400  0.500  1.101907  36.1808  64.6921  21.4931
  14034.222  14034.230  0.500  1.100968  36.1358  64.6181  21.4887
  14039.078  14039.090  0.500  1.100110  36.0866  64.5344  21.4793
  14043.945  14043.960  0.500  1.099066  36.043  64.4587  21.4765
  14048.851  14048.850  0.500  1.098261  35.985  64.362  21.4615
  14053.777  14053.760  0.500  1.097375  35.9276  64.2603  21.4466
  14058.689  14058.690  0.500  1.096511  35.8805  64.1841  21.4397
  14063.648  14063.630  0.500  1.095516  35.8139  64.0755  21.4247
  14068.645  14068.600  0.500  1.094567  35.6789  63.8384  21.3657
  14073.603  14073.590  0.500  1.093728  33.1691  59.3551  19.8819
  14078.607  14078.590  0.500  1.092743  35.7367  63.9477  21.4414
  14083.658  14083.620  0.500  1.091808  35.5635  63.6509  21.3618
  14088.695  14088.660  0.500  1.090768  35.6365  63.78  21.4274
  14093.763  14093.720  0.500  1.089881  35.587  63.7085  21.4224
  14098.816  14098.800  0.500  1.088723  35.5094  63.5716  21.4011
  14103.925  14103.900  0.500  1.087800  35.4358  63.4445  21.3781
  14109.047  14109.020  0.500  1.086706  35.2714  63.1581  21.3048
  14114.199  14114.160  0.500  1.085698  35.2803  63.1769  21.3327
  14119.363  14119.320  0.500  1.084304  33.4271  59.8623  20.2417
  14124.505  14124.500  0.500  1.083529  35.3583  63.3264  21.4296
  14129.738  14129.690  0.500  1.082566  35.2711  63.18  21.4007
  14134.957  14134.910  0.500  1.081600  35.2204  63.0916  21.3914
  14140.154  14140.140  0.500  1.080647  35.1712  63.0084  21.3835
  14145.416  14145.390  0.500  1.079618  35.1202  62.9293  21.3787
  14150.699  14150.660  0.500  1.078687  35.0693  62.8419  21.3689
  14155.978  14155.950  0.500  1.077767  34.9571  62.6517  21.3238
  14161.287  14161.260  0.500  1.076647  34.8863  62.5253  21.3046
  14166.626  14166.590  0.500  1.075576  32.7429  58.6892  20.0189
  14171.961  14171.940  0.500  1.074597  34.8636  62.4975  21.3389
  14177.326  14177.310  0.500  1.073633  34.8467  62.4692  21.3498
  14182.722  14182.690  0.500  1.072605  34.7902  62.369  21.3374
  14188.121  14188.100  0.500  1.071547  34.738  62.2847  21.3312
  14193.560  14193.520  0.500  1.070385  34.6785  62.1853  21.3219
  14199.004  14198.970  0.500  1.069475  34.6364  62.1166  21.3177
  14204.451  14204.430  0.500  1.068329  34.5753  62.0166  21.3078
  14209.938  14209.910  0.500  1.067229  34.5233  61.9327  21.3024
  14215.447  14215.410  0.500  1.066208  34.4698  61.8425  21.2931
  14220.934  14220.930  0.500  1.065172  34.4079  61.7361  21.2785
  14226.478  14226.470  0.500  1.064120  34.3584  61.654  21.2726
  14232.035  14232.020  0.500  1.062905  34.3036  61.5582  21.2653
  14237.597  14237.600  0.500  1.062015  34.2531  61.4726  21.2547
  14243.225  14243.200  0.500  1.060926  34.1892  61.3657  21.2408
  14248.840  14248.810  0.500  1.059854  34.1343  61.27  21.2305
  14254.450  14254.450  0.500  1.058929  34.0628  61.1536  21.2097
  14260.101  14260.100  0.500  1.057810  33.9753  60.9966  21.179
  14265.782  14265.770  0.500  1.056720  33.8178  60.7223  21.1067
  14271.469  14271.460  0.500  1.056004  32.2037  57.8277  20.1149