File: xdidata/Bi/Bi-L3-BismuthMetal.xdi
# XDI/1.0 BlueSky/1.10.0 BMM/2023-1.0-py310-tiled
# Beamline.name: BMM (06BM) -- Beamline for Materials Measurement (NIST)
# Beamline.xray_source: NSLS-II three-pole wiggler
# Beamline.collimation: paraboloid mirror, 5 nm Rh on 30 nm Pt
# Beamline.focusing: not in use
# Beamline.harmonic_rejection: flat mirror, Pt stripe, pitch = 7.0 mrad relative to beam
# Beamline.software: Bluesky 1.10.0, Ophyd 1.7.0, DataBroker 2.0.0b13, Python 3.10.8, 2023-1.0-py310-tiled
# Detector.I0: 10 cm N2
# Detector.I1: 25 cm N2
# Detector.I2: 25 cm N2
# Element.symbol: Bi
# Element.edge: L3
# Element.reference: Bi
# Element.reference_material: BiO2
# Facility.name: NSLS-II
# Facility.energy: 3.0
# Facility.current: 399.8
# Facility.mode: top-off
# Facility.GUP: 301027
# Facility.SAF: 310583
# Facility.cycle: 2023-2
# Mono.name: Si(111)
# Mono.d_spacing: 3.13519
# Mono.encoder_resolution: 0.0000050 deg/ct
# Mono.angle_offset: 16.0754 deg
# Mono.scan_mode: pseudo channel cut
# Mono.scan_type: step
# Mono.direction: forward in energy
# Sample.name: Bi
# Sample.prep: powder in PEG pellet
# Sample.x: 143.785 mm
# Sample.y: 114.695 mm
# Sample.SDD_position: 205.000 mm
# Scan.experimenters: Bruce Ravel
# Scan.edge_energy: 13418.6
# Scan.start_time: 2023-06-23T17:35:02
# Scan.end_time: 2023-06-23T17:42:53
# Scan.transient_id: 84904
# Scan.uid: eec6dd28-c707-4b1f-9133-84df9fd360cf
# Scan.plot_hint: ln(I0/It)  --  ln($5/$6)
# Column.1: energy eV
# Column.2: requested_energy eV
# Column.3: measurement_time seconds
# Column.4: xmu
# Column.5: I0 nA
# Column.6: It nA
# Column.7: Ir nA
# ///////////
# BMM standards collection
# -----------
# energy  requested_energy  measurement_time  xmu  I0  It  Ir
  13218.636  13218.600  0.500  0.329442  45.0046  32.3729  16.4682
  13228.655  13228.600  0.500  0.327706  44.9235  32.3708  16.4853
  13238.667  13238.600  0.500  0.326265  44.8226  32.3446  16.4973
  13248.686  13248.600  0.500  0.324764  44.6946  32.3007  16.4971
  13258.667  13258.600  0.500  0.323324  44.5405  32.2357  16.4881
  13268.694  13268.600  0.500  0.321805  44.3197  32.1247  16.4539
  13278.621  13278.600  0.500  0.320368  43.776  31.7762  16.2958
  13288.616  13288.600  0.500  0.318868  43.5882  31.6874  16.2747
  13298.635  13298.600  0.500  0.317514  43.5243  31.6838  16.2932
  13308.638  13308.600  0.500  0.316061  43.4416  31.6696  16.3076
  13318.656  13318.600  0.500  0.314719  43.3656  31.6566  16.3239
  13328.643  13328.600  0.500  0.313389  43.1875  31.5686  16.2939
  13338.653  13338.600  0.500  0.312170  43.1597  31.5868  16.3246
  13348.632  13348.600  0.500  0.311087  43.0955  31.574  16.3343
  13358.610  13358.600  0.500  0.310234  43.0056  31.5349  16.3258
  13368.642  13368.600  0.500  0.309503  42.8857  31.4701  16.303
  13378.737  13378.600  0.500  0.309076  42.6961  31.3443  16.2382
  13388.565  13388.600  0.500  0.309598  42.7638  31.3776  16.2425
  13390.537  13390.600  0.500  0.309881  42.7504  31.3589  16.2282
  13392.541  13392.600  0.500  0.310175  42.74  31.342  16.2134
  13394.529  13394.600  0.500  0.310751  42.7088  31.3011  16.1866
  13396.542  13396.600  0.500  0.311182  42.6897  31.2737  16.1618
  13398.540  13398.600  0.500  0.311992  42.6693  31.2334  16.1274
  13400.547  13400.600  0.500  0.312983  42.654  31.1913  16.0923
  13402.530  13402.600  0.500  0.314057  42.6346  31.1436  16.0455
  13404.530  13404.600  0.500  0.315467  42.6192  31.0885  15.9989
  13406.538  13406.600  0.500  0.317456  42.5862  31.0027  15.9243
  13408.547  13408.600  0.500  0.319883  42.5879  30.9288  15.8501
  13408.814  13408.900  0.500  0.320224  42.5805  30.9129  15.8376
  13409.136  13409.200  0.500  0.320652  42.5799  30.8992  15.8236
  13409.418  13409.500  0.500  0.321071  42.5757  30.8832  15.808
  13409.724  13409.800  0.500  0.321710  42.5729  30.8614  15.7917
  13410.030  13410.100  0.500  0.322252  42.5682  30.8413  15.771
  13410.329  13410.400  0.500  0.322918  42.5683  30.8208  15.7559
  13410.635  13410.700  0.500  0.323248  42.5632  30.807  15.7386
  13410.925  13411.000  0.500  0.323849  42.5606  30.7866  15.7198
  13411.247  13411.300  0.500  0.324583  42.5521  30.7579  15.6957
  13411.561  13411.600  0.500  0.325193  42.5482  30.7363  15.6763
  13411.875  13411.900  0.500  0.325982  42.546  30.7105  15.6537
  13412.150  13412.200  0.500  0.326582  42.5449  30.6913  15.6329
  13412.449  13412.500  0.500  0.327384  42.5398  30.663  15.6088
  13412.747  13412.800  0.500  0.328338  42.5413  30.6348  15.5821
  13413.053  13413.100  0.500  0.329160  42.5446  30.612  15.5598
  13413.360  13413.400  0.500  0.330157  42.5309  30.5716  15.5272
  13413.650  13413.700  0.500  0.331079  42.5284  30.5417  15.4998
  13413.964  13414.000  0.500  0.332181  42.5277  30.5075  15.4658
  13414.271  13414.300  0.500  0.333360  42.5223  30.4677  15.4312
  13414.577  13414.600  0.500  0.334580  42.5156  30.4258  15.3936
  13414.876  13414.900  0.500  0.335830  42.5142  30.3868  15.3581
  13415.158  13415.200  0.500  0.337227  42.5075  30.3396  15.3194
  13415.457  13415.500  0.500  0.338555  42.502  30.2954  15.2749
  13415.755  13415.800  0.500  0.340230  42.5068  30.2481  15.234
  13416.070  13416.100  0.500  0.341871  42.4993  30.1932  15.1828
  13416.360  13416.400  0.500  0.343750  42.4982  30.1357  15.1355
  13416.659  13416.700  0.500  0.345562  42.4971  30.0804  15.0841
  13416.965  13417.000  0.500  0.347536  42.4933  30.0184  15.0261
  13417.280  13417.300  0.500  0.349834  42.4871  29.9451  14.961
  13417.571  13417.600  0.500  0.352222  42.4793  29.8682  14.895
  13417.869  13417.900  0.500  0.354695  42.4749  29.7914  14.8264
  13418.160  13418.200  0.500  0.357376  42.6005  29.7995  14.7975
  13418.451  13418.500  0.500  0.360405  42.6034  29.7114  14.7159
  13418.773  13418.800  0.500  0.363655  42.5972  29.6106  14.6254
  13419.064  13419.100  0.500  0.367012  42.5925  29.5081  14.5337
  13419.363  13419.400  0.500  0.370820  42.5868  29.3921  14.4316
  13419.669  13419.700  0.500  0.374538  42.5851  29.2818  14.326
  13419.976  13420.000  0.500  0.378657  42.5796  29.1577  14.2096
  13420.282  13420.300  0.500  0.383116  42.5667  29.0191  14.0813
  13420.565  13420.600  0.500  0.387422  42.567  28.8947  13.9666
  13420.864  13420.900  0.500  0.391901  42.561  28.7615  13.8367
  13421.163  13421.200  0.500  0.396306  42.5653  28.638  13.7094
  13421.478  13421.500  0.500  0.401235  42.552  28.4883  13.5623
  13421.768  13421.800  0.500  0.405784  42.5538  28.3602  13.4356
  13422.059  13422.100  0.500  0.410423  42.546  28.2237  13.3001
  13422.390  13422.400  0.500  0.415756  42.5423  28.0711  13.1545
  13422.689  13422.700  0.500  0.420639  42.5435  27.9352  13.0156
  13422.995  13423.000  0.500  0.425552  42.5353  27.793  12.8784
  13423.278  13423.300  0.500  0.430465  42.5324  27.6548  12.7487
  13423.585  13423.600  0.500  0.435527  42.5249  27.5103  12.6174
  13423.900  13423.900  0.500  0.440889  42.5184  27.359  12.4776
  13424.207  13424.200  0.500  0.445760  42.519  27.2265  12.3531
  13424.498  13424.500  0.500  0.450779  42.508  27.0832  12.2273
  13424.789  13424.800  0.500  0.455771  42.5117  26.9507  12.1091
  13425.096  13425.100  0.500  0.460815  42.5179  26.819  11.9858
  13425.403  13425.400  0.500  0.466234  42.501  26.6635  11.8514
  13425.709  13425.700  0.500  0.471705  42.4946  26.514  11.7212
  13426.001  13426.000  0.500  0.476456  42.4913  26.3862  11.5976
  13426.292  13426.300  0.500  0.481360  42.4902  26.2565  11.4743
  13426.599  13426.600  0.500  0.486590  42.4783  26.1122  11.3332
  13426.905  13426.900  0.500  0.491749  42.4722  25.9741  11.1967
  13427.212  13427.200  0.500  0.496529  42.4713  25.8497  11.055
  13427.488  13427.500  0.500  0.501081  42.4511  25.7201  10.915
  13427.803  13427.800  0.500  0.506015  42.4406  25.5871  10.7569
  13428.102  13428.100  0.500  0.510853  42.422  25.4525  10.597
  13428.425  13428.400  0.500  0.515342  42.4056  25.3287  10.4311
  13428.708  13428.700  0.500  0.519407  42.396  25.2203  10.2767
  13429.007  13429.000  0.500  0.523322  42.3919  25.1193  10.1253
  13429.298  13429.300  0.500  0.527385  42.3876  25.0149  9.960672
  13429.605  13429.600  0.500  0.531086  42.3948  24.9267  9.802473
  13429.905  13429.900  0.500  0.534698  42.3949  24.8369  9.645369
  13430.196  13430.200  0.500  0.537708  42.3943  24.7619  9.500771
  13430.487  13430.500  0.500  0.540842  42.4015  24.6886  9.356842
  13430.810  13430.800  0.500  0.543873  42.4118  24.6198  9.214912
  13431.101  13431.100  0.500  0.546420  42.4163  24.5598  9.087787
  13431.409  13431.400  0.500  0.548756  42.4146  24.5015  8.964456
  13431.700  13431.700  0.500  0.551067  42.4086  24.4416  8.850906
  13431.999  13432.000  0.500  0.553232  42.4127  24.391  8.746119
  13432.291  13432.300  0.500  0.555102  42.4033  24.3401  8.641423
  13432.590  13432.600  0.500  0.556904  42.4037  24.2965  8.547354
  13432.881  13432.900  0.500  0.558542  42.3971  24.2529  8.463249
  13433.181  13433.200  0.500  0.559937  42.3947  24.2178  8.386046
  13433.488  13433.500  0.500  0.561408  42.3863  24.1774  8.300837
  13433.795  13433.800  0.500  0.562585  42.3874  24.1495  8.228675
  13434.095  13434.100  0.500  0.563905  42.3849  24.1163  8.159735
  13434.394  13434.400  0.500  0.565011  42.3725  24.0826  8.093988
  13434.670  13434.700  0.500  0.565774  42.3817  24.0695  8.039954
  13435.001  13435.000  0.500  0.566809  42.3686  24.0371  7.975031
  13435.292  13435.300  0.500  0.567635  42.3675  24.0167  7.917337
  13435.584  13435.600  0.500  0.568210  42.3562  23.9964  7.863698
  13435.883  13435.900  0.500  0.568877  42.3572  23.981  7.813344
  13436.183  13436.200  0.500  0.569276  42.3515  23.9682  7.761642
  13436.490  13436.500  0.500  0.569640  42.3548  23.9613  7.714617
  13436.797  13436.800  0.500  0.570157  42.3493  23.9459  7.669770
  13437.089  13437.100  0.500  0.570554  42.3462  23.9346  7.625673
  13437.388  13437.400  0.500  0.570870  42.3393  23.9232  7.584734
  13437.688  13437.700  0.500  0.571070  42.3386  23.918  7.542560
  13437.995  13438.000  0.500  0.571192  42.3363  23.9137  7.505451
  13438.295  13438.300  0.500  0.571459  42.3282  23.9028  7.467761
  13438.587  13438.600  0.500  0.571517  42.318  23.8956  7.435748
  13438.918  13438.900  0.500  0.571612  42.3157  23.8921  7.402454
  13439.210  13439.200  0.500  0.571621  42.317  23.8926  7.371391
  13439.525  13439.500  0.500  0.571700  42.3144  23.8892  7.342618
  13439.809  13439.800  0.500  0.571756  42.3142  23.8878  7.317276
  13440.108  13440.100  0.500  0.572021  42.3005  23.8737  7.291309
  13440.408  13440.400  0.500  0.572071  42.2978  23.871  7.266613
  13440.700  13440.700  0.500  0.572369  42.3027  23.8666  7.245493
  13441.007  13441.000  0.500  0.572608  42.3019  23.8605  7.223858
  13441.307  13441.300  0.500  0.572866  42.2815  23.8429  7.201004
  13441.599  13441.600  0.500  0.573202  42.2813  23.8347  7.179340
  13441.907  13441.900  0.500  0.573653  42.2754  23.8207  7.157134
  13442.214  13442.200  0.500  0.574048  42.2734  23.8101  7.137972
  13442.514  13442.500  0.500  0.574474  42.2726  23.7995  7.119554
  13442.798  13442.800  0.500  0.575044  42.2834  23.792  7.103669
  13443.113  13443.100  0.500  0.575642  42.2616  23.7655  7.078666
  13443.397  13443.400  0.500  0.576375  42.2519  23.7427  7.058266
  13443.603  13443.600  0.500  0.576824  42.2576  23.7352  7.045450
  13444.620  13444.590  0.500  0.579065  42.2493  23.6774  6.985248
  13445.607  13445.590  0.500  0.580862  42.2429  23.6314  6.939311
  13446.625  13446.610  0.500  0.582483  42.2367  23.5896  6.914420
  13447.683  13447.660  0.500  0.583558  42.2136  23.5514  6.910151
  13448.733  13448.720  0.500  0.584107  42.1972  23.5293  6.929377
  13449.799  13449.800  0.500  0.584407  42.1735  23.509  6.966011
  13450.897  13450.900  0.500  0.584468  42.1804  23.5115  7.016067
  13452.026  13452.020  0.500  0.584495  42.1696  23.5048  7.071735
  13453.188  13453.160  0.500  0.583811  42.1651  23.5183  7.133101
  13454.325  13454.310  0.500  0.582703  42.1582  23.5406  7.192154
  13455.503  13455.490  0.500  0.581542  42.1388  23.5571  7.241841
  13456.696  13456.680  0.500  0.580465  42.1308  23.578  7.284716
  13457.906  13457.900  0.500  0.580237  42.1155  23.5748  7.308695
  13459.148  13459.130  0.500  0.580242  42.1133  23.5735  7.323526
  13460.397  13460.380  0.500  0.580684  42.0868  23.5482  7.320109
  13461.671  13461.650  0.500  0.581298  42.0783  23.529  7.315155
  13462.945  13462.940  0.500  0.582069  42.0651  23.5035  7.306038
  13464.258  13464.250  0.500  0.582541  42.047  23.4823  7.297980
  13465.564  13465.580  0.500  0.582774  42.0483  23.4775  7.296925
  13466.934  13466.930  0.500  0.582833  42.014  23.457  7.288309
  13468.335  13468.300  0.500  0.582246  42.0047  23.4656  7.290285
  13469.682  13469.680  0.500  0.581562  41.9882  23.4724  7.292709
  13471.107  13471.090  0.500  0.580608  41.9396  23.4677  7.291303
  13472.541  13472.510  0.500  0.580179  41.9618  23.4901  7.300336
  13473.968  13473.950  0.500  0.579981  41.9576  23.4924  7.304495
  13475.403  13475.410  0.500  0.580138  41.9435  23.4809  7.304391
  13476.893  13476.890  0.500  0.580561  41.9064  23.4502  7.296928
  13478.384  13478.390  0.500  0.581319  41.8564  23.4044  7.281297
  13479.907  13479.910  0.500  0.581907  41.8609  23.3932  7.276978
  13481.470  13481.450  0.500  0.582302  41.6138  23.2459  7.224158
  13483.009  13483.010  0.500  0.582404  41.7177  23.3016  7.229099
  13484.613  13484.580  0.500  0.582599  41.833  23.3615  7.229493
  13486.193  13486.180  0.500  0.582727  41.8402  23.3625  7.208382
  13487.805  13487.790  0.500  0.582496  41.8471  23.3717  7.186392
  13489.425  13489.430  0.500  0.582149  41.8314  23.3711  7.164149
  13491.086  13491.080  0.500  0.581811  41.8095  23.3667  7.140646
  13492.747  13492.750  0.500  0.581446  41.7425  23.3378  7.115063
  13494.472  13494.440  0.500  0.581060  41.7821  23.3689  7.114423
  13496.173  13496.150  0.500  0.580385  41.7599  23.3723  7.109340
  13497.891  13497.880  0.500  0.579908  41.7399  23.3723  7.107458
  13499.625  13499.630  0.500  0.579360  41.7036  23.3648  7.107090
  13501.384  13501.390  0.500  0.579085  41.7019  23.3702  7.115311
  13503.191  13503.180  0.500  0.578728  41.681  23.3668  7.121346
  13505.006  13504.980  0.500  0.578623  41.6687  23.3624  7.132711
  13506.829  13506.810  0.500  0.578303  41.6487  23.3586  7.141603
  13508.654  13508.650  0.500  0.578125  41.6312  23.353  7.153959
  13510.518  13510.510  0.500  0.577982  41.6037  23.3409  7.161279
  13512.383  13512.390  0.500  0.578015  41.5899  23.3324  7.169186
  13514.273  13514.290  0.500  0.577688  41.5677  23.3276  7.177753
  13516.227  13516.210  0.500  0.577446  41.5417  23.3186  7.184597
  13518.189  13518.150  0.500  0.577322  41.5148  23.3064  7.190018
  13520.144  13520.110  0.500  0.577247  41.4882  23.2932  7.196846
  13522.092  13522.080  0.500  0.577222  41.4731  23.2853  7.202810
  13524.080  13524.080  0.500  0.577123  41.4552  23.2776  7.209271
  13526.092  13526.090  0.500  0.576974  41.4294  23.2666  7.215652
  13528.145  13528.120  0.500  0.576710  41.3968  23.2544  7.219342
  13530.215  13530.180  0.500  0.576472  41.3851  23.2533  7.227109
  13532.270  13532.250  0.500  0.576274  41.3592  23.2434  7.232237
  13534.365  13534.340  0.500  0.575954  41.3237  23.2309  7.234993
  13536.445  13536.450  0.500  0.575611  41.2315  23.187  7.225560
  13538.573  13538.580  0.500  0.575233  40.4874  22.7771  7.101457
  13540.734  13540.720  0.500  0.574913  41.0081  23.0775  7.198867
  13542.896  13542.890  0.500  0.574438  41.3029  23.2544  7.254751
  13545.106  13545.080  0.500  0.574283  41.2879  23.2496  7.254503
  13547.278  13547.280  0.500  0.573875  41.2572  23.2418  7.251197
  13549.498  13549.500  0.500  0.573681  41.2304  23.2312  7.246395
  13551.766  13551.750  0.500  0.573411  41.1939  23.2168  7.238426
  13554.036  13554.010  0.500  0.572992  41.1528  23.2035  7.230554
  13556.314  13556.290  0.500  0.572939  40.8693  23.0448  7.178747
  13558.610  13558.590  0.500  0.572743  40.704  22.9561  7.147809
  13560.906  13560.910  0.500  0.572591  41.1442  23.2079  7.225653
  13563.275  13563.250  0.500  0.572180  41.1098  23.198  7.219857
  13565.621  13565.600  0.500  0.571946  40.9916  23.1367  7.199334
  13568.016  13567.980  0.500  0.571696  40.9492  23.1186  7.195444
  13570.395  13570.370  0.500  0.571246  41.0227  23.1705  7.214811
  13572.816  13572.790  0.500  0.570926  40.9515  23.1377  7.206180
  13575.246  13575.220  0.500  0.570625  40.326  22.7912  7.101255
  13577.692  13577.670  0.500  0.570300  40.9168  23.1326  7.211321
  13580.172  13580.150  0.500  0.569933  40.9755  23.1742  7.226516
  13582.661  13582.640  0.500  0.569669  40.9411  23.1609  7.225739
  13585.142  13585.150  0.500  0.569427  40.9077  23.1476  7.223727
  13587.689  13587.670  0.500  0.569323  40.8775  23.1329  7.222339
  13590.261  13590.220  0.500  0.569134  40.8271  23.1088  7.218117
  13592.810  13592.790  0.500  0.568905  40.5192  22.9397  7.167492
  13595.376  13595.370  0.500  0.568911  40.1392  22.7244  7.104536
  13597.975  13597.980  0.500  0.568525  40.7561  23.0826  7.219798
  13600.624  13600.600  0.500  0.568151  40.7868  23.1087  7.235382
  13603.274  13603.250  0.500  0.567928  40.7429  23.0889  7.234613
  13605.933  13605.910  0.500  0.567741  40.7047  23.0716  7.238062
  13608.593  13608.590  0.500  0.567431  40.6974  23.0746  7.249208
  13611.302  13611.290  0.500  0.567078  40.6659  23.0649  7.253523
  13614.029  13614.010  0.500  0.566703  40.6208  23.048  7.257256
  13616.765  13616.750  0.500  0.566154  40.6271  23.0642  7.271775
  13619.494  13619.500  0.500  0.565893  40.5927  23.0507  7.274099
  13622.314  13622.280  0.500  0.565357  40.5509  23.0393  7.277576
  13625.094  13625.070  0.500  0.564621  40.6095  23.0896  7.298032
  13627.923  13627.890  0.500  0.564274  40.6778  23.1364  7.318661
  13630.738  13630.720  0.500  0.563895  40.6172  23.1107  7.312766
  13633.578  13633.570  0.500  0.563591  40.6096  23.1134  7.313623
  13636.485  13636.450  0.500  0.563335  40.5842  23.1049  7.308794
  13639.376  13639.340  0.500  0.563007  40.5563  23.0966  7.304934
  13642.252  13642.250  0.500  0.562833  40.5319  23.0867  7.300564
  13645.163  13645.170  0.500  0.562628  40.4964  23.0712  7.293225
  13648.155  13648.120  0.500  0.562484  40.4645  23.0564  7.287863
  13651.117  13651.090  0.500  0.562344  40.4046  23.0254  7.278203
  13654.088  13654.070  0.500  0.562225  40.2254  22.9261  7.248221
  13657.093  13657.080  0.500  0.562225  40.3893  23.0195  7.281406
  13660.123  13660.100  0.500  0.561891  40.3623  23.0118  7.281386
  13663.180  13663.150  0.500  0.561661  40.3338  23.0008  7.281894
  13666.213  13666.210  0.500  0.561343  40.3036  22.9909  7.283749
  13669.305  13669.290  0.500  0.561109  40.2776  22.9815  7.287642
  13672.431  13672.390  0.500  0.560755  40.2449  22.9709  7.288684
  13675.525  13675.510  0.500  0.560326  40.2167  22.9646  7.291434
  13678.654  13678.650  0.500  0.559863  40.1873  22.9585  7.293889
  13681.817  13681.800  0.500  0.559398  40.1598  22.9535  7.295668
  13684.998  13684.980  0.500  0.558860  40.1247  22.9458  7.297113
  13688.164  13688.170  0.500  0.558450  40.093  22.937  7.294145
  13691.397  13691.390  0.500  0.557822  40.0655  22.9357  7.297253
  13694.647  13694.620  0.500  0.557501  40.0279  22.9215  7.294188
  13697.883  13697.870  0.500  0.556941  39.9972  22.9167  7.296484
  13701.162  13701.150  0.500  0.556718  39.97  22.9063  7.295820
  13704.458  13704.440  0.500  0.556241  39.9411  22.9007  7.298543
  13707.789  13707.750  0.500  0.555769  39.916  22.8971  7.300566
  13711.081  13711.070  0.500  0.555661  39.8772  22.8773  7.301671
  13714.423  13714.420  0.500  0.555266  39.8483  22.8697  7.305367
  13717.808  13717.790  0.500  0.555011  39.8156  22.8568  7.311068
  13721.187  13721.170  0.500  0.554711  39.7873  22.8474  7.313381
  13724.592  13724.580  0.500  0.554454  39.761  22.8382  7.319606
  13728.039  13728.000  0.500  0.554135  39.7185  22.821  7.319261
  13731.473  13731.450  0.500  0.553949  39.6946  22.8116  7.322487
  13734.907  13734.910  0.500  0.553441  39.6577  22.8019  7.324880
  13738.426  13738.390  0.500  0.553113  39.6312  22.7941  7.328263
  13741.906  13741.890  0.500  0.552552  39.5899  22.7832  7.327732
  13745.437  13745.410  0.500  0.552220  39.5539  22.77  7.328853
  13748.969  13748.950  0.500  0.551791  39.5249  22.7631  7.330827
  13752.521  13752.500  0.500  0.551309  39.4835  22.7502  7.328465
  13756.082  13756.080  0.500  0.550673  39.4541  22.7477  7.331915
  13759.719  13759.680  0.500  0.550340  39.4146  22.7325  7.331151
  13763.317  13763.290  0.500  0.549759  39.3826  22.7273  7.333246
  13766.934  13766.920  0.500  0.549317  39.3537  22.7206  7.333968
  13770.602  13770.580  0.500  0.548843  39.318  22.7108  7.334597
  13774.289  13774.250  0.500  0.548461  39.2881  22.7022  7.337066
  13777.961  13777.940  0.500  0.547875  39.248  22.6923  7.337790
  13781.676  13781.650  0.500  0.547396  39.2182  22.6859  7.341541
  13785.410  13785.380  0.500  0.547083  39.1767  22.669  7.341414
  13789.130  13789.120  0.500  0.546624  39.1512  22.6647  7.345581
  13792.910  13792.890  0.500  0.546193  39.1088  22.6499  7.347230
  13796.741  13796.680  0.500  0.545910  39.065  22.6309  7.347339
  13800.484  13800.480  0.500  0.545541  39.034  22.6213  7.350828
  13804.328  13804.310  0.500  0.545106  38.9964  22.6093  7.351066
  13808.208  13808.150  0.500  0.544756  38.9696  22.6017  7.353930
  13812.023  13812.010  0.500  0.544279  38.9263  22.5874  7.353636
  13815.908  13815.890  0.500  0.543861  38.8672  22.5625  7.350907
  13819.836  13819.790  0.500  0.543418  38.8628  22.5699  7.360513
  13823.724  13823.710  0.500  0.543030  38.8184  22.5529  7.359842
  13827.690  13827.650  0.500  0.542348  38.7745  22.5428  7.360981
  13831.634  13831.610  0.500  0.542015  38.7432  22.5321  7.364524
  13835.588  13835.580  0.500  0.541366  38.6887  22.515  7.363286
  13839.594  13839.580  0.500  0.540929  38.6667  22.512  7.368907
  13843.628  13843.590  0.500  0.540359  38.6249  22.5005  7.370951
  13847.639  13847.630  0.500  0.539922  38.5782  22.4831  7.372034
  13851.728  13851.680  0.500  0.539204  38.5258  22.4688  7.373271
  13855.785  13855.750  0.500  0.538770  38.459  22.4395  7.371149
  13859.854  13859.840  0.500  0.538254  38.4523  22.4471  7.380892
  13863.992  13863.950  0.500  0.537777  38.4082  22.4321  7.382405
  13868.116  13868.080  0.500  0.537270  38.3585  22.4145  7.382455
  13872.259  13872.230  0.500  0.536924  38.2895  22.3819  7.378909
  13876.430  13876.390  0.500  0.536491  38.2335  22.3588  7.376463
  13880.586  13880.580  0.500  0.535976  38.111  22.2987  7.363129
  13884.788  13884.780  0.500  0.535691  38.0341  22.26  7.357741
  13889.059  13889.010  0.500  0.535141  37.9247  22.2082  7.344631
  13893.257  13893.250  0.500  0.534564  37.8117  22.1548  7.332251
  13897.542  13897.510  0.500  0.534082  37.7367  22.1216  7.326846
  13901.829  13901.790  0.500  0.533681  37.7284  22.1256  7.332458
  13906.102  13906.090  0.500  0.533345  37.7341  22.1363  7.342584
  13910.438  13910.410  0.500  0.532723  37.6675  22.111  7.339830
  13914.784  13914.750  0.500  0.532164  37.6585  22.1181  7.347139
  13919.125  13919.110  0.500  0.531635  37.5677  22.0764  7.338750
  13923.544  13923.490  0.500  0.531089  37.5586  22.0831  7.347276
  13927.916  13927.880  0.500  0.530667  37.5348  22.0784  7.350949
  13932.341  13932.300  0.500  0.529978  37.5186  22.0841  7.358830
  13936.786  13936.730  0.500  0.529552  37.4916  22.0776  7.364198
  13941.217  13941.180  0.500  0.528952  37.4487  22.0656  7.366377
  13945.710  13945.650  0.500  0.528496  37.402  22.0481  7.369032
  13950.181  13950.140  0.500  0.527920  37.3656  22.0394  7.370677
  13954.705  13954.650  0.500  0.527360  37.3253  22.0279  7.375079
  13959.241  13959.180  0.500  0.526788  37.2694  22.0075  7.373989
  13963.798  13963.730  0.500  0.526240  37.2104  21.9847  7.371154
  13968.331  13968.300  0.500  0.525827  37.1181  21.9393  7.363458
  13972.944  13972.880  0.500  0.525433  35.0627  20.7325  6.965601
  13977.518  13977.490  0.500  0.524705  37.1248  21.9679  7.383332
  13982.172  13982.110  0.500  0.524327  37.1455  21.9884  7.397851
  13986.837  13986.760  0.500  0.523803  37.1048  21.9758  7.398740
  13991.497  13991.420  0.500  0.523162  37.0521  21.9587  7.399632
  13996.134  13996.100  0.500  0.522705  37.0125  21.9453  7.402064
  14000.869  14000.800  0.500  0.522143  36.9708  21.9329  7.406099
  14005.589  14005.520  0.500  0.521765  36.9281  21.9158  7.406148
  14010.331  14010.260  0.500  0.521136  36.887  21.9052  7.411020
  14015.118  14015.010  0.500  0.520539  36.8432  21.8922  7.413076
  14019.797  14019.790  0.500  0.519956  36.7949  21.8763  7.414779
  14024.582  14024.590  0.500  0.519210  36.7437  21.8621  7.416640
  14029.431  14029.400  0.500  0.518869  36.7008  21.8441  7.419443
  14034.240  14034.230  0.500  0.518135  36.6567  21.8338  7.421602
  14039.130  14039.090  0.500  0.517526  36.617  21.8235  7.425929
  14043.971  14043.960  0.500  0.516975  36.5725  21.809  7.427604
  14048.902  14048.850  0.500  0.516449  36.5335  21.7972  7.428490
  14053.794  14053.760  0.500  0.515672  36.4808  21.7827  7.430707
  14058.715  14058.690  0.500  0.515295  36.4318  21.7616  7.430443
  14063.674  14063.630  0.500  0.514503  36.368  21.7407  7.429044
  14068.636  14068.600  0.500  0.514086  36.2374  21.6716  7.413248
  14073.611  14073.590  0.500  0.513640  33.746  20.1907  6.913110
  14078.641  14078.590  0.500  0.512986  36.3498  21.7628  7.456703
  14083.667  14083.620  0.500  0.512461  36.1687  21.6658  7.431753
  14088.669  14088.660  0.500  0.511986  36.2471  21.723  7.458362
  14093.763  14093.720  0.500  0.511302  36.1917  21.7047  7.457650
  14098.842  14098.800  0.500  0.510900  36.1233  21.6724  7.456350
  14103.934  14103.900  0.500  0.510205  36.0639  21.6518  7.454941
  14109.056  14109.020  0.500  0.509668  35.8843  21.5555  7.429450
  14114.199  14114.160  0.500  0.508911  35.9013  21.582  7.446603
  14119.346  14119.320  0.500  0.508112  34.3363  20.6577  7.135496
  14124.540  14124.500  0.500  0.507698  35.9887  21.6609  7.489004
  14129.729  14129.690  0.500  0.507126  35.9162  21.6296  7.486622
  14134.957  14134.910  0.500  0.506600  35.8632  21.609  7.486257
  14140.163  14140.140  0.500  0.505793  35.8121  21.5957  7.486915
  14145.416  14145.390  0.500  0.505248  35.7657  21.5794  7.491363
  14150.691  14150.660  0.500  0.504764  35.7072  21.5546  7.489138
  14155.961  14155.950  0.500  0.504048  35.6165  21.5152  7.483024
  14161.287  14161.260  0.500  0.503327  35.5172  21.4707  7.474018
  14166.626  14166.590  0.500  0.502658  33.3359  20.1656  7.024936
  14171.979  14171.940  0.500  0.502219  35.5681  21.5253  7.508021
  14177.326  14177.310  0.500  0.501503  35.5433  21.5257  7.514731
  14182.713  14182.690  0.500  0.500996  35.4865  21.5022  7.516919
  14188.130  14188.100  0.500  0.500249  35.4333  21.486  7.517050
  14193.543  14193.520  0.500  0.499696  35.3797  21.4654  7.517824
  14199.004  14198.970  0.500  0.498918  35.3304  21.4522  7.520524
  14204.451  14204.430  0.500  0.498363  35.2826  21.435  7.521636
  14209.938  14209.910  0.500  0.497695  35.2379  21.4222  7.525411
  14215.429  14215.410  0.500  0.497246  35.1907  21.4031  7.527421
  14220.960  14220.930  0.500  0.496632  35.1417  21.3864  7.529665
  14226.487  14226.470  0.500  0.496051  35.0924  21.3689  7.530730
  14232.035  14232.020  0.500  0.495333  35.047  21.3565  7.534087
  14237.623  14237.600  0.500  0.494719  34.995  21.338  7.535901
  14243.234  14243.200  0.500  0.494010  34.9364  21.3173  7.538530
  14248.840  14248.810  0.500  0.493461  34.8873  21.299  7.538885
  14254.468  14254.450  0.500  0.492765  34.8303  21.279  7.539255
  14260.145  14260.100  0.500  0.492066  34.7596  21.2507  7.535591
  14265.800  14265.770  0.500  0.491524  34.6362  21.1867  7.521415
  14271.487  14271.460  0.500  0.490677  32.4201  19.848  7.052033