File: xdidata/Bi/Bi-L3-BismuthFluoride.xdi
# XDI/1.0 BlueSky/1.10.0 BMM/2023-1.0-py310-tiled
# Beamline.name: BMM (06BM) -- Beamline for Materials Measurement (NIST)
# Beamline.xray_source: NSLS-II three-pole wiggler
# Beamline.collimation: paraboloid mirror, 5 nm Rh on 30 nm Pt
# Beamline.focusing: not in use
# Beamline.harmonic_rejection: flat mirror, Pt stripe, pitch = 7.0 mrad relative to beam
# Beamline.software: Bluesky 1.10.0, Ophyd 1.7.0, DataBroker 2.0.0b13, Python 3.10.8, 2023-1.0-py310-tiled
# Detector.I0: 10 cm N2
# Detector.I1: 25 cm N2
# Detector.I2: 25 cm N2
# Element.symbol: Bi
# Element.edge: L3
# Element.reference: Bi
# Element.reference_material: BiO2
# Facility.name: NSLS-II
# Facility.energy: 3.0
# Facility.current: 400.8
# Facility.mode: top-off
# Facility.GUP: 301027
# Facility.SAF: 310583
# Facility.cycle: 2023-2
# Mono.name: Si(111)
# Mono.d_spacing: 3.13519
# Mono.encoder_resolution: 0.0000050 deg/ct
# Mono.angle_offset: 16.0754 deg
# Mono.scan_mode: pseudo channel cut
# Mono.scan_type: step
# Mono.direction: forward in energy
# Sample.name: BiF3
# Sample.prep: powder on tape
# Sample.x: 143.785 mm
# Sample.y: 114.695 mm
# Sample.SDD_position: 205.000 mm
# Scan.experimenters: Bruce Ravel
# Scan.edge_energy: 13418.6
# Scan.start_time: 2023-06-23T17:43:27
# Scan.end_time: 2023-06-23T17:51:35
# Scan.transient_id: 84909
# Scan.uid: 38751a03-b4de-44f2-bad1-bf2b981ad846
# Scan.plot_hint: ln(I0/It)  --  ln($5/$6)
# Column.1: energy eV
# Column.2: requested_energy eV
# Column.3: measurement_time seconds
# Column.4: xmu
# Column.5: I0 nA
# Column.6: It nA
# Column.7: Ir nA
# ///////////
# BMM standards collection
# -----------
# energy  requested_energy  measurement_time  xmu  I0  It  Ir
  13218.621  13218.600  0.500  0.467458  45.2059  28.3257  14.3973
  13228.670  13228.600  0.500  0.465079  45.1117  28.334  14.4239
  13238.667  13238.600  0.500  0.462668  45.0076  28.3368  14.4474
  13248.678  13248.600  0.500  0.460504  44.8901  28.3241  14.4627
  13258.690  13258.600  0.500  0.458122  44.7423  28.2982  14.4695
  13268.663  13268.600  0.500  0.455686  44.5271  28.2307  14.4525
  13278.697  13278.600  0.500  0.453474  43.9913  27.9528  14.3295
  13288.624  13288.600  0.500  0.451234  43.7928  27.8891  14.3168
  13298.643  13298.600  0.500  0.449099  43.7241  27.9048  14.3453
  13308.630  13308.600  0.500  0.446876  43.6285  27.9058  14.3625
  13318.625  13318.600  0.500  0.444901  43.5572  27.9153  14.3881
  13328.636  13328.600  0.500  0.442958  43.3864  27.8598  14.377
  13338.630  13338.600  0.500  0.441050  43.3551  27.893  14.4072
  13348.648  13348.600  0.500  0.439541  43.2933  27.8952  14.4244
  13358.641  13358.600  0.500  0.438121  43.1978  27.8733  14.4252
  13368.642  13368.600  0.500  0.437442  43.0961  27.8266  14.4086
  13378.666  13378.600  0.500  0.437311  42.9985  27.7672  14.3769
  13388.651  13388.600  0.500  0.438989  42.9147  27.6666  14.315
  13390.591  13390.600  0.500  0.439546  42.8896  27.635  14.2965
  13392.580  13392.600  0.500  0.440233  42.8737  27.6058  14.2763
  13394.569  13394.600  0.500  0.440994  42.861  27.5766  14.2518
  13396.589  13396.600  0.500  0.442070  42.8319  27.5283  14.2177
  13398.595  13398.600  0.500  0.443482  42.8221  27.4831  14.184
  13400.594  13400.600  0.500  0.445016  42.8012  27.4276  14.142
  13402.585  13402.600  0.500  0.446932  42.7805  27.3619  14.0922
  13404.593  13404.600  0.500  0.449485  42.763  27.2809  14.0341
  13406.593  13406.600  0.500  0.452352  42.7274  27.1802  13.9551
  13408.586  13408.600  0.500  0.456030  42.7329  27.0839  13.8767
  13408.861  13408.900  0.500  0.456513  42.7263  27.0666  13.8591
  13409.175  13409.200  0.500  0.457337  42.7333  27.0488  13.8469
  13409.465  13409.500  0.500  0.457984  42.7239  27.0253  13.8283
  13409.764  13409.800  0.500  0.458706  42.7194  27.0029  13.8117
  13410.070  13410.100  0.500  0.459363  42.7169  26.9836  13.7936
  13410.360  13410.400  0.500  0.460085  42.7173  26.9644  13.7779
  13410.666  13410.700  0.500  0.460930  42.7045  26.9336  13.7551
  13410.965  13411.000  0.500  0.461778  42.7077  26.9128  13.7365
  13411.263  13411.300  0.500  0.462482  42.7043  26.8917  13.7166
  13411.569  13411.600  0.500  0.463451  42.7009  26.8635  13.6956
  13411.868  13411.900  0.500  0.464337  42.6902  26.833  13.6719
  13412.150  13412.200  0.500  0.465412  42.6963  26.808  13.6509
  13412.480  13412.500  0.500  0.466542  42.6858  26.7712  13.6238
  13412.763  13412.800  0.500  0.467481  42.6814  26.7433  13.5969
  13413.053  13413.100  0.500  0.468523  42.6885  26.7198  13.5739
  13413.375  13413.400  0.500  0.469861  42.6715  26.6735  13.5428
  13413.666  13413.700  0.500  0.471048  42.6816  26.6482  13.5196
  13413.964  13414.000  0.500  0.472480  42.6761  26.6066  13.4853
  13414.294  13414.300  0.500  0.473779  42.6702  26.5684  13.4496
  13414.585  13414.600  0.500  0.475191  42.6656  26.528  13.4169
  13414.883  13414.900  0.500  0.476759  42.6627  26.4847  13.3796
  13415.198  13415.200  0.500  0.478466  42.6617  26.4389  13.3433
  13415.473  13415.500  0.500  0.479958  42.6515  26.3931  13.3028
  13415.787  13415.800  0.500  0.481620  42.6497  26.3482  13.2604
  13416.093  13416.100  0.500  0.483672  42.6428  26.2899  13.216
  13416.392  13416.400  0.500  0.485353  42.6489  26.2496  13.1764
  13416.698  13416.700  0.500  0.487590  42.6404  26.1857  13.1224
  13416.997  13417.000  0.500  0.489685  42.6393  26.1302  13.0755
  13417.296  13417.300  0.500  0.491859  42.6319  26.0689  13.0165
  13417.618  13417.600  0.500  0.494592  42.6264  25.9944  12.9567
  13417.893  13417.900  0.500  0.496958  42.6209  25.9296  12.8992
  13418.207  13418.200  0.500  0.499837  42.6305  25.8609  12.8348
  13418.490  13418.500  0.500  0.503062  42.6124  25.7667  12.7546
  13418.781  13418.800  0.500  0.506106  42.6153  25.6901  12.6828
  13419.111  13419.100  0.500  0.509635  42.6126  25.598  12.5996
  13419.394  13419.400  0.500  0.513258  42.6114  25.5047  12.5149
  13419.693  13419.700  0.500  0.517354  42.6074  25.3981  12.4185
  13419.992  13420.000  0.500  0.521666  42.6002  25.2846  12.3169
  13420.251  13420.300  0.500  0.526197  42.6078  25.1747  12.2174
  13420.597  13420.600  0.500  0.531529  42.5967  25.0343  12.0901
  13420.872  13420.900  0.500  0.536797  42.5894  24.8985  11.9721
  13421.187  13421.200  0.500  0.542538  42.5878  24.7551  11.8465
  13421.470  13421.500  0.500  0.548500  42.5819  24.6045  11.7185
  13421.792  13421.800  0.500  0.555344  42.5754  24.433  11.5673
  13422.083  13422.100  0.500  0.561903  42.5765  24.2738  11.434
  13422.382  13422.400  0.500  0.568808  42.5732  24.1049  11.291
  13422.696  13422.700  0.500  0.576319  42.5665  23.9208  11.1423
  13422.980  13423.000  0.500  0.583377  42.5682  23.7535  11.0081
  13423.310  13423.300  0.500  0.591707  42.5671  23.5559  10.854
  13423.593  13423.600  0.500  0.599275  42.5637  23.3764  10.7172
  13423.908  13423.900  0.500  0.607895  42.5553  23.1712  10.5667
  13424.199  13424.200  0.500  0.615591  42.5555  22.9937  10.434
  13424.521  13424.500  0.500  0.624562  42.5564  22.7888  10.2873
  13424.797  13424.800  0.500  0.632504  42.5459  22.6029  10.1541
  13425.119  13425.100  0.500  0.641797  42.5378  22.3896  10.0041
  13425.403  13425.400  0.500  0.650641  42.5323  22.1896  9.864480
  13425.709  13425.700  0.500  0.659951  42.53  21.9828  9.717260
  13426.001  13426.000  0.500  0.669545  42.5237  21.7696  9.568789
  13426.292  13426.300  0.500  0.679533  42.5188  21.5508  9.414750
  13426.591  13426.600  0.500  0.690030  42.517  21.3249  9.258866
  13426.890  13426.900  0.500  0.700956  42.5065  21.0879  9.092477
  13427.197  13427.200  0.500  0.713338  42.4977  20.8241  8.911450
  13427.480  13427.500  0.500  0.725765  42.4885  20.5625  8.732210
  13427.795  13427.800  0.500  0.740416  42.476  20.2575  8.524852
  13428.078  13428.100  0.500  0.755080  42.462  19.956  8.325143
  13428.401  13428.400  0.500  0.773076  42.4429  19.5912  8.084228
  13428.684  13428.700  0.500  0.790305  42.4445  19.2573  7.868761
  13428.999  13429.000  0.500  0.811753  42.4258  18.8404  7.608293
  13429.283  13429.300  0.500  0.832132  42.4342  18.464  7.375289
  13429.613  13429.600  0.500  0.858594  42.4329  17.9812  7.085895
  13429.881  13429.900  0.500  0.881856  42.4263  17.5651  6.847406
  13430.204  13430.200  0.500  0.911102  42.4335  17.0617  6.562262
  13430.495  13430.500  0.500  0.938810  42.4466  16.6006  6.310489
  13430.834  13430.800  0.500  0.970993  42.4521  16.0769  6.032490
  13431.101  13431.100  0.500  1.000514  42.4462  15.6071  5.790989
  13431.409  13431.400  0.500  1.033244  42.4482  15.1052  5.541408
  13431.692  13431.700  0.500  1.063543  42.4465  14.6538  5.319469
  13432.023  13432.000  0.500  1.096023  42.4467  14.1856  5.096219
  13432.314  13432.300  0.500  1.128077  42.4435  13.7371  4.885416
  13432.606  13432.600  0.500  1.158973  42.4432  13.319  4.693345
  13432.905  13432.900  0.500  1.188251  42.4397  12.9337  4.518484
  13433.189  13433.200  0.500  1.215959  42.4358  12.5791  4.358770
  13433.512  13433.500  0.500  1.244921  42.4213  12.2158  4.197552
  13433.795  13433.800  0.500  1.268628  42.4254  11.9308  4.070227
  13434.095  13434.100  0.500  1.293184  42.4174  11.6392  3.939851
  13434.378  13434.400  0.500  1.314257  42.4213  11.3975  3.832643
  13434.701  13434.700  0.500  1.335123  42.412  11.1597  3.726513
  13434.985  13435.000  0.500  1.352319  42.4084  10.9685  3.638912
  13435.268  13435.300  0.500  1.367595  42.4103  10.8027  3.562014
  13435.576  13435.600  0.500  1.381146  42.4075  10.6566  3.491037
  13435.899  13435.900  0.500  1.393683  42.3939  10.5205  3.424771
  13436.198  13436.200  0.500  1.403695  42.3942  10.4157  3.370550
  13436.498  13436.500  0.500  1.412405  42.3913  10.3247  3.322045
  13436.805  13436.800  0.500  1.419983  42.3852  10.2453  3.278198
  13437.081  13437.100  0.500  1.426397  42.3871  10.1802  3.240264
  13437.420  13437.400  0.500  1.432780  42.3817  10.1142  3.201307
  13437.704  13437.700  0.500  1.438178  42.3795  10.0592  3.168460
  13438.019  13438.000  0.500  1.443389  42.3668  10.0039  3.135177
  13438.303  13438.300  0.500  1.448476  42.3757  9.955229  3.107388
  13438.626  13438.600  0.500  1.454054  42.3623  9.896740  3.073902
  13438.902  13438.900  0.500  1.458941  42.3744  9.851298  3.048254
  13439.210  13439.200  0.500  1.464742  42.3542  9.789645  3.016894
  13439.493  13439.500  0.500  1.470398  42.3506  9.733597  2.988402
  13439.817  13439.800  0.500  1.476636  42.3593  9.675063  2.960137
  13440.116  13440.100  0.500  1.482775  42.3454  9.612693  2.931923
  13440.400  13440.400  0.500  1.488742  42.3456  9.555542  2.905201
  13440.708  13440.700  0.500  1.495177  42.3441  9.493915  2.877770
  13440.992  13441.000  0.500  1.500747  42.3365  9.439488  2.854214
  13441.307  13441.300  0.500  1.507140  42.335  9.379003  2.828862
  13441.599  13441.600  0.500  1.512171  42.3387  9.332751  2.807992
  13441.883  13441.900  0.500  1.517299  42.3313  9.283393  2.785798
  13442.183  13442.200  0.500  1.521837  42.3268  9.240391  2.767253
  13442.474  13442.500  0.500  1.525763  42.3211  9.202944  2.749528
  13442.790  13442.800  0.500  1.529258  42.3153  9.169571  2.734023
  13443.090  13443.100  0.500  1.531620  42.3093  9.146644  2.720496
  13443.405  13443.400  0.500  1.533586  42.3075  9.128279  2.709100
  13443.579  13443.600  0.500  1.534164  42.2997  9.121339  2.703462
  13444.613  13444.590  0.500  1.532965  42.2992  9.132163  2.689354
  13445.615  13445.590  0.500  1.523629  42.2914  9.216128  2.702022
  13446.649  13446.610  0.500  1.508380  42.2788  9.354951  2.737998
  13447.683  13447.660  0.500  1.490461  42.2607  9.520012  2.788121
  13448.709  13448.720  0.500  1.473715  42.2484  9.677971  2.845086
  13449.783  13449.800  0.500  1.458833  42.2301  9.818807  2.904175
  13450.912  13450.900  0.500  1.446804  42.2098  9.932869  2.959657
  13452.042  13452.020  0.500  1.438382  42.2112  10.0172  3.009373
  13453.172  13453.160  0.500  1.431291  42.2143  10.0892  3.053847
  13454.317  13454.310  0.500  1.424133  42.2024  10.1588  3.098739
  13455.503  13455.490  0.500  1.415941  42.1823  10.2375  3.143025
  13456.696  13456.680  0.500  1.406690  42.3491  10.3735  3.199771
  13457.898  13457.900  0.500  1.396678  42.3274  10.4725  3.240104
  13459.148  13459.130  0.500  1.387973  42.3216  10.5627  3.276090
  13460.389  13460.380  0.500  1.381117  42.3091  10.6322  3.300579
  13461.679  13461.650  0.500  1.377005  42.2919  10.6716  3.313459
  13462.952  13462.940  0.500  1.375064  42.2779  10.6888  3.318650
  13464.266  13464.250  0.500  1.374478  42.2705  10.6932  3.319257
  13465.572  13465.580  0.500  1.374608  42.2549  10.6879  3.316054
  13466.942  13466.930  0.500  1.375710  42.2397  10.6723  3.310074
  13468.311  13468.300  0.500  1.377724  42.2334  10.6492  3.304422
  13469.705  13469.680  0.500  1.380965  42.2011  10.6066  3.290510
  13471.084  13471.090  0.500  1.384879  42.1507  10.5526  3.273943
  13472.502  13472.510  0.500  1.389953  42.1718  10.5045  3.261004
  13473.936  13473.950  0.500  1.395397  42.1725  10.4476  3.244747
  13475.426  13475.410  0.500  1.400708  42.1543  10.3878  3.227341
  13476.885  13476.890  0.500  1.406084  42.1258  10.3251  3.207803
  13478.384  13478.390  0.500  1.411218  42.0756  10.26  3.187573
  13479.867  13479.910  0.500  1.416062  42.0748  10.2102  3.171052
  13481.462  13481.450  0.500  1.421155  41.8237  10.0977  3.132781
  13482.994  13483.010  0.500  1.425814  41.9205  10.074  3.120688
  13484.581  13484.580  0.500  1.430636  42.0376  10.0536  3.108012
  13486.185  13486.180  0.500  1.435129  42.052  10.0119  3.084483
  13487.789  13487.790  0.500  1.439041  42.0633  9.975526  3.062087
  13489.425  13489.430  0.500  1.442009  42.0418  9.940885  3.042609
  13491.062  13491.080  0.500  1.443457  42.0138  9.919870  3.026166
  13492.739  13492.750  0.500  1.443904  41.958  9.902274  3.013762
  13494.392  13494.440  0.500  1.442810  41.9705  9.916070  3.013227
  13496.117  13496.150  0.500  1.440665  41.956  9.933936  3.017009
  13497.867  13497.880  0.500  1.437526  41.9412  9.961651  3.024073
  13499.625  13499.630  0.500  1.434099  41.9078  9.987878  3.033317
  13501.861  13501.390  0.500  1.429804  41.9037  10.0299  3.048317
  13503.103  13503.180  0.500  1.427130  41.874  10.0496  3.057253
  13505.093  13504.980  0.500  1.423440  41.8577  10.0829  3.072009
  13506.949  13506.810  0.500  1.420473  41.831  10.1063  3.085429
  13508.701  13508.650  0.500  1.417491  41.8109  10.1317  3.099341
  13510.494  13510.510  0.500  1.414914  41.793  10.1535  3.109781
  13512.375  13512.390  0.500  1.412403  41.7693  10.1732  3.121053
  13514.265  13514.290  0.500  1.409825  41.7584  10.1968  3.132789
  13516.171  13516.210  0.500  1.407193  41.7301  10.2168  3.142678
  13518.117  13518.150  0.500  1.404911  41.7117  10.2356  3.152825
  13520.080  13520.110  0.500  1.402616  41.6823  10.2519  3.162207
  13522.084  13522.080  0.500  1.400703  41.6659  10.2675  3.171174
  13524.064  13524.080  0.500  1.399117  41.6399  10.2774  3.178138
  13526.084  13526.090  0.500  1.397755  41.6126  10.2846  3.184390
  13528.114  13528.120  0.500  1.396489  41.5786  10.2892  3.189412
  13530.143  13530.180  0.500  1.395592  41.5748  10.2975  3.195445
  13532.238  13532.250  0.500  1.395131  41.544  10.2946  3.196889
  13534.333  13534.340  0.500  1.394820  41.5124  10.29  3.197743
  13536.461  13536.450  0.500  1.395348  41.4239  10.2626  3.192849
  13538.581  13538.580  0.500  1.395914  40.6668  10.0694  3.135595
  13540.718  13540.720  0.500  1.396262  41.1584  10.1875  3.173282
  13542.888  13542.890  0.500  1.397299  41.4875  10.2584  3.195962
  13545.066  13545.080  0.500  1.397979  41.4667  10.2462  3.191958
  13547.261  13547.280  0.500  1.398769  41.4381  10.2311  3.186836
  13549.473  13549.500  0.500  1.399360  41.415  10.2194  3.182494
  13551.758  13551.750  0.500  1.399763  41.3694  10.204  3.176042
  13554.012  13554.010  0.500  1.400395  41.3289  10.1875  3.170067
  13556.282  13556.290  0.500  1.400937  41.0704  10.1184  3.147864
  13558.602  13558.590  0.500  1.400706  40.8451  10.0652  3.129162
  13560.890  13560.910  0.500  1.401137  41.3092  10.1751  3.163050
  13563.243  13563.250  0.500  1.401094  41.2855  10.1697  3.160535
  13565.588  13565.600  0.500  1.400767  41.1655  10.1435  3.152261
  13567.983  13567.980  0.500  1.400123  41.1077  10.1358  3.149578
  13570.379  13570.370  0.500  1.399535  41.192  10.1625  3.158983
  13572.808  13572.790  0.500  1.398472  41.116  10.1546  3.157345
  13575.221  13575.220  0.500  1.397539  40.4953  10.0106  3.113152
  13577.644  13577.670  0.500  1.396057  41.0517  10.1632  3.162744
  13580.140  13580.150  0.500  1.394981  41.1303  10.1936  3.174057
  13582.644  13582.640  0.500  1.393360  41.095  10.2014  3.178030
  13585.158  13585.150  0.500  1.391729  41.0583  10.2089  3.180862
  13587.673  13587.670  0.500  1.390251  41.0218  10.215  3.185037
  13590.245  13590.220  0.500  1.388352  40.9679  10.2209  3.186757
  13592.794  13592.790  0.500  1.386868  40.6685  10.1613  3.170483
  13595.360  13595.370  0.500  1.385229  40.2864  10.0823  3.145791
  13597.992  13597.980  0.500  1.383622  40.8914  10.2502  3.201879
  13600.616  13600.600  0.500  1.382283  40.9232  10.2719  3.210377
  13603.258  13603.250  0.500  1.380869  40.8793  10.2754  3.215668
  13605.909  13605.910  0.500  1.379727  40.8425  10.2779  3.219960
  13608.569  13608.590  0.500  1.378710  40.8295  10.2851  3.225643
  13611.286  13611.290  0.500  1.377804  40.8048  10.2882  3.231233
  13614.013  13614.010  0.500  1.376840  40.7571  10.2861  3.234280
  13616.765  13616.750  0.500  1.375807  40.7579  10.2969  3.240451
  13619.486  13619.500  0.500  1.375162  40.7264  10.2956  3.244208
  13622.273  13622.280  0.500  1.374374  40.6768  10.2911  3.245712
  13625.085  13625.070  0.500  1.373633  40.6736  10.298  3.249756
  13627.899  13627.890  0.500  1.373285  40.6453  10.2944  3.251672
  13630.714  13630.720  0.500  1.372534  40.589  10.2879  3.249849
  13633.578  13633.570  0.500  1.372331  40.5858  10.2891  3.251142
  13636.436  13636.450  0.500  1.371907  40.5606  10.2871  3.249731
  13639.352  13639.340  0.500  1.371645  40.5351  10.2833  3.247991
  13642.261  13642.250  0.500  1.371355  40.5066  10.2791  3.245052
  13645.163  13645.170  0.500  1.371075  40.4694  10.2725  3.242941
  13648.131  13648.120  0.500  1.370782  40.4371  10.2673  3.240851
  13651.109  13651.090  0.500  1.370557  40.38  10.2551  3.236839
  13654.088  13654.070  0.500  1.370222  40.1792  10.2075  3.223396
  13657.084  13657.080  0.500  1.369778  40.3699  10.2605  3.240043
  13660.099  13660.100  0.500  1.369268  40.3376  10.2576  3.241368
  13663.155  13663.150  0.500  1.368770  40.3039  10.2541  3.242349
  13666.237  13666.210  0.500  1.367950  40.2741  10.2549  3.243998
  13669.305  13669.290  0.500  1.367286  40.2478  10.255  3.247301
  13672.398  13672.390  0.500  1.366372  40.2085  10.2544  3.248895
  13675.517  13675.510  0.500  1.365259  40.182  10.2591  3.251414
  13678.679  13678.650  0.500  1.364262  40.1469  10.2603  3.254563
  13681.809  13681.800  0.500  1.363165  40.1155  10.2635  3.256963
  13684.965  13684.980  0.500  1.361889  40.0824  10.2681  3.259047
  13688.188  13688.170  0.500  1.360851  40.0486  10.2702  3.261231
  13691.413  13691.390  0.500  1.359670  40.0233  10.2758  3.263514
  13694.623  13694.620  0.500  1.358566  39.9882  10.2781  3.266158
  13697.867  13697.870  0.500  1.357464  39.9551  10.2809  3.268110
  13701.170  13701.150  0.500  1.356302  39.9262  10.2855  3.271118
  13704.450  13704.440  0.500  1.355104  39.8886  10.2881  3.273342
  13707.732  13707.750  0.500  1.354081  39.8642  10.2923  3.277804
  13711.081  13711.070  0.500  1.352822  39.8359  10.298  3.281677
  13714.439  13714.420  0.500  1.351921  39.8004  10.2981  3.285323
  13717.800  13717.790  0.500  1.350609  39.7715  10.3041  3.290418
  13721.170  13721.170  0.500  1.349357  39.7413  10.3092  3.295358
  13724.600  13724.580  0.500  1.348357  39.7075  10.3107  3.298946
  13728.031  13728.000  0.500  1.347233  39.6785  10.3148  3.303461
  13731.456  13731.450  0.500  1.346119  39.6444  10.3174  3.306896
  13734.907  13734.910  0.500  1.345115  39.6109  10.319  3.310620
  13738.402  13738.390  0.500  1.343949  39.5755  10.3218  3.314209
  13741.914  13741.890  0.500  1.342817  39.5403  10.3243  3.315749
  13745.404  13745.410  0.500  1.341741  39.5077  10.3269  3.318592
  13748.969  13748.950  0.500  1.340731  39.4739  10.3285  3.320821
  13752.529  13752.500  0.500  1.339766  39.4327  10.3277  3.322506
  13756.107  13756.080  0.500  1.338459  39.4039  10.3337  3.324886
  13759.686  13759.680  0.500  1.337526  39.3664  10.3335  3.326670
  13763.317  13763.290  0.500  1.336530  39.3347  10.3354  3.329451
  13766.934  13766.920  0.500  1.335580  39.3008  10.3363  3.330483
  13770.585  13770.580  0.500  1.334461  39.2649  10.3384  3.333118
  13774.255  13774.250  0.500  1.333500  39.2309  10.3394  3.334879
  13777.969  13777.940  0.500  1.332433  39.1952  10.341  3.338704
  13781.651  13781.650  0.500  1.331380  39.1592  10.3424  3.341838
  13785.377  13785.380  0.500  1.330188  39.1168  10.3436  3.345048
  13789.146  13789.120  0.500  1.328878  39.0857  10.3489  3.348912
  13792.926  13792.890  0.500  1.327553  39.0501  10.3532  3.352452
  13796.675  13796.680  0.500  1.326260  39.011  10.3562  3.356308
  13800.501  13800.480  0.500  1.324909  38.9762  10.3609  3.360804
  13804.345  13804.310  0.500  1.323395  38.939  10.3667  3.365299
  13808.158  13808.150  0.500  1.322113  38.9029  10.3704  3.368377
  13812.032  13812.010  0.500  1.320840  38.8685  10.3744  3.373523
  13815.949  13815.890  0.500  1.319228  38.8071  10.3748  3.375080
  13819.786  13819.790  0.500  1.317883  38.7912  10.3845  3.380323
  13823.724  13823.710  0.500  1.316566  38.7526  10.3878  3.385022
  13827.674  13827.650  0.500  1.315060  38.7079  10.3915  3.387639
  13831.650  13831.610  0.500  1.313784  38.6748  10.3958  3.391878
  13835.571  13835.580  0.500  1.312518  38.618  10.3937  3.394844
  13839.619  13839.580  0.500  1.311205  38.6013  10.4029  3.399493
  13843.603  13843.590  0.500  1.309780  38.5593  10.4064  3.404947
  13847.647  13847.630  0.500  1.308129  38.5092  10.41  3.408095
  13851.719  13851.680  0.500  1.306900  38.4623  10.4101  3.410437
  13855.769  13855.750  0.500  1.305635  38.397  10.4056  3.413473
  13859.846  13859.840  0.500  1.303983  38.3842  10.4193  3.419582
  13863.992  13863.950  0.500  1.302703  38.336  10.4196  3.424430
  13868.099  13868.080  0.500  1.301460  38.4188  10.4551  3.439859
  13872.234  13872.230  0.500  1.300044  38.349  10.4509  3.441612
  13876.413  13876.390  0.500  1.298274  38.2897  10.4532  3.443140
  13880.603  13880.580  0.500  1.297242  38.1683  10.4308  3.439669
  13884.804  13884.780  0.500  1.295697  38.0886  10.4251  3.439357
  13889.042  13889.010  0.500  1.294319  37.9781  10.4092  3.436548
  13893.265  13893.250  0.500  1.292847  37.8675  10.3942  3.434103
  13897.525  13897.510  0.500  1.291529  37.7873  10.3859  3.434592
  13901.812  13901.790  0.500  1.290233  37.7833  10.3982  3.440799
  13906.111  13906.090  0.500  1.288942  37.7891  10.4132  3.448634
  13910.446  13910.410  0.500  1.287432  37.7176  10.4092  3.448463
  13914.801  13914.750  0.500  1.286204  37.7154  10.4214  3.454739
  13919.133  13919.110  0.500  1.284728  37.6184  10.41  3.455016
  13923.527  13923.490  0.500  1.283631  37.6124  10.4197  3.461760
  13927.916  13927.880  0.500  1.282150  37.5897  10.4289  3.466974
  13932.324  13932.300  0.500  1.280653  37.5691  10.4388  3.474349
  13936.761  13936.730  0.500  1.279162  37.5412  10.4466  3.479768
  13941.200  13941.180  0.500  1.277928  37.5021  10.4486  3.483524
  13945.668  13945.650  0.500  1.276353  37.4541  10.4517  3.488098
  13950.189  13950.140  0.500  1.274790  37.4153  10.4572  3.491865
  13954.671  13954.650  0.500  1.273364  37.37  10.4594  3.496001
  13959.207  13959.180  0.500  1.271803  37.3211  10.4621  3.499803
  13963.764  13963.730  0.500  1.270402  37.2583  10.4591  3.502649
  13968.323  13968.300  0.500  1.268749  37.1603  10.4489  3.501127
  13972.919  13972.880  0.500  1.267814  35.1839  9.902376  3.321873
  13977.527  13977.490  0.500  1.265771  37.1856  10.4871  3.519741
  13982.112  13982.110  0.500  1.264233  37.1992  10.5071  3.530243
  13986.794  13986.760  0.500  1.262639  37.1534  10.5109  3.534435
  13991.437  13991.420  0.500  1.261209  37.1105  10.5138  3.537916
  13996.126  13996.100  0.500  1.259600  37.0627  10.5172  3.542267
  14000.826  14000.800  0.500  1.258289  37.0222  10.5195  3.546578
  14005.538  14005.520  0.500  1.256432  36.9764  10.526  3.551765
  14010.288  14010.260  0.500  1.255163  36.9422  10.5296  3.556853
  14015.066  14015.010  0.500  1.253528  36.8999  10.5348  3.562348
  14019.822  14019.790  0.500  1.251919  36.8577  10.5397  3.567326
  14024.659  14024.590  0.500  1.250018  36.8084  10.5456  3.570988
  14029.448  14029.400  0.500  1.248414  36.765  10.5501  3.576681
  14034.283  14034.230  0.500  1.247066  36.7225  10.5521  3.580931
  14039.130  14039.090  0.500  1.245439  36.6835  10.558  3.587691
  14043.980  14043.960  0.500  1.243768  36.6386  10.5628  3.592064
  14048.894  14048.850  0.500  1.242273  36.6007  10.5676  3.596954
  14053.811  14053.760  0.500  1.240437  36.5549  10.5738  3.602192
  14058.732  14058.690  0.500  1.239020  36.5046  10.5742  3.604982
  14063.709  14063.630  0.500  1.237402  36.4397  10.5725  3.607776
  14068.636  14068.600  0.500  1.235767  36.3181  10.5545  3.605233
  14073.611  14073.590  0.500  1.234692  33.8702  9.853649  3.367507
  14078.641  14078.590  0.500  1.232715  36.4205  10.6166  3.632611
  14083.632  14083.620  0.500  1.230964  36.2438  10.5836  3.623778
  14088.704  14088.660  0.500  1.229212  36.3208  10.6247  3.641914
  14093.806  14093.720  0.500  1.227742  36.27  10.6254  3.645952
  14098.764  14098.800  0.500  1.226013  36.2058  10.625  3.649007
  14103.865  14103.900  0.500  1.224437  36.1462  10.6242  3.653406
  14108.986  14109.020  0.500  1.222607  35.9624  10.5896  3.644703
  14114.147  14114.160  0.500  1.220922  35.9853  10.6142  3.656637
  14119.311  14119.320  0.500  1.219683  34.5385  10.2  3.519818
  14124.479  14124.500  0.500  1.217651  36.079  10.6767  3.686165
  14129.694  14129.690  0.500  1.215685  36.0024  10.675  3.689080
  14134.922  14134.910  0.500  1.214007  35.9465  10.6763  3.693584
  14140.128  14140.140  0.500  1.212375  35.896  10.6787  3.698294
  14145.407  14145.390  0.500  1.210593  35.8503  10.6841  3.701993
  14150.656  14150.660  0.500  1.209026  35.7967  10.6849  3.706333
  14155.978  14155.950  0.500  1.207061  35.7087  10.6796  3.707925
  14161.278  14161.260  0.500  1.205443  35.6118  10.6678  3.708548
  14166.618  14166.590  0.500  1.204202  33.4688  10.0383  3.492767
  14171.987  14171.940  0.500  1.201976  35.6505  10.7165  3.732108
  14177.361  14177.310  0.500  1.200246  35.628  10.7283  3.740761
  14182.713  14182.690  0.500  1.198452  35.5719  10.7306  3.744953
  14188.148  14188.100  0.500  1.196510  35.5182  10.7353  3.750292
  14193.551  14193.520  0.500  1.195008  35.4733  10.7378  3.755233
  14199.012  14198.970  0.500  1.193108  35.4216  10.7426  3.760958
  14204.451  14204.430  0.500  1.191416  35.3769  10.7472  3.767008
  14209.920  14209.910  0.500  1.189672  35.3242  10.7499  3.771674
  14215.473  14215.410  0.500  1.187859  35.2761  10.7547  3.777507
  14220.978  14220.930  0.500  1.186205  35.2279  10.7578  3.783315
  14226.504  14226.470  0.500  1.184217  35.1774  10.7638  3.788552
  14232.062  14232.020  0.500  1.182520  35.1312  10.7679  3.793721
  14237.623  14237.600  0.500  1.180695  35.0797  10.7718  3.798776
  14243.260  14243.200  0.500  1.178828  35.0231  10.7745  3.802898
  14248.849  14248.810  0.500  1.176913  34.9698  10.7787  3.808648
  14254.486  14254.450  0.500  1.175318  34.9116  10.7779  3.812904
  14260.136  14260.100  0.500  1.173411  34.846  10.7782  3.816413
  14265.836  14265.770  0.500  1.171565  34.7149  10.7575  3.813114
  14271.487  14271.460  0.500  1.169730  32.421  10.0651  3.571318