File: xdidata/Bi/Bi-L1-BismuthFluoride.xdi
# XDI/1.0 BlueSky/1.10.0 BMM/2023-1.0-py310-tiled
# Beamline.name: BMM (06BM) -- Beamline for Materials Measurement (NIST)
# Beamline.xray_source: NSLS-II three-pole wiggler
# Beamline.collimation: paraboloid mirror, 5 nm Rh on 30 nm Pt
# Beamline.focusing: not in use
# Beamline.harmonic_rejection: flat mirror, Pt stripe, pitch = 7.0 mrad relative to beam
# Beamline.software: Bluesky 1.10.0, Ophyd 1.7.0, DataBroker 2.0.0b13, Python 3.10.8, 2023-1.0-py310-tiled
# Detector.I0: 10 cm N2
# Detector.I1: 25 cm N2
# Detector.I2: 25 cm N2
# Element.symbol: Bi
# Element.edge: L1
# Element.reference: Bi
# Element.reference_material: BiO2
# Facility.name: NSLS-II
# Facility.energy: 3.0
# Facility.current: 400.0
# Facility.mode: top-off
# Facility.GUP: 301027
# Facility.SAF: 310583
# Facility.cycle: 2023-2
# Mono.name: Si(111)
# Mono.d_spacing: 3.13519
# Mono.encoder_resolution: 0.0000050 deg/ct
# Mono.angle_offset: 16.0754 deg
# Mono.scan_mode: pseudo channel cut
# Mono.scan_type: step
# Mono.direction: forward in energy
# Sample.name: BiF3
# Sample.prep: powder on tape
# Sample.x: 143.785 mm
# Sample.y: 114.695 mm
# Sample.SDD_position: 205.000 mm
# Scan.experimenters: Bruce Ravel
# Scan.edge_energy: 16387.5
# Scan.start_time: 2023-06-23T18:58:11
# Scan.end_time: 2023-06-23T19:06:00
# Scan.transient_id: 84953
# Scan.uid: 103accd8-b539-4ba7-ac20-512e32a08f51
# Scan.plot_hint: ln(I0/It)  --  ln($5/$6)
# Column.1: energy eV
# Column.2: requested_energy eV
# Column.3: measurement_time seconds
# Column.4: xmu
# Column.5: I0 nA
# Column.6: It nA
# Column.7: Ir nA
# ///////////
# BMM standards collection
# -----------
# energy  requested_energy  measurement_time  xmu  I0  It  Ir
  16187.438  16187.500  0.500  1.088096  20.4223  6.879416  2.598060
  16197.591  16197.500  0.500  1.085780  20.406  6.889844  2.605398
  16207.538  16207.500  0.500  1.083730  20.3749  6.893481  2.610279
  16217.624  16217.500  0.500  1.081570  20.348  6.899264  2.616345
  16227.642  16227.500  0.500  1.079142  20.314  6.904473  2.621292
  16237.604  16237.500  0.500  1.077057  20.2108  6.883723  2.617585
  16247.623  16247.500  0.500  1.074852  20.2081  6.898017  2.626436
  16257.598  16257.500  0.500  1.072548  20.1561  6.896104  2.628114
  16267.585  16267.500  0.500  1.070455  20.1232  6.899292  2.632475
  16277.630  16277.500  0.500  1.068522  20.0859  6.899843  2.635309
  16287.526  16287.500  0.500  1.066585  20.0502  6.900919  2.638604
  16297.491  16297.500  0.500  1.064746  19.9948  6.894510  2.638519
  16307.551  16307.500  0.500  1.063374  19.9253  6.879997  2.637171
  16317.576  16317.500  0.500  1.062104  19.9121  6.884179  2.640008
  16327.591  16327.500  0.500  1.061327  19.8726  6.875848  2.638813
  16337.583  16337.500  0.500  1.060922  19.8427  6.868279  2.636344
  16347.552  16347.500  0.500  1.061770  19.798  6.846993  2.627680
  16357.568  16357.500  0.500  1.065090  19.745  6.806050  2.608099
  16359.503  16359.500  0.500  1.066216  19.7473  6.799168  2.604877
  16361.508  16361.500  0.500  1.067487  19.726  6.783228  2.595812
  16363.525  16363.500  0.500  1.069181  19.7211  6.770033  2.588518
  16365.496  16365.500  0.500  1.071156  19.7202  6.756379  2.580322
  16367.527  16367.500  0.500  1.073615  19.7111  6.736685  2.569606
  16369.522  16369.500  0.500  1.076771  19.684  6.706226  2.554096
  16371.495  16371.500  0.500  1.081035  19.6386  6.662293  2.531754
  16373.479  16373.500  0.500  1.086357  19.6073  6.616351  2.508495
  16375.488  16375.500  0.500  1.093240  19.6258  6.577178  2.485538
  16377.521  16377.500  0.500  1.102250  19.6493  6.525969  2.455552
  16377.744  16377.800  0.500  1.103408  19.6488  6.518269  2.450603
  16378.073  16378.100  0.500  1.105214  19.6503  6.506993  2.444533
  16378.367  16378.400  0.500  1.107090  19.6459  6.493342  2.437360
  16378.684  16378.700  0.500  1.108847  19.6513  6.483722  2.431096
  16378.966  16379.000  0.500  1.110882  19.6392  6.466578  2.422380
  16379.260  16379.300  0.500  1.112925  19.6483  6.456352  2.415908
  16379.577  16379.600  0.500  1.114997  19.6669  6.449097  2.411468
  16379.871  16379.900  0.500  1.117259  19.641  6.426038  2.399090
  16380.153  16380.200  0.500  1.119365  19.6442  6.413577  2.393399
  16380.471  16380.500  0.500  1.122403  19.6534  6.397121  2.384306
  16380.800  16380.800  0.500  1.125090  19.6501  6.378867  2.372411
  16381.070  16381.100  0.500  1.127913  19.643  6.358589  2.363034
  16381.364  16381.400  0.500  1.130834  19.638  6.338444  2.352097
  16381.682  16381.700  0.500  1.133859  19.6414  6.320387  2.342064
  16381.987  16382.000  0.500  1.137606  19.6312  6.293484  2.328706
  16382.270  16382.300  0.500  1.140734  19.6286  6.272983  2.316543
  16382.599  16382.600  0.500  1.144589  19.628  6.248675  2.302935
  16382.905  16382.900  0.500  1.148728  19.6405  6.226826  2.290848
  16383.163  16383.200  0.500  1.152355  19.6208  6.198042  2.275455
  16383.481  16383.500  0.500  1.157177  19.6185  6.167528  2.260183
  16383.775  16383.800  0.500  1.161995  19.6218  6.138913  2.244027
  16384.057  16384.100  0.500  1.166622  19.6243  6.111332  2.228902
  16384.351  16384.400  0.500  1.171636  19.6195  6.079303  2.211913
  16384.692  16384.700  0.500  1.177782  19.6203  6.042298  2.192187
  16384.963  16385.000  0.500  1.183470  19.6161  6.006723  2.173696
  16385.245  16385.300  0.500  1.189263  19.6115  5.970621  2.153846
  16385.563  16385.600  0.500  1.195783  19.6087  5.930986  2.132973
  16385.821  16385.900  0.500  1.201890  19.6091  5.895004  2.114031
  16386.174  16386.200  0.500  1.209299  19.6105  5.851901  2.089598
  16386.480  16386.500  0.500  1.217136  19.6087  5.805685  2.067012
  16386.751  16386.800  0.500  1.223863  19.6139  5.768275  2.046835
  16387.080  16387.100  0.500  1.232021  19.6084  5.719825  2.021714
  16387.398  16387.400  0.500  1.239892  19.6091  5.675189  1.997180
  16387.668  16387.700  0.500  1.247752  19.608  5.630417  1.974387
  16388.021  16388.000  0.500  1.257948  19.6124  5.574569  1.946008
  16388.304  16388.300  0.500  1.265891  19.5998  5.526909  1.922282
  16388.586  16388.600  0.500  1.274157  19.6114  5.484665  1.899938
  16388.916  16388.900  0.500  1.283366  19.5985  5.430788  1.873127
  16389.163  16389.200  0.500  1.290971  19.5915  5.387742  1.851305
  16389.516  16389.500  0.500  1.300445  19.5949  5.337858  1.824977
  16389.810  16389.800  0.500  1.308626  19.5922  5.293630  1.803737
  16390.092  16390.100  0.500  1.316469  19.5802  5.249056  1.782084
  16390.398  16390.400  0.500  1.324290  19.5865  5.209857  1.761014
  16390.704  16390.700  0.500  1.331661  19.5845  5.171044  1.743249
  16391.011  16391.000  0.500  1.338208  19.583  5.136936  1.725595
  16391.328  16391.300  0.500  1.344844  19.5799  5.102147  1.708958
  16391.611  16391.600  0.500  1.349446  19.5814  5.079087  1.696667
  16391.882  16391.900  0.500  1.353464  19.575  5.057070  1.685743
  16392.188  16392.200  0.500  1.357807  19.5746  5.035074  1.675320
  16392.482  16392.500  0.500  1.360652  19.5722  5.020148  1.668232
  16392.765  16392.800  0.500  1.362629  19.569  5.009418  1.662208
  16393.106  16393.100  0.500  1.363894  19.654  5.024808  1.665508
  16393.377  16393.400  0.500  1.364169  19.644  5.020867  1.663653
  16393.683  16393.700  0.500  1.363931  19.6583  5.025713  1.665169
  16393.977  16394.000  0.500  1.362562  19.6567  5.032185  1.667828
  16394.272  16394.300  0.500  1.360647  19.637  5.036790  1.669484
  16394.578  16394.600  0.500  1.357912  19.6379  5.050802  1.676164
  16394.872  16394.900  0.500  1.354798  19.6346  5.065709  1.682182
  16395.167  16395.200  0.500  1.350844  19.6382  5.086730  1.691135
  16395.485  16395.500  0.500  1.346371  19.6269  5.106590  1.700710
  16395.791  16395.800  0.500  1.341456  19.6277  5.131956  1.711267
  16396.085  16396.100  0.500  1.336519  19.6193  5.155137  1.722294
  16396.415  16396.400  0.500  1.330706  19.6144  5.183898  1.734354
  16396.710  16396.700  0.500  1.325824  19.6246  5.211975  1.747958
  16396.980  16397.000  0.500  1.319904  19.6164  5.240735  1.760133
  16397.310  16397.300  0.500  1.314088  19.6253  5.273694  1.775376
  16397.617  16397.600  0.500  1.309395  19.6285  5.299362  1.787064
  16397.888  16397.900  0.500  1.303736  19.6111  5.324732  1.799448
  16398.217  16398.200  0.500  1.298375  19.6155  5.354533  1.812671
  16398.512  16398.500  0.500  1.293838  19.6106  5.377551  1.823737
  16398.818  16398.800  0.500  1.288926  19.6139  5.404934  1.835874
  16399.125  16399.100  0.500  1.284296  19.5978  5.425568  1.846148
  16399.396  16399.400  0.500  1.280400  19.6014  5.447756  1.855374
  16399.702  16399.700  0.500  1.276503  19.6103  5.471497  1.866648
  16400.044  16400.000  0.500  1.272197  19.5966  5.491268  1.877048
  16400.315  16400.300  0.500  1.269424  19.6087  5.509905  1.885444
  16400.609  16400.600  0.500  1.266037  19.6047  5.527495  1.893548
  16400.928  16400.900  0.500  1.262737  19.5809  5.539006  1.899126
  16401.199  16401.200  0.500  1.260681  19.6017  5.556322  1.907496
  16401.493  16401.500  0.500  1.258058  19.5749  5.563283  1.912843
  16401.811  16401.800  0.500  1.255533  19.574  5.577110  1.918372
  16402.118  16402.100  0.500  1.253756  19.5685  5.585458  1.922921
  16402.377  16402.400  0.500  1.251599  19.5592  5.594845  1.927478
  16402.684  16402.700  0.500  1.250071  19.5511  5.601097  1.932229
  16402.978  16403.000  0.500  1.248426  19.555  5.611433  1.935603
  16403.261  16403.300  0.500  1.246776  19.5547  5.620596  1.940892
  16403.615  16403.600  0.500  1.245495  19.5657  5.630983  1.946395
  16403.898  16403.900  0.500  1.244018  19.5628  5.638477  1.949888
  16404.157  16404.200  0.500  1.243002  19.562  5.643957  1.952853
  16404.487  16404.500  0.500  1.241535  19.5632  5.652603  1.956917
  16404.759  16404.800  0.500  1.240636  19.5705  5.659791  1.959221
  16405.089  16405.100  0.500  1.239543  19.5609  5.663206  1.962072
  16405.395  16405.400  0.500  1.238576  19.5785  5.673793  1.967053
  16405.678  16405.700  0.500  1.237676  19.569  5.676127  1.968387
  16405.949  16406.000  0.500  1.237020  19.5678  5.679503  1.970677
  16406.303  16406.300  0.500  1.236012  19.5698  5.685808  1.973692
  16406.563  16406.600  0.500  1.235451  19.5679  5.688461  1.975303
  16406.905  16406.900  0.500  1.234603  19.5765  5.695800  1.978128
  16407.211  16407.200  0.500  1.233836  19.5642  5.696586  1.979093
  16407.494  16407.500  0.500  1.232929  19.5623  5.701203  1.980626
  16407.813  16407.800  0.500  1.233073  19.5787  5.705143  1.984247
  16408.108  16408.100  0.500  1.232133  19.5605  5.705203  1.984982
  16408.367  16408.400  0.500  1.232148  19.5649  5.706414  1.986152
  16408.709  16408.700  0.500  1.231513  19.5578  5.707959  1.986962
  16409.028  16409.000  0.500  1.230989  19.5551  5.710167  1.988327
  16409.299  16409.300  0.500  1.230782  19.5543  5.711105  1.989422
  16409.606  16409.600  0.500  1.230901  19.5617  5.712586  1.990790
  16409.901  16409.900  0.500  1.230239  19.544  5.711192  1.990593
  16410.208  16410.200  0.500  1.230217  19.5489  5.712761  1.991857
  16410.503  16410.500  0.500  1.229940  19.5568  5.716662  1.993468
  16410.821  16410.800  0.500  1.229819  19.5471  5.714515  1.994237
  16411.104  16411.100  0.500  1.229810  19.5577  5.717655  1.995090
  16411.399  16411.400  0.500  1.229676  19.549  5.715888  1.995381
  16411.694  16411.700  0.500  1.229768  19.56  5.718570  1.996438
  16411.989  16412.000  0.500  1.229899  19.5454  5.713547  1.995410
  16412.261  16412.300  0.500  1.229948  19.5359  5.710486  1.994189
  16412.497  16412.500  0.500  1.229802  19.5383  5.712016  1.996218
  16413.476  16413.490  0.500  1.230244  19.5338  5.708202  1.996400
  16414.433  16414.490  0.500  1.230769  19.5363  5.705939  1.995432
  16415.471  16415.510  0.500  1.231467  19.5174  5.696439  1.994136
  16416.534  16416.560  0.500  1.232600  19.5114  5.688231  1.991418
  16417.597  16417.620  0.500  1.233739  19.5124  5.682034  1.988643
  16418.707  16418.700  0.500  1.234618  19.5076  5.675666  1.984827
  16419.805  16419.800  0.500  1.235923  19.4895  5.663005  1.979606
  16420.916  16420.920  0.500  1.237119  19.4766  5.652477  1.974800
  16422.026  16422.060  0.500  1.238089  19.4676  5.644380  1.969886
  16423.161  16423.210  0.500  1.239176  19.493  5.645627  1.968962
  16424.485  16424.390  0.500  1.240372  19.4829  5.635951  1.963531
  16425.572  16425.580  0.500  1.241666  19.4814  5.628229  1.959722
  16426.742  16426.800  0.500  1.242843  19.4783  5.620699  1.955927
  16428.090  16428.030  0.500  1.244679  19.4738  5.609097  1.950764
  16429.320  16429.280  0.500  1.246330  19.4587  5.595510  1.944962
  16430.585  16430.550  0.500  1.247856  19.4488  5.584142  1.940784
  16431.934  16431.840  0.500  1.248926  19.4475  5.577778  1.937073
  16433.235  16433.150  0.500  1.249914  19.4435  5.571124  1.935185
  16434.537  16434.480  0.500  1.250267  19.4241  5.563621  1.932569
  16435.898  16435.830  0.500  1.250515  19.4146  5.559516  1.931073
  16437.259  16437.200  0.500  1.249938  19.3994  5.558371  1.930260
  16438.621  16438.580  0.500  1.249515  19.4  5.560888  1.930672
  16440.053  16439.990  0.500  1.248663  19.3868  5.561850  1.932350
  16441.463  16441.410  0.500  1.247196  19.3769  5.567167  1.934737
  16442.884  16442.850  0.500  1.246312  19.3615  5.567664  1.934936
  16444.341  16444.310  0.500  1.245056  19.3317  5.566067  1.934177
  16445.811  16445.790  0.500  1.243800  19.3472  5.577544  1.938622
  16447.280  16447.290  0.500  1.242250  19.3598  5.589819  1.943573
  16448.833  16448.810  0.500  1.241048  19.368  5.598922  1.946373
  16450.386  16450.350  0.500  1.240017  19.355  5.600940  1.948250
  16451.951  16451.910  0.500  1.238792  19.3518  5.606863  1.952148
  16453.505  16453.480  0.500  1.237382  19.3588  5.616830  1.956048
  16455.118  16455.080  0.500  1.236349  19.3476  5.619361  1.958059
  16456.732  16456.690  0.500  1.234669  19.3106  5.618056  1.959565
  16458.381  16458.330  0.500  1.233448  19.3128  5.625552  1.963233
  16460.007  16459.980  0.500  1.232535  19.2993  5.626770  1.965460
  16461.693  16461.650  0.500  1.231584  19.2977  5.631658  1.968919
  16463.356  16463.340  0.500  1.230360  19.2931  5.637189  1.971347
  16465.102  16465.050  0.500  1.229810  19.2956  5.641037  1.975242
  16466.800  16466.780  0.500  1.229373  19.2874  5.641087  1.976359
  16468.559  16468.530  0.500  1.228841  19.2734  5.640000  1.975853
  16470.294  16470.290  0.500  1.228325  19.2777  5.644180  1.978631
  16472.065  16472.080  0.500  1.228104  19.2618  5.640764  1.977932
  16473.896  16473.880  0.500  1.228003  19.2562  5.639707  1.978096
  16475.728  16475.710  0.500  1.227878  19.2522  5.639231  1.979244
  16477.595  16477.550  0.500  1.227684  19.2371  5.635896  1.978590
  16479.439  16479.410  0.500  1.227603  19.2371  5.636345  1.978669
  16481.355  16481.290  0.500  1.227615  19.2246  5.632626  1.976938
  16483.212  16483.190  0.500  1.227682  19.217  5.630032  1.976414
  16485.141  16485.110  0.500  1.227723  19.2082  5.627226  1.975567
  16487.070  16487.050  0.500  1.227367  19.205  5.628280  1.976355
  16489.012  16489.010  0.500  1.227352  19.1911  5.624273  1.975373
  16490.966  16490.980  0.500  1.227090  19.1836  5.623556  1.976010
  16492.956  16492.980  0.500  1.226731  19.1782  5.623993  1.975463
  16494.970  16494.990  0.500  1.226450  19.1769  5.625199  1.976177
  16497.021  16497.020  0.500  1.226011  19.159  5.622413  1.975489
  16499.096  16499.080  0.500  1.225820  19.1505  5.620995  1.976104
  16501.184  16501.150  0.500  1.225263  19.1379  5.620429  1.975910
  16503.260  16503.240  0.500  1.224570  19.1277  5.621310  1.976402
  16505.361  16505.350  0.500  1.224047  19.1175  5.621276  1.976870
  16507.509  16507.480  0.500  1.223581  19.1122  5.622335  1.978414
  16509.623  16509.620  0.500  1.222962  19.1101  5.625201  1.979594
  16511.785  16511.790  0.500  1.222222  19.0922  5.624089  1.979728
  16513.948  16513.980  0.500  1.221435  19.0921  5.628476  1.980837
  16516.170  16516.180  0.500  1.220732  19.0837  5.629972  1.982844
  16518.394  16518.400  0.500  1.219760  19.0832  5.635291  1.984756
  16520.654  16520.650  0.500  1.219106  19.0556  5.630818  1.985085
  16522.926  16522.910  0.500  1.218267  19.0501  5.633930  1.987156
  16525.223  16525.190  0.500  1.217677  19.0396  5.634131  1.987739
  16527.521  16527.490  0.500  1.216507  19.0461  5.642646  1.991619
  16529.831  16529.810  0.500  1.215558  19.012  5.637919  1.990327
  16532.202  16532.150  0.500  1.214893  19.0034  5.639106  1.992822
  16534.514  16534.500  0.500  1.213684  18.9808  5.639204  1.992370
  16536.886  16536.880  0.500  1.213148  18.9876  5.644260  1.995494
  16539.283  16539.270  0.500  1.212227  18.9695  5.644071  1.997376
  16541.693  16541.690  0.500  1.211574  18.9656  5.646610  1.999137
  16544.115  16544.120  0.500  1.210587  18.9541  5.648733  1.999636
  16546.574  16546.570  0.500  1.209967  18.9155  5.640745  1.998831
  16549.082  16549.050  0.500  1.209020  18.915  5.645930  2.000651
  16551.554  16551.540  0.500  1.208710  18.9287  5.651769  2.004706
  16554.063  16554.050  0.500  1.207759  18.9168  5.653581  2.005136
  16556.597  16556.570  0.500  1.207048  18.9142  5.656839  2.006784
  16559.132  16559.120  0.500  1.206342  18.8896  5.653470  2.007052
  16561.692  16561.690  0.500  1.205804  18.8794  5.653444  2.007839
  16564.276  16564.270  0.500  1.205197  18.8689  5.653730  2.009310
  16566.874  16566.880  0.500  1.204569  18.8666  5.656621  2.011057
  16569.520  16569.500  0.500  1.204172  18.8525  5.654612  2.012204
  16572.155  16572.150  0.500  1.203351  18.8414  5.655931  2.013221
  16574.839  16574.810  0.500  1.202461  18.8338  5.658674  2.013741
  16577.488  16577.490  0.500  1.202043  18.8346  5.661306  2.015986
  16580.162  16580.190  0.500  1.201349  18.8152  5.659383  2.015529
  16582.897  16582.910  0.500  1.200747  18.8516  5.673765  2.022535
  16585.669  16585.650  0.500  1.200375  18.8585  5.677931  2.024346
  16588.417  16588.400  0.500  1.199602  18.8401  5.676794  2.024960
  16591.179  16591.180  0.500  1.198909  18.8089  5.671313  2.023247
  16593.978  16593.970  0.500  1.198289  18.7987  5.671759  2.022620
  16596.802  16596.790  0.500  1.197773  18.8065  5.677050  2.025973
  16599.603  16599.620  0.500  1.196833  18.7737  5.672471  2.024585
  16602.477  16602.470  0.500  1.196281  18.762  5.672061  2.025223
  16605.364  16605.350  0.500  1.195518  18.7481  5.672187  2.025562
  16608.265  16608.240  0.500  1.194679  18.7427  5.675318  2.028267
  16611.178  16611.150  0.500  1.193931  18.7487  5.681374  2.032397
  16614.081  16614.070  0.500  1.193248  18.7174  5.675773  2.031365
  16617.032  16617.020  0.500  1.192097  18.703  5.677918  2.032539
  16619.997  16619.990  0.500  1.191456  18.6864  5.676527  2.033005
  16622.976  16622.970  0.500  1.190576  18.6839  5.680771  2.035789
  16626.016  16625.980  0.500  1.189507  18.6658  5.681334  2.036116
  16629.044  16629.000  0.500  1.188894  18.6492  5.679771  2.037317
  16632.062  16632.050  0.500  1.187987  18.6493  5.684942  2.040960
  16635.105  16635.110  0.500  1.187227  18.6344  5.684730  2.041599
  16638.198  16638.190  0.500  1.186500  18.618  5.683854  2.042328
  16641.317  16641.290  0.500  1.185221  18.6008  5.685869  2.042980
  16644.460  16644.410  0.500  1.184444  18.5915  5.687457  2.044507
  16647.569  16647.550  0.500  1.183387  18.5899  5.692979  2.047290
  16650.703  16650.700  0.500  1.182806  18.5668  5.689208  2.046960
  16653.850  16653.880  0.500  1.181926  18.5405  5.686151  2.047775
  16657.084  16657.070  0.500  1.180966  18.5356  5.690081  2.049521
  16660.306  16660.290  0.500  1.179923  18.5279  5.693678  2.052351
  16663.567  16663.520  0.500  1.179167  18.513  5.693387  2.052486
  16666.780  16666.770  0.500  1.178305  18.4962  5.693144  2.054099
  16670.092  16670.050  0.500  1.177425  18.4896  5.696103  2.056005
  16673.356  16673.340  0.500  1.176771  18.4689  5.693449  2.055768
  16676.646  16676.650  0.500  1.175803  18.4489  5.692793  2.057614
  16679.998  16679.970  0.500  1.175110  18.4373  5.693148  2.059152
  16683.340  16683.320  0.500  1.174026  18.424  5.695236  2.059986
  16686.707  16686.690  0.500  1.173313  18.4194  5.697848  2.062379
  16690.075  16690.070  0.500  1.172382  18.3874  5.693275  2.061695
  16693.445  16693.480  0.500  1.171642  18.3864  5.697173  2.064192
  16696.926  16696.900  0.500  1.170674  18.3464  5.690266  2.062758
  16700.360  16700.350  0.500  1.169639  18.3276  5.690334  2.063764
  16703.857  16703.810  0.500  1.168872  18.2992  5.685891  2.062984
  16707.306  16707.290  0.500  1.168060  18.258  5.677668  2.061310
  16710.793  16710.790  0.500  1.167015  18.1557  5.651776  2.052961
  16714.318  16714.310  0.500  1.166537  17.5468  5.464840  1.985773
  16717.869  16717.850  0.500  1.164642  15.7454  4.913109  1.785081
  16721.422  16721.400  0.500  1.163927  18.1971  5.682185  2.066515
  16725.013  16724.980  0.500  1.163319  18.2975  5.717002  2.080703
  16728.581  16728.580  0.500  1.162182  18.2851  5.719636  2.082981
  16732.188  16732.190  0.500  1.161350  18.2779  5.722156  2.084991
  16735.845  16735.820  0.500  1.160189  18.2477  5.719316  2.084096
  16739.516  16739.480  0.500  1.159401  18.2398  5.721356  2.086463
  16743.201  16743.150  0.500  1.158197  18.2107  5.719102  2.087528
  16746.826  16746.840  0.500  1.157043  18.2065  5.724380  2.089634
  16750.526  16750.550  0.500  1.156383  18.1781  5.719226  2.089832
  16754.290  16754.280  0.500  1.155334  18.1636  5.720683  2.092069
  16758.080  16758.020  0.500  1.154054  18.1545  5.725116  2.093832
  16761.847  16761.790  0.500  1.153106  18.1346  5.724287  2.094834
  16765.603  16765.580  0.500  1.152153  18.1074  5.721139  2.095104
  16769.373  16769.380  0.500  1.151264  18.0811  5.717922  2.095608
  16773.207  16773.210  0.500  1.150112  18.0767  5.723115  2.098422
  16777.092  16777.050  0.500  1.149055  18.0576  5.723115  2.098888
  16780.966  16780.910  0.500  1.147996  18.0517  5.727288  2.102176
  16784.793  16784.790  0.500  1.146947  18.0299  5.726374  2.103198
  16788.659  16788.690  0.500  1.146057  17.9999  5.721964  2.101699
  16792.625  16792.610  0.500  1.144920  17.9808  5.722380  2.104318
  16796.593  16796.550  0.500  1.143940  17.9568  5.720330  2.104682
  16800.539  16800.510  0.500  1.142952  17.9298  5.717382  2.105131
  16804.486  16804.480  0.500  1.142008  17.7289  5.658668  2.084322
  16808.484  16808.480  0.500  1.140590  17.8707  5.712030  2.104500
  16812.522  16812.490  0.500  1.140145  17.869  5.714011  2.107664
  16816.562  16816.530  0.500  1.138666  17.8357  5.711816  2.108341
  16820.591  16820.580  0.500  1.137760  17.8049  5.707115  2.107612
  16824.684  16824.650  0.500  1.136535  17.7332  5.691117  2.102869
  16828.754  16828.740  0.500  1.135437  17.6139  5.659040  2.091028
  16832.901  16832.850  0.500  1.134902  17.1289  5.506148  2.037075
  16837.000  16836.980  0.500  1.133403  14.9778  4.821892  1.783558
  16841.139  16841.130  0.500  1.132051  17.8883  5.766681  2.135300
  16845.279  16845.290  0.500  1.131109  17.9343  5.786956  2.144872
  16849.509  16849.480  0.500  1.130191  17.904  5.782473  2.144929
  16853.703  16853.680  0.500  1.129332  17.8597  5.773138  2.141603
  16857.937  16857.910  0.500  1.128021  17.8061  5.763352  2.140272
  16862.161  16862.150  0.500  1.126738  17.7501  5.752617  2.136486
  16866.411  16866.410  0.500  1.125837  17.5793  5.702390  2.120090
  16870.727  16870.690  0.500  1.124527  17.7434  5.763148  2.143259
  16875.007  16874.990  0.500  1.123597  17.702  5.755081  2.141668
  16879.351  16879.310  0.500  1.122286  17.6995  5.761791  2.145896
  16883.661  16883.650  0.500  1.121313  17.675  5.759424  2.146053
  16888.035  16888.010  0.500  1.120386  17.6534  5.757739  2.146539
  16892.424  16892.390  0.500  1.119064  17.6326  5.758562  2.147595
  16896.827  16896.780  0.500  1.118196  17.6092  5.755891  2.148839
  16901.208  16901.200  0.500  1.116913  17.5813  5.754165  2.149468
  16905.642  16905.630  0.500  1.115754  17.5623  5.754609  2.151021
  16910.128  16910.080  0.500  1.114597  17.5392  5.753687  2.152808
  16914.591  16914.550  0.500  1.113320  17.4972  5.747235  2.150814
  16919.056  16919.040  0.500  1.112312  17.4626  5.741660  2.150501
  16923.537  16923.550  0.500  1.110922  17.2734  5.687339  2.131110
  16928.120  16928.080  0.500  1.109759  17.4566  5.754373  2.157228
  16932.668  16932.630  0.500  1.108769  17.4094  5.744490  2.155640
  16937.257  16937.200  0.500  1.107433  17.3677  5.738387  2.154011
  16941.772  16941.780  0.500  1.106664  17.2797  5.713702  2.147109
  16946.390  16946.390  0.500  1.105233  16.9648  5.617620  2.112444
  16951.062  16951.010  0.500  1.104649  14.7346  4.881959  1.837058
  16955.698  16955.660  0.500  1.102699  17.4026  5.777200  2.175513
  16960.324  16960.320  0.500  1.101980  17.5118  5.817643  2.191158
  16965.041  16965.000  0.500  1.100725  17.4569  5.806693  2.189048
  16969.723  16969.700  0.500  1.099483  17.4279  5.804246  2.190062
  16974.458  16974.420  0.500  1.098367  17.3997  5.801306  2.190773
  16979.195  16979.160  0.500  1.096984  17.3601  5.796124  2.188938
  16983.948  16983.910  0.500  1.095754  17.124  5.724324  2.163723
  16988.754  16988.690  0.500  1.094629  17.308  5.792357  2.191891
  16993.525  16993.490  0.500  1.093485  17.2947  5.794529  2.193950
  16998.311  16998.300  0.500  1.092293  17.2736  5.794356  2.194964
  17003.176  17003.130  0.500  1.090804  17.2495  5.794916  2.196431
  17008.032  17007.990  0.500  1.089900  17.2333  5.794687  2.198924
  17012.902  17012.860  0.500  1.088799  17.2043  5.791303  2.197625
  17017.750  17017.750  0.500  1.087416  17.1864  5.793316  2.200202
  17022.677  17022.660  0.500  1.086195  17.1636  5.792684  2.201238
  17027.671  17027.590  0.500  1.084920  17.1418  5.792690  2.203243
  17032.591  17032.530  0.500  1.083814  17.1185  5.791226  2.203573
  17037.501  17037.500  0.500  1.082635  17.1009  5.792102  2.206418
  17042.516  17042.490  0.500  1.081237  17.0701  5.789749  2.206553
  17047.508  17047.490  0.500  1.080029  17.0433  5.787674  2.207252
  17052.580  17052.520  0.500  1.078883  17.0155  5.784854  2.209044
  17057.566  17057.560  0.500  1.077295  16.9829  5.782942  2.208941
  17062.618  17062.620  0.500  1.076487  16.9473  5.775491  2.208165
  17067.725  17067.700  0.500  1.075083  16.8569  5.752745  2.200232
  17072.834  17072.800  0.500  1.073986  16.1936  5.532448  2.118120
  17077.934  17077.920  0.500  1.071044  15.8739  5.439204  2.082889
  17083.114  17083.060  0.500  1.071265  16.9727  5.814434  2.229896
  17088.271  17088.220  0.500  1.069865  16.948  5.814104  2.230359
  17093.431  17093.400  0.500  1.068595  16.9147  5.810034  2.230585
  17098.595  17098.590  0.500  1.067479  16.892  5.808709  2.231907
  17103.864  17103.810  0.500  1.065969  16.8668  5.808806  2.232102
  17109.098  17109.040  0.500  1.064790  16.853  5.810920  2.235763
  17114.335  17114.290  0.500  1.063542  16.8238  5.808078  2.236004
  17119.576  17119.560  0.500  1.062191  16.8016  5.808273  2.236981
  17124.897  17124.850  0.500  1.061073  16.7753  5.805672  2.238320
  17130.195  17130.160  0.500  1.059443  16.75  5.806374  2.240071
  17135.523  17135.490  0.500  1.058290  16.7372  5.808627  2.242465
  17140.879  17140.840  0.500  1.056861  16.7127  5.808405  2.243583
  17146.265  17146.210  0.500  1.055579  16.6911  5.808357  2.245347
  17151.641  17151.590  0.500  1.054236  16.664  5.806726  2.247073
  17157.008  17157.000  0.500  1.053234  16.655  5.809395  2.249676
  17162.443  17162.420  0.500  1.051645  16.6297  5.809782  2.251927
  17167.932  17167.870  0.500  1.050456  16.6096  5.809684  2.253880
  17173.387  17173.330  0.500  1.049121  16.5845  5.808639  2.254276
  17178.858  17178.810  0.500  1.047931  16.5654  5.808870  2.256333
  17184.333  17184.310  0.500  1.046292  16.5424  5.810307  2.257454
  17189.914  17189.830  0.500  1.044959  16.52  5.810201  2.260007
  17195.396  17195.370  0.500  1.043812  16.499  5.809457  2.262141
  17200.920  17200.920  0.500  1.042342  16.4835  5.812527  2.264354
  17206.500  17206.500  0.500  1.041011  16.4561  5.810594  2.264577
  17212.161  17212.100  0.500  1.039721  16.4315  5.809424  2.267731
  17217.774  17217.710  0.500  1.038202  16.4083  5.810014  2.267842
  17223.377  17223.350  0.500  1.036894  16.3983  5.814091  2.271910
  17229.049  17229.000  0.500  1.035772  16.373  5.811631  2.272686
  17234.739  17234.670  0.500  1.034161  16.3335  5.806945  2.272385
  17240.431  17240.360  0.500  1.032885  16.319  5.809217  2.276016