File: xdidata/Bi/Bi-L1-BismuthOxide.xdi
# XDI/1.0 BlueSky/1.10.0 BMM/2023-1.0-py310-tiled
# Beamline.name: BMM (06BM) -- Beamline for Materials Measurement (NIST)
# Beamline.xray_source: NSLS-II three-pole wiggler
# Beamline.collimation: paraboloid mirror, 5 nm Rh on 30 nm Pt
# Beamline.focusing: not in use
# Beamline.harmonic_rejection: flat mirror, Pt stripe, pitch = 7.0 mrad relative to beam
# Beamline.software: Bluesky 1.10.0, Ophyd 1.7.0, DataBroker 2.0.0b13, Python 3.10.8, 2023-1.0-py310-tiled
# Detector.I0: 10 cm N2
# Detector.I1: 25 cm N2
# Detector.I2: 25 cm N2
# Element.symbol: Bi
# Element.edge: L1
# Element.reference: Bi
# Element.reference_material: BiO2
# Facility.name: NSLS-II
# Facility.energy: 3.0
# Facility.current: 400.0
# Facility.mode: top-off
# Facility.GUP: 301027
# Facility.SAF: 310583
# Facility.cycle: 2023-2
# Mono.name: Si(111)
# Mono.d_spacing: 3.13519
# Mono.encoder_resolution: 0.0000050 deg/ct
# Mono.angle_offset: 16.0754 deg
# Mono.scan_mode: pseudo channel cut
# Mono.scan_type: step
# Mono.direction: forward in energy
# Sample.name: BiO2
# Sample.prep: powder on tape
# Sample.x: 109.138 mm
# Sample.y: 153.150 mm
# Sample.SDD_position: 205.000 mm
# Scan.experimenters: Bruce Ravel
# Scan.edge_energy: 16387.5
# Scan.start_time: 2023-05-28T21:57:21
# Scan.end_time: 2023-05-28T22:04:50
# Scan.transient_id: 79050
# Scan.uid: 769aea48-b841-4f16-827e-38f6690f3f51
# Scan.plot_hint: ln(It/Ir)  --  ln($6/$7)
# Column.1: energy eV
# Column.2: requested_energy eV
# Column.3: measurement_time seconds
# Column.4: xmu
# Column.5: I0 nA
# Column.6: It nA
# Column.7: Ir nA
# ///////////
# Welcome to BMM
# -----------
# energy  requested_energy  measurement_time  xmu  I0  It  Ir
  16187.472  16187.500  0.500  0.986366  20.2006  37.2149  13.8785
  16197.533  16197.500  0.500  0.985092  20.1688  37.1693  13.8792
  16207.492  16207.500  0.500  0.983966  20.1285  37.0872  13.8641
  16217.543  16217.500  0.500  0.982544  20.0839  37.0094  13.8547
  16227.538  16227.500  0.500  0.981085  20.0481  36.9487  13.8522
  16237.557  16237.500  0.500  0.979768  19.9643  36.8027  13.8157
  16247.519  16247.500  0.500  0.978667  19.9547  36.7807  13.8226
  16257.552  16257.500  0.500  0.977395  19.9048  36.7032  13.811
  16267.562  16267.500  0.500  0.976387  19.871  36.6388  13.8007
  16277.526  16277.500  0.500  0.975202  19.8296  36.5697  13.791
  16287.526  16287.500  0.500  0.973912  19.7738  36.4695  13.771
  16297.503  16297.500  0.500  0.972982  19.7375  36.4035  13.7589
  16307.411  16307.500  0.500  0.971961  19.6459  36.24  13.711
  16317.565  16317.500  0.500  0.971026  19.6072  36.171  13.6977
  16327.474  16327.500  0.500  0.970249  19.609  36.1833  13.7131
  16337.454  16337.500  0.500  0.970146  19.5712  36.1098  13.6866
  16347.470  16347.500  0.500  0.970497  19.5297  36.0399  13.6553
  16357.439  16357.500  0.500  0.971855  19.4829  35.9588  13.6061
  16359.397  16359.500  0.500  0.972100  19.4778  35.9443  13.5973
  16361.402  16361.500  0.500  0.973001  19.4657  35.928  13.5789
  16363.396  16363.500  0.500  0.973708  19.4628  35.9238  13.5677
  16365.403  16365.500  0.500  0.974730  19.4531  35.9015  13.5454
  16367.433  16367.500  0.500  0.975935  19.4332  35.8735  13.5186
  16369.440  16369.500  0.500  0.977504  19.423  35.855  13.4904
  16371.436  16371.500  0.500  0.979270  19.3765  35.7616  13.4315
  16373.432  16373.500  0.500  0.981900  19.3294  35.6796  13.3655
  16375.441  16375.500  0.500  0.984983  19.3521  35.7165  13.3382
  16377.415  16377.500  0.500  0.989081  19.399  35.8074  13.3174
  16377.709  16377.800  0.500  0.989856  19.3924  35.7993  13.3041
  16377.991  16378.100  0.500  0.990741  19.3799  35.7733  13.2827
  16378.296  16378.400  0.500  0.991451  19.3752  35.7636  13.2697
  16378.578  16378.700  0.500  0.992318  19.385  35.7814  13.2648
  16378.896  16379.000  0.500  0.993204  19.3785  35.7741  13.2503
  16379.213  16379.300  0.500  0.994105  19.3862  35.7806  13.2408
  16379.519  16379.600  0.500  0.995281  19.387  35.7834  13.2262
  16379.824  16379.900  0.500  0.996171  19.3906  35.7967  13.2194
  16380.130  16380.200  0.500  0.997421  19.3748  35.7614  13.1899
  16380.424  16380.500  0.500  0.998575  19.3724  35.7588  13.1737
  16380.706  16380.800  0.500  0.999695  19.369  35.7569  13.1582
  16381.023  16381.100  0.500  1.000968  19.3645  35.7415  13.1358
  16381.317  16381.400  0.500  1.002400  19.3695  35.7505  13.1204
  16381.635  16381.700  0.500  1.004041  19.3588  35.7367  13.0938
  16381.940  16382.000  0.500  1.005615  19.3575  35.731  13.0711
  16382.234  16382.300  0.500  1.007118  19.3617  35.7415  13.0553
  16382.517  16382.600  0.500  1.008902  19.3545  35.7266  13.0266
  16382.834  16382.900  0.500  1.010597  19.3571  35.7304  13.0059
  16383.151  16383.200  0.500  1.012588  19.3533  35.7268  12.9788
  16383.457  16383.500  0.500  1.014884  19.3491  35.7186  12.946
  16383.751  16383.800  0.500  1.017505  19.3466  35.7116  12.9096
  16384.057  16384.100  0.500  1.019604  19.344  35.7142  12.8835
  16384.351  16384.400  0.500  1.021876  19.3454  35.7097  12.8526
  16384.657  16384.700  0.500  1.024414  19.3446  35.7106  12.8203
  16384.963  16385.000  0.500  1.027123  19.3361  35.6933  12.7795
  16385.268  16385.300  0.500  1.030114  19.3424  35.7072  12.7463
  16385.574  16385.600  0.500  1.033025  19.3407  35.7021  12.7074
  16385.892  16385.900  0.500  1.036186  19.34  35.7069  12.669
  16386.174  16386.200  0.500  1.039369  19.3402  35.7045  12.6279
  16386.468  16386.500  0.500  1.042773  19.324  35.6766  12.5752
  16386.762  16386.800  0.500  1.046178  19.3238  35.677  12.5325
  16387.080  16387.100  0.500  1.049866  19.37  35.7604  12.5156
  16387.386  16387.400  0.500  1.053559  19.397  35.8052  12.4851
  16387.715  16387.700  0.500  1.057698  19.3981  35.8098  12.4351
  16387.998  16388.000  0.500  1.061596  19.391  35.7992  12.3831
  16388.304  16388.300  0.500  1.065543  19.3932  35.797  12.3335
  16388.586  16388.600  0.500  1.069496  19.3865  35.7854  12.2809
  16388.892  16388.900  0.500  1.073544  19.3858  35.7937  12.2341
  16389.198  16389.200  0.500  1.077757  19.3805  35.7807  12.1783
  16389.504  16389.500  0.500  1.081457  19.3801  35.7785  12.1325
  16389.786  16389.800  0.500  1.085594  19.3857  35.7858  12.0849
  16390.128  16390.100  0.500  1.089852  19.3961  35.8045  12.0398
  16390.387  16390.400  0.500  1.093216  19.3901  35.7982  11.9973
  16390.669  16390.700  0.500  1.096522  19.3768  35.7718  11.9489
  16390.999  16391.000  0.500  1.100020  19.368  35.7535  11.9011
  16391.293  16391.300  0.500  1.103122  19.3693  35.7566  11.8652
  16391.599  16391.600  0.500  1.105955  19.3634  35.7521  11.8302
  16391.917  16391.900  0.500  1.108678  19.3612  35.7474  11.7964
  16392.199  16392.200  0.500  1.110938  19.3627  35.7528  11.7716
  16392.494  16392.500  0.500  1.112675  19.3613  35.7451  11.7486
  16392.788  16392.800  0.500  1.114099  19.3594  35.7424  11.731
  16393.094  16393.100  0.500  1.115059  19.3557  35.7344  11.7172
  16393.400  16393.400  0.500  1.115740  19.3584  35.7383  11.7105
  16393.695  16393.700  0.500  1.116094  19.3562  35.7349  11.7052
  16394.013  16394.000  0.500  1.116244  19.3569  35.7393  11.7049
  16394.307  16394.300  0.500  1.116042  19.355  35.7314  11.7047
  16394.601  16394.600  0.500  1.115390  19.3552  35.7289  11.7115
  16394.896  16394.900  0.500  1.114684  19.356  35.7404  11.7235
  16395.214  16395.200  0.500  1.113824  19.3568  35.7375  11.7327
  16395.496  16395.500  0.500  1.112394  19.3425  35.7156  11.7422
  16395.838  16395.800  0.500  1.110777  19.3354  35.7009  11.7564
  16396.121  16396.100  0.500  1.109158  19.3323  35.6939  11.7732
  16396.415  16396.400  0.500  1.107674  19.3267  35.6871  11.7884
  16396.698  16396.700  0.500  1.105917  19.3435  35.7146  11.8182
  16396.992  16397.000  0.500  1.103824  19.3277  35.6818  11.8321
  16397.287  16397.300  0.500  1.102002  19.3328  35.6919  11.857
  16397.605  16397.600  0.500  1.100119  19.3311  35.694  11.8801
  16397.888  16397.900  0.500  1.098391  19.3344  35.6972  11.9017
  16398.229  16398.200  0.500  1.096799  19.3283  35.6908  11.9185
  16398.500  16398.500  0.500  1.094627  19.332  35.6859  11.9428
  16398.783  16398.800  0.500  1.093335  19.3366  35.7089  11.9659
  16399.077  16399.100  0.500  1.091451  19.328  35.6843  11.9803
  16399.384  16399.400  0.500  1.089971  19.317  35.6679  11.9925
  16399.690  16399.700  0.500  1.088328  19.3151  35.6595  12.0094
  16399.997  16400.000  0.500  1.086977  19.3272  35.6827  12.0334
  16400.303  16400.300  0.500  1.085517  19.3156  35.6626  12.0442
  16400.586  16400.600  0.500  1.084215  19.3101  35.6532  12.0567
  16400.880  16400.900  0.500  1.083034  19.3025  35.6393  12.0663
  16401.163  16401.200  0.500  1.082090  19.3019  35.6426  12.0788
  16401.481  16401.500  0.500  1.080920  19.2942  35.6234  12.0864
  16401.788  16401.800  0.500  1.079937  19.3032  35.6434  12.1051
  16402.083  16402.100  0.500  1.079067  19.2822  35.6027  12.1018
  16402.413  16402.400  0.500  1.078002  19.2791  35.6005  12.1139
  16402.660  16402.700  0.500  1.077181  19.2724  35.5828  12.1179
  16402.967  16403.000  0.500  1.076609  19.267  35.5785  12.1233
  16403.273  16403.300  0.500  1.075778  19.27  35.5809  12.1342
  16403.568  16403.600  0.500  1.075185  19.27  35.581  12.1415
  16403.886  16403.900  0.500  1.074534  19.2734  35.5826  12.1499
  16404.216  16404.200  0.500  1.073779  19.2685  35.5777  12.1574
  16404.487  16404.500  0.500  1.073085  19.2693  35.5738  12.1645
  16404.782  16404.800  0.500  1.072736  19.2679  35.5815  12.1714
  16405.089  16405.100  0.500  1.072225  19.2774  35.594  12.1819
  16405.360  16405.400  0.500  1.071609  19.2818  35.6035  12.1927
  16405.690  16405.700  0.500  1.071256  19.2666  35.5778  12.1882
  16405.985  16406.000  0.500  1.070770  19.2696  35.5802  12.1949
  16406.303  16406.300  0.500  1.070402  19.2753  35.5918  12.2034
  16406.598  16406.600  0.500  1.069991  19.2713  35.5828  12.2053
  16406.893  16406.900  0.500  1.069609  19.2654  35.5774  12.2081
  16407.188  16407.200  0.500  1.069232  19.2732  35.5844  12.2151
  16407.494  16407.500  0.500  1.068850  19.2698  35.5813  12.2187
  16407.813  16407.800  0.500  1.068401  19.2687  35.5807  12.224
  16408.120  16408.100  0.500  1.068064  19.2676  35.5758  12.2264
  16408.414  16408.400  0.500  1.067690  19.2673  35.5784  12.2319
  16408.698  16408.700  0.500  1.067487  19.274  35.5921  12.2391
  16408.969  16409.000  0.500  1.066950  19.2591  35.5563  12.2334
  16409.287  16409.300  0.500  1.066872  19.2726  35.5896  12.2458
  16409.594  16409.600  0.500  1.066432  19.2761  35.5947  12.2529
  16409.913  16409.900  0.500  1.066046  19.2593  35.5563  12.2444
  16410.219  16410.200  0.500  1.065738  19.2582  35.5604  12.2496
  16410.526  16410.500  0.500  1.065501  19.2579  35.555  12.2507
  16410.798  16410.800  0.500  1.065188  19.2544  35.5518  12.2534
  16411.081  16411.100  0.500  1.064820  19.2478  35.5382  12.2532
  16411.411  16411.400  0.500  1.064448  19.2477  35.5399  12.2583
  16411.718  16411.700  0.500  1.064378  19.2518  35.5501  12.2627
  16412.025  16412.000  0.500  1.064111  19.2456  35.5456  12.2645
  16412.308  16412.300  0.500  1.063679  19.2458  35.5392  12.2675
  16412.497  16412.500  0.500  1.063474  19.2462  35.5384  12.2698
  16413.524  16413.490  0.500  1.062851  19.245  35.5366  12.2768
  16414.503  16414.490  0.500  1.062067  19.2369  35.5185  12.2802
  16415.542  16415.510  0.500  1.061733  19.2228  35.4958  12.2764
  16416.569  16416.560  0.500  1.061577  19.2325  35.5174  12.2858
  16417.644  16417.620  0.500  1.061659  19.2179  35.4914  12.2758
  16418.683  16418.700  0.500  1.061867  19.2131  35.4733  12.267
  16419.794  16419.800  0.500  1.062624  19.2008  35.4564  12.2519
  16420.916  16420.920  0.500  1.063410  19.1926  35.4432  12.2377
  16422.050  16422.060  0.500  1.064087  19.1945  35.4447  12.2299
  16423.208  16423.210  0.500  1.064956  19.1929  35.4477  12.2204
  16424.390  16424.390  0.500  1.065645  19.18  35.4175  12.2015
  16425.572  16425.580  0.500  1.066536  19.1806  35.4234  12.1927
  16426.801  16426.800  0.500  1.067201  19.1733  35.4085  12.1794
  16428.043  16428.030  0.500  1.067921  19.1658  35.3979  12.167
  16429.296  16429.280  0.500  1.068485  19.1675  35.399  12.1606
  16430.585  16430.550  0.500  1.068688  19.1617  35.3907  12.1552
  16431.875  16431.840  0.500  1.069037  19.1534  35.3739  12.1452
  16433.176  16433.150  0.500  1.069003  19.1465  35.3647  12.1425
  16434.466  16434.480  0.500  1.069159  19.1417  35.351  12.1359
  16435.839  16435.830  0.500  1.069190  19.1313  35.3353  12.1301
  16437.188  16437.200  0.500  1.069280  19.1298  35.3362  12.1294
  16438.573  16438.580  0.500  1.069078  19.113  35.3038  12.1207
  16439.994  16439.990  0.500  1.068785  19.0875  35.2548  12.1074
  16441.427  16441.410  0.500  1.069009  19.0894  35.2571  12.1055
  16442.849  16442.850  0.500  1.068813  19.0769  35.2311  12.0989
  16444.329  16444.310  0.500  1.068791  19.0523  35.1953  12.0869
  16445.799  16445.790  0.500  1.068621  19.061  35.2095  12.0938
  16447.292  16447.290  0.500  1.068441  19.0761  35.2394  12.1063
  16448.845  16448.810  0.500  1.068017  19.0724  35.2245  12.1063
  16450.374  16450.350  0.500  1.067645  19.0756  35.2377  12.1153
  16451.951  16451.910  0.500  1.067295  19.0784  35.239  12.12
  16453.505  16453.480  0.500  1.066740  19.0552  35.1982  12.1127
  16455.094  16455.080  0.500  1.066001  19.0494  35.1873  12.1179
  16456.661  16456.690  0.500  1.065370  19.0491  35.1882  12.1259
  16458.346  16458.330  0.500  1.064491  19.0268  35.1503  12.1235
  16459.984  16459.980  0.500  1.063714  19.0144  35.1276  12.125
  16461.681  16461.650  0.500  1.062750  19.0083  35.1155  12.1326
  16463.368  16463.340  0.500  1.061992  19.026  35.1495  12.1535
  16465.102  16465.050  0.500  1.061439  18.9984  35.0984  12.1425
  16466.812  16466.780  0.500  1.060848  18.9916  35.0882  12.1462
  16468.559  16468.530  0.500  1.060455  18.9896  35.0823  12.149
  16470.294  16470.290  0.500  1.060017  19.0003  35.1035  12.1616
  16472.089  16472.080  0.500  1.059723  18.9758  35.0604  12.1502
  16473.849  16473.880  0.500  1.059496  18.9706  35.056  12.1515
  16475.680  16475.710  0.500  1.059227  18.9696  35.0497  12.1526
  16477.547  16477.550  0.500  1.058970  18.9512  35.015  12.1437
  16479.392  16479.410  0.500  1.058832  18.9405  34.9944  12.1382
  16481.331  16481.290  0.500  1.058613  18.9326  34.9822  12.1366
  16483.236  16483.190  0.500  1.058295  18.9272  34.9702  12.1363
  16485.141  16485.110  0.500  1.058256  18.9174  34.957  12.1322
  16487.046  16487.050  0.500  1.058104  18.9128  34.9473  12.1307
  16489.024  16489.010  0.500  1.057982  18.9031  34.934  12.1275
  16490.977  16490.980  0.500  1.057973  18.9031  34.9299  12.1262
  16492.980  16492.980  0.500  1.057889  18.8835  34.8942  12.1148
  16495.018  16494.990  0.500  1.057664  18.8682  34.8687  12.1087
  16497.033  16497.020  0.500  1.057257  18.8767  34.8824  12.1184
  16499.096  16499.080  0.500  1.057150  18.8567  34.8442  12.1064
  16501.172  16501.150  0.500  1.056875  18.8491  34.8328  12.1058
  16503.260  16503.240  0.500  1.056789  18.8318  34.8026  12.0963
  16505.384  16505.350  0.500  1.056539  18.8239  34.7899  12.095
  16507.474  16507.480  0.500  1.056241  18.8297  34.8007  12.1023
  16509.623  16509.620  0.500  1.056099  18.8121  34.7677  12.0926
  16511.809  16511.790  0.500  1.055900  18.8054  34.756  12.0909
  16513.948  16513.980  0.500  1.055423  18.7913  34.7319  12.0883
  16516.170  16516.180  0.500  1.054998  18.7853  34.7249  12.091
  16518.442  16518.400  0.500  1.054873  18.7747  34.7103  12.0874
  16520.666  16520.650  0.500  1.054470  18.7729  34.7011  12.0891
  16522.926  16522.910  0.500  1.054133  18.7536  34.6686  12.0818
  16525.223  16525.190  0.500  1.053481  18.7474  34.6549  12.0849
  16527.485  16527.490  0.500  1.053051  18.7391  34.6422  12.0857
  16529.796  16529.810  0.500  1.052611  18.7317  34.628  12.086
  16532.166  16532.150  0.500  1.052036  18.7144  34.5915  12.0802
  16534.490  16534.500  0.500  1.051588  18.7012  34.5749  12.0799
  16536.922  16536.880  0.500  1.050944  18.6985  34.5683  12.0853
  16539.283  16539.270  0.500  1.050590  18.6835  34.541  12.0801
  16541.741  16541.690  0.500  1.050048  18.6758  34.5312  12.0832
  16544.139  16544.120  0.500  1.049815  18.672  34.5233  12.0832
  16546.562  16546.570  0.500  1.049268  18.6345  34.4493  12.064
  16549.046  16549.050  0.500  1.048838  18.6236  34.4312  12.0628
  16551.542  16551.540  0.500  1.048338  18.6377  34.4607  12.0792
  16554.063  16554.050  0.500  1.047937  18.6534  34.4936  12.0955
  16556.597  16556.570  0.500  1.047554  18.6494  34.4857  12.0974
  16559.156  16559.120  0.500  1.047018  18.6434  34.4752  12.1002
  16561.716  16561.690  0.500  1.046510  18.6255  34.4455  12.0959
  16564.252  16564.270  0.500  1.046032  18.6253  34.4466  12.1021
  16566.886  16566.880  0.500  1.045654  18.6113  34.42  12.0973
  16569.508  16569.500  0.500  1.045077  18.5994  34.3925  12.0946
  16572.179  16572.150  0.500  1.044763  18.5945  34.3847  12.0957
  16574.827  16574.810  0.500  1.044305  18.5849  34.3713  12.0965
  16577.500  16577.490  0.500  1.043842  18.582  34.3659  12.1002
  16580.222  16580.190  0.500  1.043589  18.5596  34.3262  12.0893
  16582.897  16582.910  0.500  1.043204  18.5429  34.2983  12.0841
  16585.644  16585.650  0.500  1.042930  18.5359  34.2847  12.0826
  16588.405  16588.400  0.500  1.042718  18.5233  34.2624  12.0773
  16591.203  16591.180  0.500  1.042531  18.5029  34.2249  12.0664
  16594.002  16593.970  0.500  1.041991  18.4922  34.2033  12.0653
  16596.826  16596.790  0.500  1.041826  18.4891  34.2025  12.067
  16599.615  16599.620  0.500  1.041529  18.4829  34.1914  12.0667
  16602.477  16602.470  0.500  1.041201  18.4708  34.169  12.0627
  16605.352  16605.350  0.500  1.040914  18.4508  34.1363  12.0546
  16608.240  16608.240  0.500  1.040513  18.4421  34.1211  12.0541
  16611.166  16611.150  0.500  1.039712  18.4241  34.0852  12.0511
  16614.117  16614.070  0.500  1.039451  18.4163  34.0721  12.0496
  16617.045  16617.020  0.500  1.039161  18.3924  34.0273  12.0372
  16619.985  16619.990  0.500  1.038150  18.3898  34.0193  12.0465
  16622.951  16622.970  0.500  1.037758  18.3819  34.0068  12.0468
  16625.991  16625.980  0.500  1.037104  18.3627  33.9718  12.0423
  16629.044  16629.000  0.500  1.036557  18.356  33.9609  12.045
  16632.099  16632.050  0.500  1.036184  18.341  33.9395  12.0419
  16635.154  16635.110  0.500  1.035769  18.3374  33.938  12.0464
  16638.210  16638.190  0.500  1.035206  18.3152  33.8953  12.038
  16641.268  16641.290  0.500  1.034686  18.3008  33.8653  12.0336
  16644.424  16644.410  0.500  1.034452  18.2937  33.8534  12.0322
  16647.569  16647.550  0.500  1.033967  18.2788  33.8298  12.0297
  16650.727  16650.700  0.500  1.033418  18.2615  33.7926  12.023
  16653.923  16653.880  0.500  1.033076  18.247  33.7697  12.019
  16657.084  16657.070  0.500  1.032382  18.2418  33.7606  12.0241
  16660.294  16660.290  0.500  1.032033  18.2215  33.7255  12.0158
  16663.567  16663.520  0.500  1.031331  18.2078  33.699  12.0148
  16666.792  16666.770  0.500  1.030894  18.1898  33.6666  12.0085
  16670.055  16670.050  0.500  1.030248  18.1721  33.6352  12.005
  16673.356  16673.340  0.500  1.029537  18.159  33.6115  12.0051
  16676.634  16676.650  0.500  1.029084  18.1458  33.5918  12.0035
  16679.974  16679.970  0.500  1.028653  18.1326  33.5682  12.0002
  16683.340  16683.320  0.500  1.028010  18.1163  33.5384  11.9973
  16686.707  16686.690  0.500  1.027479  18.1064  33.5178  11.9963
  16690.100  16690.070  0.500  1.026814  18.0798  33.4704  11.9873
  16693.494  16693.480  0.500  1.026469  18.0621  33.4368  11.9794
  16696.902  16696.900  0.500  1.026050  18.0459  33.4087  11.9743
  16700.385  16700.350  0.500  1.025659  18.0187  33.3633  11.9627
  16703.832  16703.810  0.500  1.025264  17.9884  33.3078  11.9476
  16707.293  16707.290  0.500  1.024738  17.9371  33.2166  11.9211
  16710.793  16710.790  0.500  1.024298  17.8492  33.0497  11.8664
  16714.306  16714.310  0.500  1.023691  17.3314  32.0977  11.5316
  16717.869  16717.850  0.500  1.023350  15.3169  28.3636  10.1936
  16721.446  16721.400  0.500  1.022789  17.8442  33.0461  11.8831
  16725.025  16724.980  0.500  1.022180  17.9982  33.3318  11.9931
  16728.593  16728.580  0.500  1.021502  17.9888  33.3137  11.9947
  16732.163  16732.190  0.500  1.020969  17.9631  33.2688  11.9849
  16735.832  16735.820  0.500  1.020260  17.9434  33.2315  11.98
  16739.528  16739.480  0.500  1.019762  17.9231  33.1995  11.9744
  16743.201  16743.150  0.500  1.019202  17.905  33.1676  11.9696
  16746.826  16746.840  0.500  1.018692  17.8847  33.1308  11.9624
  16750.563  16750.550  0.500  1.017928  17.8672  33.0953  11.9588
  16754.314  16754.280  0.500  1.017401  17.8592  33.0843  11.9611
  16758.092  16758.020  0.500  1.016822  17.8395  33.0468  11.9545
  16761.822  16761.790  0.500  1.016284  17.821  33.0168  11.95
  16765.603  16765.580  0.500  1.015751  17.8069  32.9907  11.9469
  16769.373  16769.380  0.500  1.015129  17.7945  32.9695  11.9467
  16773.244  16773.210  0.500  1.014623  17.7692  32.9226  11.9357
  16777.104  16777.050  0.500  1.014081  17.7507  32.8934  11.9316
  16780.942  16780.910  0.500  1.013365  17.7423  32.8726  11.9326
  16784.793  16784.790  0.500  1.012865  17.7168  32.8281  11.9224
  16788.721  16788.690  0.500  1.012083  17.6932  32.7819  11.915
  16792.625  16792.610  0.500  1.011562  17.676  32.7548  11.9113
  16796.606  16796.550  0.500  1.011072  17.6509  32.712  11.9016
  16800.526  16800.510  0.500  1.010516  17.626  32.6644  11.8909
  16804.473  16804.480  0.500  1.009817  17.4339  32.307  11.769
  16808.521  16808.480  0.500  1.009430  17.5724  32.5697  11.8693
  16812.497  16812.490  0.500  1.008611  17.5669  32.5553  11.8737
  16816.586  16816.530  0.500  1.007880  17.5468  32.5226  11.8705
  16820.578  16820.580  0.500  1.007348  17.4931  32.4246  11.841
  16824.671  16824.650  0.500  1.006776  17.4313  32.3142  11.8074
  16828.779  16828.740  0.500  1.006128  17.3156  32.0991  11.7364
  16832.889  16832.850  0.500  1.005579  16.8247  31.1958  11.4124
  16837.013  16836.980  0.500  1.005282  14.7845  27.407  10.0293
  16841.101  16841.130  0.500  1.004256  17.5569  32.5482  11.923
  16845.329  16845.290  0.500  1.003779  17.6142  32.6561  11.9682
  16849.509  16849.480  0.500  1.003104  17.5657  32.5662  11.9433
  16853.728  16853.680  0.500  1.002494  17.5202  32.4887  11.9222
  16857.912  16857.910  0.500  1.001978  17.4922  32.433  11.9079
  16862.173  16862.150  0.500  1.001205  17.4377  32.3349  11.881
  16866.449  16866.410  0.500  1.000577  17.2767  32.0338  11.7778
  16870.739  16870.690  0.500  0.999830  17.4311  32.3256  11.894
  16874.994  16874.990  0.500  0.999337  17.3794  32.225  11.8628
  16879.326  16879.310  0.500  0.998749  17.3949  32.2586  11.8821
  16883.673  16883.650  0.500  0.998152  17.3668  32.2099  11.8713
  16888.060  16888.010  0.500  0.997531  17.3437  32.1685  11.8634
  16892.411  16892.390  0.500  0.996637  17.333  32.1461  11.8657
  16896.777  16896.780  0.500  0.996045  17.2991  32.0861  11.8506
  16901.233  16901.200  0.500  0.995636  17.277  32.0438  11.8398
  16905.667  16905.630  0.500  0.994823  17.2551  32.0023  11.8341
  16910.115  16910.080  0.500  0.994150  17.2262  31.9529  11.8238
  16914.566  16914.550  0.500  0.993612  17.1827  31.878  11.8024
  16919.069  16919.040  0.500  0.992898  17.1524  31.8171  11.7883
  16923.625  16923.550  0.500  0.992351  16.9699  31.482  11.6705
  16928.108  16928.080  0.500  0.991510  17.1418  31.8066  11.8007
  16932.631  16932.630  0.500  0.991120  17.1094  31.7431  11.7818
  16937.206  16937.200  0.500  0.990517  17.0574  31.6484  11.7537
  16941.810  16941.780  0.500  0.989778  16.9697  31.4882  11.7029
  16946.441  16946.390  0.500  0.988854  16.6848  30.9581  11.5165
  16951.024  16951.010  0.500  0.988318  14.5668  27.0335  10.0619
  16955.660  16955.660  0.500  0.987514  17.0279  31.6006  11.7713
  16960.375  16960.320  0.500  0.986831  17.171  31.8681  11.879
  16965.016  16965.000  0.500  0.986351  17.1293  31.7884  11.855
  16969.685  16969.700  0.500  0.985458  17.0966  31.7283  11.8432
  16974.433  16974.420  0.500  0.984976  17.0609  31.6715  11.8277
  16979.195  16979.160  0.500  0.984225  17.0285  31.609  11.8132
  16983.936  16983.910  0.500  0.983531  16.7918  31.1645  11.6552
  16988.729  16988.690  0.500  0.982788  16.9936  31.5454  11.8064
  16993.500  16993.490  0.500  0.982124  16.9696  31.4993  11.7969
  16998.375  16998.300  0.500  0.981425  16.9482  31.4636  11.7918
  17003.164  17003.130  0.500  0.980853  16.9252  31.4201  11.7823
  17007.994  17007.990  0.500  0.980087  16.9001  31.3796  11.7761
  17012.902  17012.860  0.500  0.979475  16.8812  31.3421  11.7692
  17017.801  17017.750  0.500  0.978677  16.8568  31.2982  11.7621
  17022.715  17022.660  0.500  0.977982  16.8334  31.2526  11.7532
  17027.620  17027.590  0.500  0.977389  16.8097  31.2135  11.7454
  17032.527  17032.530  0.500  0.976726  16.7865  31.1788  11.7401
  17037.539  17037.500  0.500  0.975968  16.7664  31.1379  11.7336
  17042.516  17042.490  0.500  0.975121  16.7474  31.0966  11.728
  17047.508  17047.490  0.500  0.974453  16.7202  31.0516  11.7188
  17052.529  17052.520  0.500  0.973879  16.6952  31.0045  11.7078
  17057.617  17057.560  0.500  0.973055  16.6576  30.9414  11.6936
  17062.682  17062.620  0.500  0.972208  16.6162  30.8616  11.6733
  17067.712  17067.700  0.500  0.971480  16.5183  30.6829  11.6142
  17072.796  17072.800  0.500  0.970521  15.5836  28.9437  10.9664
  17077.973  17077.920  0.500  0.970424  15.9245  29.5773  11.2075
  17083.101  17083.060  0.500  0.969542  16.6581  30.9493  11.7377
  17088.245  17088.220  0.500  0.968535  16.6291  30.8914  11.7276
  17093.419  17093.400  0.500  0.968000  16.5961  30.8371  11.7132
  17098.659  17098.590  0.500  0.967251  16.5705  30.7876  11.7032
  17103.864  17103.810  0.500  0.966751  16.5481  30.7454  11.693
  17109.047  17109.040  0.500  0.965838  16.5297  30.7157  11.6924
  17114.335  17114.290  0.500  0.965083  16.5021  30.6643  11.6816
  17119.640  17119.560  0.500  0.964275  16.4781  30.6244  11.6758
  17124.922  17124.850  0.500  0.963656  16.4594  30.5905  11.6701
  17130.169  17130.160  0.500  0.962817  16.4319  30.5367  11.6594
  17135.510  17135.490  0.500  0.962078  16.413  30.5065  11.6565
  17140.944  17140.840  0.500  0.961286  16.3866  30.461  11.6483
  17146.291  17146.210  0.500  0.960458  16.3683  30.4218  11.643
  17151.654  17151.590  0.500  0.959914  16.3392  30.3706  11.6297
  17157.047  17157.000  0.500  0.959117  16.3245  30.3464  11.6297
  17162.520  17162.420  0.500  0.958403  16.3024  30.3084  11.6234
  17167.984  17167.870  0.500  0.957592  16.2854  30.2728  11.6192
  17173.491  17173.330  0.500  0.956692  16.2703  30.2461  11.6194
  17178.780  17178.810  0.500  0.956106  16.2409  30.199  11.6081
  17184.281  17184.310  0.500  0.955117  16.2244  30.1687  11.6079
  17189.824  17189.830  0.500  0.954426  16.2633  30.2367  11.6421
  17195.383  17195.370  0.500  0.953849  16.2423  30.207  11.6374
  17200.933  17200.920  0.500  0.953088  16.2267  30.1719  11.6328
  17206.500  17206.500  0.500  0.952259  16.2078  30.1376  11.6291
  17212.070  17212.100  0.500  0.951656  16.1764  30.0853  11.616
  17217.722  17217.710  0.500  0.950862  16.1612  30.0565  11.6141
  17223.377  17223.350  0.500  0.950031  16.1412  30.0178  11.6088
  17228.984  17229.000  0.500  0.949239  16.1191  29.9848  11.6052
  17234.634  17234.670  0.500  0.948556  16.0884  29.9224  11.589
  17240.366  17240.360  0.500  0.947617  16.0745  29.8994  11.5909