File: xdidata/Data/Yb/Yb-L1-YtterbiumOxide.xdi
# XDI/1.0 BlueSky/1.10.0 BMM/2023-1.0-py310-tiled
# Beamline.name: BMM (06BM) -- Beamline for Materials Measurement (NIST)
# Beamline.xray_source: NSLS-II three-pole wiggler
# Beamline.collimation: paraboloid mirror, 5 nm Rh on 30 nm Pt
# Beamline.focusing: not in use
# Beamline.harmonic_rejection: flat mirror, Pt stripe, pitch = 7.0 mrad relative to beam
# Beamline.software: Bluesky 1.10.0, Ophyd 1.7.0, DataBroker 2.0.0b13, Python 3.10.8, 2023-1.0-py310-tiled
# Detector.I0: 10 cm N2
# Detector.I1: 25 cm N2
# Detector.I2: 25 cm N2
# Element.symbol: Yb
# Element.edge: L1
# Element.reference: Yb
# Element.reference_material: Yb2O3
# Facility.name: NSLS-II
# Facility.energy: 3.0
# Facility.current: 400.4
# Facility.mode: top-off
# Facility.GUP: 301027
# Facility.SAF: 310583
# Facility.cycle: 2023-2
# Mono.name: Si(111)
# Mono.d_spacing: 3.13519
# Mono.encoder_resolution: 0.0000050 deg/ct
# Mono.angle_offset: 16.0754 deg
# Mono.scan_mode: pseudo channel cut
# Mono.scan_type: step
# Mono.direction: forward in energy
# Sample.name: Yb2O3
# Sample.prep: PEG pellet
# Sample.x: 109.138 mm
# Sample.y: 153.150 mm
# Sample.SDD_position: 205.000 mm
# Scan.experimenters: Bruce Ravel
# Scan.edge_energy: 10486.4
# Scan.start_time: 2023-05-28T18:03:52
# Scan.end_time: 2023-05-28T18:12:03
# Scan.transient_id: 78896
# Scan.uid: 62291971-9033-411c-9faa-ce55508e6a2a
# Scan.plot_hint: ln(It/Ir)  --  ln($6/$7)
# Column.1: energy eV
# Column.2: requested_energy eV
# Column.3: measurement_time seconds
# Column.4: xmu
# Column.5: I0 nA
# Column.6: It nA
# Column.7: Ir nA
# ///////////
# sample courtesy Martin Stennett, University of Sheffield
# -----------
# energy  requested_energy  measurement_time  xmu  I0  It  Ir
  10286.342  10286.400  0.500  1.454984  90.3955  141.325  32.9858
  10296.425  10296.400  0.500  1.452081  90.2601  141.206  33.0539
  10306.426  10306.400  0.500  1.449528  90.0843  141.018  33.0943
  10316.476  10316.400  0.500  1.445825  89.9121  140.828  33.1722
  10326.466  10326.400  0.500  1.441941  89.7386  140.659  33.2614
  10336.440  10336.400  0.500  1.438666  89.5516  140.451  33.3211
  10346.470  10346.400  0.500  1.435560  89.4079  140.323  33.3944
  10356.394  10356.400  0.500  1.431994  89.2157  140.119  33.4649
  10366.417  10366.400  0.500  1.428783  89.0101  139.887  33.5169
  10376.428  10376.400  0.500  1.426034  88.8009  139.642  33.5504
  10386.425  10386.400  0.500  1.422933  88.6173  139.442  33.6063
  10396.428  10396.400  0.500  1.419525  88.523  139.372  33.7041
  10406.432  10406.400  0.500  1.415858  88.2884  139.094  33.7605
  10416.436  10416.400  0.500  1.412464  88.1106  138.898  33.8276
  10426.427  10426.400  0.500  1.408798  87.9589  138.731  33.9109
  10436.438  10436.400  0.500  1.405404  87.7807  138.542  33.98
  10446.440  10446.400  0.500  1.402856  87.6357  138.397  34.0308
  10456.433  10456.400  0.500  1.400952  87.508  138.297  34.0713
  10458.381  10458.400  0.500  1.400651  87.4511  138.223  34.0631
  10460.377  10460.400  0.500  1.400314  87.3997  138.157  34.0584
  10462.374  10462.400  0.500  1.399970  87.3634  138.117  34.0602
  10464.367  10464.400  0.500  1.399471  87.3204  138.067  34.065
  10466.370  10466.400  0.500  1.399129  87.297  138.04  34.0699
  10468.369  10468.400  0.500  1.398606  87.2547  137.987  34.0746
  10470.378  10470.400  0.500  1.398199  87.2258  137.964  34.0828
  10472.379  10472.400  0.500  1.397930  87.1867  137.922  34.0817
  10474.371  10474.400  0.500  1.397567  87.1571  137.891  34.0864
  10476.387  10476.400  0.500  1.397315  87.1067  137.825  34.0785
  10476.659  10476.700  0.500  1.397313  87.1464  137.882  34.0927
  10476.968  10477.000  0.500  1.397206  87.1014  137.822  34.0815
  10477.263  10477.300  0.500  1.397238  87.1047  137.817  34.0791
  10477.558  10477.600  0.500  1.397241  87.0968  137.823  34.0806
  10477.858  10477.900  0.500  1.397215  87.1528  137.905  34.1018
  10478.162  10478.200  0.500  1.397157  87.1339  137.878  34.0971
  10478.471  10478.500  0.500  1.397210  87.0824  137.789  34.0734
  10478.766  10478.800  0.500  1.397186  87.0788  137.786  34.0734
  10479.066  10479.100  0.500  1.397193  87.0942  137.811  34.0792
  10479.366  10479.400  0.500  1.397165  87.0547  137.763  34.0683
  10479.666  10479.700  0.500  1.397224  87.0258  137.729  34.058
  10479.975  10480.000  0.500  1.397256  87.0281  137.736  34.0586
  10480.280  10480.300  0.500  1.397245  87.0396  137.744  34.061
  10480.566  10480.600  0.500  1.397319  87.0065  137.688  34.0446
  10480.870  10480.900  0.500  1.397308  87.0024  137.696  34.0469
  10481.180  10481.200  0.500  1.397347  87.0174  137.707  34.0483
  10481.466  10481.500  0.500  1.397396  87.0166  137.717  34.0491
  10481.775  10481.800  0.500  1.397499  86.9924  137.676  34.0354
  10482.070  10482.100  0.500  1.397492  86.9979  137.686  34.0383
  10482.370  10482.400  0.500  1.397643  86.9775  137.659  34.0264
  10482.666  10482.700  0.500  1.397552  86.972  137.656  34.0287
  10482.970  10483.000  0.500  1.397709  86.9633  137.647  34.0212
  10483.285  10483.300  0.500  1.397780  86.9575  137.65  34.0195
  10483.571  10483.600  0.500  1.397853  86.952  137.634  34.0131
  10483.880  10483.900  0.500  1.397911  86.9501  137.621  34.0079
  10484.180  10484.200  0.500  1.398026  86.9686  137.654  34.0122
  10484.490  10484.500  0.500  1.398210  86.9197  137.609  33.9947
  10484.790  10484.800  0.500  1.398386  86.926  137.615  33.9903
  10485.090  10485.100  0.500  1.398470  86.9161  137.578  33.9784
  10485.400  10485.400  0.500  1.398662  86.9014  137.562  33.9678
  10485.691  10485.700  0.500  1.398917  86.9011  137.569  33.9608
  10486.001  10486.000  0.500  1.399211  86.9019  137.575  33.9523
  10486.286  10486.300  0.500  1.399480  86.8949  137.562  33.94
  10486.587  10486.600  0.500  1.399757  86.8916  137.562  33.9306
  10486.882  10486.900  0.500  1.400085  86.8789  137.548  33.916
  10487.197  10487.200  0.500  1.400533  86.8868  137.568  33.9059
  10487.492  10487.500  0.500  1.401045  86.8474  137.502  33.8721
  10487.793  10487.800  0.500  1.401477  86.8936  137.571  33.8746
  10488.093  10488.100  0.500  1.402035  86.8589  137.529  33.8453
  10488.384  10488.400  0.500  1.402648  86.858  137.535  33.8259
  10488.689  10488.700  0.500  1.403289  86.884  137.583  33.8162
  10488.980  10489.000  0.500  1.404096  86.8353  137.491  33.7662
  10489.280  10489.300  0.500  1.404938  86.8516  137.529  33.7471
  10489.586  10489.600  0.500  1.405995  86.8576  137.542  33.7148
  10489.886  10489.900  0.500  1.407103  86.8329  137.504  33.6681
  10490.196  10490.200  0.500  1.408266  86.8451  137.499  33.6277
  10490.487  10490.500  0.500  1.409467  86.8201  137.468  33.5797
  10490.792  10490.800  0.500  1.410939  86.825  137.473  33.5316
  10491.107  10491.100  0.500  1.412450  86.8899  137.582  33.5076
  10491.393  10491.400  0.500  1.413970  87.0631  137.872  33.5272
  10491.704  10491.700  0.500  1.415582  87.0933  137.924  33.4857
  10491.995  10492.000  0.500  1.417217  87.0544  137.869  33.4177
  10492.290  10492.300  0.500  1.418823  87.083  137.915  33.3753
  10492.601  10492.600  0.500  1.420466  87.0538  137.865  33.3083
  10492.901  10492.900  0.500  1.421926  87.0541  137.866  33.2601
  10493.202  10493.200  0.500  1.423469  87.0513  137.867  33.209
  10493.493  10493.500  0.500  1.424765  87.0423  137.855  33.163
  10493.779  10493.800  0.500  1.426204  87.0266  137.843  33.1125
  10494.099  10494.100  0.500  1.427700  87.0101  137.814  33.0561
  10494.390  10494.400  0.500  1.429073  86.9904  137.79  33.0049
  10494.686  10494.700  0.500  1.430501  86.9846  137.786  32.9569
  10495.001  10495.000  0.500  1.431894  86.9929  137.797  32.9138
  10495.288  10495.300  0.500  1.433487  86.9885  137.794  32.8606
  10495.593  10495.600  0.500  1.435002  86.9613  137.741  32.7983
  10495.904  10495.900  0.500  1.436545  86.9894  137.78  32.7568
  10496.200  10496.200  0.500  1.438132  86.982  137.786  32.7065
  10496.501  10496.500  0.500  1.439810  86.9641  137.766  32.6468
  10496.806  10496.800  0.500  1.441435  86.9489  137.749  32.5899
  10497.102  10497.100  0.500  1.443220  86.9773  137.792  32.5417
  10497.403  10497.400  0.500  1.444983  86.9339  137.728  32.4693
  10497.699  10497.700  0.500  1.446762  86.9311  137.715  32.4085
  10498.005  10498.000  0.500  1.448587  86.9173  137.707  32.3476
  10498.306  10498.300  0.500  1.450285  86.9239  137.711  32.2938
  10498.598  10498.600  0.500  1.452077  86.9233  137.71  32.2357
  10498.903  10498.900  0.500  1.454044  86.9448  137.751  32.182
  10499.185  10499.200  0.500  1.455906  86.8879  137.668  32.1026
  10499.491  10499.500  0.500  1.457806  86.8888  137.676  32.0436
  10499.797  10499.800  0.500  1.459939  86.8838  137.658  31.9712
  10500.084  10500.100  0.500  1.461972  86.8996  137.692  31.9141
  10500.394  10500.400  0.500  1.464412  86.8943  137.683  31.8343
  10500.686  10500.700  0.500  1.466718  86.8585  137.644  31.752
  10501.001  10501.000  0.500  1.469408  86.8712  137.678  31.6745
  10501.293  10501.300  0.500  1.472121  86.868  137.662  31.5849
  10501.599  10501.600  0.500  1.474913  86.8663  137.657  31.4957
  10501.905  10501.900  0.500  1.478072  86.8154  137.579  31.3786
  10502.201  10502.200  0.500  1.480874  86.8486  137.63  31.3025
  10502.502  10502.500  0.500  1.483784  86.7951  137.541  31.1912
  10502.803  10502.800  0.500  1.486544  86.8171  137.581  31.1143
  10503.095  10503.100  0.500  1.489265  86.8238  137.572  31.0277
  10503.396  10503.400  0.500  1.491782  86.781  137.513  30.9364
  10503.698  10503.700  0.500  1.494089  86.7951  137.555  30.8747
  10503.999  10504.000  0.500  1.496085  86.8266  137.608  30.825
  10504.295  10504.300  0.500  1.497697  86.7957  137.557  30.7639
  10504.582  10504.600  0.500  1.498937  86.7933  137.56  30.7265
  10504.898  10504.900  0.500  1.500046  86.7609  137.508  30.6807
  10505.185  10505.200  0.500  1.500533  86.7635  137.515  30.6675
  10505.486  10505.500  0.500  1.500930  86.7546  137.504  30.6527
  10505.802  10505.800  0.500  1.500801  86.7606  137.515  30.6592
  10506.094  10506.100  0.500  1.500475  86.7504  137.511  30.6684
  10506.400  10506.400  0.500  1.499917  86.7298  137.469  30.6761
  10506.687  10506.700  0.500  1.499345  86.7064  137.44  30.6871
  10507.003  10507.000  0.500  1.498574  86.7356  137.476  30.7187
  10507.300  10507.300  0.500  1.497742  86.6968  137.42  30.7318
  10507.601  10507.600  0.500  1.496876  86.6955  137.431  30.7609
  10507.908  10507.900  0.500  1.496111  86.6981  137.439  30.7864
  10508.200  10508.200  0.500  1.495283  86.6883  137.421  30.8079
  10508.506  10508.500  0.500  1.494669  86.6799  137.421  30.8266
  10508.803  10508.800  0.500  1.494095  86.6766  137.411  30.8422
  10509.099  10509.100  0.500  1.493656  86.6707  137.401  30.8534
  10509.411  10509.400  0.500  1.493448  86.6635  137.388  30.8568
  10509.688  10509.700  0.500  1.493164  86.666  137.375  30.8627
  10509.995  10510.000  0.500  1.493053  86.6596  137.394  30.8705
  10510.292  10510.300  0.500  1.493151  86.6464  137.378  30.8637
  10510.593  10510.600  0.500  1.493264  86.6519  137.384  30.8616
  10510.885  10510.900  0.500  1.493372  86.6181  137.324  30.8449
  10511.192  10511.200  0.500  1.493510  86.589  137.275  30.8296
  10511.383  10511.400  0.500  1.493729  86.5599  137.24  30.815
  10512.380  10512.390  0.500  1.494329  86.5425  137.231  30.7946
  10513.371  10513.390  0.500  1.494523  86.5886  137.306  30.8054
  10514.545  10514.410  0.500  1.494163  86.5411  137.233  30.8001
  10515.408  10515.460  0.500  1.493222  86.5605  137.282  30.8401
  10516.549  10516.520  0.500  1.491467  86.5195  137.233  30.8831
  10517.575  10517.600  0.500  1.489204  86.4759  137.146  30.9336
  10518.697  10518.700  0.500  1.485991  86.4633  137.133  31.0303
  10519.829  10519.820  0.500  1.482668  86.4513  137.13  31.1328
  10520.952  10520.960  0.500  1.479156  86.4602  137.169  31.2512
  10522.099  10522.110  0.500  1.475622  86.4016  137.066  31.3382
  10523.284  10523.290  0.500  1.472223  86.3819  137.063  31.4442
  10524.484  10524.480  0.500  1.469131  86.3169  136.976  31.5216
  10525.699  10525.700  0.500  1.466092  86.1012  136.635  31.539
  10526.948  10526.930  0.500  1.463478  86.1756  136.767  31.652
  10528.183  10528.180  0.500  1.461432  86.2504  136.912  31.7503
  10529.456  10529.450  0.500  1.460031  86.2821  136.951  31.8041
  10530.735  10530.740  0.500  1.459062  86.2501  136.916  31.8266
  10532.062  10532.050  0.500  1.458478  86.2272  136.897  31.8408
  10533.370  10533.380  0.500  1.458278  86.2163  136.872  31.8413
  10534.736  10534.730  0.500  1.458302  86.1996  136.848  31.835
  10536.103  10536.100  0.500  1.458491  86.1582  136.8  31.8179
  10537.484  10537.480  0.500  1.458987  86.1233  136.769  31.7949
  10538.904  10538.890  0.500  1.459409  86.0754  136.698  31.765
  10540.301  10540.310  0.500  1.459911  85.9889  136.565  31.7183
  10541.746  10541.750  0.500  1.460415  86.0287  136.635  31.7185
  10543.220  10543.210  0.500  1.460888  86.0363  136.655  31.7082
  10544.700  10544.690  0.500  1.461424  85.9972  136.606  31.6798
  10546.199  10546.190  0.500  1.462006  85.9713  136.574  31.6539
  10547.718  10547.710  0.500  1.462774  85.9356  136.535  31.6205
  10549.257  10549.250  0.500  1.463794  85.9223  136.538  31.589
  10550.810  10550.810  0.500  1.464812  85.8826  136.475  31.5424
  10552.379  10552.380  0.500  1.465665  85.8546  136.451  31.5099
  10553.977  10553.980  0.500  1.466666  85.8079  136.394  31.4653
  10555.590  10555.590  0.500  1.467702  85.7036  136.244  31.398
  10557.228  10557.230  0.500  1.468816  85.6675  136.206  31.3544
  10558.866  10558.880  0.500  1.469717  85.5788  136.076  31.2961
  10560.539  10560.550  0.500  1.470052  85.7157  136.303  31.338
  10562.236  10562.240  0.500  1.470035  85.695  136.285  31.3343
  10563.954  10563.950  0.500  1.469442  85.6474  136.221  31.3381
  10565.686  10565.680  0.500  1.468475  85.6072  136.174  31.3577
  10567.438  10567.430  0.500  1.467135  85.6109  136.191  31.4035
  10569.181  10569.190  0.500  1.465362  85.5412  136.078  31.4333
  10570.979  10570.980  0.500  1.462991  85.5051  136.033  31.4974
  10572.786  10572.780  0.500  1.460486  85.4788  136.01  31.5711
  10574.613  10574.610  0.500  1.458013  85.4568  136.004  31.648
  10576.475  10576.450  0.500  1.455746  85.4129  135.953  31.7079
  10578.314  10578.310  0.500  1.454101  85.417  135.965  31.7627
  10580.192  10580.190  0.500  1.452933  85.3509  135.873  31.7785
  10582.104  10582.090  0.500  1.451923  85.3164  135.841  31.803
  10584.018  10584.010  0.500  1.451329  85.3092  135.845  31.8229
  10585.966  10585.950  0.500  1.450924  85.0683  135.466  31.747
  10587.919  10587.910  0.500  1.450597  85.2034  135.695  31.811
  10589.873  10589.880  0.500  1.450250  85.2229  135.73  31.8303
  10591.892  10591.880  0.500  1.449867  85.1368  135.617  31.816
  10593.911  10593.890  0.500  1.449081  85.1235  135.611  31.8395
  10595.926  10595.920  0.500  1.448101  85.0755  135.562  31.8592
  10597.971  10597.980  0.500  1.447133  85.0019  135.461  31.8665
  10600.056  10600.050  0.500  1.445996  84.9858  135.459  31.902
  10602.151  10602.140  0.500  1.444900  84.9444  135.411  31.9259
  10604.237  10604.250  0.500  1.443886  84.9263  135.411  31.9582
  10606.383  10606.380  0.500  1.442884  84.829  135.257  31.9539
  10608.525  10608.520  0.500  1.441951  84.8475  135.285  31.9904
  10610.702  10610.690  0.500  1.441069  84.7553  135.158  31.9885
  10612.870  10612.880  0.500  1.440217  84.7623  135.194  32.0243
  10615.083  10615.080  0.500  1.439742  84.7659  135.218  32.0451
  10617.306  10617.300  0.500  1.439481  84.6869  135.11  32.0279
  10619.555  10619.550  0.500  1.439420  84.4269  134.715  31.9363
  10621.800  10621.810  0.500  1.439602  84.6241  135.059  32.0119
  10624.095  10624.090  0.500  1.439698  84.8053  135.361  32.0804
  10626.396  10626.390  0.500  1.439968  84.7673  135.315  32.0609
  10628.708  10628.710  0.500  1.440299  84.7269  135.271  32.04
  10631.055  10631.050  0.500  1.440649  84.6999  135.246  32.0228
  10633.418  10633.400  0.500  1.440518  84.6693  135.203  32.0168
  10635.782  10635.780  0.500  1.439905  84.639  135.187  32.0325
  10638.161  10638.170  0.500  1.438961  84.5728  135.094  32.0407
  10640.596  10640.590  0.500  1.438020  84.5329  135.046  32.0594
  10643.037  10643.020  0.500  1.437085  83.9053  134.069  31.8573
  10645.464  10645.470  0.500  1.436052  84.5087  135.034  32.1199
  10647.971  10647.950  0.500  1.435158  84.4384  134.955  32.1298
  10650.455  10650.440  0.500  1.434015  84.4127  134.932  32.161
  10652.954  10652.950  0.500  1.432632  84.3654  134.875  32.1918
  10655.480  10655.470  0.500  1.430978  84.3082  134.795  32.2261
  10658.036  10658.020  0.500  1.429083  84.2383  134.705  32.2658
  10660.588  10660.590  0.500  1.427140  84.1692  134.612  32.3062
  10663.181  10663.170  0.500  1.425194  83.9796  134.326  32.3002
  10665.796  10665.780  0.500  1.423496  84.1583  134.627  32.4277
  10668.411  10668.400  0.500  1.422166  84.0977  134.557  32.4539
  10671.067  10671.050  0.500  1.421276  84.0309  134.47  32.4619
  10673.725  10673.710  0.500  1.420779  83.9861  134.431  32.4686
  10676.399  10676.390  0.500  1.420431  83.918  134.344  32.4589
  10679.094  10679.090  0.500  1.419989  83.3473  133.439  32.2545
  10681.825  10681.810  0.500  1.419486  83.8784  134.31  32.4814
  10684.572  10684.550  0.500  1.418906  83.8172  134.23  32.4808
  10687.311  10687.300  0.500  1.418123  83.7782  134.179  32.4938
  10690.081  10690.080  0.500  1.417175  83.7083  134.083  32.5015
  10692.867  10692.870  0.500  1.416256  83.663  134.039  32.5206
  10695.700  10695.690  0.500  1.415221  83.5946  133.962  32.5357
  10698.533  10698.520  0.500  1.414162  82.9963  133.029  32.3433
  10701.374  10701.370  0.500  1.413146  83.5122  133.862  32.5789
  10704.266  10704.250  0.500  1.412076  83.4695  133.824  32.6045
  10707.154  10707.140  0.500  1.410887  83.417  133.764  32.6286
  10710.054  10710.050  0.500  1.409659  83.3911  133.739  32.6626
  10712.975  10712.970  0.500  1.408616  83.3155  133.642  32.673
  10715.933  10715.920  0.500  1.407753  83.2718  133.591  32.6888
  10718.898  10718.890  0.500  1.407027  83.215  133.525  32.6963
  10721.879  10721.870  0.500  1.406478  83.1637  133.469  32.7006
  10724.896  10724.880  0.500  1.406027  83.1213  133.407  32.7001
  10727.916  10727.900  0.500  1.405669  83.0628  133.331  32.693
  10730.967  10730.950  0.500  1.405104  83.0206  133.29  32.7016
  10734.015  10734.010  0.500  1.404506  82.9774  133.258  32.7133
  10737.120  10737.090  0.500  1.403639  82.9001  133.141  32.713
  10740.201  10740.190  0.500  1.402786  82.819  133.044  32.717
  10743.315  10743.310  0.500  1.401688  82.7577  132.958  32.7317
  10746.465  10746.450  0.500  1.400345  82.7467  132.971  32.7788
  10749.612  10749.600  0.500  1.399104  82.6628  132.85  32.7897
  10752.801  10752.780  0.500  1.397841  82.6398  132.84  32.8288
  10755.992  10755.970  0.500  1.396576  82.555  132.732  32.8435
  10759.210  10759.190  0.500  1.395156  82.5038  132.673  32.8756
  10762.435  10762.420  0.500  1.393731  82.4601  132.628  32.9114
  10765.683  10765.670  0.500  1.392428  82.3803  132.518  32.927
  10768.977  10768.950  0.500  1.391102  82.3186  132.437  32.9505
  10772.243  10772.240  0.500  1.389717  82.2632  132.367  32.9788
  10775.587  10775.550  0.500  1.388483  82.1987  132.29  33.0001
  10778.893  10778.870  0.500  1.387180  82.1478  132.233  33.029
  10782.231  10782.220  0.500  1.385838  82.0919  132.168  33.0571
  10785.616  10785.590  0.500  1.384716  81.7536  131.653  32.9652
  10788.984  10788.970  0.500  1.383690  81.9012  131.926  33.0674
  10792.404  10792.380  0.500  1.382784  81.9203  131.975  33.1097
  10795.811  10795.800  0.500  1.382041  81.8552  131.883  33.1112
  10799.266  10799.250  0.500  1.381246  81.7685  131.776  33.1107
  10802.733  10802.710  0.500  1.380255  81.7243  131.724  33.1305
  10806.208  10806.190  0.500  1.379333  81.6136  131.571  33.1225
  10809.715  10809.690  0.500  1.378346  81.579  131.547  33.1493
  10813.230  10813.210  0.500  1.377108  81.5218  131.466  33.1699
  10816.777  10816.750  0.500  1.375957  81.5214  131.49  33.2141
  10820.312  10820.300  0.500  1.374855  81.4459  131.4  33.2278
  10823.915  10823.880  0.500  1.373639  81.3816  131.323  33.2488
  10827.490  10827.480  0.500  1.372529  81.259  131.15  33.242
  10831.118  10831.090  0.500  1.371452  80.975  130.716  33.1677
  10834.739  10834.720  0.500  1.370419  81.1786  131.065  33.2906
  10838.403  10838.380  0.500  1.369376  81.1171  131.001  33.309
  10842.064  10842.050  0.500  1.368133  81.0434  130.907  33.3265
  10845.764  10845.740  0.500  1.366980  80.9682  130.797  33.337
  10849.476  10849.450  0.500  1.365818  80.887  130.693  33.3492
  10853.206  10853.180  0.500  1.364450  80.8335  130.633  33.3794
  10856.939  10856.920  0.500  1.363242  80.7797  130.58  33.4062
  10860.715  10860.690  0.500  1.361976  80.4349  130.052  33.3132
  10864.510  10864.480  0.500  1.360709  80.6778  130.465  33.4614
  10868.302  10868.280  0.500  1.359635  80.2884  129.868  33.3442
  10872.142  10872.110  0.500  1.358472  80.5205  130.267  33.4855
  10875.976  10875.950  0.500  1.357292  80.3369  129.99  33.4538
  10879.843  10879.810  0.500  1.356106  80.3646  130.045  33.5076
  10883.707  10883.690  0.500  1.354832  80.2982  129.973  33.5319
  10887.626  10887.590  0.500  1.353456  80.2345  129.892  33.5571
  10891.527  10891.510  0.500  1.352077  80.1745  129.819  33.5846
  10895.498  10895.450  0.500  1.350659  80.0893  129.718  33.6059
  10899.425  10899.410  0.500  1.349375  80.0372  129.645  33.6303
  10903.413  10903.380  0.500  1.347977  79.9579  129.55  33.6526
  10907.408  10907.380  0.500  1.346645  79.8774  129.46  33.6741
  10911.421  10911.390  0.500  1.345322  79.8248  129.397  33.7023
  10915.443  10915.430  0.500  1.344004  79.7543  129.311  33.7242
  10919.525  10919.480  0.500  1.342838  79.6833  129.221  33.7402
  10923.564  10923.550  0.500  1.341478  79.6175  129.137  33.764
  10927.683  10927.640  0.500  1.340384  79.5331  129.045  33.7769
  10931.774  10931.750  0.500  1.339054  79.4626  128.949  33.7968
  10935.920  10935.880  0.500  1.337811  79.4098  128.886  33.8222
  10940.048  10940.030  0.500  1.336601  79.3167  128.765  33.8314
  10944.217  10944.190  0.500  1.335414  79.2496  128.685  33.8506
  10948.409  10948.380  0.500  1.334340  79.1674  128.58  33.8592
  10952.604  10952.580  0.500  1.333357  79.1047  128.504  33.8726
  10956.845  10956.810  0.500  1.332116  79.0344  128.41  33.8898
  10961.078  10961.050  0.500  1.331009  78.9791  128.361  33.9144
  10965.330  10965.310  0.500  1.329735  78.8832  128.226  33.9217
  10969.623  10969.590  0.500  1.328316  78.807  128.119  33.9416
  10973.918  10973.890  0.500  1.326842  78.729  128.016  33.9644
  10978.244  10978.210  0.500  1.325361  78.6659  127.938  33.994
  10982.583  10982.550  0.500  1.323827  78.5726  127.817  34.014
  10986.936  10986.910  0.500  1.322404  78.4966  127.739  34.0417
  10991.313  10991.290  0.500  1.320959  78.4118  127.605  34.0551
  10995.726  10995.680  0.500  1.319466  78.3469  127.536  34.0877
  11000.127  11000.100  0.500  1.317996  78.2637  127.441  34.1122
  11004.552  11004.530  0.500  1.316622  78.1826  127.337  34.1313
  11009.007  11008.980  0.500  1.315305  78.1137  127.252  34.1534
  11013.481  11013.450  0.500  1.313985  78.0125  127.134  34.1669
  11017.960  11017.940  0.500  1.312659  77.9639  127.069  34.1948
  11022.489  11022.450  0.500  1.311281  77.878  126.963  34.2134
  11027.001  11026.980  0.500  1.309885  77.7956  126.843  34.2287
  11031.565  11031.530  0.500  1.308733  77.7185  126.753  34.244
  11036.127  11036.100  0.500  1.307576  77.642  126.66  34.2583
  11040.719  11040.680  0.500  1.306318  77.5614  126.555  34.2729
  11045.315  11045.290  0.500  1.305194  77.4628  126.404  34.2707
  11049.936  11049.910  0.500  1.303869  77.3853  126.306  34.2895
  11054.583  11054.560  0.500  1.302437  77.3329  126.254  34.3245
  11059.233  11059.220  0.500  1.301050  77.2289  126.115  34.3342
  11063.930  11063.900  0.500  1.299342  77.1499  126.027  34.369
  11068.625  11068.600  0.500  1.297738  77.0813  125.937  34.3994
  11073.346  11073.320  0.500  1.296065  76.9856  125.798  34.419
  11078.077  11078.060  0.500  1.294621  76.8902  125.67  34.4339
  11082.833  11082.810  0.500  1.293029  76.8153  125.582  34.4645
  11087.609  11087.590  0.500  1.291562  76.7328  125.469  34.4839
  11092.421  11092.390  0.500  1.290237  76.6392  125.347  34.4962
  11097.221  11097.200  0.500  1.289032  76.5345  125.208  34.4995
  11102.069  11102.030  0.500  1.287696  76.4839  125.153  34.5304
  11106.942  11106.890  0.500  1.286352  76.3156  124.909  34.5095
  11111.798  11111.760  0.500  1.285044  76.2454  124.82  34.5301
  11116.696  11116.650  0.500  1.283654  76.2425  124.842  34.5841
  11121.588  11121.560  0.500  1.282203  76.1522  124.718  34.6001
  11126.527  11126.490  0.500  1.280978  76.0695  124.619  34.6149
  11131.454  11131.430  0.500  1.279542  75.974  124.505  34.6328
  11136.445  11136.400  0.500  1.278045  75.8938  124.416  34.6601
  11141.425  11141.390  0.500  1.276534  75.7986  124.275  34.6731
  11146.425  11146.390  0.500  1.275026  75.7221  124.174  34.697
  11151.457  11151.420  0.500  1.273450  75.6278  124.059  34.7196
  11156.488  11156.460  0.500  1.271998  75.5329  123.932  34.7344
  11161.556  11161.520  0.500  1.270256  75.44  123.809  34.7606
  11166.634  11166.600  0.500  1.268738  75.3496  123.687  34.7791
  11171.744  11171.700  0.500  1.267069  75.2648  123.564  34.8025
  11176.853  11176.820  0.500  1.265602  75.1794  123.455  34.823
  11181.994  11181.960  0.500  1.264078  75.0761  123.323  34.8387
  11187.156  11187.120  0.500  1.262610  74.9963  123.207  34.8571
  11192.334  11192.300  0.500  1.261246  74.8971  123.08  34.8688
  11197.539  11197.490  0.500  1.259885  74.8027  122.963  34.8828
  11202.743  11202.710  0.500  1.258496  74.6988  122.824  34.8919
  11207.985  11207.940  0.500  1.257092  74.6067  122.707  34.9076
  11213.221  11213.190  0.500  1.255672  74.4942  122.537  34.9088
  11218.478  11218.460  0.500  1.254243  74.3897  122.411  34.9229
  11223.773  11223.750  0.500  1.252889  74.3003  122.283  34.9337
  11229.073  11229.060  0.500  1.251471  74.1946  122.142  34.9427
  11234.417  11234.390  0.500  1.249892  74.088  121.993  34.9552
  11239.755  11239.740  0.500  1.248443  73.7264  121.427  34.8436
  11245.120  11245.110  0.500  1.246838  74.018  121.939  35.0468
  11250.507  11250.490  0.500  1.245085  73.9043  121.773  35.0605
  11255.920  11255.900  0.500  1.243451  73.9676  121.914  35.1584
  11261.329  11261.320  0.500  1.241795  73.8686  121.789  35.1806
  11266.803  11266.770  0.500  1.240218  73.7721  121.663  35.1996
  11272.255  11272.230  0.500  1.238683  73.6681  121.531  35.2155
  11277.734  11277.710  0.500  1.237115  73.5765  121.378  35.2265
  11283.230  11283.210  0.500  1.235629  73.4774  121.245  35.2402
  11288.748  11288.730  0.500  1.234043  73.3659  121.092  35.2515
  11294.310  11294.270  0.500  1.232575  73.2332  120.894  35.2455
  11299.845  11299.820  0.500  1.231094  71.3721  117.855  34.4106
  11305.424  11305.400  0.500  1.229550  73.1013  120.743  35.3081
  11311.014  11311.000  0.500  1.228077  72.962  120.552  35.3042
  11316.649  11316.610  0.500  1.226737  72.7947  120.304  35.279
  11322.272  11322.250  0.500  1.225218  70.3126  116.237  34.1379
  11327.935  11327.900  0.500  1.223761  72.5746  119.998  35.294
  11333.587  11333.570  0.500  1.222227  72.5265  119.95  35.3341
  11339.300  11339.260  0.500  1.220590  71.3326  118.001  34.817