File: xdidata/Data/Yb/Yb-L3-YtterbiumOxide.xdi
# XDI/1.0 BlueSky/1.10.0 BMM/2023-1.0-py310-tiled
# Beamline.name: BMM (06BM) -- Beamline for Materials Measurement (NIST)
# Beamline.xray_source: NSLS-II three-pole wiggler
# Beamline.collimation: paraboloid mirror, 5 nm Rh on 30 nm Pt
# Beamline.focusing: not in use
# Beamline.harmonic_rejection: flat mirror, Pt stripe, pitch = 7.0 mrad relative to beam
# Beamline.software: Bluesky 1.10.0, Ophyd 1.7.0, DataBroker 2.0.0b13, Python 3.10.8, 2023-1.0-py310-tiled
# Detector.I0: 10 cm N2
# Detector.I1: 25 cm N2
# Detector.I2: 25 cm N2
# Element.symbol: Yb
# Element.edge: L3
# Element.reference: Yb
# Element.reference_material: Yb2O3
# Facility.name: NSLS-II
# Facility.energy: 3.0
# Facility.current: 398.8
# Facility.mode: top-off
# Facility.GUP: 301027
# Facility.SAF: 310583
# Facility.cycle: 2023-2
# Mono.name: Si(111)
# Mono.d_spacing: 3.13519
# Mono.encoder_resolution: 0.0000050 deg/ct
# Mono.angle_offset: 16.0754 deg
# Mono.scan_mode: pseudo channel cut
# Mono.scan_type: step
# Mono.direction: forward in energy
# Sample.name: Yb2O3
# Sample.prep: PEG pellet
# Sample.x: 109.138 mm
# Sample.y: 153.150 mm
# Sample.SDD_position: 205.000 mm
# Scan.experimenters: Bruce Ravel
# Scan.edge_energy: 8943.6
# Scan.start_time: 2023-05-28T15:49:33
# Scan.end_time: 2023-05-28T15:57:37
# Scan.transient_id: 78812
# Scan.uid: 2be40b9f-a1fb-42f0-8736-52bc1fdddaac
# Scan.plot_hint: ln(It/Ir)  --  ln($6/$7)
# Column.1: energy eV
# Column.2: requested_energy eV
# Column.3: measurement_time seconds
# Column.4: xmu
# Column.5: I0 nA
# Column.6: It nA
# Column.7: Ir nA
# ///////////
# sample courtesy Martin Stennett, University of Sheffield
# -----------
# energy  requested_energy  measurement_time  xmu  I0  It  Ir
  8743.613  8743.600  0.500  1.441573  123.716  167.823  39.6994
  8753.616  8753.600  0.500  1.436900  123.549  167.767  39.872
  8763.660  8763.600  0.500  1.432181  123.355  167.748  40.0562
  8773.647  8773.600  0.500  1.427603  123.598  168.267  40.3646
  8783.651  8783.600  0.500  1.422876  123.413  168.244  40.55
  8793.636  8793.600  0.500  1.418240  123.196  168.157  40.7176
  8803.627  8803.600  0.500  1.413599  123.023  168.118  40.8974
  8813.672  8813.600  0.500  1.408950  122.837  168.073  41.077
  8823.626  8823.600  0.500  1.404428  122.654  168.014  41.2488
  8833.620  8833.600  0.500  1.399935  122.448  167.98  41.4261
  8843.614  8843.600  0.500  1.395517  122.273  167.894  41.5881
  8853.628  8853.600  0.500  1.391117  122.08  167.823  41.754
  8863.618  8863.600  0.500  1.386842  121.886  167.757  41.9164
  8873.620  8873.600  0.500  1.382673  121.697  167.735  42.0859
  8883.622  8883.600  0.500  1.378702  121.503  167.664  42.2354
  8893.617  8893.600  0.500  1.375085  121.307  167.598  42.3717
  8903.625  8903.600  0.500  1.372264  121.095  167.53  42.4742
  8913.573  8913.600  0.500  1.370751  120.929  167.436  42.5148
  8915.567  8915.600  0.500  1.370849  120.819  167.317  42.4804
  8917.576  8917.600  0.500  1.371091  119.774  165.914  42.1139
  8919.578  8919.600  0.500  1.371612  120.853  167.447  42.4808
  8921.571  8921.600  0.500  1.372478  120.76  167.356  42.4211
  8923.884  8923.600  0.500  1.373769  118.888  164.815  41.7231
  8925.872  8925.600  0.500  1.375414  120.802  167.49  42.3307
  8927.652  8927.600  0.500  1.377932  120.704  167.418  42.2059
  8929.642  8929.600  0.500  1.381303  120.556  167.254  42.0226
  8931.616  8931.600  0.500  1.386629  118.242  164.08  41.0062
  8933.584  8933.600  0.500  1.394858  120.586  167.369  41.4854
  8933.876  8933.900  0.500  1.396506  120.571  167.375  41.4187
  8934.164  8934.200  0.500  1.398225  120.557  167.363  41.3445
  8934.474  8934.500  0.500  1.400279  120.546  167.341  41.2542
  8934.769  8934.800  0.500  1.402427  120.541  167.333  41.1638
  8935.071  8935.100  0.500  1.404745  120.522  167.335  41.069
  8935.381  8935.400  0.500  1.407127  120.491  167.293  40.9611
  8935.676  8935.700  0.500  1.409715  120.417  167.179  40.8272
  8935.972  8936.000  0.500  1.412452  120.294  167.016  40.6759
  8936.278  8936.300  0.500  1.415426  120.203  166.898  40.5265
  8936.580  8936.600  0.500  1.418309  120.155  166.818  40.3905
  8936.883  8936.900  0.500  1.421171  120.148  166.826  40.2769
  8937.178  8937.200  0.500  1.424018  120.209  166.912  40.1833
  8937.488  8937.500  0.500  1.426843  120.313  167.064  40.1064
  8937.783  8937.800  0.500  1.429627  120.369  167.141  40.0133
  8938.086  8938.100  0.500  1.432434  120.385  167.15  39.9031
  8938.382  8938.400  0.500  1.435460  120.382  167.155  39.784
  8938.684  8938.700  0.500  1.438754  120.386  167.188  39.6609
  8938.977  8939.000  0.500  1.442421  120.37  167.202  39.519
  8939.283  8939.300  0.500  1.446772  120.362  167.189  39.3444
  8939.575  8939.600  0.500  1.451423  120.363  167.153  39.1534
  8939.888  8939.900  0.500  1.457088  120.345  167.144  38.93
  8940.177  8940.200  0.500  1.462971  120.343  167.151  38.7034
  8940.480  8940.500  0.500  1.470089  120.335  167.156  38.4301
  8940.783  8940.800  0.500  1.477846  120.332  167.157  38.1332
  8941.092  8941.100  0.500  1.487052  120.315  167.15  37.7823
  8941.385  8941.400  0.500  1.496687  120.308  167.148  37.4196
  8941.694  8941.700  0.500  1.508075  120.3  167.138  36.9936
  8941.994  8942.000  0.500  1.520156  120.295  167.131  36.5479
  8942.300  8942.300  0.500  1.534236  120.282  167.134  36.0376
  8942.586  8942.600  0.500  1.548940  120.28  167.129  35.5104
  8942.902  8942.900  0.500  1.567354  120.273  167.113  34.8593
  8943.185  8943.200  0.500  1.586657  120.268  167.088  34.1876
  8943.501  8943.500  0.500  1.610887  120.255  167.09  33.3696
  8943.794  8943.800  0.500  1.636958  120.242  167.081  32.5092
  8944.101  8944.100  0.500  1.667834  120.237  167.081  31.5208
  8944.390  8944.400  0.500  1.701608  120.221  167.081  30.474
  8944.703  8944.700  0.500  1.741815  120.216  167.093  29.2751
  8944.992  8945.000  0.500  1.784552  120.212  167.093  28.0503
  8945.292  8945.300  0.500  1.832612  120.205  167.082  26.7323
  8945.585  8945.600  0.500  1.884042  120.2  167.065  25.3896
  8945.895  8945.900  0.500  1.944752  120.19  167.056  23.8928
  8946.191  8946.200  0.500  2.005799  120.183  167.048  22.4768
  8946.484  8946.500  0.500  2.072399  120.164  167.045  21.0282
  8946.784  8946.800  0.500  2.139042  120.155  167.048  19.6728
  8947.097  8947.100  0.500  2.208639  120.148  167.023  18.3475
  8947.390  8947.400  0.500  2.270475  120.139  166.989  17.2438
  8947.700  8947.700  0.500  2.326179  120.134  167.01  16.3116
  8947.990  8948.000  0.500  2.372120  120.125  166.99  15.5773
  8948.303  8948.300  0.500  2.410477  120.106  166.989  14.9911
  8948.600  8948.600  0.500  2.438255  120.11  167.006  14.5818
  8948.896  8948.900  0.500  2.460434  120.1  167  14.2614
  8949.196  8949.200  0.500  2.477418  120.09  166.998  14.0211
  8949.503  8949.500  0.500  2.491994  120.082  166.994  13.8179
  8949.799  8949.800  0.500  2.503105  120.073  166.973  13.6635
  8950.103  8950.100  0.500  2.510851  120.067  166.983  13.5589
  8950.399  8950.400  0.500  2.513888  120.059  166.955  13.5155
  8950.703  8950.700  0.500  2.510701  120.045  166.955  13.5586
  8950.999  8951.000  0.500  2.500344  120.037  166.972  13.7012
  8951.299  8951.300  0.500  2.482013  120.019  166.918  13.9501
  8951.603  8951.600  0.500  2.455697  119.994  166.863  14.3174
  8951.896  8951.900  0.500  2.422845  119.899  166.749  14.7854
  8952.193  8952.200  0.500  2.383141  119.795  166.606  15.3711
  8952.489  8952.500  0.500  2.339358  119.717  166.504  16.0493
  8952.793  8952.800  0.500  2.292792  119.673  166.457  16.8095
  8953.093  8953.100  0.500  2.244560  119.715  166.516  17.6464
  8953.393  8953.400  0.500  2.195315  119.79  166.63  18.5498
  8953.694  8953.700  0.500  2.149529  119.882  166.759  19.434
  8954.001  8954.000  0.500  2.103711  119.926  166.818  20.3523
  8954.294  8954.300  0.500  2.063113  119.935  166.84  21.1983
  8954.601  8954.600  0.500  2.024020  119.927  166.824  22.0413
  8954.891  8954.900  0.500  1.990878  119.924  166.821  22.7836
  8955.209  8955.200  0.500  1.960378  119.909  166.837  23.4915
  8955.509  8955.500  0.500  1.935373  119.915  166.871  24.0913
  8955.806  8955.800  0.500  1.912691  119.907  166.875  24.6445
  8956.103  8956.100  0.500  1.894116  119.896  166.856  25.1037
  8956.410  8956.400  0.500  1.876732  119.882  166.839  25.5414
  8956.697  8956.700  0.500  1.862188  119.883  166.823  25.913
  8957.008  8957.000  0.500  1.847950  119.867  166.827  26.2852
  8957.301  8957.300  0.500  1.835940  119.865  166.841  26.605
  8957.605  8957.600  0.500  1.824618  119.862  166.831  26.9063
  8957.899  8957.900  0.500  1.814834  119.853  166.834  27.1714
  8958.203  8958.200  0.500  1.805629  119.85  166.821  27.4205
  8958.493  8958.500  0.500  1.797553  119.835  166.794  27.6384
  8958.804  8958.800  0.500  1.790067  119.831  166.781  27.8438
  8959.097  8959.100  0.500  1.783555  119.834  166.785  28.0264
  8959.402  8959.400  0.500  1.777626  119.82  166.784  28.193
  8959.688  8959.700  0.500  1.772688  119.812  166.802  28.3357
  8959.999  8960.000  0.500  1.767869  119.809  166.793  28.471
  8960.293  8960.300  0.500  1.763753  119.796  166.79  28.5879
  8960.601  8960.600  0.500  1.759841  119.789  166.776  28.6975
  8960.895  8960.900  0.500  1.756602  119.782  166.79  28.793
  8961.202  8961.200  0.500  1.753473  119.777  166.781  28.8817
  8961.496  8961.500  0.500  1.750988  119.77  166.788  28.9548
  8961.804  8961.800  0.500  1.748451  119.763  166.786  29.028
  8962.098  8962.100  0.500  1.746724  119.747  166.783  29.0777
  8962.412  8962.400  0.500  1.745222  119.743  166.776  29.1202
  8962.706  8962.700  0.500  1.744263  119.742  166.752  29.1439
  8963.007  8963.000  0.500  1.743674  119.728  166.739  29.1588
  8963.301  8963.300  0.500  1.743581  119.721  166.736  29.1609
  8963.602  8963.600  0.500  1.744022  119.714  166.73  29.1471
  8963.899  8963.900  0.500  1.744794  119.702  166.725  29.1236
  8964.207  8964.200  0.500  1.745990  119.69  166.714  29.0869
  8964.498  8964.500  0.500  1.747430  120.072  167.268  29.1415
  8964.802  8964.800  0.500  1.749146  120.071  167.269  29.0918
  8965.096  8965.100  0.500  1.750782  120.024  167.212  29.0344
  8965.408  8965.400  0.500  1.752586  119.926  167.077  28.9586
  8965.695  8965.700  0.500  1.754206  119.854  166.973  28.8938
  8965.999  8966.000  0.500  1.755605  119.807  166.909  28.8423
  8966.293  8966.300  0.500  1.756755  119.816  166.93  28.8129
  8966.595  8966.600  0.500  1.757668  119.888  167.042  28.8059
  8966.896  8966.900  0.500  1.758343  119.977  167.183  28.8106
  8967.190  8967.200  0.500  1.758736  120.027  167.238  28.8089
  8967.491  8967.500  0.500  1.758928  120.045  167.263  28.8076
  8967.796  8967.800  0.500  1.758908  120.047  167.276  28.8104
  8968.100  8968.100  0.500  1.758595  120.042  167.291  28.822
  8968.402  8968.400  0.500  1.758046  120.04  167.293  28.8382
  8968.602  8968.600  0.500  1.757551  120.024  167.282  28.8507
  8969.603  8969.590  0.500  1.753414  120.009  167.258  28.966
  8970.604  8970.590  0.500  1.747819  119.991  167.258  29.1286
  8971.630  8971.610  0.500  1.741920  119.971  167.247  29.299
  8972.666  8972.660  0.500  1.737732  119.945  167.232  29.4192
  8973.730  8973.720  0.500  1.737299  119.925  167.224  29.4306
  8974.801  8974.800  0.500  1.741333  119.901  167.197  29.3073
  8975.911  8975.900  0.500  1.749542  119.875  167.198  29.068
  8977.039  8977.020  0.500  1.759632  119.852  167.187  28.7743
  8978.177  8978.160  0.500  1.770730  119.822  167.17  28.4537
  8979.315  8979.310  0.500  1.782128  119.795  167.157  28.1292
  8980.492  8980.490  0.500  1.794373  119.767  167.137  27.7834
  8981.690  8981.680  0.500  1.808253  119.699  167.045  27.3855
  8982.899  8982.900  0.500  1.823417  119.395  166.648  26.9091
  8984.136  8984.130  0.500  1.837757  119.625  167.004  26.5827
  8985.376  8985.380  0.500  1.849169  119.616  167.007  26.2816
  8986.659  8986.650  0.500  1.855324  119.586  166.992  26.118
  8987.953  8987.940  0.500  1.854985  119.554  166.982  26.1253
  8989.257  8989.250  0.500  1.848919  119.528  166.97  26.2822
  8990.586  8990.580  0.500  1.838860  119.473  166.911  26.5386
  8991.933  8991.930  0.500  1.827142  119.415  166.85  26.8417
  8993.312  8993.300  0.500  1.814589  119.235  166.621  27.1433
  8994.691  8994.680  0.500  1.803226  116.979  163.504  26.9399
  8996.088  8996.090  0.500  1.793623  119.286  166.751  27.7401
  8997.517  8997.510  0.500  1.786234  119.367  166.887  27.9687
  8998.964  8998.950  0.500  1.780425  119.307  166.846  28.1247
  9000.414  9000.410  0.500  1.774782  119.24  166.773  28.2714
  9001.894  9001.890  0.500  1.769343  119.113  166.624  28.4002
  9003.398  9003.390  0.500  1.763959  117.508  164.411  28.1743
  9004.916  9004.910  0.500  1.759489  118.754  166.165  28.6025
  9006.460  9006.450  0.500  1.756028  119.193  166.814  28.8137
  9008.014  9008.010  0.500  1.753261  119.129  166.772  28.8862
  9009.590  9009.580  0.500  1.750933  118.998  166.638  28.9303
  9011.198  9011.180  0.500  1.748948  117.012  163.858  28.5043
  9012.800  9012.790  0.500  1.747391  118.921  166.532  29.0146
  9014.430  9014.430  0.500  1.746361  119.07  166.788  29.0891
  9016.089  9016.080  0.500  1.746118  119.014  166.747  29.0889
  9017.759  9017.750  0.500  1.746819  118.956  166.712  29.0624
  9019.436  9019.440  0.500  1.748089  118.837  166.552  28.9978
  9021.164  9021.150  0.500  1.750369  116.512  163.319  28.3701
  9022.899  9022.880  0.500  1.753415  118.898  166.694  28.8683
  9024.638  9024.630  0.500  1.757133  118.888  166.703  28.7627
  9026.395  9026.390  0.500  1.760974  118.848  166.684  28.6492
  9028.182  9028.180  0.500  1.764852  118.808  166.667  28.5354
  9029.993  9029.980  0.500  1.768099  118.766  166.649  28.4398
  9031.816  9031.810  0.500  1.770802  118.726  166.645  28.3624
  9033.664  9033.650  0.500  1.772538  118.685  166.616  28.3083
  9035.520  9035.510  0.500  1.773466  118.641  166.571  28.2744
  9037.394  9037.390  0.500  1.773572  118.604  166.54  28.2661
  9039.308  9039.290  0.500  1.772972  118.555  166.505  28.2771
  9041.219  9041.210  0.500  1.772054  118.144  165.969  28.212
  9043.170  9043.150  0.500  1.771122  117.936  165.726  28.197
  9045.114  9045.110  0.500  1.770489  118.37  166.356  28.3221
  9047.092  9047.080  0.500  1.770137  118.355  166.373  28.335
  9049.080  9049.080  0.500  1.769476  118.323  166.379  28.3547
  9051.105  9051.090  0.500  1.768373  118.284  166.365  28.3836
  9053.131  9053.120  0.500  1.766655  118.239  166.353  28.4304
  9055.185  9055.180  0.500  1.764932  118.2  166.307  28.4715
  9057.255  9057.250  0.500  1.763335  118.162  166.297  28.5152
  9059.351  9059.340  0.500  1.761822  118.125  166.276  28.5548
  9061.458  9061.450  0.500  1.760465  118.073  166.246  28.5885
  9063.595  9063.580  0.500  1.759170  116.989  164.767  28.3708
  9065.718  9065.720  0.500  1.757991  117.897  166.092  28.6327
  9067.903  9067.890  0.500  1.756089  117.923  166.175  28.7015
  9070.089  9070.080  0.500  1.753343  117.897  166.147  28.7757
  9072.283  9072.280  0.500  1.749527  117.854  166.125  28.8819
  9074.510  9074.500  0.500  1.744988  117.816  166.106  29.0099
  9076.763  9076.750  0.500  1.740519  117.765  166.094  29.1378
  9079.024  9079.010  0.500  1.735926  117.721  166.061  29.266
  9081.300  9081.290  0.500  1.731681  116.94  165.011  29.2048
  9083.596  9083.590  0.500  1.728389  117.479  165.821  29.4449
  9085.931  9085.910  0.500  1.726815  117.539  165.943  29.513
  9088.258  9088.250  0.500  1.727261  117.501  165.916  29.495
  9090.607  9090.600  0.500  1.729000  117.455  165.895  29.44
  9092.992  9092.980  0.500  1.730774  117.411  165.881  29.3853
  9095.394  9095.370  0.500  1.732208  117.365  165.849  29.3376
  9097.807  9097.790  0.500  1.733142  117.315  165.821  29.3052
  9100.229  9100.220  0.500  1.733836  117.268  165.827  29.286
  9102.698  9102.670  0.500  1.734670  117.202  165.769  29.2513
  9105.155  9105.150  0.500  1.735942  116.133  164.307  28.9564
  9107.659  9107.640  0.500  1.737842  117.052  165.662  29.1399
  9110.165  9110.150  0.500  1.739942  117.026  165.663  29.0789
  9112.683  9112.670  0.500  1.741923  116.979  165.65  29.0191
  9115.234  9115.220  0.500  1.742749  116.927  165.612  28.9884
  9117.802  9117.790  0.500  1.742218  116.874  165.574  28.9972
  9120.385  9120.370  0.500  1.739901  116.817  165.53  29.0569
  9122.984  9122.980  0.500  1.736119  116.759  165.494  29.1605
  9125.620  9125.600  0.500  1.731237  116.699  165.473  29.2996
  9128.258  9128.250  0.500  1.726444  116.646  165.432  29.4329
  9130.920  9130.910  0.500  1.722714  116.58  165.394  29.5361
  9133.604  9133.590  0.500  1.719991  116.507  165.345  29.608
  9136.297  9136.290  0.500  1.717824  116.432  165.288  29.662
  9139.028  9139.010  0.500  1.716466  116.344  165.204  29.6871
  9141.764  9141.750  0.500  1.715817  116.206  165.043  29.6775
  9144.512  9144.500  0.500  1.715769  113.462  161.188  28.9858
  9147.295  9147.280  0.500  1.715617  116.302  165.271  29.7244
  9150.083  9150.070  0.500  1.715571  116.201  165.168  29.7073
  9152.905  9152.890  0.500  1.715365  116.073  165.044  29.6911
  9155.729  9155.720  0.500  1.715269  115.844  164.747  29.6406
  9158.591  9158.570  0.500  1.715052  113.13  160.954  28.9644
  9161.461  9161.450  0.500  1.714577  116.002  165.106  29.7257
  9164.360  9164.340  0.500  1.713141  115.868  164.966  29.7432
  9167.270  9167.250  0.500  1.710900  115.504  164.479  29.7218
  9170.187  9170.170  0.500  1.707744  115.181  164.066  29.741
  9173.141  9173.120  0.500  1.704409  115.798  165.009  30.0118
  9176.105  9176.090  0.500  1.701288  115.684  164.9  30.0857
  9179.085  9179.070  0.500  1.698545  115.544  164.764  30.1434
  9182.104  9182.080  0.500  1.696561  113.623  162.065  29.7085
  9185.125  9185.100  0.500  1.695038  115.59  164.93  30.2799
  9188.166  9188.150  0.500  1.694374  115.473  164.818  30.2794
  9191.230  9191.210  0.500  1.693822  115.368  164.703  30.2749
  9194.315  9194.290  0.500  1.693779  115.271  164.643  30.2653
  9197.413  9197.390  0.500  1.693724  115.171  164.532  30.2465
  9200.525  9200.510  0.500  1.693602  115.077  164.441  30.2335
  9203.671  9203.650  0.500  1.693166  114.995  164.378  30.235
  9206.823  9206.800  0.500  1.692785  114.93  164.366  30.2443
  9209.999  9209.980  0.500  1.692301  114.857  164.288  30.2446
  9213.203  9213.170  0.500  1.691704  114.783  164.251  30.256
  9216.410  9216.390  0.500  1.690738  114.706  164.192  30.2742
  9219.651  9219.620  0.500  1.689286  114.633  164.135  30.3077
  9222.895  9222.870  0.500  1.687513  114.553  164.068  30.3491
  9226.182  9226.150  0.500  1.685845  114.479  164.021  30.3911
  9229.464  9229.440  0.500  1.684148  114.402  163.979  30.4349
  9232.770  9232.750  0.500  1.681924  114.327  163.918  30.4913
  9236.082  9236.070  0.500  1.679767  114.253  163.865  30.5473
  9239.437  9239.420  0.500  1.677361  114.181  163.823  30.613
  9242.814  9242.790  0.500  1.674545  114.1  163.76  30.6876
  9246.181  9246.170  0.500  1.671789  114.03  163.73  30.7665
  9249.603  9249.580  0.500  1.669574  113.964  163.691  30.8275
  9253.031  9253.000  0.500  1.667927  113.881  163.594  30.86
  9256.473  9256.450  0.500  1.666669  113.794  163.529  30.8865
  9259.935  9259.910  0.500  1.665455  113.726  163.485  30.9158
  9263.397  9263.390  0.500  1.664552  113.64  163.421  30.9315
  9266.913  9266.890  0.500  1.663694  113.57  163.387  30.9518
  9270.436  9270.410  0.500  1.662613  113.488  163.327  30.9737
  9273.969  9273.950  0.500  1.661283  113.4  163.249  31.0003
  9277.531  9277.500  0.500  1.659554  113.169  162.975  31.0017
  9281.099  9281.080  0.500  1.657556  113.289  163.203  31.1072
  9284.711  9284.680  0.500  1.655297  113.186  163.118  31.1613
  9288.321  9288.290  0.500  1.653174  113.091  163.036  31.2118
  9291.943  9291.920  0.500  1.651255  112.916  162.842  31.2345
  9295.615  9295.580  0.500  1.649721  112.923  162.915  31.2965
  9299.276  9299.250  0.500  1.648101  112.19  161.923  31.1564
  9302.970  9302.940  0.500  1.646586  112.835  162.933  31.3984
  9306.666  9306.650  0.500  1.645240  112.154  162.011  31.2627
  9310.399  9310.380  0.500  1.643937  112.676  162.806  31.4571
  9314.143  9314.120  0.500  1.642344  112.565  162.686  31.4839
  9317.897  9317.890  0.500  1.640443  112.469  162.598  31.5268
  9321.707  9321.680  0.500  1.638489  112.364  162.513  31.5721
  9325.505  9325.480  0.500  1.636650  112.115  162.251  31.579
  9329.325  9329.310  0.500  1.635308  112.212  162.427  31.6558
  9333.175  9333.150  0.500  1.634023  112.491  162.894  31.7876
  9337.042  9337.010  0.500  1.632805  112.432  162.865  31.8206
  9340.906  9340.890  0.500  1.631383  112.335  162.776  31.8485
  9344.814  9344.790  0.500  1.630049  112.254  162.723  31.8807
  9348.737  9348.710  0.500  1.628505  112.158  162.662  31.918
  9352.675  9352.650  0.500  1.626720  112.071  162.576  31.9581
  9356.631  9356.610  0.500  1.624853  111.979  162.531  32.0089
  9360.613  9360.580  0.500  1.622865  111.895  162.47  32.0606
  9364.595  9364.580  0.500  1.620935  111.797  162.394  32.1075
  9368.626  9368.590  0.500  1.618831  111.712  162.313  32.1591
  9372.656  9372.630  0.500  1.616655  111.62  162.234  32.2135
  9376.702  9376.680  0.500  1.614475  111.528  162.186  32.2742
  9380.770  9380.750  0.500  1.612425  111.436  162.108  32.325
  9384.872  9384.840  0.500  1.610197  111.33  162.005  32.3764
  9388.970  9388.950  0.500  1.607954  111.239  161.934  32.435
  9393.110  9393.080  0.500  1.605642  111.151  161.895  32.5022
  9397.257  9397.230  0.500  1.603238  111.065  161.81  32.5633
  9401.412  9401.390  0.500  1.601078  110.965  161.723  32.6162
  9405.601  9405.580  0.500  1.599274  110.857  161.635  32.6572
  9409.802  9409.780  0.500  1.597819  110.753  161.573  32.6923
  9414.026  9414.010  0.500  1.596619  110.65  161.477  32.712
  9418.261  9418.250  0.500  1.595570  110.555  161.427  32.7363
  9422.527  9422.510  0.500  1.594422  110.467  161.343  32.7569
  9426.804  9426.790  0.500  1.593169  110.36  161.25  32.7789
  9431.101  9431.090  0.500  1.591610  110.26  161.171  32.8141
  9435.425  9435.410  0.500  1.589526  110.148  161.074  32.8627
  9439.765  9439.750  0.500  1.587514  110.02  160.958  32.9051
  9444.120  9444.110  0.500  1.585239  109.943  160.902  32.9686
  9448.498  9448.490  0.500  1.583010  109.827  160.799  33.021
  9452.896  9452.880  0.500  1.580844  109.714  160.708  33.0738
  9457.318  9457.300  0.500  1.578572  109.623  160.619  33.1308
  9461.744  9461.730  0.500  1.576428  109.517  160.504  33.1782
  9466.189  9466.180  0.500  1.574211  109.406  160.421  33.2345
  9470.663  9470.650  0.500  1.572131  109.316  160.37  33.2933
  9475.163  9475.140  0.500  1.569902  109.208  160.275  33.3478
  9479.664  9479.650  0.500  1.567622  109.094  160.18  33.4041
  9484.205  9484.180  0.500  1.565328  108.994  160.104  33.4648
  9488.754  9488.730  0.500  1.563195  108.873  159.987  33.5119
  9493.315  9493.300  0.500  1.561486  108.785  159.896  33.5501
  9497.903  9497.880  0.500  1.559951  108.66  159.788  33.5788
  9502.505  9502.490  0.500  1.558525  108.549  159.698  33.6077
  9507.122  9507.110  0.500  1.557461  108.44  159.621  33.6274
  9511.772  9511.760  0.500  1.556240  108.313  159.481  33.6391
  9516.449  9516.420  0.500  1.554773  108.215  159.399  33.671
  9521.120  9521.100  0.500  1.552667  108.104  159.331  33.7275
  9525.822  9525.800  0.500  1.550320  108.001  159.216  33.7825
  9530.549  9530.520  0.500  1.547819  107.881  159.115  33.8456
  9535.285  9535.260  0.500  1.545041  107.776  159.039  33.9236
  9540.033  9540.010  0.500  1.542242  107.663  158.931  33.9954
  9544.814  9544.790  0.500  1.539307  107.536  158.818  34.0712
  9549.615  9549.590  0.500  1.536572  107.421  158.736  34.1468
  9554.418  9554.400  0.500  1.534185  107.31  158.627  34.205
  9559.249  9559.230  0.500  1.531866  107.201  158.508  34.2587
  9564.109  9564.090  0.500  1.529962  107.096  158.447  34.3108
  9568.981  9568.960  0.500  1.527899  106.982  158.342  34.3588
  9573.867  9573.850  0.500  1.526170  106.869  158.217  34.3912
  9578.789  9578.760  0.500  1.524442  106.744  158.099  34.4248
  9583.713  9583.690  0.500  1.522982  106.618  158.006  34.455
  9588.654  9588.630  0.500  1.521554  106.504  157.911  34.4833
  9593.616  9593.600  0.500  1.519878  106.393  157.814  34.52
  9598.619  9598.590  0.500  1.518038  106.266  157.689  34.5563
  9603.619  9603.590  0.500  1.516158  106.142  157.573  34.5958
  9608.640  9608.620  0.500  1.514354  106.029  157.477  34.6372
  9613.683  9613.660  0.500  1.512218  105.925  157.384  34.6907
  9618.752  9618.720  0.500  1.510032  105.67  157.082  34.6999
  9623.826  9623.800  0.500  1.507431  105.675  157.163  34.8081
  9628.917  9628.900  0.500  1.504620  105.557  157.07  34.8855
  9634.050  9634.020  0.500  1.501798  105.379  156.845  34.934
  9639.180  9639.160  0.500  1.499181  105.306  156.792  35.0137
  9644.344  9644.320  0.500  1.496547  105.176  156.652  35.0748
  9649.518  9649.500  0.500  1.494264  104.84  156.229  35.0599
  9654.718  9654.690  0.500  1.492034  104.931  156.428  35.183
  9659.931  9659.910  0.500  1.489930  104.805  156.302  35.2287
  9665.158  9665.140  0.500  1.487907  104.673  156.172  35.2707
  9670.420  9670.390  0.500  1.485825  104.514  156.007  35.3068
  9675.691  9675.660  0.500  1.483876  104.405  155.905  35.3525
  9681.004  9680.950  0.500  1.482035  104.276  155.816  35.3975
  9686.283  9686.260  0.500  1.480239  104.164  155.725  35.4404
  9691.613  9691.590  0.500  1.478437  104.001  155.548  35.464
  9696.973  9696.940  0.500  1.476629  103.89  155.46  35.508
  9702.347  9702.310  0.500  1.474585  103.757  155.317  35.548
  9707.715  9707.690  0.500  1.472290  103.591  155.149  35.591
  9713.121  9713.100  0.500  1.469818  103.534  155.142  35.6777
  9718.550  9718.520  0.500  1.467196  103.382  154.956  35.7284
  9724.006  9723.970  0.500  1.464537  103.237  154.816  35.7911
  9729.452  9729.430  0.500  1.461931  103.124  154.712  35.8603
  9734.940  9734.910  0.500  1.459452  102.971  154.565  35.9152
  9740.472  9740.410  0.500  1.456954  102.865  154.464  35.9815
  9745.961  9745.930  0.500  1.454559  102.735  154.344  36.0398
  9751.494  9751.470  0.500  1.452025  102.584  154.171  36.0908
  9757.049  9757.020  0.500  1.449724  102.436  154.005  36.135
  9762.627  9762.600  0.500  1.447444  102.287  153.87  36.1857
  9768.220  9768.200  0.500  1.445348  102.133  153.724  36.2272
  9773.837  9773.810  0.500  1.443380  101.126  152.274  35.9561
  9779.476  9779.450  0.500  1.441300  101.883  153.478  36.3159
  9785.130  9785.100  0.500  1.439401  100.937  152.127  36.0647
  9790.799  9790.770  0.500  1.437218  101.542  153.104  36.3757
  9796.496  9796.460  0.500  1.435126  101.501  153.103  36.4517