File: xdidata/Tm/Tm-L3-Tm2TiO5.xdi
# XDI/1.0 BlueSky/1.10.0 BMM/2023-1.0-py310-tiled
# Beamline.name: BMM (06BM) -- Beamline for Materials Measurement (NIST)
# Beamline.xray_source: NSLS-II three-pole wiggler
# Beamline.collimation: paraboloid mirror, 5 nm Rh on 30 nm Pt
# Beamline.focusing: not in use
# Beamline.harmonic_rejection: flat mirror, Pt stripe, pitch = 7.0 mrad relative to beam
# Beamline.software: Bluesky 1.10.0, Ophyd 1.7.0, DataBroker 2.0.0b13, Python 3.10.8, 2023-1.0-py310-tiled
# Detector.I0: 10 cm N2
# Detector.I1: 25 cm N2
# Detector.I2: 25 cm N2
# Element.symbol: Tm
# Element.edge: L3
# Element.reference: Tm
# Element.reference_material: Tm2O3
# Facility.name: NSLS-II
# Facility.energy: 3.0
# Facility.current: 400.7
# Facility.mode: top-off
# Facility.GUP: 123456
# Facility.SAF: 301027
# Facility.cycle: 2023-2
# Mono.name: Si(111)
# Mono.d_spacing: 3.13519
# Mono.encoder_resolution: 0.0000050 deg/ct
# Mono.angle_offset: 16.0754 deg
# Mono.scan_mode: pseudo channel cut
# Mono.scan_type: step
# Mono.direction: forward in energy
# Sample.name: Tm2TiO5
# Sample.prep: Powder in PEG pellet
# Sample.x: 149.848 mm
# Sample.y: 114.690 mm
# Sample.SDD_position: 205.000 mm
# Scan.experimenters: Bruce Ravel
# Scan.edge_energy: 8648.0
# Scan.start_time: 2023-05-08T19:21:33
# Scan.end_time: 2023-05-08T19:27:17
# Scan.transient_id: 75533
# Scan.uid: 3f165f0e-0a92-4c7c-b390-734ad92f043a
# Scan.plot_hint: ln(I0/It)  --  ln($5/$6)
# Column.1: energy eV
# Column.2: requested_energy eV
# Column.3: measurement_time seconds
# Column.4: xmu
# Column.5: I0 nA
# Column.6: It nA
# Column.7: Ir nA
# ///////////
# sample courtesy Martin Stennett, University of Sheffield
# -----------
# energy  requested_energy  measurement_time  xmu  I0  It  Ir
  8448.025  8448.000  0.500  0.493271  129.13  78.8499  28.4767
  8458.094  8458.000  0.500  0.489649  128.964  79.0348  28.6453
  8468.021  8468.000  0.500  0.486153  128.749  79.1789  28.794
  8478.059  8478.000  0.500  0.482395  128.569  79.3658  28.9648
  8488.035  8488.000  0.500  0.478890  128.365  79.5184  29.1177
  8498.048  8498.000  0.500  0.475213  128.188  79.701  29.2829
  8508.025  8508.000  0.500  0.471686  127.998  79.8642  29.4452
  8518.027  8518.000  0.500  0.467903  127.79  80.0365  29.6059
  8528.022  8528.000  0.500  0.464512  126.913  79.7575  29.6038
  8538.022  8538.000  0.500  0.460883  127.264  80.2686  29.8917
  8547.996  8548.000  0.500  0.457541  127.122  80.4473  30.0558
  8557.991  8558.000  0.500  0.454067  126.864  80.5639  30.1992
  8568.004  8568.000  0.500  0.450438  126.756  80.7875  30.3794
  8578.006  8578.000  0.500  0.446914  126.506  80.913  30.5208
  8588.004  8588.000  0.500  0.443530  125.944  80.8267  30.5741
  8598.007  8598.000  0.500  0.440173  125.933  81.0915  30.7537
  8608.008  8608.000  0.500  0.437012  125.409  81.0099  30.7856
  8618.001  8618.000  0.500  0.434360  87.9146  56.9405  21.6541
  8619.992  8620.000  0.500  0.433544  125.993  81.6693  31.0557
  8621.978  8622.000  0.500  0.433218  126.875  82.2681  31.2712
  8623.981  8624.000  0.500  0.432886  126.658  82.1551  31.2164
  8625.984  8626.000  0.500  0.432619  126.462  82.0492  31.1474
  8627.979  8628.000  0.500  0.432079  126.294  81.9851  31.0908
  8629.985  8630.000  0.500  0.431968  126.148  81.8992  31.0092
  8631.988  8632.000  0.500  0.431922  126.021  81.8202  30.9114
  8633.977  8634.000  0.500  0.431889  125.88  81.7314  30.7776
  8635.985  8636.000  0.500  0.432193  125.72  81.6031  30.58
  8637.985  8638.000  0.500  0.433005  125.5  81.3938  30.27
  8638.472  8638.500  0.500  0.433406  125.42  81.3092  30.159
  8638.973  8639.000  0.500  0.433847  125.3  81.1958  30.0262
  8639.473  8639.500  0.500  0.434316  125.157  81.065  29.8698
  8639.976  8640.000  0.500  0.435010  124.972  80.8889  29.6842
  8640.473  8640.500  0.500  0.435598  124.679  80.6523  29.4513
  8640.980  8641.000  0.500  0.436372  124.182  80.2684  29.1552
  8641.484  8641.500  0.500  0.437091  123.122  79.5263  28.7205
  8641.988  8642.000  0.500  0.437934  120.522  77.7811  27.9393
  8642.482  8642.500  0.500  0.438577  115.314  74.3724  26.5803
  8642.979  8643.000  0.500  0.439413  110.279  71.0657  25.2693
  8643.480  8643.500  0.500  0.440025  109.613  70.5929  24.9571
  8643.984  8644.000  0.500  0.441063  113.323  72.9063  25.5902
  8644.481  8644.500  0.500  0.442145  118.764  76.3241  26.5562
  8644.979  8645.000  0.500  0.443543  122.732  78.7642  27.1096
  8645.480  8645.500  0.500  0.445334  124.391  79.6861  27.0435
  8645.981  8646.000  0.500  0.447368  124.959  79.8873  26.6481
  8646.482  8646.500  0.500  0.449803  125.199  79.8464  26.0736
  8646.993  8647.000  0.500  0.452659  125.313  79.6909  25.3302
  8647.491  8647.500  0.500  0.455931  125.389  79.4787  24.4202
  8647.999  8648.000  0.500  0.459661  125.42  79.2024  23.3118
  8648.490  8648.500  0.500  0.463794  125.436  78.8859  22.0347
  8648.992  8649.000  0.500  0.468082  125.437  78.5489  20.6164
  8649.490  8649.500  0.500  0.472207  125.436  78.225  19.1529
  8649.991  8650.000  0.500  0.476296  125.429  77.9016  17.6901
  8650.486  8650.500  0.500  0.480159  125.427  77.5998  16.3268
  8650.988  8651.000  0.500  0.483459  125.42  77.3401  15.1415
  8651.483  8651.500  0.500  0.485904  125.4  77.1386  14.2577
  8651.994  8652.000  0.500  0.487673  125.396  76.9998  13.6566
  8652.499  8652.500  0.500  0.488874  125.38  76.8978  13.274
  8652.995  8653.000  0.500  0.489486  125.365  76.8416  13.0183
  8653.500  8653.500  0.500  0.489640  125.351  76.8207  12.8535
  8653.999  8654.000  0.500  0.489229  125.331  76.8404  12.8038
  8654.501  8654.500  0.500  0.488538  125.316  76.8843  12.9101
  8654.987  8655.000  0.500  0.487364  125.297  76.9627  13.2094
  8655.495  8655.500  0.500  0.485747  125.286  77.0808  13.7136
  8655.994  8656.000  0.500  0.483581  125.268  77.2369  14.3821
  8656.490  8656.500  0.500  0.481436  125.247  77.3897  15.1714
  8656.996  8657.000  0.500  0.478785  125.237  77.5886  16.0689
  8657.495  8657.500  0.500  0.476132  125.213  77.7797  16.9867
  8658.000  8658.000  0.500  0.473648  125.211  77.9724  17.8692
  8658.496  8658.500  0.500  0.471503  125.186  78.1237  18.6465
  8659.005  8659.000  0.500  0.469323  125.171  78.2854  19.3164
  8659.492  8659.500  0.500  0.467631  125.155  78.4079  19.8591
  8659.991  8660.000  0.500  0.466014  125.139  78.5244  20.3258
  8660.491  8660.500  0.500  0.464581  125.124  78.6276  20.7105
  8660.994  8661.000  0.500  0.463373  125.106  78.7115  21.0399
  8661.500  8661.500  0.500  0.462306  125.092  78.7869  21.3214
  8661.996  8662.000  0.500  0.461364  125.075  78.8501  21.5568
  8662.506  8662.500  0.500  0.460477  125.055  78.9075  21.7607
  8663.009  8663.000  0.500  0.459869  125.043  78.9477  21.9299
  8663.509  8663.500  0.500  0.459146  125.027  78.9948  22.0792
  8664.002  8664.000  0.500  0.458573  125.016  79.033  22.2058
  8664.492  8664.500  0.500  0.458244  125.005  79.0525  22.3014
  8664.992  8665.000  0.500  0.457805  124.986  79.0751  22.3843
  8665.489  8665.500  0.500  0.457524  124.967  79.0853  22.4417
  8665.999  8666.000  0.500  0.457322  124.946  79.0882  22.4828
  8666.496  8666.500  0.500  0.457054  124.931  79.0995  22.5047
  8667.009  8667.000  0.500  0.456929  124.925  79.106  22.5074
  8667.506  8667.500  0.500  0.456775  124.901  79.1026  22.4858
  8668.007  8668.000  0.500  0.456859  124.886  79.0868  22.4424
  8668.498  8668.500  0.500  0.456737  124.874  79.0888  22.3998
  8669.001  8669.000  0.500  0.456795  124.866  79.0787  22.354
  8669.492  8669.500  0.500  0.456811  124.86  79.0739  22.3118
  8669.996  8670.000  0.500  0.456761  124.845  79.0683  22.277
  8670.500  8670.500  0.500  0.456583  124.825  79.0694  22.2585
  8671.001  8671.000  0.500  0.456625  124.809  79.0561  22.2484
  8671.505  8671.500  0.500  0.456708  124.788  79.0363  22.2492
  8671.999  8672.000  0.500  0.456391  124.78  79.0566  22.275
  8672.503  8672.500  0.500  0.456427  124.766  79.0446  22.2981
  8673.008  8673.000  0.500  0.456286  124.747  79.0438  22.339
  8674.000  8673.990  0.500  0.455905  124.721  79.0575  22.4423
  8674.996  8674.990  0.500  0.455557  124.7  79.0718  22.5473
  8676.018  8676.010  0.500  0.455162  124.674  79.0863  22.624
  8677.079  8677.060  0.500  0.454845  124.651  79.0971  22.6402
  8678.124  8678.120  0.500  0.454732  124.628  79.091  22.5828
  8679.212  8679.200  0.500  0.454811  124.597  79.0654  22.4554
  8680.303  8680.300  0.500  0.454939  124.566  79.0357  22.2874
  8681.440  8681.420  0.500  0.455099  124.542  79.0073  22.0961
  8682.567  8682.560  0.500  0.455105  124.513  78.9886  21.9087
  8683.714  8683.710  0.500  0.455296  124.482  78.954  21.7001
  8684.903  8684.890  0.500  0.455483  124.45  78.919  21.4691
  8686.087  8686.080  0.500  0.455763  124.424  78.8804  21.2227
  8687.312  8687.300  0.500  0.455901  124.396  78.8515  20.9775
  8688.532  8688.530  0.500  0.455933  124.367  78.8306  20.787
  8689.778  8689.780  0.500  0.455925  124.332  78.8094  20.6727
  8691.054  8691.050  0.500  0.455660  124.301  78.8104  20.6612
  8692.346  8692.340  0.500  0.455139  124.267  78.8301  20.741
  8693.645  8693.650  0.500  0.454416  124.221  78.8579  20.8872
  8694.990  8694.980  0.500  0.453355  124.185  78.9187  21.078
  8696.342  8696.330  0.500  0.452460  124.139  78.96  21.2788
  8697.697  8697.700  0.500  0.451386  124.099  79.0193  21.4764
  8699.083  8699.080  0.500  0.450502  124.052  79.0593  21.641
  8700.501  8700.490  0.500  0.449546  123.986  79.0929  21.7783
  8701.910  8701.910  0.500  0.448773  123.895  79.0962  21.8715
  8703.358  8703.350  0.500  0.448000  123.744  79.0603  21.9539
  8704.820  8704.810  0.500  0.447267  123.365  78.876  21.9887
  8706.299  8706.290  0.500  0.446795  121.249  77.5599  21.7065
  8707.798  8707.790  0.500  0.446211  107.849  69.0286  19.386
  8709.321  8709.310  0.500  0.445300  119.433  76.5124  21.5528
  8710.856  8710.850  0.500  0.444985  123.228  78.9685  22.2864
  8712.419  8712.410  0.500  0.444683  123.592  79.2257  22.4008
  8713.992  8713.980  0.500  0.444291  123.673  79.3088  22.4637
  8715.591  8715.580  0.500  0.443590  123.689  79.3746  22.5153
  8717.192  8717.190  0.500  0.443391  123.676  79.3821  22.5404
  8718.838  8718.830  0.500  0.442864  123.644  79.4038  22.5528
  8720.489  8720.480  0.500  0.442489  123.615  79.4146  22.5523
  8722.153  8722.150  0.500  0.442102  123.593  79.431  22.5405
  8723.854  8723.840  0.500  0.441564  123.558  79.4514  22.5087
  8725.548  8725.550  0.500  0.441211  124.004  79.7666  22.5486
  8727.287  8727.280  0.500  0.440861  123.962  79.7676  22.4854
  8729.039  8729.030  0.500  0.440241  123.925  79.7932  22.4223
  8730.791  8730.790  0.500  0.439953  123.887  79.7915  22.3588
  8732.594  8732.580  0.500  0.439541  123.843  79.7961  22.3001
  8734.397  8734.380  0.500  0.438916  123.806  79.8221  22.2601
  8736.215  8736.210  0.500  0.438276  123.757  79.8416  22.2315
  8738.069  8738.050  0.500  0.437806  123.716  79.8526  22.2173
  8739.924  8739.910  0.500  0.437629  123.673  79.8387  22.2078
  8741.799  8741.790  0.500  0.437069  123.635  79.8593  22.222
  8743.708  8743.690  0.500  0.436563  123.585  79.8673  22.239
  8745.615  8745.610  0.500  0.435827  123.543  79.8989  22.2657
  8747.562  8747.550  0.500  0.435358  123.503  79.9106  22.2813
  8749.520  8749.510  0.500  0.434782  123.46  79.9285  22.2951
  8751.485  8751.480  0.500  0.434244  123.413  79.9415  22.3087
  8753.491  8753.480  0.500  0.433562  123.363  79.9634  22.3291
  8755.498  8755.490  0.500  0.433023  123.315  79.9757  22.3559
  8757.535  8757.520  0.500  0.432352  123.287  80.0111  22.3936
  8759.590  8759.580  0.500  0.431678  123.242  80.0358  22.4253
  8761.659  8761.650  0.500  0.430890  123.194  80.0674  22.4554
  8763.749  8763.740  0.500  0.430215  123.138  80.0848  22.4815
  8765.856  8765.850  0.500  0.429487  123.09  80.1121  22.5033
  8767.994  8767.980  0.500  0.428702  123.038  80.1416  22.531
  8770.140  8770.120  0.500  0.427938  122.991  80.1718  22.5652
  8772.304  8772.290  0.500  0.427198  122.939  80.1975  22.6192
  8774.501  8774.480  0.500  0.426304  122.886  80.2345  22.6897
  8776.693  8776.680  0.500  0.425799  122.839  80.2441  22.7713
  8778.916  8778.900  0.500  0.425051  122.784  80.2684  22.8584
  8781.167  8781.150  0.500  0.424243  122.74  80.3042  22.9506
  8783.416  8783.410  0.500  0.423445  122.667  80.321  23.0352
  8785.709  8785.690  0.500  0.422679  122.609  80.3443  23.1038
  8787.996  8787.990  0.500  0.422115  122.552  80.3523  23.1397
  8790.335  8790.310  0.500  0.421505  122.5  80.3672  23.144
  8792.662  8792.650  0.500  0.420704  122.432  80.3872  23.1195
  8795.023  8795.000  0.500  0.420236  122.374  80.3862  23.0886
  8797.392  8797.380  0.500  0.419625  122.316  80.3975  23.066
  8799.796  8799.770  0.500  0.418801  122.262  80.4284  23.0553
  8802.204  8802.190  0.500  0.418347  122.224  80.4395  23.0477
  8804.634  8804.620  0.500  0.417558  122.152  80.4556  23.0381
  8807.092  8807.070  0.500  0.416781  122.092  80.4789  23.0226
  8809.564  8809.550  0.500  0.416126  122.034  80.4934  22.9912
  8812.055  8812.040  0.500  0.415315  121.968  80.5152  22.9559
  8814.564  8814.550  0.500  0.414646  121.911  80.531  22.9251
  8817.094  8817.070  0.500  0.413877  121.859  80.559  22.9138
  8819.633  8819.620  0.500  0.413009  121.797  80.5875  22.926
  8822.213  8822.190  0.500  0.412203  121.734  80.6112  22.9689
  8824.781  8824.770  0.500  0.411414  121.683  80.6408  23.0409
  8827.402  8827.380  0.500  0.410589  121.623  80.6679  23.133
  8830.010  8830.000  0.500  0.409821  121.568  80.6928  23.2227
  8832.674  8832.650  0.500  0.409106  121.51  80.712  23.2961
  8835.322  8835.310  0.500  0.408212  121.455  80.7477  23.3542
  8838.013  8837.990  0.500  0.407322  121.404  80.7856  23.4055
  8840.705  8840.690  0.500  0.406499  121.339  80.8093  23.4346
  8843.432  8843.410  0.500  0.405674  121.274  80.8325  23.4485
  8846.175  8846.150  0.500  0.404883  121.22  80.8603  23.4533
  8848.916  8848.900  0.500  0.404218  121.162  80.8758  23.4587
  8851.699  8851.680  0.500  0.403441  121.108  80.9025  23.4682
  8854.488  8854.470  0.500  0.402727  121.052  80.9224  23.4766
  8857.302  8857.290  0.500  0.401958  120.989  80.943  23.4881
  8860.144  8860.120  0.500  0.401084  120.934  80.9766  23.4993
  8862.989  8862.970  0.500  0.400291  120.872  80.9996  23.5134
  8865.862  8865.850  0.500  0.399251  120.802  81.0364  23.5486
  8868.758  8868.740  0.500  0.398320  120.75  81.0775  23.6018
  8871.669  8871.650  0.500  0.397388  120.695  81.1157  23.6702
  8874.596  8874.570  0.500  0.396560  120.642  81.1475  23.7389
  8877.538  8877.520  0.500  0.395550  120.577  81.1858  23.8029
  8880.520  8880.490  0.500  0.394890  120.509  81.1937  23.8539
  8883.490  8883.470  0.500  0.394004  120.45  81.2254  23.8986
  8886.513  8886.480  0.500  0.393150  120.388  81.2535  23.9331
  8889.501  8889.500  0.500  0.392265  120.326  81.2831  23.9539
  8892.569  8892.550  0.500  0.391376  120.261  81.3117  23.9662
  8895.632  8895.610  0.500  0.390557  120.196  81.3339  23.9746
  8898.708  8898.690  0.500  0.389678  120.135  81.3646  23.9867
  8901.814  8901.790  0.500  0.388610  120.054  81.3964  23.9979
  8904.928  8904.910  0.500  0.387593  119.974  81.4248  24.0132
  8908.079  8908.050  0.500  0.386689  119.84  81.4079  24.0141
  8911.208  8911.200  0.500  0.385906  118.564  80.6037  23.7831
  8914.408  8914.380  0.500  0.384961  119.757  81.4922  24.0505
  8917.576  8917.570  0.500  0.384092  117.493  80.0207  23.6326
  8920.814  8920.790  0.500  0.383150  119.649  81.5659  24.1183
  8924.038  8924.020  0.500  0.382220  118.245  80.6837  23.8853
  8927.292  8927.270  0.500  0.381169  119.555  81.6637  24.2048
  8930.562  8930.550  0.500  0.380232  117.955  80.646  23.9324
  8933.859  8933.840  0.500  0.379515  119.458  81.7322  24.2919
  8937.171  8937.150  0.500  0.378386  119.309  81.723  24.3305
  8940.490  8940.470  0.500  0.377381  119.275  81.7815  24.393
  8943.839  8943.820  0.500  0.376441  119.204  81.8093  24.4509
  8947.204  8947.190  0.500  0.375487  119.128  81.8357  24.5081
  8950.592  8950.570  0.500  0.374525  119.046  81.8581  24.5554
  8954.008  8953.980  0.500  0.373527  118.95  81.8735  24.5866
  8957.419  8957.400  0.500  0.372523  118.878  81.9064  24.6188
  8960.874  8960.850  0.500  0.371511  118.803  81.9377  24.6477
  8964.328  8964.310  0.500  0.370619  118.677  81.9237  24.6609
  8967.813  8967.790  0.500  0.369696  118.639  81.9729  24.6888
  8971.304  8971.290  0.500  0.368865  118.561  81.9869  24.7114
  8974.829  8974.810  0.500  0.367754  118.491  82.0299  24.7498
  8978.374  8978.350  0.500  0.366694  118.396  82.0511  24.791
  8981.919  8981.900  0.500  0.365682  118.025  81.8767  24.7755
  8985.501  8985.480  0.500  0.364756  118.175  82.0565  24.87
  8989.097  8989.080  0.500  0.363798  118.074  82.0649  24.9092
  8992.706  8992.690  0.500  0.362698  117.79  81.9578  24.9089
  8996.343  8996.320  0.500  0.361906  117.949  82.1339  24.9939
  9000.003  8999.980  0.500  0.360896  117.777  82.0969  25.0108
  9003.670  9003.650  0.500  0.359824  115.965  80.9206  24.678
  9007.368  9007.340  0.500  0.358621  117.65  82.1946  25.0882
  9011.069  9011.050  0.500  0.357644  115.389  80.6943  24.6569
  9014.794  9014.780  0.500  0.356545  117.502  82.2622  25.1638
  9018.550  9018.520  0.500  0.355541  117.319  82.2165  25.1858
  9022.306  9022.290  0.500  0.354637  117.372  82.3283  25.2565
  9026.097  9026.080  0.500  0.353681  117.289  82.3486  25.2938
  9029.905  9029.880  0.500  0.352468  117.198  82.3845  25.3311
  9033.720  9033.710  0.500  0.351354  117.112  82.4154  25.3633
  9037.574  9037.550  0.500  0.350455  117.006  82.415  25.3842
  9041.427  9041.410  0.500  0.349407  115.716  81.5924  25.1547
  9045.301  9045.290  0.500  0.348243  116.773  82.4334  25.4384
  9049.207  9049.190  0.500  0.347075  116.692  82.4722  25.4776
  9053.127  9053.110  0.500  0.346089  116.599  82.4883  25.5163
  9057.075  9057.050  0.500  0.345018  116.503  82.5085  25.5565
  9061.034  9061.010  0.500  0.343771  116.399  82.5372  25.6039
  9065.000  9064.980  0.500  0.342805  116.185  82.4653  25.6204
  9069.001  9068.980  0.500  0.341696  116.198  82.5659  25.6895
  9073.013  9072.990  0.500  0.340737  116.106  82.5796  25.7356
  9077.043  9077.030  0.500  0.339496  116.006  82.6112  25.7879
  9081.094  9081.080  0.500  0.338398  114.8  81.8424  25.5871
  9085.156  9085.150  0.500  0.337265  115.749  82.6121  25.8675
  9089.251  9089.240  0.500  0.336363  115.66  82.6236  25.9148
  9093.370  9093.350  0.500  0.335188  115.56  82.6492  25.9689
  9097.493  9097.480  0.500  0.333998  115.467  82.6811  26.0228
  9101.635  9101.630  0.500  0.332860  115.359  82.6973  26.0682
  9105.808  9105.790  0.500  0.331753  115.173  82.6555  26.09
  9109.993  9109.980  0.500  0.330604  115.127  82.7174  26.1322
  9114.186  9114.180  0.500  0.329487  115.025  82.737  26.1608
  9118.425  9118.410  0.500  0.328405  114.923  82.7531  26.1868
  9122.661  9122.650  0.500  0.327358  114.811  82.7585  26.2065
  9126.927  9126.910  0.500  0.326384  114.698  82.7578  26.2309
  9131.207  9131.190  0.500  0.325157  114.575  82.7708  26.2646
  9135.506  9135.490  0.500  0.323956  114.439  82.772  26.3074
  9139.827  9139.810  0.500  0.322859  114.281  82.7482  26.3412
  9144.173  9144.150  0.500  0.321588  110.463  80.0856  25.5301
  9148.528  9148.510  0.500  0.320721  114.198  82.8653  26.463
  9152.912  9152.890  0.500  0.319493  113.994  82.8185  26.491
  9157.297  9157.280  0.500  0.318351  110.314  80.2365  25.703
  9161.722  9161.700  0.500  0.317110  113.853  82.9138  26.6062
  9166.155  9166.130  0.500  0.315968  113.535  82.7765  26.6042
  9170.589  9170.580  0.500  0.314700  113.713  83.0117  26.7215
  9175.075  9175.050  0.500  0.313637  113.538  82.9716  26.7531
  9179.554  9179.540  0.500  0.312384  113.248  82.8637  26.7645
  9184.067  9184.050  0.500  0.311249  113.434  83.094  26.8806
  9188.602  9188.580  0.500  0.310037  113.236  83.0494  26.9073
  9193.150  9193.130  0.500  0.308849  113.074  83.0292  26.9325