File: xdidata/Tm/Tm-L1-Tm2TiO5.xdi
# XDI/1.0 BlueSky/1.10.0 BMM/2023-1.0-py310-tiled
# Beamline.name: BMM (06BM) -- Beamline for Materials Measurement (NIST)
# Beamline.xray_source: NSLS-II three-pole wiggler
# Beamline.collimation: paraboloid mirror, 5 nm Rh on 30 nm Pt
# Beamline.focusing: not in use
# Beamline.harmonic_rejection: flat mirror, Pt stripe, pitch = 7.0 mrad relative to beam
# Beamline.software: Bluesky 1.10.0, Ophyd 1.7.0, DataBroker 2.0.0b13, Python 3.10.8, 2023-1.0-py310-tiled
# Detector.I0: 10 cm N2
# Detector.I1: 25 cm N2
# Detector.I2: 25 cm N2
# Element.symbol: Tm
# Element.edge: L1
# Element.reference: Tm
# Element.reference_material: Tm2O3
# Facility.name: NSLS-II
# Facility.energy: 3.0
# Facility.current: 399.4
# Facility.mode: top-off
# Facility.GUP: 123456
# Facility.SAF: 301027
# Facility.cycle: 2023-2
# Mono.name: Si(111)
# Mono.d_spacing: 3.13519
# Mono.encoder_resolution: 0.0000050 deg/ct
# Mono.angle_offset: 16.0754 deg
# Mono.scan_mode: pseudo channel cut
# Mono.scan_type: step
# Mono.direction: forward in energy
# Sample.name: Tm2TiO5
# Sample.prep: Powder in PEG pellet
# Sample.x: 149.848 mm
# Sample.y: 114.690 mm
# Sample.SDD_position: 205.000 mm
# Scan.experimenters: Bruce Ravel
# Scan.edge_energy: 10115.7
# Scan.start_time: 2023-05-08T22:54:04
# Scan.end_time: 2023-05-08T22:59:43
# Scan.transient_id: 75697
# Scan.uid: 3307debb-dae3-425b-bae1-f86f10d0a1ce
# Scan.plot_hint: ln(I0/It)  --  ln($5/$6)
# Column.1: energy eV
# Column.2: requested_energy eV
# Column.3: measurement_time seconds
# Column.4: xmu
# Column.5: I0 nA
# Column.6: It nA
# Column.7: Ir nA
# ///////////
# sample courtesy Martin Stennett, University of Sheffield
# -----------
# energy  requested_energy  measurement_time  xmu  I0  It  Ir
  9915.746  9915.700  0.500  0.170888  97.2597  81.9817  27.977
  9925.792  9925.700  0.500  0.168940  97.0551  81.9688  28.0478
  9935.739  9935.700  0.500  0.167086  97.2698  82.3026  28.2164
  9945.757  9945.700  0.500  0.165286  97.0537  82.2677  28.2714
  9955.732  9955.700  0.500  0.163463  96.676  82.0971  28.2948
  9965.736  9965.700  0.500  0.161549  96.4478  82.0602  28.3562
  9975.734  9975.700  0.500  0.159712  96.5119  82.2658  28.4862
  9985.741  9985.700  0.500  0.157806  95.893  81.8941  28.4232
  9995.728  9995.700  0.500  0.155985  95.9624  82.1028  28.5715
  10005.732  10005.700  0.500  0.154341  95.9746  82.2483  28.6761
  10015.735  10015.700  0.500  0.151647  94.5673  81.2608  28.4005
  10025.736  10025.700  0.500  0.149550  95.5391  82.2683  28.824
  10035.727  10035.700  0.500  0.147731  92.6937  79.9634  28.0858
  10045.730  10045.700  0.500  0.145941  95.2121  82.2831  28.9853
  10055.731  10055.700  0.500  0.144113  95.0139  82.2621  29.052
  10065.718  10065.700  0.500  0.142365  94.822  82.2396  29.1232
  10075.729  10075.700  0.500  0.140559  94.6225  82.2149  29.1734
  10085.721  10085.700  0.500  0.138778  94.3954  82.1638  29.195
  10087.684  10087.700  0.500  0.138488  93.6876  81.5714  28.988
  10089.684  10089.700  0.500  0.138199  92.388  80.4631  28.6049
  10091.681  10091.700  0.500  0.137805  94.1518  82.0316  29.1684
  10093.682  10093.700  0.500  0.137577  94.1974  82.09  29.1957
  10095.675  10095.700  0.500  0.137250  94.1734  82.0958  29.2016
  10097.683  10097.700  0.500  0.136870  94.1356  82.0942  29.208
  10099.682  10099.700  0.500  0.136545  94.1061  82.0951  29.2152
  10101.678  10101.700  0.500  0.136158  94.0675  82.0932  29.2166
  10103.679  10103.700  0.500  0.135892  94.033  82.0849  29.2173
  10105.686  10105.700  0.500  0.135484  93.9973  82.0872  29.2153
  10106.167  10106.200  0.500  0.135373  93.9888  82.0889  29.217
  10106.676  10106.700  0.500  0.135344  93.9726  82.0771  29.2132
  10107.175  10107.200  0.500  0.135237  93.9581  82.0732  29.2102
  10107.666  10107.700  0.500  0.135165  93.9484  82.0707  29.2074
  10108.175  10108.200  0.500  0.135133  93.939  82.0651  29.2039
  10108.666  10108.700  0.500  0.135084  93.9259  82.0577  29.1992
  10109.174  10109.200  0.500  0.135067  93.921  82.0548  29.1951
  10109.670  10109.700  0.500  0.134849  93.9  82.0542  29.1902
  10110.170  10110.200  0.500  0.134929  93.8998  82.0475  29.1819
  10110.665  10110.700  0.500  0.134736  93.8834  82.0491  29.1795
  10111.170  10111.200  0.500  0.134706  93.8642  82.0348  29.1665
  10111.670  10111.700  0.500  0.134672  93.8511  82.0261  29.1588
  10112.165  10112.200  0.500  0.134650  93.8433  82.0211  29.1487
  10112.679  10112.700  0.500  0.134603  93.8346  82.0173  29.1396
  10113.179  10113.200  0.500  0.134513  93.8201  82.0121  29.1239
  10113.679  10113.700  0.500  0.134431  93.8053  82.0059  29.1059
  10114.184  10114.200  0.500  0.134521  93.7995  81.9934  29.0837
  10114.689  10114.700  0.500  0.134410  93.7829  81.988  29.0576
  10115.193  10115.200  0.500  0.134489  93.7693  81.9696  29.0226
  10115.689  10115.700  0.500  0.134470  93.7547  81.9584  28.9829
  10116.181  10116.200  0.500  0.134590  93.7515  81.9457  28.935
  10116.686  10116.700  0.500  0.134575  93.7352  81.9328  28.8823
  10117.187  10117.200  0.500  0.134576  93.7231  81.9221  28.824
  10117.683  10117.700  0.500  0.134673  93.7112  81.9037  28.7649
  10118.179  10118.200  0.500  0.134751  93.6934  81.8818  28.7028
  10118.680  10118.700  0.500  0.134849  93.6749  81.8576  28.6404
  10119.181  10119.200  0.500  0.134961  93.6718  81.8457  28.5836
  10119.686  10119.700  0.500  0.134944  93.6531  81.8308  28.5254
  10120.196  10120.200  0.500  0.135046  93.6482  81.8182  28.4705
  10120.697  10120.700  0.500  0.135110  93.6287  81.7959  28.4141
  10121.193  10121.200  0.500  0.135270  93.6248  81.7795  28.3562
  10121.690  10121.700  0.500  0.135253  93.6124  81.77  28.2993
  10122.196  10122.200  0.500  0.135277  93.5985  81.7558  28.2425
  10122.706  10122.700  0.500  0.135358  93.5853  81.7377  28.183
  10123.193  10123.200  0.500  0.135544  93.5711  81.7101  28.1195
  10123.690  10123.700  0.500  0.135712  93.5547  81.682  28.0551
  10124.187  10124.200  0.500  0.135650  93.5452  81.6788  27.9903
  10124.684  10124.700  0.500  0.135780  93.5315  81.6562  27.922
  10125.194  10125.200  0.500  0.136020  93.5133  81.6208  27.8424
  10125.691  10125.700  0.500  0.135882  93.4961  81.617  27.773
  10126.193  10126.200  0.500  0.135994  93.4873  81.6002  27.6921
  10126.690  10126.700  0.500  0.136164  93.4873  81.5862  27.608
  10127.196  10127.200  0.500  0.136417  93.4789  81.5583  27.5145
  10127.693  10127.700  0.500  0.136511  93.4717  81.5445  27.4147
  10128.199  10128.200  0.500  0.136704  93.4511  81.5107  27.3076
  10128.710  10128.700  0.500  0.136803  93.4417  81.4944  27.2042
  10129.199  10129.200  0.500  0.137071  93.4329  81.4649  27.1047
  10129.696  10129.700  0.500  0.137232  93.4155  81.4367  27.0145
  10130.193  10130.200  0.500  0.137417  93.41  81.4167  26.947
  10130.687  10130.700  0.500  0.137456  93.3944  81.4  26.8916
  10131.197  10131.200  0.500  0.137523  93.3798  81.3818  26.8581
  10131.700  10131.700  0.500  0.137538  93.3752  81.3766  26.8428
  10132.197  10132.200  0.500  0.137391  93.3629  81.3778  26.8477
  10132.695  10132.700  0.500  0.137251  93.3476  81.3759  26.8605
  10133.193  10133.200  0.500  0.137198  93.3445  81.3775  26.8791
  10133.704  10133.700  0.500  0.137058  93.327  81.3737  26.9047
  10134.202  10134.200  0.500  0.136851  93.2961  81.3636  26.9246
  10134.713  10134.700  0.500  0.136646  93.2526  81.3422  26.9367
  10135.207  10135.200  0.500  0.136569  93.2327  81.3312  26.9447
  10135.696  10135.700  0.500  0.136587  93.2381  81.3344  26.9561
  10136.203  10136.200  0.500  0.136318  93.2425  81.3602  26.9622
  10136.692  10136.700  0.500  0.136298  93.2482  81.3667  26.965
  10137.199  10137.200  0.500  0.136109  93.2374  81.3727  26.9598
  10137.697  10137.700  0.500  0.135892  93.232  81.3856  26.9539
  10138.195  10138.200  0.500  0.135789  93.214  81.3784  26.9471
  10138.694  10138.700  0.500  0.135670  93.202  81.3775  26.9405
  10139.188  10139.200  0.500  0.135521  93.1896  81.3788  26.9356
  10139.695  10139.700  0.500  0.135410  93.1829  81.382  26.9387
  10140.194  10140.200  0.500  0.135254  93.1701  81.3835  26.9397
  10140.714  10140.700  0.500  0.135187  93.1602  81.3803  26.9414
  10141.707  10141.690  0.500  0.134938  93.1347  81.3783  26.9607
  10142.700  10142.690  0.500  0.134705  93.1143  81.3795  26.9931
  10143.711  10143.710  0.500  0.134402  93.0897  81.3826  27.0399
  10144.762  10144.760  0.500  0.134254  93.0692  81.3768  27.097
  10145.836  10145.820  0.500  0.134052  93.0476  81.3742  27.1644
  10146.919  10146.900  0.500  0.133696  93.0228  81.3816  27.2368
  10148.020  10148.000  0.500  0.133448  93.0007  81.3824  27.3085
  10149.135  10149.120  0.500  0.133206  92.9855  81.3888  27.3789
  10150.263  10150.260  0.500  0.132814  92.9568  81.3955  27.4491
  10151.414  10151.410  0.500  0.132557  92.9277  81.3911  27.5115
  10152.600  10152.590  0.500  0.132175  92.9109  81.4074  27.5756
  10153.801  10153.780  0.500  0.131869  92.8783  81.4037  27.62
  10155.019  10155.000  0.500  0.131623  92.8638  81.4111  27.659
  10156.247  10156.230  0.500  0.131242  92.8345  81.4164  27.6845
  10157.493  10157.480  0.500  0.131139  92.8074  81.401  27.6953
  10158.762  10158.750  0.500  0.130881  92.7785  81.3966  27.7014
  10160.053  10160.040  0.500  0.130628  92.7546  81.3963  27.7088
  10161.363  10161.350  0.500  0.130544  92.7228  81.3752  27.698
  10162.690  10162.680  0.500  0.130242  92.7045  81.3837  27.6971
  10164.032  10164.030  0.500  0.130037  92.6729  81.3726  27.6856
  10165.409  10165.400  0.500  0.129908  92.6233  81.3396  27.6664
  10166.796  10166.780  0.500  0.129838  92.5705  81.2989  27.644
  10168.197  10168.190  0.500  0.129627  92.585  81.3288  27.6462
  10169.616  10169.610  0.500  0.129441  92.5611  81.3229  27.6318
  10171.067  10171.050  0.500  0.129177  92.5372  81.3233  27.6199
  10172.532  10172.510  0.500  0.129079  92.5126  81.3097  27.596
  10174.010  10173.990  0.500  0.128885  92.4783  81.2954  27.5695
  10175.503  10175.490  0.500  0.128752  92.4426  81.2749  27.5398
  10177.014  10177.010  0.500  0.128534  92.4076  81.2618  27.514
  10178.565  10178.550  0.500  0.128338  92.3737  81.2479  27.485
  10180.122  10180.110  0.500  0.128086  92.3369  81.2359  27.4603
  10181.684  10181.680  0.500  0.127825  92.3068  81.2307  27.4341
  10183.286  10183.280  0.500  0.127460  92.2725  81.2301  27.4057
  10184.912  10184.890  0.500  0.127196  92.2464  81.2286  27.3866
  10186.542  10186.530  0.500  0.126790  92.2107  81.2301  27.3773
  10188.178  10188.180  0.500  0.126610  92.178  81.2159  27.3753
  10189.854  10189.850  0.500  0.126412  92.1375  81.1964  27.3779
  10191.558  10191.540  0.500  0.126081  92.0836  81.1757  27.3923
  10193.259  10193.250  0.500  0.125909  91.9684  81.0881  27.3909
  10194.986  10194.980  0.500  0.125554  91.7257  80.9028  27.3671
  10196.733  10196.730  0.500  0.125148  92.0021  81.1795  27.5067
  10198.489  10198.490  0.500  0.124890  91.9669  81.1695  27.5553
  10200.277  10200.280  0.500  0.124471  91.928  81.1691  27.6075
  10202.083  10202.080  0.500  0.124064  91.8833  81.1626  27.6497
  10203.922  10203.910  0.500  0.123858  91.8434  81.1441  27.6817
  10205.753  10205.750  0.500  0.123454  91.794  81.1333  27.7018
  10207.607  10207.610  0.500  0.123066  91.7488  81.1248  27.7176
  10209.493  10209.490  0.500  0.122720  91.7163  81.1241  27.7314
  10211.384  10211.390  0.500  0.122414  91.6741  81.1116  27.7364
  10213.326  10213.310  0.500  0.122097  91.634  81.1018  27.7406
  10215.264  10215.250  0.500  0.121756  91.596  81.0959  27.7467
  10217.221  10217.210  0.500  0.121370  91.5586  81.094  27.752
  10219.179  10219.180  0.500  0.121127  91.5117  81.0722  27.7632
  10221.196  10221.180  0.500  0.120819  91.4808  81.0698  27.7827
  10223.196  10223.190  0.500  0.120302  91.4399  81.0755  27.8075
  10225.224  10225.220  0.500  0.120007  91.3553  81.0243  27.8097
  10227.284  10227.280  0.500  0.119744  91.3515  81.0422  27.841
  10229.372  10229.350  0.500  0.119314  91.3181  81.0475  27.8632
  10231.439  10231.440  0.500  0.118911  91.2786  81.0451  27.8826
  10233.561  10233.550  0.500  0.118504  91.2289  81.034  27.8984
  10235.693  10235.680  0.500  0.118144  91.1741  81.0144  27.9118
  10237.821  10237.820  0.500  0.117804  91.0508  80.9324  27.9026
  10240.009  10239.990  0.500  0.117512  91.0326  80.9397  27.9182
  10242.198  10242.180  0.500  0.117181  91.0691  80.9991  27.9464
  10244.393  10244.380  0.500  0.116721  91.0171  80.99  27.9419
  10246.611  10246.600  0.500  0.116585  90.9836  80.9712  27.9376
  10248.862  10248.850  0.500  0.116162  90.9231  80.9516  27.9246
  10251.119  10251.110  0.500  0.115816  90.8866  80.9471  27.9167
  10253.399  10253.390  0.500  0.115421  90.8361  80.9342  27.9013
  10255.717  10255.690  0.500  0.114998  90.7835  80.9215  27.8861
  10258.013  10258.010  0.500  0.114707  90.7372  80.9037  27.8821
  10260.370  10260.350  0.500  0.114277  91.0218  81.1924  27.9877
  10262.709  10262.700  0.500  0.113845  90.9797  81.1899  28.0028
  10265.095  10265.080  0.500  0.113643  90.9307  81.1626  28.0161
  10267.483  10267.470  0.500  0.113098  90.8792  81.1609  28.0334
  10269.903  10269.890  0.500  0.112648  90.8345  81.1575  28.0492
  10272.324  10272.320  0.500  0.112243  90.7752  81.1373  28.0584
  10274.788  10274.770  0.500  0.111805  90.6953  81.1015  28.0675
  10277.262  10277.250  0.500  0.111439  90.4251  80.8894  28.0209
  10279.747  10279.740  0.500  0.110940  90.641  81.123  28.1356
  10282.274  10282.250  0.500  0.110497  90.5886  81.112  28.1681
  10284.775  10284.770  0.500  0.110045  90.538  81.1034  28.2044
  10287.336  10287.320  0.500  0.109637  90.4961  81.0989  28.2442
  10289.917  10289.890  0.500  0.109126  90.4307  81.0818  28.2734
  10292.486  10292.470  0.500  0.108722  90.3733  81.0631  28.2959
  10295.098  10295.080  0.500  0.108332  90.3225  81.049  28.3102
  10297.729  10297.700  0.500  0.107964  90.2743  81.0356  28.318
  10300.370  10300.350  0.500  0.107511  90.2226  81.0259  28.3204
  10303.050  10303.010  0.500  0.107143  90.1608  81.0002  28.325
  10305.709  10305.690  0.500  0.106614  90.1066  80.9944  28.3325
  10308.414  10308.390  0.500  0.106251  90.0577  80.9797  28.3411
  10311.131  10311.110  0.500  0.105782  90.0048  80.9702  28.3513
  10313.867  10313.850  0.500  0.105324  89.9419  80.9507  28.3644
  10316.618  10316.600  0.500  0.104953  89.8825  80.9272  28.3779
  10319.404  10319.380  0.500  0.104391  89.8131  80.9102  28.3901
  10322.191  10322.170  0.500  0.104001  89.4352  80.6011  28.3052
  10325.021  10324.990  0.500  0.103555  89.7219  80.8956  28.4299
  10327.843  10327.820  0.500  0.103021  89.6543  80.8779  28.445
  10330.699  10330.670  0.500  0.102555  89.5913  80.8586  28.4673
  10333.580  10333.550  0.500  0.102016  89.5323  80.849  28.4862
  10336.449  10336.440  0.500  0.101666  89.474  80.8247  28.5051
  10339.384  10339.350  0.500  0.101088  89.4099  80.8135  28.5208
  10342.275  10342.270  0.500  0.100670  89.3519  80.7948  28.5287
  10345.255  10345.220  0.500  0.100293  89.2913  80.7704  28.5335
  10348.223  10348.190  0.500  0.099700  89.2318  80.7645  28.5403
  10351.193  10351.170  0.500  0.099307  89.1693  80.7397  28.5401
  10354.211  10354.180  0.500  0.098757  89.1042  80.725  28.5443
  10357.221  10357.200  0.500  0.098267  89.0434  80.7096  28.548
  10360.280  10360.250  0.500  0.097818  88.9891  80.6965  28.5571
  10363.318  10363.310  0.500  0.097362  88.9042  80.6563  28.5629
  10366.413  10366.390  0.500  0.096972  88.8421  80.6314  28.5751
  10369.519  10369.490  0.500  0.096354  88.7571  80.6041  28.5866
  10372.637  10372.610  0.500  0.095883  88.7016  80.5916  28.6064
  10375.775  10375.750  0.500  0.095355  88.6268  80.5662  28.6202
  10378.924  10378.900  0.500  0.094927  88.5592  80.5392  28.6396
  10382.103  10382.080  0.500  0.094217  88.4928  80.536  28.6602
  10385.294  10385.270  0.500  0.093800  88.4338  80.5158  28.6916
  10388.524  10388.490  0.500  0.093263  88.3616  80.4933  28.7137
  10391.756  10391.720  0.500  0.092736  88.2884  80.469  28.7329
  10395.004  10394.970  0.500  0.092242  88.218  80.4446  28.7503
  10398.283  10398.250  0.500  0.091660  88.1472  80.4268  28.771
  10401.568  10401.540  0.500  0.091163  88.0879  80.4127  28.7956
  10404.893  10404.850  0.500  0.090592  88.0232  80.3995  28.8132
  10408.196  10408.170  0.500  0.090052  87.9446  80.3712  28.8313
  10411.549  10411.520  0.500  0.089653  87.8802  80.3443  28.8458
  10414.913  10414.890  0.500  0.088970  87.8061  80.3314  28.8584
  10418.298  10418.270  0.500  0.088442  87.7386  80.3121  28.8693
  10421.709  10421.680  0.500  0.087961  87.6738  80.2914  28.8798
  10425.127  10425.100  0.500  0.087524  87.6127  80.2705  28.8936
  10428.585  10428.550  0.500  0.086924  87.53  80.2429  28.9029
  10432.050  10432.010  0.500  0.086366  87.4694  80.2321  28.923
  10435.522  10435.490  0.500  0.085811  87.3982  80.2112  28.9389
  10439.021  10438.990  0.500  0.085312  87.318  80.1777  28.9501
  10442.545  10442.510  0.500  0.084813  87.2439  80.1495  28.9644
  10446.076  10446.050  0.500  0.084270  87.1735  80.1284  28.9831
  10449.633  10449.600  0.500  0.083734  87.1002  80.1039  28.9972
  10453.207  10453.180  0.500  0.083052  87.0199  80.0846  29.0095
  10456.822  10456.780  0.500  0.082640  86.9568  80.0597  29.0229
  10460.429  10460.390  0.500  0.082159  86.8787  80.0262  29.0315
  10464.049  10464.020  0.500  0.081497  86.7898  79.9973  29.0446
  10467.709  10467.680  0.500  0.080937  86.7203  79.978  29.0604
  10471.376  10471.350  0.500  0.080340  86.6469  79.9579  29.0815
  10475.065  10475.040  0.500  0.079733  86.5609  79.9271  29.0951
  10478.776  10478.750  0.500  0.079190  86.4844  79.8998  29.1115
  10482.518  10482.480  0.500  0.078609  86.4099  79.8774  29.1321
  10486.248  10486.220  0.500  0.078064  86.3457  79.8615  29.1514
  10490.029  10489.990  0.500  0.077595  86.2604  79.8202  29.159
  10493.813  10493.780  0.500  0.076891  86.183  79.8047  29.1792
  10497.604  10497.580  0.500  0.076299  86.1057  79.7802  29.1941
  10501.431  10501.410  0.500  0.075674  86.0273  79.7575  29.2119
  10505.285  10505.250  0.500  0.075115  85.92  79.7026  29.2203
  10509.138  10509.110  0.500  0.074558  85.8503  79.6822  29.2423
  10513.017  10512.990  0.500  0.073875  85.7765  79.6682  29.2648
  10516.913  10516.890  0.500  0.073436  85.699  79.6311  29.2823
  10520.846  10520.810  0.500  0.072786  85.6154  79.6052  29.303
  10524.772  10524.750  0.500  0.072184  85.3043  79.3637  29.2421
  10528.740  10528.710  0.500  0.071539  85.4505  79.551  29.3402
  10532.701  10532.680  0.500  0.070949  85.3782  79.5306  29.3618
  10536.709  10536.680  0.500  0.070380  85.2989  79.5019  29.3805
  10540.710  10540.690  0.500  0.069747  85.1855  79.4465  29.3834
  10544.762  10544.730  0.500  0.069312  85.1163  79.4165  29.4029
  10548.808  10548.780  0.500  0.068581  85.0233  79.3878  29.4167
  10552.876  10552.850  0.500  0.067962  84.9376  79.3569  29.4347
  10556.977  10556.940  0.500  0.067341  84.6734  79.1591  29.3866
  10561.076  10561.050  0.500  0.066716  84.7665  79.2957  29.4621
  10565.207  10565.180  0.500  0.066080  84.6721  79.2578  29.4728
  10569.361  10569.330  0.500  0.065595  84.613  79.2409  29.4884
  10573.518  10573.490  0.500  0.064928  84.52  79.2066  29.5008
  10577.707  10577.680  0.500  0.064246  84.4313  79.1775  29.5108
  10581.910  10581.880  0.500  0.063678  84.3256  79.1233  29.5164
  10586.141  10586.110  0.500  0.063171  84.0949  78.9468  29.4784
  10590.374  10590.350  0.500  0.062443  84.1599  79.0654  29.5495
  10594.641  10594.610  0.500  0.061722  84.0546  79.0235  29.5667
  10598.906  10598.890  0.500  0.061165  83.9467  78.966  29.576
  10603.218  10603.190  0.500  0.060477  83.8714  78.9495  29.6013
  10607.539  10607.510  0.500  0.059861  83.7845  78.9162  29.6212
  10611.879  10611.850  0.500  0.059211  83.6674  78.8571  29.6315
  10616.241  10616.210  0.500  0.058470  83.5883  78.841  29.6556
  10620.622  10620.590  0.500  0.057835  83.4987  78.8065  29.6764
  10625.016  10624.980  0.500  0.057251  83.4181  78.7765  29.6938
  10629.418  10629.400  0.500  0.056658  83.3179  78.7285  29.7067
  10633.864  10633.830  0.500  0.055876  83.2125  78.6904  29.7222
  10638.309  10638.280  0.500  0.055301  83.1062  78.6351  29.7305
  10642.791  10642.750  0.500  0.054697  82.6098  78.2127  29.5993
  10647.268  10647.240  0.500  0.054088  82.9539  78.5862  29.7706
  10651.778  10651.750  0.500  0.053548  82.8469  78.5273  29.7754
  10656.307  10656.280  0.500  0.052797  82.7598  78.5036  29.7904
  10660.869  10660.830  0.500  0.052111  82.1869  78.0137  29.6291