File: xdidata/Tm/Tm-L3-ThuliumOxide.xdi
# XDI/1.0 BlueSky/1.10.0 BMM/2023-1.0-py310-tiled
# Beamline.name: BMM (06BM) -- Beamline for Materials Measurement (NIST)
# Beamline.xray_source: NSLS-II three-pole wiggler
# Beamline.collimation: paraboloid mirror, 5 nm Rh on 30 nm Pt
# Beamline.focusing: not in use
# Beamline.harmonic_rejection: flat mirror, Pt stripe, pitch = 7.0 mrad relative to beam
# Beamline.software: Bluesky 1.10.0, Ophyd 1.7.0, DataBroker 2.0.0b13, Python 3.10.8, 2023-1.0-py310-tiled
# Detector.I0: 10 cm N2
# Detector.I1: 25 cm N2
# Detector.I2: 25 cm N2
# Element.symbol: Tm
# Element.edge: L3
# Element.reference: Tm
# Element.reference_material: Tm2O3
# Facility.name: NSLS-II
# Facility.energy: 3.0
# Facility.current: 399.8
# Facility.mode: top-off
# Facility.GUP: 301027
# Facility.SAF: 310583
# Facility.cycle: 2023-2
# Mono.name: Si(111)
# Mono.d_spacing: 3.13519
# Mono.encoder_resolution: 0.0000050 deg/ct
# Mono.angle_offset: 16.0754 deg
# Mono.scan_mode: pseudo channel cut
# Mono.scan_type: step
# Mono.direction: forward in energy
# Sample.name: Tm2O3
# Sample.prep: PEG pellet
# Sample.x: 109.138 mm
# Sample.y: 153.150 mm
# Sample.SDD_position: 205.000 mm
# Scan.experimenters: Bruce Ravel
# Scan.edge_energy: 8648.0
# Scan.start_time: 2023-05-28T15:27:34
# Scan.end_time: 2023-05-28T15:35:25
# Scan.transient_id: 78798
# Scan.uid: e37d4afe-9b5a-4170-81b1-206b9feb7c5a
# Scan.plot_hint: ln(It/Ir)  --  ln($6/$7)
# Column.1: energy eV
# Column.2: requested_energy eV
# Column.3: measurement_time seconds
# Column.4: xmu
# Column.5: I0 nA
# Column.6: It nA
# Column.7: Ir nA
# ///////////
# sample courtesy Martin Stennett, University of Sheffield
# -----------
# energy  requested_energy  measurement_time  xmu  I0  It  Ir
  8448.010  8448.000  0.500  1.100523  129.829  169.135  56.2708
  8458.026  8458.000  0.500  1.096676  129.666  169.156  56.4946
  8468.049  8468.000  0.500  1.093116  129.505  169.193  56.7086
  8478.062  8478.000  0.500  1.089489  129.311  169.184  56.9114
  8488.088  8488.000  0.500  1.085991  129.136  169.255  57.1347
  8498.048  8498.000  0.500  1.082394  128.941  169.215  57.3273
  8508.044  8508.000  0.500  1.078794  128.757  169.205  57.5305
  8518.024  8518.000  0.500  1.075194  128.568  169.193  57.734
  8528.025  8528.000  0.500  1.071800  127.946  168.632  57.7381
  8538.050  8538.000  0.500  1.067903  128.075  169.034  58.1019
  8548.021  8548.000  0.500  1.064422  127.989  169.149  58.3442
  8558.026  8558.000  0.500  1.061129  127.824  169.16  58.5402
  8568.029  8568.000  0.500  1.057685  127.623  169.14  58.7353
  8578.025  8578.000  0.500  1.054440  127.368  169.034  58.8892
  8588.017  8588.000  0.500  1.051107  126.877  168.61  58.9378
  8598.019  8598.000  0.500  1.048617  126.798  168.722  59.124
  8608.017  8608.000  0.500  1.046077  126.366  168.348  59.1428
  8618.218  8618.000  0.500  1.033580  96.6718  128.971  45.879
  8619.970  8620.000  0.500  1.045323  123.132  164.335  57.7765
  8621.965  8622.000  0.500  1.041296  127.773  170.593  60.2188
  8623.968  8624.000  0.500  1.041525  127.592  170.383  60.1311
  8625.978  8626.000  0.500  1.041999  127.39  170.141  60.0171
  8627.976  8628.000  0.500  1.042690  127.21  169.936  59.9034
  8630.033  8630.000  0.500  1.043567  127.045  169.794  59.8008
  8631.998  8632.000  0.500  1.045220  126.934  169.696  59.6674
  8633.996  8634.000  0.500  1.047232  127.177  170.059  59.6751
  8635.998  8636.000  0.500  1.050744  127.079  169.98  59.4382
  8637.995  8638.000  0.500  1.056014  126.908  169.812  59.0673
  8638.274  8638.300  0.500  1.056968  126.872  169.752  58.9902
  8638.572  8638.600  0.500  1.058096  126.83  169.691  58.9025
  8638.870  8638.900  0.500  1.059521  126.789  169.611  58.791
  8639.175  8639.200  0.500  1.060781  126.739  169.563  58.7003
  8639.473  8639.500  0.500  1.062208  126.667  169.495  58.5929
  8639.777  8639.800  0.500  1.063876  126.592  169.41  58.4661
  8640.072  8640.100  0.500  1.065663  126.514  169.312  58.3279
  8640.377  8640.400  0.500  1.067483  126.408  169.174  58.1745
  8640.679  8640.700  0.500  1.069698  126.271  169.006  57.9882
  8640.980  8641.000  0.500  1.072009  126.108  168.796  57.7823
  8641.288  8641.300  0.500  1.074605  125.867  168.477  57.5236
  8641.583  8641.600  0.500  1.077116  125.525  168.028  57.2265
  8641.888  8641.900  0.500  1.079768  125.001  167.34  56.8409
  8642.180  8642.200  0.500  1.081995  124.12  166.146  56.31
  8642.495  8642.500  0.500  1.083811  122.509  164.012  55.4859
  8642.787  8642.800  0.500  1.085088  120.036  160.697  54.2951
  8643.095  8643.100  0.500  1.086245  116.579  156.092  52.6783
  8643.390  8643.400  0.500  1.088466  113.278  151.657  51.0678
  8643.692  8643.700  0.500  1.092803  110.984  148.568  49.8112
  8643.990  8644.000  0.500  1.098002  110.595  148.082  49.391
  8644.292  8644.300  0.500  1.103280  111.964  149.923  49.7415
  8644.587  8644.600  0.500  1.108464  114.636  153.503  50.6661
  8644.889  8644.900  0.500  1.113440  117.953  157.934  51.8698
  8645.188  8645.200  0.500  1.118375  121.137  162.214  53.0133
  8645.480  8645.500  0.500  1.123136  123.431  165.3  53.7653
  8645.788  8645.800  0.500  1.128580  124.848  167.207  54.0902
  8646.087  8646.100  0.500  1.134758  125.563  168.179  54.0695
  8646.389  8646.400  0.500  1.142838  125.996  168.762  53.8203
  8646.688  8646.700  0.500  1.151692  126.23  169.067  53.4423
  8646.996  8647.000  0.500  1.162659  126.39  169.295  52.9307
  8647.288  8647.300  0.500  1.174469  126.502  169.455  52.3587
  8647.600  8647.600  0.500  1.188891  126.565  169.541  51.6353
  8647.896  8647.900  0.500  1.204854  126.614  169.617  50.8402
  8648.198  8648.200  0.500  1.223294  126.622  169.635  49.9168
  8648.497  8648.500  0.500  1.244327  126.656  169.693  48.8946
  8648.799  8648.800  0.500  1.267825  126.679  169.725  47.7678
  8649.094  8649.100  0.500  1.293288  126.685  169.745  46.5724
  8649.400  8649.400  0.500  1.321602  126.688  169.756  45.2753
  8649.699  8649.700  0.500  1.350827  126.686  169.758  43.9716
  8649.998  8650.000  0.500  1.382914  126.701  169.781  42.589
  8650.300  8650.300  0.500  1.417378  126.699  169.788  41.148
  8650.596  8650.600  0.500  1.451945  126.688  169.796  39.7516
  8650.891  8650.900  0.500  1.485585  126.682  169.785  38.4342
  8651.184  8651.200  0.500  1.518537  126.693  169.806  37.193
  8651.496  8651.500  0.500  1.549019  126.679  169.809  36.0769
  8651.792  8651.800  0.500  1.574273  126.678  169.802  35.176
  8652.088  8652.100  0.500  1.594824  126.656  169.781  34.4561
  8652.387  8652.400  0.500  1.611327  126.659  169.794  33.8948
  8652.702  8652.700  0.500  1.624616  126.657  169.768  33.4422
  8652.995  8653.000  0.500  1.634330  126.635  169.741  33.1136
  8653.294  8653.300  0.500  1.642731  126.638  169.781  32.8442
  8653.590  8653.600  0.500  1.649421  126.629  169.778  32.6248
  8653.902  8653.900  0.500  1.654639  126.615  169.754  32.4504
  8654.205  8654.200  0.500  1.658059  126.604  169.751  32.339
  8654.501  8654.500  0.500  1.658911  126.599  169.743  32.3099
  8654.803  8654.800  0.500  1.656921  126.596  169.752  32.3761
  8655.103  8655.100  0.500  1.651574  126.592  169.768  32.5527
  8655.405  8655.400  0.500  1.642380  126.588  169.774  32.8545
  8655.705  8655.700  0.500  1.629878  126.567  169.75  33.2631
  8656.007  8656.000  0.500  1.614196  126.563  169.73  33.7848
  8656.300  8656.300  0.500  1.596465  126.555  169.704  34.384
  8656.603  8656.600  0.500  1.575467  126.548  169.745  35.1222
  8656.893  8656.900  0.500  1.553681  126.527  169.696  35.8853
  8657.205  8657.200  0.500  1.529112  126.521  169.705  36.7797
  8657.492  8657.500  0.500  1.506170  126.522  169.699  37.632
  8657.804  8657.800  0.500  1.482011  126.5  169.714  38.5558
  8658.091  8658.100  0.500  1.460167  126.494  169.677  39.3986
  8658.393  8658.400  0.500  1.438719  126.479  169.668  40.2506
  8658.693  8658.700  0.500  1.420156  126.479  169.691  41.0103
  8658.996  8659.000  0.500  1.402699  126.459  169.667  41.7265
  8659.295  8659.300  0.500  1.387432  126.47  169.679  42.3715
  8659.602  8659.600  0.500  1.373590  126.454  169.664  42.9582
  8659.901  8659.900  0.500  1.361318  126.452  169.655  43.4863
  8660.198  8660.200  0.500  1.350428  126.428  169.637  43.958
  8660.507  8660.500  0.500  1.340798  126.428  169.652  44.3873
  8660.800  8660.800  0.500  1.332605  126.414  169.652  44.7524
  8661.110  8661.100  0.500  1.325034  126.405  169.651  45.0921
  8661.400  8661.400  0.500  1.318380  126.401  169.631  45.3878
  8661.713  8661.700  0.500  1.312212  126.39  169.638  45.6706
  8662.003  8662.000  0.500  1.306950  126.373  169.613  45.9048
  8662.303  8662.300  0.500  1.302245  126.368  169.588  46.1144
  8662.602  8662.600  0.500  1.297871  126.354  169.565  46.3103
  8662.909  8662.900  0.500  1.294126  126.364  169.594  46.4921
  8663.199  8663.200  0.500  1.290206  126.335  169.595  46.675
  8663.496  8663.500  0.500  1.286805  126.326  169.592  46.8331
  8663.796  8663.800  0.500  1.284026  126.332  169.599  46.9654
  8664.096  8664.100  0.500  1.281352  126.331  169.605  47.0927
  8664.396  8664.400  0.500  1.278909  126.326  169.566  47.1972
  8664.686  8664.700  0.500  1.276478  126.295  169.536  47.3036
  8664.996  8665.000  0.500  1.274680  126.293  169.538  47.3892
  8665.299  8665.300  0.500  1.273030  126.29  169.566  47.4755
  8665.605  8665.600  0.500  1.271714  126.287  169.552  47.534
  8665.893  8665.900  0.500  1.270606  126.282  169.559  47.5888
  8666.202  8666.200  0.500  1.269595  126.266  169.553  47.6351
  8666.503  8666.500  0.500  1.268719  126.253  169.541  47.6734
  8666.806  8666.800  0.500  1.268204  126.251  169.546  47.6994
  8667.100  8667.100  0.500  1.267751  126.237  169.515  47.7124
  8667.410  8667.400  0.500  1.267828  126.223  169.512  47.7077
  8667.700  8667.700  0.500  1.268125  126.227  169.52  47.696
  8668.007  8668.000  0.500  1.268691  126.216  169.541  47.6749
  8668.304  8668.300  0.500  1.269224  126.207  169.528  47.6459
  8668.607  8668.600  0.500  1.270189  126.2  169.539  47.6029
  8668.901  8668.900  0.500  1.271093  126.196  169.526  47.5563
  8669.205  8669.200  0.500  1.271943  126.187  169.519  47.5138
  8669.499  8669.500  0.500  1.272689  126.165  169.486  47.4693
  8669.799  8669.800  0.500  1.273783  126.177  169.515  47.4256
  8670.099  8670.100  0.500  1.274385  126.152  169.497  47.392
  8670.390  8670.400  0.500  1.275128  126.155  169.504  47.3585
  8670.697  8670.700  0.500  1.275647  126.154  169.515  47.3372
  8670.994  8671.000  0.500  1.275838  126.128  169.481  47.3187
  8671.291  8671.300  0.500  1.275974  126.113  169.461  47.3065
  8671.595  8671.600  0.500  1.275906  126.108  169.441  47.3041
  8671.902  8671.900  0.500  1.275832  126.097  169.437  47.3066
  8672.190  8672.200  0.500  1.275540  126.093  169.439  47.3209
  8672.507  8672.500  0.500  1.275231  126.1  169.471  47.3446
  8672.801  8672.800  0.500  1.274303  126.056  169.4  47.3687
  8673.011  8673.000  0.500  1.274034  126.072  169.433  47.3906
  8674.006  8673.990  0.500  1.271029  126.057  169.445  47.5366
  8674.999  8674.990  0.500  1.267422  126.03  169.448  47.7091
  8676.021  8676.010  0.500  1.264213  126.007  169.429  47.857
  8677.063  8677.060  0.500  1.262530  125.976  169.424  47.9363
  8678.137  8678.120  0.500  1.263165  125.95  169.412  47.9025
  8679.218  8679.200  0.500  1.266294  125.926  169.4  47.7496
  8680.316  8680.300  0.500  1.271323  125.902  169.394  47.5084
  8681.423  8681.420  0.500  1.277404  125.88  169.387  47.2183
  8682.570  8682.560  0.500  1.283616  125.846  169.346  46.9145
  8683.727  8683.710  0.500  1.290126  125.808  169.297  46.5966
  8684.900  8684.890  0.500  1.297601  125.783  169.311  46.2535
  8686.080  8686.080  0.500  1.305800  125.758  169.304  45.8739
  8687.312  8687.300  0.500  1.314479  125.714  169.275  45.4697
  8688.542  8688.530  0.500  1.321908  125.682  169.27  45.1317
  8689.798  8689.780  0.500  1.327071  125.652  169.254  44.8951
  8691.057  8691.050  0.500  1.329153  125.638  169.272  44.8064
  8692.352  8692.340  0.500  1.327436  125.601  169.243  44.8757
  8693.668  8693.650  0.500  1.322880  125.565  169.221  45.075
  8694.993  8694.980  0.500  1.317032  125.541  169.219  45.3388
  8696.335  8696.330  0.500  1.309906  125.49  169.177  45.6516
  8697.707  8697.700  0.500  1.303131  125.45  169.156  45.9562
  8699.092  8699.080  0.500  1.297021  125.397  169.109  46.2251
  8700.494  8700.490  0.500  1.292066  125.32  169.059  46.441
  8701.913  8701.910  0.500  1.288566  125.24  168.976  46.581
  8703.362  8703.350  0.500  1.285053  125.093  168.803  46.6969
  8704.827  8704.810  0.500  1.282045  124.819  168.471  46.7456
  8706.290  8706.290  0.500  1.278630  123.724  167.031  46.5046
  8707.798  8707.790  0.500  1.271412  112.098  151.348  42.4435
  8709.327  8709.310  0.500  1.276795  115.845  156.415  43.6288
  8710.863  8710.850  0.500  1.270874  124.367  167.944  47.1228
  8712.422  8712.410  0.500  1.269343  124.969  168.798  47.4349
  8713.989  8713.980  0.500  1.267766  125.07  168.977  47.5601
  8715.595  8715.580  0.500  1.266640  125.095  169.049  47.634
  8717.201  8717.190  0.500  1.265644  125.082  169.071  47.6877
  8718.838  8718.830  0.500  1.265110  125.058  169.069  47.7128
  8720.498  8720.480  0.500  1.265093  125.026  169.051  47.7083
  8722.153  8722.150  0.500  1.265293  124.989  169.061  47.7017
  8723.844  8723.840  0.500  1.266278  124.962  169.046  47.6504
  8725.571  8725.550  0.500  1.267812  124.935  169.037  47.575
  8727.283  8727.280  0.500  1.269718  124.892  169.018  47.4789
  8729.039  8729.030  0.500  1.271818  124.853  169.006  47.3761
  8730.811  8730.790  0.500  1.273883  125.194  169.498  47.4158
  8732.591  8732.580  0.500  1.275843  125.167  169.502  47.3242
  8734.391  8734.380  0.500  1.277622  125.145  169.522  47.2457
  8736.228  8736.210  0.500  1.278585  125.099  169.507  47.196
  8738.059  8738.050  0.500  1.279234  125.059  169.504  47.1645
  8739.927  8739.910  0.500  1.279378  125.021  169.5  47.1565
  8741.809  8741.790  0.500  1.279238  124.998  169.488  47.16
  8743.695  8743.690  0.500  1.278555  124.953  169.438  47.1783
  8745.618  8745.610  0.500  1.277931  124.906  169.417  47.2019
  8747.556  8747.550  0.500  1.277180  124.848  169.387  47.2289
  8749.504  8749.510  0.500  1.276997  124.826  169.414  47.245
  8751.492  8751.480  0.500  1.276548  124.784  169.424  47.269
  8753.481  8753.480  0.500  1.275895  124.724  169.385  47.2892
  8755.498  8755.490  0.500  1.274869  124.667  169.33  47.3223
  8757.532  8757.520  0.500  1.273810  124.627  169.346  47.3768
  8759.583  8759.580  0.500  1.272882  124.593  169.33  47.4163
  8761.652  8761.650  0.500  1.271856  124.538  169.276  47.4498
  8763.739  8763.740  0.500  1.271040  124.481  169.264  47.4853
  8765.863  8765.850  0.500  1.270222  124.434  169.241  47.5178
  8767.991  8767.980  0.500  1.269525  124.386  169.225  47.5464
  8770.130  8770.120  0.500  1.268530  124.343  169.219  47.5921
  8772.297  8772.290  0.500  1.267162  124.304  169.214  47.6557
  8774.478  8774.480  0.500  1.265025  124.249  169.195  47.7523
  8776.690  8776.680  0.500  1.262140  124.186  169.152  47.8781
  8778.913  8778.900  0.500  1.259552  124.164  169.149  48.0014
  8781.161  8781.150  0.500  1.256188  124.079  169.065  48.1392
  8783.426  8783.410  0.500  1.253493  124.039  169.048  48.2642
  8785.702  8785.690  0.500  1.251104  123.987  169.074  48.3871
  8788.003  8787.990  0.500  1.249420  123.925  169.017  48.4522
  8790.312  8790.310  0.500  1.249046  123.871  169.003  48.4665
  8792.672  8792.650  0.500  1.249772  123.815  168.984  48.4257
  8795.003  8795.000  0.500  1.250346  123.728  168.911  48.3772
  8797.395  8797.380  0.500  1.251403  123.696  168.883  48.3179
  8799.759  8799.770  0.500  1.251629  123.62  168.822  48.2895
  8802.201  8802.190  0.500  1.252231  123.602  168.868  48.2736
  8804.621  8804.620  0.500  1.252197  123.521  168.804  48.2569
  8807.082  8807.070  0.500  1.252834  123.482  168.794  48.2234
  8809.561  8809.550  0.500  1.253795  123.428  168.784  48.1742
  8812.058  8812.040  0.500  1.254978  123.375  168.749  48.1073
  8814.554  8814.550  0.500  1.256075  123.31  168.698  48.0402
  8817.081  8817.070  0.500  1.256719  123.259  168.679  48.0036
  8819.629  8819.620  0.500  1.256698  123.208  168.678  48.0046
  8822.203  8822.190  0.500  1.255530  123.153  168.666  48.0572
  8824.771  8824.770  0.500  1.253111  123.085  168.633  48.1641
  8827.392  8827.380  0.500  1.250312  123.028  168.622  48.296
  8830.017  8830.000  0.500  1.247059  122.954  168.574  48.4394
  8832.667  8832.650  0.500  1.244706  122.914  168.57  48.5526
  8835.332  8835.310  0.500  1.242592  122.843  168.518  48.6402
  8838.003  8837.990  0.500  1.241143  122.79  168.505  48.707
  8840.705  8840.690  0.500  1.240016  122.722  168.465  48.7504
  8843.422  8843.410  0.500  1.239658  122.676  168.453  48.7643
  8846.162  8846.150  0.500  1.239669  122.615  168.415  48.7527
  8848.913  8848.900  0.500  1.239258  122.543  168.353  48.7549
  8851.696  8851.680  0.500  1.239126  122.492  168.343  48.7585
  8854.481  8854.470  0.500  1.238936  122.443  168.338  48.7661
  8857.308  8857.290  0.500  1.238470  122.359  168.306  48.7796
  8860.131  8860.120  0.500  1.238289  122.297  168.263  48.776
  8862.986  8862.970  0.500  1.237607  122.216  168.217  48.796
  8865.866  8865.850  0.500  1.236764  122.154  168.163  48.8214
  8868.762  8868.740  0.500  1.235340  122.094  168.149  48.8868
  8871.669  8871.650  0.500  1.233348  122.02  168.12  48.9761
  8874.586  8874.570  0.500  1.231252  121.954  168.09  49.0701
  8877.542  8877.520  0.500  1.229155  121.879  168.04  49.1583
  8880.510  8880.490  0.500  1.227419  121.809  168.006  49.2337
  8883.504  8883.470  0.500  1.225919  121.722  167.953  49.2922
  8886.496  8886.480  0.500  1.225079  121.682  167.96  49.3357
  8889.518  8889.500  0.500  1.224358  121.603  167.913  49.3575
  8892.572  8892.550  0.500  1.223869  121.537  167.881  49.372
  8895.643  8895.610  0.500  1.223333  121.446  167.827  49.3828
  8898.702  8898.690  0.500  1.223145  121.373  167.743  49.3673
  8901.803  8901.790  0.500  1.222870  121.29  167.691  49.3654
  8904.928  8904.910  0.500  1.222348  121.199  167.652  49.3798
  8908.069  8908.050  0.500  1.222013  121.085  167.587  49.3772
  8911.211  8911.200  0.500  1.221165  118.778  164.427  48.4874
  8914.401  8914.380  0.500  1.220963  120.999  167.573  49.425
  8917.586  8917.570  0.500  1.219692  119.935  166.155  49.0692
  8920.821  8920.790  0.500  1.219511  120.898  167.535  49.4854
  8924.038  8924.020  0.500  1.217411  118.578  164.373  48.6536
  8927.289  8927.270  0.500  1.217185  120.763  167.491  49.5878
  8930.569  8930.550  0.500  1.215969  120.343  166.954  49.4889
  8933.859  8933.840  0.500  1.214571  120.678  167.483  49.7152
  8937.168  8937.150  0.500  1.213139  120.327  167.053  49.6586
  8940.483  8940.470  0.500  1.211421  120.464  167.346  49.8312
  8943.835  8943.820  0.500  1.209800  120.398  167.298  49.8978
  8947.214  8947.190  0.500  1.207823  120.288  167.225  49.9747
  8950.596  8950.570  0.500  1.206412  120.222  167.199  50.0375
  8953.987  8953.980  0.500  1.205145  120.062  167.023  50.0484
  8957.415  8957.400  0.500  1.204106  120.019  167.046  50.1072
  8960.860  8960.850  0.500  1.203304  119.954  167.02  50.1395
  8964.335  8964.310  0.500  1.202830  119.892  166.988  50.1536
  8967.806  8967.790  0.500  1.202063  119.777  166.902  50.1664
  8971.304  8971.290  0.500  1.201182  119.708  166.851  50.1952
  8974.826  8974.810  0.500  1.200378  119.618  166.806  50.2219
  8978.378  8978.350  0.500  1.199010  119.52  166.737  50.27
  8981.916  8981.900  0.500  1.197498  119.293  166.472  50.266
  8985.501  8985.480  0.500  1.195848  119.284  166.507  50.3595
  8989.101  8989.080  0.500  1.194498  119.197  166.458  50.4127
  8992.710  8992.690  0.500  1.193241  118.977  166.234  50.4082
  8996.343  8996.320  0.500  1.192164  119.044  166.405  50.5145
  8999.999  8999.980  0.500  1.190796  118.899  166.285  50.5472
  9003.666  9003.650  0.500  1.188682  116.64  163.174  49.7065
  9007.364  9007.340  0.500  1.189050  118.769  166.21  50.6126
  9011.069  9011.050  0.500  1.186734  116.945  163.713  49.968
  9014.797  9014.780  0.500  1.187004  118.608  166.106  50.6847
  9018.540  9018.520  0.500  1.185559  118.438  165.954  50.7115
  9022.310  9022.290  0.500  1.184991  118.051  165.48  50.5955
  9026.108  9026.080  0.500  1.183031  118.403  166.05  50.8691
  9029.902  9029.880  0.500  1.181870  118.293  165.982  50.9074
  9033.731  9033.710  0.500  1.180859  118.199  165.923  50.9409
  9037.570  9037.550  0.500  1.179912  118.094  165.858  50.9692
  9041.423  9041.410  0.500  1.178493  117.35  164.865  50.7359
  9045.315  9045.290  0.500  1.177889  117.857  165.645  51.0066
  9049.200  9049.190  0.500  1.176817  117.783  165.623  51.0547
  9053.141  9053.110  0.500  1.175656  117.684  165.554  51.0928
  9057.068  9057.050  0.500  1.174250  117.587  165.507  51.1502
  9061.023  9061.010  0.500  1.172652  117.467  165.405  51.2002
  9065.007  9064.980  0.500  1.172414  116.934  164.724  51.0017
  9069.001  9068.980  0.500  1.170028  117.242  165.216  51.2762
  9073.009  9072.990  0.500  1.168738  117.182  165.207  51.3395
  9077.043  9077.030  0.500  1.167280  117.081  165.154  51.398
  9081.105  9081.080  0.500  1.165400  116.543  164.455  51.2766
  9085.170  9085.150  0.500  1.164108  116.792  164.875  51.474
  9089.265  9089.240  0.500  1.162736  116.743  164.881  51.5468
  9093.374  9093.350  0.500  1.160999  116.641  164.816  51.6159
  9097.504  9097.480  0.500  1.159422  116.547  164.752  51.6772
  9101.649  9101.630  0.500  1.158004  116.431  164.665  51.7234
  9105.808  9105.790  0.500  1.156805  116.171  164.349  51.6859
  9110.008  9109.980  0.500  1.155576  116.2  164.461  51.7848
  9114.200  9114.180  0.500  1.154922  116.127  164.42  51.8057
  9118.425  9118.410  0.500  1.153926  116.008  164.344  51.8334
  9122.676  9122.650  0.500  1.153096  115.903  164.272  51.8537
  9126.930  9126.910  0.500  1.152137  115.797  164.207  51.8832
  9131.207  9131.190  0.500  1.150904  115.67  164.115  51.918
  9135.509  9135.490  0.500  1.149520  115.55  164.006  51.9554
  9139.834  9139.810  0.500  1.147983  115.391  163.854  51.987
  9144.170  9144.150  0.500  1.145924  113.907  161.809  51.4439
  9148.528  9148.510  0.500  1.145011  115.368  163.956  52.1741
  9152.916  9152.890  0.500  1.143181  115.14  163.717  52.1935
  9157.304  9157.280  0.500  1.140724  113.634  161.669  51.6674
  9161.726  9161.700  0.500  1.140139  114.965  163.624  52.3228
  9166.144  9166.130  0.500  1.138759  114.759  163.397  52.3224
  9170.596  9170.580  0.500  1.137476  114.729  163.411  52.3941
  9175.075  9175.050  0.500  1.135794  114.655  163.413  52.4829
  9179.558  9179.540  0.500  1.134351  114.433  163.164  52.4786
  9184.056  9184.050  0.500  1.133511  114.21  162.928  52.4466
  9188.599  9188.580  0.500  1.131110  114.384  163.269  52.6829
  9193.153  9193.130  0.500  1.129866  114.226  163.114  52.6982
  9197.716  9197.700  0.500  1.128720  114.07  162.967  52.7111
  9202.298  9202.280  0.500  1.127686  113.91  162.825  52.7199
  9206.911  9206.890  0.500  1.126966  113.807  162.744  52.7314
  9211.528  9211.510  0.500  1.126051  113.692  162.658  52.752
  9216.164  9216.160  0.500  1.124778  113.559  162.524  52.7755
  9220.839  9220.820  0.500  1.123286  113.437  162.426  52.8224
  9225.514  9225.500  0.500  1.121667  113.32  162.327  52.8757
  9230.220  9230.200  0.500  1.119928  113.2  162.248  52.942
  9234.935  9234.920  0.500  1.117977  113.084  162.159  53.0164
  9239.680  9239.660  0.500  1.116068  112.964  162.054  53.0833
  9244.427  9244.410  0.500  1.114014  112.839  161.945  53.1568
  9249.208  9249.190  0.500  1.112231  112.729  161.871  53.2272
  9254.002  9253.990  0.500  1.110554  112.751  161.978  53.3518
  9258.819  9258.800  0.500  1.108781  112.824  162.186  53.5152
  9263.641  9263.630  0.500  1.107731  112.765  162.18  53.5694
  9268.495  9268.490  0.500  1.106032  112.614  162.035  53.6124
  9273.379  9273.360  0.500  1.104735  112.481  161.914  53.642
  9278.273  9278.250  0.500  1.103716  112.439  161.911  53.6957
  9283.176  9283.160  0.500  1.102539  112.282  161.802  53.7227
  9288.117  9288.090  0.500  1.101303  112.121  161.636  53.734
  9293.049  9293.030  0.500  1.099466  111.181  160.357  53.4066
  9298.020  9298.000  0.500  1.098616  111.761  161.257  53.752
  9303.011  9302.990  0.500  1.097446  111.865  161.514  53.901
  9308.011  9307.990  0.500  1.096579  111.389  160.897  53.7414
  9313.043  9313.020  0.500  1.094701  111.56  161.233  53.9549
  9318.077  9318.060  0.500  1.093231  111.437  161.133  54.0007
  9323.135  9323.120  0.500  1.091292  111.211  160.879  54.0202
  9328.229  9328.200  0.500  1.089438  111.2  160.95  54.1444
  9333.317  9333.300  0.500  1.087398  111.047  160.805  54.2061
  9338.434  9338.420  0.500  1.085407  110.876  160.632  54.2558
  9343.575  9343.560  0.500  1.083877  110.779  160.585  54.3228
  9348.752  9348.720  0.500  1.082314  110.648  160.482  54.3728
  9353.927  9353.900  0.500  1.080614  110.496  160.349  54.4204
  9359.109  9359.090  0.500  1.079192  110.376  160.239  54.4603
  9364.334  9364.310  0.500  1.077699  110.248  160.134  54.5059
  9369.565  9369.540  0.500  1.076038  110.086  159.991  54.5478
  9374.824  9374.790  0.500  1.074674  109.959  159.883  54.5855
  9380.086  9380.060  0.500  1.073207  109.8  159.712  54.6071
  9385.373  9385.350  0.500  1.071921  109.665  159.58  54.6323
  9390.723  9390.660  0.500  1.070698  109.541  159.479  54.6644
  9396.057  9395.990  0.500  1.069168  109.382  159.337  54.6993
  9401.381  9401.340  0.500  1.067730  109.256  159.241  54.7453
  9406.743  9406.710  0.500  1.066383  109.169  159.203  54.8058
  9412.125  9412.090  0.500  1.064550  109.007  159.042  54.8509
  9417.526  9417.500  0.500  1.062602  108.851  158.885  54.9037
  9422.956  9422.920  0.500  1.060870  108.74  158.81  54.9726
  9428.423  9428.370  0.500  1.058993  108.577  158.643  55.0181
  9433.892  9433.830  0.500  1.057526  108.446  158.53  55.0598
  9439.342  9439.310  0.500  1.055744  108.252  158.341  55.0922
  9444.836  9444.810  0.500  1.053980  108.148  158.28  55.1681
  9450.390  9450.330  0.500  1.052397  108.021  158.193  55.2251
  9455.956  9455.870  0.500  1.050497  107.839  157.99  55.2591
  9461.481  9461.420  0.500  1.049050  107.704  157.866  55.2958
  9467.037  9467.000  0.500  1.047289  107.543  157.711  55.3389
  9472.668  9472.600  0.500  1.045851  107.411  157.594  55.3775
  9478.229  9478.210  0.500  1.044379  107.279  157.484  55.4203
  9483.851  9483.850  0.500  1.042893  107.11  157.323  55.446
  9489.578  9489.500  0.500  1.041490  106.985  157.2  55.4805
  9495.245  9495.170  0.500  1.039801  106.805  157.027  55.5129
  9500.856  9500.860  0.500  1.038222  106.67  156.9  55.5556