File: xdidata/Cs/Cs-L1-CesiumNitrate.xdi
# XDI/1.0 BlueSky/1.10.0 BMM/2023-1.0-py310-tiled
# Beamline.name: BMM (06BM) -- Beamline for Materials Measurement (NIST)
# Beamline.xray_source: NSLS-II three-pole wiggler
# Beamline.collimation: paraboloid mirror, 5 nm Rh on 30 nm Pt
# Beamline.focusing: not in use
# Beamline.harmonic_rejection: flat mirror, Si stripe, pitch = 7.0 mrad relative to beam
# Beamline.software: Bluesky 1.10.0, Ophyd 1.7.0, DataBroker 2.0.0b13, Python 3.10.8, 2023-1.0-py310-tiled
# Detector.I0: 10 cm N2
# Detector.I1: 25 cm N2
# Detector.I2: 25 cm N2
# Element.symbol: Cs
# Element.edge: L1
# Element.reference: Cs
# Element.reference_material: CsNO3
# Facility.name: NSLS-II
# Facility.energy: 3.0
# Facility.current: 400.1
# Facility.mode: top-off
# Facility.GUP: 301027
# Facility.SAF: 310583
# Facility.cycle: 2023-2
# Mono.name: Si(111)
# Mono.d_spacing: 3.13519
# Mono.encoder_resolution: 0.0000050 deg/ct
# Mono.angle_offset: 16.0754 deg
# Mono.scan_mode: pseudo channel cut
# Mono.scan_type: step
# Mono.direction: forward in energy
# Sample.name: CsNO3
# Sample.prep: PEG pellet
# Sample.x: 109.138 mm
# Sample.y: 153.150 mm
# Sample.SDD_position: 205.000 mm
# Scan.experimenters: Bruce Ravel
# Scan.edge_energy: 5714.3
# Scan.start_time: 2023-05-28T11:24:50
# Scan.end_time: 2023-05-28T11:32:53
# Scan.transient_id: 78637
# Scan.uid: 978fbc65-d652-4abf-8b2f-789fcd1061a3
# Scan.plot_hint: ln(It/Ir)  --  ln($6/$7)
# Column.1: energy eV
# Column.2: requested_energy eV
# Column.3: measurement_time seconds
# Column.4: xmu
# Column.5: I0 nA
# Column.6: It nA
# Column.7: Ir nA
# ///////////
# sample courtesy Martin Stennett, University of Sheffield
# -----------
# energy  requested_energy  measurement_time  xmu  I0  It  Ir
  5514.312  5514.300  0.500  3.332265  108.005  48.2234  1.722159
  5524.306  5524.300  0.500  3.315830  108.508  48.8586  1.773758
  5534.349  5534.300  0.500  3.299756  108.957  49.4494  1.824294
  5544.313  5544.300  0.500  3.283628  109.447  50.0497  1.876463
  5554.312  5554.300  0.500  3.267501  109.916  50.6693  1.930577
  5564.313  5564.300  0.500  3.252048  110.393  51.2719  1.983961
  5574.312  5574.300  0.500  3.236454  110.855  51.8669  2.038526
  5584.313  5584.300  0.500  3.221005  111.283  52.4724  2.094431
  5594.309  5594.300  0.500  3.205930  111.705  53.096  2.151513
  5604.286  5604.300  0.500  3.190587  112.104  53.6934  2.209362
  5614.289  5614.300  0.500  3.175995  112.2  54.1544  2.261083
  5624.287  5624.300  0.500  3.160886  112.604  54.7676  2.321497
  5634.294  5634.300  0.500  3.146079  112.991  55.3582  2.381535
  5644.295  5644.300  0.500  3.131601  113.383  55.9566  2.442385
  5654.291  5654.300  0.500  3.117141  113.74  56.5347  2.503558
  5664.296  5664.300  0.500  3.102458  114.067  57.0991  2.565952
  5674.292  5674.300  0.500  3.088460  114.425  57.6928  2.629183
  5684.297  5684.300  0.500  3.074631  114.77  58.268  2.692370
  5686.293  5686.300  0.500  3.071663  114.812  58.381  2.705610
  5688.293  5688.300  0.500  3.068759  114.863  58.4876  2.718435
  5690.294  5690.300  0.500  3.066171  114.933  58.5965  2.730555
  5692.291  5692.300  0.500  3.063340  114.995  58.6941  2.742853
  5694.305  5694.300  0.500  3.060951  115.073  58.8512  2.756777
  5696.302  5696.300  0.500  3.058117  115.108  58.9658  2.769980
  5698.304  5698.300  0.500  3.055531  115.186  59.0789  2.782478
  5700.297  5700.300  0.500  3.052644  115.224  59.181  2.795347
  5702.299  5702.300  0.500  3.050304  115.297  59.3246  2.808694
  5704.300  5704.300  0.500  3.047803  115.345  59.4348  2.820961
  5704.590  5704.600  0.500  3.047126  115.34  59.4318  2.822726
  5704.889  5704.900  0.500  3.046974  115.353  59.4549  2.824254
  5705.186  5705.200  0.500  3.046613  115.367  59.4613  2.825577
  5705.487  5705.500  0.500  3.046121  115.37  59.4714  2.827448
  5705.787  5705.800  0.500  3.045866  115.384  59.4642  2.827828
  5706.092  5706.100  0.500  3.045486  115.368  59.5121  2.831177
  5706.386  5706.400  0.500  3.044997  115.407  59.5215  2.833013
  5706.692  5706.700  0.500  3.044571  115.403  59.5389  2.835045
  5706.989  5707.000  0.500  3.044184  115.418  59.5839  2.838289
  5707.291  5707.300  0.500  3.043938  115.408  59.5739  2.838511
  5707.590  5707.600  0.500  3.043570  115.426  59.6048  2.841030
  5707.892  5707.900  0.500  3.043097  115.43  59.6183  2.843018
  5708.194  5708.200  0.500  3.042847  115.435  59.6312  2.844343
  5708.495  5708.500  0.500  3.042460  115.447  59.6371  2.845725
  5708.792  5708.800  0.500  3.042048  115.439  59.6529  2.847652
  5709.094  5709.100  0.500  3.041779  115.464  59.6809  2.849755
  5709.394  5709.400  0.500  3.041278  115.46  59.6891  2.851573
  5709.694  5709.700  0.500  3.040998  115.471  59.7032  2.853045
  5709.989  5710.000  0.500  3.040858  115.493  59.7305  2.854750
  5710.292  5710.300  0.500  3.040496  115.496  59.7448  2.856467
  5710.594  5710.600  0.500  3.039892  115.495  59.7443  2.858172
  5710.898  5710.900  0.500  3.039733  115.51  59.7456  2.858689
  5711.192  5711.200  0.500  3.039243  115.493  59.7492  2.860262
  5711.497  5711.500  0.500  3.039377  115.516  59.7739  2.861059
  5711.799  5711.800  0.500  3.038770  115.517  59.8057  2.864320
  5712.096  5712.100  0.500  3.038932  115.535  59.836  2.865308
  5712.393  5712.400  0.500  3.038446  115.533  59.8493  2.867340
  5712.697  5712.700  0.500  3.038291  115.541  59.8729  2.868910
  5712.994  5713.000  0.500  3.037859  115.552  59.8936  2.871145
  5713.300  5713.300  0.500  3.037821  115.545  59.907  2.871895
  5713.597  5713.600  0.500  3.037695  115.555  59.9549  2.874555
  5713.899  5713.900  0.500  3.037653  115.564  59.9448  2.874190
  5714.197  5714.200  0.500  3.037631  115.554  59.9431  2.874173
  5714.498  5714.500  0.500  3.037532  115.549  59.9483  2.874704
  5714.795  5714.800  0.500  3.037708  115.563  59.9576  2.874646
  5715.099  5715.100  0.500  3.037797  115.556  59.9578  2.874400
  5715.397  5715.400  0.500  3.038209  115.571  59.995  2.874998
  5715.701  5715.700  0.500  3.038636  115.556  60.0119  2.874579
  5715.998  5716.000  0.500  3.039324  115.585  60.058  2.874811
  5716.301  5716.300  0.500  3.039829  115.575  60.0349  2.872253
  5716.597  5716.600  0.500  3.040304  115.606  60.0389  2.871082
  5716.896  5716.900  0.500  3.040947  115.594  60.0461  2.869579
  5717.194  5717.200  0.500  3.041768  115.586  60.0496  2.867390
  5717.503  5717.500  0.500  3.042726  115.583  60.0579  2.865042
  5717.800  5717.800  0.500  3.043559  115.905  60.2459  2.871617
  5718.101  5718.100  0.500  3.044442  115.935  60.2605  2.869778
  5718.399  5718.400  0.500  3.045903  115.959  60.2938  2.867173
  5718.701  5718.700  0.500  3.047325  115.962  60.3164  2.864168
  5718.999  5719.000  0.500  3.048515  116.008  60.3437  2.862059
  5719.295  5719.300  0.500  3.049905  116.017  60.3623  2.858967
  5719.600  5719.600  0.500  3.050600  116.016  60.3775  2.857696
  5719.901  5719.900  0.500  3.050883  116.002  60.3869  2.857332
  5720.202  5720.200  0.500  3.050642  116.015  60.3982  2.858556
  5720.497  5720.500  0.500  3.050721  116.018  60.4077  2.858782
  5720.804  5720.800  0.500  3.049913  116.023  60.4377  2.862513
  5721.100  5721.100  0.500  3.049301  116.038  60.4527  2.864978
  5721.400  5721.400  0.500  3.048993  116.036  60.4541  2.865924
  5721.701  5721.700  0.500  3.048439  116.041  60.4678  2.868164
  5722.001  5722.000  0.500  3.048210  116.055  60.4909  2.869918
  5722.302  5722.300  0.500  3.047963  116.069  60.5097  2.871520
  5722.601  5722.600  0.500  3.047811  116.081  60.5208  2.872483
  5722.901  5722.900  0.500  3.047438  116.05  60.519  2.873466
  5723.200  5723.200  0.500  3.047796  116.078  60.5643  2.874590
  5723.499  5723.500  0.500  3.047626  116.078  60.5618  2.874961
  5723.802  5723.800  0.500  3.047218  116.091  60.5876  2.877358
  5724.103  5724.100  0.500  3.047098  116.077  60.5697  2.876853
  5724.403  5724.400  0.500  3.046640  116.086  60.6051  2.879852
  5724.700  5724.700  0.500  3.046408  116.09  60.6294  2.881672
  5725.002  5725.000  0.500  3.046267  116.105  60.666  2.883822
  5725.305  5725.300  0.500  3.045976  116.123  60.6569  2.884229
  5725.601  5725.600  0.500  3.045739  116.12  60.6949  2.886718
  5725.901  5725.900  0.500  3.045474  116.119  60.726  2.888967
  5726.205  5726.200  0.500  3.044868  116.115  60.7476  2.891742
  5726.506  5726.500  0.500  3.044256  116.116  60.7594  2.894078
  5726.804  5726.800  0.500  3.043697  116.132  60.7827  2.896802
  5727.105  5727.100  0.500  3.042730  116.141  60.8167  2.901230
  5727.402  5727.400  0.500  3.041964  116.136  60.8346  2.904306
  5727.701  5727.700  0.500  3.040850  116.133  60.8138  2.906549
  5728.002  5728.000  0.500  3.039981  116.132  60.8071  2.908758
  5728.303  5728.300  0.500  3.038898  116.118  60.8265  2.912838
  5728.602  5728.600  0.500  3.038157  116.154  60.8597  2.916585
  5728.903  5728.900  0.500  3.037411  116.152  60.8588  2.918721
  5729.207  5729.200  0.500  3.036648  116.153  60.8823  2.922078
  5729.507  5729.500  0.500  3.035820  116.171  60.9038  2.925528
  5729.806  5729.800  0.500  3.035050  116.176  60.9138  2.928267
  5730.103  5730.100  0.500  3.034335  116.186  60.9346  2.931360
  5730.402  5730.400  0.500  3.033723  116.168  60.9561  2.934188
  5730.700  5730.700  0.500  3.033070  116.18  60.9596  2.936276
  5731.002  5731.000  0.500  3.032573  116.192  60.9867  2.939040
  5731.301  5731.300  0.500  3.031989  116.194  60.9901  2.940921
  5731.602  5731.600  0.500  3.031494  116.202  60.9905  2.942395
  5731.903  5731.900  0.500  3.030901  116.204  61.0251  2.945810
  5732.205  5732.200  0.500  3.030273  116.211  61.0667  2.949672
  5732.504  5732.500  0.500  3.029543  116.204  61.0655  2.951767
  5732.802  5732.800  0.500  3.028857  116.201  61.0614  2.953594
  5733.099  5733.100  0.500  3.028281  116.228  61.1063  2.957469
  5733.398  5733.400  0.500  3.027617  116.225  61.0603  2.957207
  5733.700  5733.700  0.500  3.026875  116.239  61.0743  2.960078
  5734.001  5734.000  0.500  3.026460  116.239  61.0713  2.961164
  5734.301  5734.300  0.500  3.025793  116.26  61.0919  2.964137
  5734.604  5734.600  0.500  3.024922  116.236  61.1245  2.968305
  5734.903  5734.900  0.500  3.024826  116.27  61.1496  2.969806
  5735.202  5735.200  0.500  3.024248  116.245  61.1409  2.971104
  5735.504  5735.500  0.500  3.024181  116.236  61.1681  2.972621
  5735.799  5735.800  0.500  3.023823  116.248  61.1813  2.974329
  5736.103  5736.100  0.500  3.023501  116.253  61.185  2.975468
  5736.401  5736.400  0.500  3.023236  116.24  61.1829  2.976155
  5736.703  5736.700  0.500  3.023441  116.251  61.2075  2.976743
  5737.003  5737.000  0.500  3.023159  116.221  61.1997  2.977200
  5737.303  5737.300  0.500  3.022716  116.257  61.2162  2.979322
  5737.602  5737.600  0.500  3.022691  116.248  61.2338  2.980251
  5737.901  5737.900  0.500  3.022403  116.235  61.2825  2.983482
  5738.202  5738.200  0.500  3.022315  116.251  61.2808  2.983663
  5738.502  5738.500  0.500  3.022084  116.284  61.2991  2.985244
  5738.804  5738.800  0.500  3.021542  116.293  61.3428  2.988991
  5739.104  5739.100  0.500  3.021254  116.315  61.3782  2.991580
  5739.298  5739.300  0.500  3.021049  116.3  61.3724  2.991908
  5740.304  5740.290  0.500  3.020012  116.348  61.4263  2.997643
  5741.309  5741.290  0.500  3.018773  116.361  61.4689  3.003438
  5742.307  5742.310  0.500  3.017825  116.359  61.5428  3.009902
  5743.358  5743.360  0.500  3.016228  116.37  61.5862  3.016836
  5744.423  5744.420  0.500  3.015139  116.394  61.6513  3.023319
  5745.502  5745.500  0.500  3.014058  116.414  61.7065  3.029298
  5746.602  5746.600  0.500  3.012534  116.441  61.7559  3.036348
  5747.726  5747.720  0.500  3.011251  116.428  61.8066  3.042744
  5748.868  5748.860  0.500  3.009744  116.476  61.8774  3.050820
  5750.015  5750.010  0.500  3.008499  116.496  61.9393  3.057678
  5751.199  5751.190  0.500  3.006827  116.514  61.9996  3.065777
  5752.386  5752.380  0.500  3.005061  116.538  62.065  3.074434
  5753.606  5753.600  0.500  3.003327  116.558  62.1334  3.083163
  5754.837  5754.830  0.500  3.001561  116.575  62.1922  3.091535
  5756.085  5756.080  0.500  2.999884  116.592  62.2356  3.098886
  5757.354  5757.350  0.500  2.998137  116.606  62.2879  3.106914
  5758.643  5758.640  0.500  2.996127  116.626  62.3369  3.115618
  5759.957  5759.950  0.500  2.994124  116.657  62.4107  3.125557
  5761.283  5761.280  0.500  2.992360  116.711  62.5171  3.136414
  5762.639  5762.630  0.500  2.990596  116.731  62.5882  3.145526
  5764.008  5764.000  0.500  2.988336  116.748  62.6551  3.156013
  5765.385  5765.380  0.500  2.986251  116.754  62.7204  3.165895
  5766.800  5766.790  0.500  2.984389  116.791  62.7991  3.175775
  5768.216  5768.210  0.500  2.982626  116.845  62.8908  3.186024
  5769.655  5769.650  0.500  2.980735  116.849  62.9332  3.194210
  5771.119  5771.110  0.500  2.978888  116.853  63.0077  3.203903
  5772.592  5772.590  0.500  2.976902  116.891  63.1123  3.215597
  5774.099  5774.090  0.500  2.974927  116.912  63.199  3.226382
  5775.619  5775.610  0.500  2.973095  116.936  63.2153  3.233135
  5777.157  5777.150  0.500  2.971145  116.937  63.2905  3.243297
  5778.713  5778.710  0.500  2.969543  116.971  63.3863  3.253415
  5780.288  5780.280  0.500  2.967461  117.004  63.4746  3.264738
  5781.889  5781.880  0.500  2.965328  117.013  63.5429  3.275227
  5783.495  5783.490  0.500  2.963053  117.031  63.6081  3.286055
  5785.140  5785.130  0.500  2.961272  117.076  63.7218  3.297796
  5786.791  5786.780  0.500  2.958791  117.095  63.8209  3.311128
  5788.457  5788.450  0.500  2.956932  117.104  63.913  3.322077
  5790.147  5790.140  0.500  2.954640  117.129  63.9563  3.331961
  5791.857  5791.850  0.500  2.952533  117.153  64.0503  3.343891
  5793.591  5793.580  0.500  2.949946  117.153  64.1232  3.356372
  5795.339  5795.330  0.500  2.947629  117.155  64.1748  3.366864
  5797.094  5797.090  0.500  2.945720  117.201  64.2647  3.378021
  5798.885  5798.880  0.500  2.943079  117.212  64.354  3.391665
  5800.687  5800.680  0.500  2.940579  117.201  64.4328  3.404317
  5802.520  5802.510  0.500  2.938393  117.206  64.52  3.416382
  5804.359  5804.350  0.500  2.936129  117.226  64.6247  3.429683
  5806.221  5806.210  0.500  2.933717  117.249  64.705  3.442237
  5808.096  5808.090  0.500  2.931419  117.257  64.7899  3.454684
  5809.993  5809.990  0.500  2.928962  117.257  64.8644  3.467165
  5811.915  5811.910  0.500  2.926549  117.263  64.9796  3.481710
  5813.854  5813.850  0.500  2.924116  117.254  65.0681  3.494947
  5815.819  5815.810  0.500  2.921535  117.243  65.1445  3.508094
  5817.785  5817.780  0.500  2.919180  117.273  65.2367  3.521340
  5819.790  5819.780  0.500  2.916710  117.263  65.3264  3.534904
  5821.795  5821.790  0.500  2.914132  117.259  65.402  3.548127
  5823.827  5823.820  0.500  2.911577  117.27  65.4979  3.562425
  5825.888  5825.880  0.500  2.909153  117.277  65.5901  3.576098
  5827.957  5827.950  0.500  2.906547  117.261  65.6726  3.589940
  5830.047  5830.040  0.500  2.904047  117.259  65.7217  3.601616
  5832.154  5832.150  0.500  2.901697  117.263  65.8307  3.616077
  5834.286  5834.280  0.500  2.898972  117.262  65.9222  3.630979
  5836.422  5836.420  0.500  2.896463  117.231  66.0113  3.645025
  5838.597  5838.590  0.500  2.893850  117.219  66.1093  3.659988
  5840.785  5840.780  0.500  2.891071  117.216  66.1937  3.674854
  5842.986  5842.980  0.500  2.888280  117.186  66.2591  3.688771
  5845.209  5845.200  0.500  2.885402  117.164  66.3276  3.703223
  5847.456  5847.450  0.500  2.882652  117.128  66.3979  3.717361
  5849.716  5849.710  0.500  2.880000  117.11  66.4588  3.730650
  5851.996  5851.990  0.500  2.877109  117.07  66.5531  3.746758
  5854.300  5854.290  0.500  2.874134  116.987  66.6302  3.762277
  5856.616  5856.610  0.500  2.871274  116.926  66.6765  3.775676
  5858.959  5858.950  0.500  2.868599  116.868  66.7535  3.790159
  5861.308  5861.300  0.500  2.865546  116.787  66.7999  3.804388
  5863.685  5863.680  0.500  2.862811  116.627  66.8162  3.815736
  5866.076  5866.070  0.500  2.859593  116.379  66.7802  3.825974
  5868.496  5868.490  0.500  2.856708  115.875  66.593  3.826274
  5870.928  5870.920  0.500  2.853791  114.287  65.7882  3.791075
  5873.376  5873.370  0.500  2.850176  89.8495  51.7725  2.994217
  5875.859  5875.850  0.500  2.847794  117.775  67.9794  3.940905
  5878.350  5878.340  0.500  2.845020  117.831  68.129  3.960550
  5880.861  5880.850  0.500  2.841761  117.527  68.0689  3.969972
  5883.377  5883.370  0.500  2.838930  117.339  68.0662  3.981068
  5885.932  5885.920  0.500  2.835866  117.495  68.2521  4.004193
  5888.502  5888.490  0.500  2.832632  117.413  68.3298  4.021739
  5891.081  5891.070  0.500  2.829635  117.326  68.3458  4.034752
  5893.692  5893.680  0.500  2.826478  117.204  68.4063  4.051090
  5896.310  5896.300  0.500  2.823387  117.123  68.4869  4.068422
  5898.971  5898.950  0.500  2.820030  116.99  68.5484  4.085769
  5901.619  5901.610  0.500  2.816961  116.834  68.5344  4.097488
  5904.301  5904.290  0.500  2.813819  116.667  68.5607  4.111963
  5907.002  5906.990  0.500  2.810435  116.442  68.5342  4.124309
  5909.721  5909.710  0.500  2.807297  116.103  68.4348  4.131266
  5912.463  5912.450  0.500  2.803731  115.388  68.1342  4.127816
  5915.211  5915.200  0.500  2.800452  111.966  66.2237  4.025247
  5917.992  5917.980  0.500  2.797923  109.452  64.8523  3.951871
  5920.792  5920.770  0.500  2.793954  117.205  69.5564  4.255380
  5923.613  5923.590  0.500  2.790442  116.995  69.5374  4.269187
  5926.433  5926.420  0.500  2.786931  116.421  69.3384  4.271939
  5929.280  5929.270  0.500  2.783930  115.106  68.659  4.242797
  5932.167  5932.150  0.500  2.781767  109.58  65.5006  4.056385
  5935.056  5935.040  0.500  2.777208  115.808  69.3196  4.312507
  5937.975  5937.950  0.500  2.773631  116.179  69.6548  4.348894
  5940.896  5940.870  0.500  2.770401  115.307  69.2565  4.338011
  5943.840  5943.820  0.500  2.767236  108.294  65.1475  4.093573
  5946.813  5946.790  0.500  2.764074  111.093  66.9932  4.222879
  5949.784  5949.770  0.500  2.759908  117.096  70.7268  4.476834
  5952.797  5952.780  0.500  2.756398  116.713  70.6223  4.485938
  5955.817  5955.800  0.500  2.752856  116.415  70.5721  4.498658
  5958.873  5958.850  0.500  2.749119  116.176  70.5396  4.513421
  5961.921  5961.910  0.500  2.745691  115.954  70.5519  4.529713
  5964.998  5964.990  0.500  2.742352  115.761  70.5463  4.544498
  5968.098  5968.090  0.500  2.738686  115.556  70.5065  4.558613
  5971.213  5971.210  0.500  2.735251  115.321  70.4897  4.573211
  5974.355  5974.350  0.500  2.731544  115.097  70.4884  4.590112
  5977.505  5977.500  0.500  2.727999  114.823  70.4423  4.603399
  5980.686  5980.680  0.500  2.724447  114.478  70.3924  4.616503
  5983.873  5983.870  0.500  2.720474  113.941  70.218  4.623401
  5987.098  5987.090  0.500  2.716874  112.544  69.4578  4.589843
  5990.325  5990.320  0.500  2.712493  88.1414  54.5112  3.617971
  5993.577  5993.570  0.500  2.709379  115.586  71.6221  4.768464
  5996.852  5996.850  0.500  2.705719  115.044  71.3889  4.770366
  6000.141  6000.140  0.500  2.701989  114.61  71.2631  4.779757
  6003.456  6003.450  0.500  2.698275  114.265  71.1975  4.793130
  6006.775  6006.770  0.500  2.694585  113.963  71.1463  4.807386
  6010.130  6010.120  0.500  2.690847  113.702  71.098  4.822112
  6013.496  6013.490  0.500  2.687032  113.445  71.0825  4.839491
  6016.883  6016.870  0.500  2.683185  113.166  71.0678  4.857139
  6020.294  6020.280  0.500  2.679426  112.92  71.0299  4.872826
  6023.710  6023.700  0.500  2.675458  112.664  71.0142  4.891125
  6027.163  6027.150  0.500  2.671482  112.404  71.0077  4.910159
  6030.633  6030.610  0.500  2.667594  112.143  71.0023  4.928912
  6034.114  6034.090  0.500  2.663909  111.871  70.9878  4.946100
  6037.602  6037.590  0.500  2.660026  111.582  70.919  4.960527
  6041.115  6041.110  0.500  2.656087  111.279  70.8431  4.974775
  6044.665  6044.650  0.500  2.652176  110.973  70.7805  4.989861
  6048.209  6048.200  0.500  2.648184  110.69  70.7361  5.006672
  6051.791  6051.780  0.500  2.644332  110.352  70.6791  5.021949
  6055.366  6055.380  0.500  2.640330  109.917  70.555  5.033228
  6059.027  6058.990  0.500  2.636275  109.456  70.3811  5.041229
  6062.633  6062.620  0.500  2.632321  108.976  70.2056  5.048580
  6066.294  6066.280  0.500  2.628156  108.59  70.0691  5.059798
  6069.951  6069.950  0.500  2.624107  108.238  69.9733  5.073378
  6073.625  6073.640  0.500  2.620121  107.873  69.9316  5.090607
  6077.388  6077.350  0.500  2.616041  107.453  69.7852  5.100720
  6081.114  6081.080  0.500  2.611821  107.054  69.6633  5.113341
  6084.859  6084.820  0.500  2.607723  106.599  69.4979  5.122151
  6088.572  6088.590  0.500  2.603599  106.163  69.338  5.131476
  6092.366  6092.380  0.500  2.599418  105.727  69.22  5.144209
  6096.185  6096.180  0.500  2.595426  105.22  69.0386  5.151250
  6100.049  6100.010  0.500  2.591109  104.741  68.8758  5.161337
  6103.842  6103.850  0.500  2.587106  104.239  68.6734  5.166815
  6107.690  6107.710  0.500  2.582943  103.688  68.4624  5.172421
  6111.576  6111.590  0.500  2.578843  103.151  68.242  5.176952
  6115.485  6115.490  0.500  2.574679  102.59  67.9981  5.179979
  6119.417  6119.410  0.500  2.570180  102.005  67.742  5.183740
  6123.333  6123.350  0.500  2.565985  101.433  67.5298  5.189217
  6127.290  6127.310  0.500  2.561400  100.819  67.281  5.193865
  6131.266  6131.280  0.500  2.557363  100.178  66.9693  5.190712
  6135.265  6135.280  0.500  2.552739  99.5559  66.7088  5.194490
  6139.272  6139.290  0.500  2.548770  98.8593  66.3416  5.186440
  6143.316  6143.330  0.500  2.544546  98.1326  66.0082  5.182217
  6147.370  6147.380  0.500  2.540261  97.3611  65.6495  5.176191
  6151.434  6151.450  0.500  2.536046  96.5008  65.2077  5.163072
  6155.528  6155.540  0.500  2.531680  95.417  64.5821  5.135909
  6159.636  6159.650  0.500  2.527361  92.9633  63.063  5.036811
  6163.765  6163.780  0.500  2.523007  94.2986  64.1212  5.143681
  6167.917  6167.930  0.500  2.518806  92.6552  63.1464  5.086799
  6172.074  6172.090  0.500  2.514403  94.2245  64.3495  5.206593
  6176.265  6176.280  0.500  2.509974  93.0167  63.6534  5.173136
  6180.469  6180.480  0.500  2.505575  92.0717  63.1575  5.155462
  6184.700  6184.710  0.500  2.501132  91.1649  62.6814  5.139380
  6188.937  6188.950  0.500  2.496497  90.2395  62.1498  5.119469
  6193.195  6193.210  0.500  2.492075  89.3459  61.667  5.102208
  6197.478  6197.490  0.500  2.487652  88.4291  61.1506  5.081912
  6201.777  6201.790  0.500  2.483195  87.5113  60.648  5.062660
  6206.100  6206.110  0.500  2.478732  86.5732  60.1433  5.042986
  6210.427  6210.450  0.500  2.474191  85.6186  59.6101  5.021024
  6214.796  6214.810  0.500  2.469613  84.675  59.074  4.998696
  6219.176  6219.190  0.500  2.465219  83.7203  58.5413  4.975436
  6223.565  6223.580  0.500  2.460752  82.7638  58.025  4.953637
  6227.982  6228.000  0.500  2.456346  81.8134  57.4868  4.929364
  6232.419  6232.430  0.500  2.451876  80.8296  56.9443  4.904722
  6236.859  6236.880  0.500  2.447418  79.8679  56.3526  4.875441
  6241.335  6241.350  0.500  2.442700  78.8827  55.7835  4.849025
  6245.826  6245.840  0.500  2.438257  77.9054  55.2036  4.819985
  6250.335  6250.350  0.500  2.433642  76.9169  54.6327  4.792208
  6254.869  6254.880  0.500  2.428905  75.9505  54.0679  4.765180
  6259.420  6259.430  0.500  2.424345  74.9566  53.4501  4.732259
  6263.989  6264.000  0.500  2.419699  73.984  52.9065  4.705950
  6268.567  6268.580  0.500  2.415285  73.0342  52.3433  4.676451
  6273.174  6273.190  0.500  2.410684  72.0561  51.7295  4.642927
  6277.796  6277.810  0.500  2.406174  71.116  51.1839  4.614722
  6282.443  6282.460  0.500  2.401444  70.1712  50.6307  4.586485
  6287.108  6287.120  0.500  2.397056  69.21  50.0489  4.553719
  6291.787  6291.800  0.500  2.392191  68.2605  49.4765  4.523597
  6296.487  6296.500  0.500  2.387720  67.3175  48.8906  4.490060
  6301.207  6301.220  0.500  2.382926  66.3787  48.3231  4.459266
  6305.945  6305.960  0.500  2.378596  65.4747  47.7691  4.427270
  6310.696  6310.710  0.500  2.373879  64.5569  47.1872  4.394014
  6315.481  6315.490  0.500  2.369261  63.659  46.6362  4.362806
  6320.282  6320.290  0.500  2.364571  62.7686  46.083  4.331319
  6325.089  6325.100  0.500  2.359874  61.8822  45.5327  4.299745
  6329.914  6329.930  0.500  2.355195  61.0163  45.0244  4.271694
  6334.773  6334.790  0.500  2.350606  60.1488  44.4911  4.240508
  6339.643  6339.660  0.500  2.346034  59.2904  43.9556  4.208665
  6344.535  6344.550  0.500  2.341235  58.4405  43.4147  4.176872
  6349.451  6349.460  0.500  2.336819  57.6056  42.8773  4.143427
  6354.375  6354.390  0.500  2.332087  56.7877  42.3547  4.112338
  6359.319  6359.330  0.500  2.327551  55.9833  41.8451  4.081330
  6364.287  6364.300  0.500  2.322951  55.1663  41.3339  4.050059
  6369.276  6369.290  0.500  2.318263  54.3668  40.8482  4.021275
  6374.274  6374.290  0.500  2.313613  53.5993  40.36  3.991739
  6379.311  6379.320  0.500  2.308880  52.8192  39.8539  3.960384
  6384.342  6384.360  0.500  2.304514  52.0577  39.3758  3.929993
  6389.402  6389.420  0.500  2.299822  51.319  38.9039  3.901156
  6394.488  6394.500  0.500  2.295205  50.5702  38.4335  3.871815
  6399.586  6399.600  0.500  2.290577  49.8427  37.962  3.842066
  6404.708  6404.720  0.500  2.285748  49.1252  37.4956  3.813230
  6409.840  6409.860  0.500  2.281323  48.4152  37.04  3.783597
  6415.009  6415.020  0.500  2.276510  47.7397  36.6057  3.757273
  6420.190  6420.200  0.500  2.272140  47.0589  36.1688  3.728691
  6425.376  6425.390  0.500  2.267277  46.3879  35.7351  3.701935
  6430.592  6430.610  0.500  2.262862  45.7016  35.277  3.670653
  6435.824  6435.840  0.500  2.258155  45.0369  34.8497  3.643297
  6441.075  6441.090  0.500  2.253289  44.4035  34.4389  3.617914
  6446.347  6446.360  0.500  2.248571  43.7739  34.0284  3.591699
  6451.634  6451.650  0.500  2.243964  43.1529  33.6232  3.565313
  6456.944  6456.960  0.500  2.239133  42.5741  33.2495  3.542759
  6462.270  6462.290  0.500  2.234204  41.9573  32.8431  3.516750
  6467.618  6467.640  0.500  2.229486  41.3084  32.4069  3.486454
  6473.003  6473.010  0.500  2.225041  40.7808  32.0671  3.465270
  6478.378  6478.390  0.500  2.220117  40.2109  31.6885  3.441258
  6483.782  6483.800  0.500  2.215293  39.6613  31.3326  3.419066
  6489.226  6489.220  0.500  2.210605  39.1165  30.9745  3.395872
  6494.651  6494.670  0.500  2.205825  38.5712  30.6111  3.372106
  6500.152  6500.130  0.500  2.201280  38.0519  30.2654  3.349213
  6505.614  6505.610  0.500  2.196548  37.6746  30.0363  3.339627
  6511.093  6511.110  0.500  2.191926  37.1749  29.7009  3.317639
  6516.612  6516.630  0.500  2.186986  36.6728  29.3582  3.295594
  6522.164  6522.170  0.500  2.182263  36.1941  29.0514  3.276595
  6527.706  6527.720  0.500  2.177801  35.7142  28.7385  3.255796
  6533.310  6533.300  0.500  2.172849  35.2499  28.4057  3.234072
  6538.890  6538.900  0.500  2.168043  34.7809  28.0908  3.213620
  6544.510  6544.510  0.500  2.163750  34.3201  27.7977  3.193775
  6550.130  6550.150  0.500  2.158913  33.8575  27.4865  3.173333
  6555.789  6555.800  0.500  2.154040  33.4375  27.2082  3.156545
  6561.449  6561.470  0.500  2.149098  33.0162  26.9252  3.139184
  6567.163  6567.160  0.500  2.144496  32.587  26.6411  3.120394