File: xdidata/Cs/Cs-L3-CesiumNitrate.xdi
# XDI/1.0 BlueSky/1.10.0 BMM/2023-1.0-py310-tiled
# Beamline.name: BMM (06BM) -- Beamline for Materials Measurement (NIST)
# Beamline.xray_source: NSLS-II three-pole wiggler
# Beamline.collimation: paraboloid mirror, 5 nm Rh on 30 nm Pt
# Beamline.focusing: not in use
# Beamline.harmonic_rejection: flat mirror, Si stripe, pitch = 7.0 mrad relative to beam
# Beamline.software: Bluesky 1.10.0, Ophyd 1.7.0, DataBroker 2.0.0b13, Python 3.10.8, 2023-1.0-py310-tiled
# Detector.I0: 10 cm N2
# Detector.I1: 25 cm N2
# Detector.I2: 25 cm N2
# Element.symbol: Cs
# Element.edge: L3
# Element.reference: Cs
# Element.reference_material: CsNO3
# Facility.name: NSLS-II
# Facility.energy: 3.0
# Facility.current: 399.5
# Facility.mode: top-off
# Facility.GUP: 301027
# Facility.SAF: 310583
# Facility.cycle: 2023-2
# Mono.name: Si(111)
# Mono.d_spacing: 3.13519
# Mono.encoder_resolution: 0.0000050 deg/ct
# Mono.angle_offset: 16.0754 deg
# Mono.scan_mode: pseudo channel cut
# Mono.scan_type: step
# Mono.direction: forward in energy
# Sample.name: CsNO3
# Sample.prep: PEG pellet
# Sample.x: 109.138 mm
# Sample.y: 153.150 mm
# Sample.SDD_position: 205.000 mm
# Scan.experimenters: Bruce Ravel
# Scan.edge_energy: 5011.9
# Scan.start_time: 2023-05-28T10:56:11
# Scan.end_time: 2023-05-28T11:02:21
# Scan.transient_id: 78616
# Scan.uid: 3115f1da-9cef-4405-ad80-2c708dfee32e
# Scan.plot_hint: ln(It/Ir)  --  ln($6/$7)
# Column.1: energy eV
# Column.2: requested_energy eV
# Column.3: measurement_time seconds
# Column.4: xmu
# Column.5: I0 nA
# Column.6: It nA
# Column.7: Ir nA
# ///////////
# sample courtesy Martin Stennett, University of Sheffield
# -----------
# energy  requested_energy  measurement_time  xmu  I0  It  Ir
  4811.907  4811.900  0.500  4.569123  75.8907  16.0848  0.166752
  4821.910  4821.900  0.500  4.542610  76.9584  16.5224  0.175891
  4831.903  4831.900  0.500  4.515461  77.749  16.9266  0.185152
  4841.903  4841.900  0.500  4.488548  78.5324  17.3392  0.194840
  4851.904  4851.900  0.500  4.461514  79.2522  17.7393  0.204798
  4861.902  4861.900  0.500  4.434089  79.9587  18.125  0.215069
  4871.903  4871.900  0.500  4.408130  80.6654  18.5289  0.225644
  4881.902  4881.900  0.500  4.382064  81.3346  18.9231  0.236530
  4891.899  4891.900  0.500  4.355728  82.0745  19.3489  0.248306
  4901.901  4901.900  0.500  4.329926  82.7347  19.7546  0.260138
  4911.902  4911.900  0.500  4.304414  83.3616  20.1652  0.272408
  4921.900  4921.900  0.500  4.277622  83.9877  20.5799  0.285558
  4931.902  4931.900  0.500  4.252706  84.5855  20.9853  0.298531
  4941.904  4941.900  0.500  4.227156  85.1556  21.3938  0.312218
  4951.907  4951.900  0.500  4.201599  85.7001  21.7641  0.325843
  4961.903  4961.900  0.500  4.178062  86.1991  22.1861  0.340072
  4971.899  4971.900  0.500  4.153173  86.6145  22.5623  0.354556
  4981.900  4981.900  0.500  4.130076  86.9059  22.927  0.368703
  4983.902  4983.900  0.500  4.125705  86.9618  22.9967  0.371445
  4985.898  4985.900  0.500  4.121572  87.0243  23.0754  0.374260
  4987.907  4987.900  0.500  4.116748  87.0733  23.1499  0.377284
  4989.903  4989.900  0.500  4.112570  87.1381  23.2296  0.380168
  4991.903  4991.900  0.500  4.108157  87.1804  23.2949  0.382923
  4993.905  4993.900  0.500  4.105116  87.2279  23.3338  0.384730
  4995.904  4995.900  0.500  4.101731  87.3026  23.4126  0.387338
  4997.904  4997.900  0.500  4.097615  87.3689  23.4769  0.390004
  4999.902  4999.900  0.500  4.095184  87.4259  23.5706  0.392514
  5001.902  5001.900  0.500  4.094209  87.5028  23.6502  0.394224
  5002.197  5002.200  0.500  4.093509  87.4995  23.6216  0.394023
  5002.493  5002.500  0.500  4.093497  87.5259  23.6556  0.394594
  5002.792  5002.800  0.500  4.093724  87.5196  23.6746  0.394821
  5003.093  5003.100  0.500  4.093653  87.5342  23.6932  0.395160
  5003.392  5003.400  0.500  4.093458  87.5344  23.6961  0.395285
  5003.692  5003.700  0.500  4.093744  87.5348  23.6805  0.394912
  5003.994  5004.000  0.500  4.093531  87.5457  23.6837  0.395049
  5004.294  5004.300  0.500  4.093145  87.5434  23.7138  0.395705
  5004.593  5004.600  0.500  4.094781  87.5487  23.7197  0.395156
  5004.894  5004.900  0.500  4.094603  87.5545  23.732  0.395432
  5005.193  5005.200  0.500  4.095673  87.5639  23.7376  0.395101
  5005.493  5005.500  0.500  4.094896  87.5769  23.7382  0.395418
  5005.795  5005.800  0.500  4.096373  87.5853  23.7484  0.395005
  5006.095  5006.100  0.500  4.096638  87.5785  23.7663  0.395198
  5006.394  5006.400  0.500  4.098153  87.5852  23.7682  0.394631
  5006.693  5006.700  0.500  4.099528  87.5953  23.7949  0.394531
  5006.995  5007.000  0.500  4.100723  87.614  23.834  0.394708
  5007.293  5007.300  0.500  4.101768  87.6188  23.8361  0.394331
  5007.595  5007.600  0.500  4.103461  87.6219  23.819  0.393380
  5007.897  5007.900  0.500  4.105187  87.6217  23.8129  0.392602
  5008.197  5008.200  0.500  4.107651  87.6306  23.8265  0.391859
  5008.496  5008.500  0.500  4.109762  87.6414  23.8352  0.391175
  5008.797  5008.800  0.500  4.113561  87.6553  23.856  0.390033
  5009.094  5009.100  0.500  4.117115  87.651  23.8803  0.389045
  5009.395  5009.400  0.500  4.121076  87.6614  23.9078  0.387952
  5009.698  5009.700  0.500  4.125467  87.6717  23.9127  0.386332
  5010.000  5010.000  0.500  4.130116  87.6742  23.9227  0.384702
  5010.299  5010.300  0.500  4.136716  87.6761  23.933  0.382335
  5010.597  5010.600  0.500  4.143365  87.6907  23.9402  0.379916
  5010.896  5010.900  0.500  4.152010  87.7037  23.9563  0.376899
  5011.197  5011.200  0.500  4.161593  87.7042  23.9542  0.373271
  5011.498  5011.500  0.500  4.172337  87.7045  23.9586  0.369350
  5011.800  5011.800  0.500  4.185659  87.7171  23.9683  0.364609
  5012.098  5012.100  0.500  4.200605  87.728  23.9804  0.359383
  5012.401  5012.400  0.500  4.216483  87.7386  24.0031  0.354055
  5012.696  5012.700  0.500  4.234542  87.7444  23.9924  0.347565
  5012.996  5013.000  0.500  4.253654  87.7447  24.0161  0.341322
  5013.296  5013.300  0.500  4.273072  87.7471  24.025  0.334882
  5013.600  5013.600  0.500  4.291572  87.7377  24.0126  0.328574
  5013.899  5013.900  0.500  4.309116  87.7506  24.0311  0.323108
  5014.200  5014.200  0.500  4.323137  87.7595  24.0444  0.318786
  5014.499  5014.500  0.500  4.332739  87.7826  24.0357  0.315626
  5014.798  5014.800  0.500  4.338944  87.8003  24.0459  0.313806
  5015.098  5015.100  0.500  4.340059  87.811  24.0699  0.313770
  5015.402  5015.400  0.500  4.337216  87.8002  24.1016  0.315078
  5015.701  5015.700  0.500  4.329632  87.8104  24.1103  0.317591
  5015.999  5016.000  0.500  4.317365  87.8171  24.1213  0.321657
  5016.301  5016.300  0.500  4.305795  87.8166  24.1325  0.325552
  5016.601  5016.600  0.500  4.293509  87.8371  24.1448  0.329744
  5016.901  5016.900  0.500  4.282973  87.8297  24.1529  0.333348
  5017.201  5017.200  0.500  4.273235  87.8428  24.1654  0.336783
  5017.500  5017.500  0.500  4.265645  87.8487  24.1755  0.339491
  5017.802  5017.800  0.500  4.257637  87.8567  24.181  0.342299
  5018.102  5018.100  0.500  4.251530  87.852  24.1804  0.344387
  5018.398  5018.400  0.500  4.245750  87.8717  24.1927  0.346560
  5018.700  5018.700  0.500  4.241473  87.8798  24.2046  0.348217
  5019.003  5019.000  0.500  4.236652  87.8785  24.2088  0.349961
  5019.302  5019.300  0.500  4.232903  87.8922  24.2124  0.351327
  5019.605  5019.600  0.500  4.230644  87.9031  24.2206  0.352241
  5019.902  5019.900  0.500  4.227854  87.9016  24.233  0.353406
  5020.203  5020.200  0.500  4.226971  87.8965  24.2432  0.353868
  5020.503  5020.500  0.500  4.224322  87.9224  24.2588  0.355033
  5020.800  5020.800  0.500  4.222703  87.9172  24.2649  0.355699
  5021.104  5021.100  0.500  4.220646  87.9144  24.2722  0.356538
  5021.403  5021.400  0.500  4.218115  87.9259  24.285  0.357630
  5021.703  5021.700  0.500  4.216096  87.9213  24.3212  0.358888
  5022.004  5022.000  0.500  4.213397  87.9188  24.318  0.359809
  5022.301  5022.300  0.500  4.211536  87.9326  24.3073  0.360322
  5022.603  5022.600  0.500  4.209385  87.9399  24.3313  0.361454
  5022.897  5022.900  0.500  4.208428  87.9519  24.3487  0.362058
  5023.202  5023.200  0.500  4.206923  87.9693  24.346  0.362564
  5023.503  5023.500  0.500  4.205775  87.9618  24.3491  0.363026
  5023.802  5023.800  0.500  4.205458  87.9563  24.3764  0.363548
  5024.102  5024.100  0.500  4.204533  87.9862  24.3989  0.364221
  5024.400  5024.400  0.500  4.205101  87.9785  24.4113  0.364200
  5024.698  5024.700  0.500  4.205184  87.9794  24.4218  0.364326
  5025.000  5025.000  0.500  4.205214  87.9864  24.4271  0.364393
  5025.301  5025.300  0.500  4.205234  88.0064  24.4484  0.364705
  5025.602  5025.600  0.500  4.205104  88.0074  24.4495  0.364767
  5025.901  5025.900  0.500  4.205077  88.0156  24.4564  0.364880
  5026.203  5026.200  0.500  4.205632  88.0019  24.4682  0.364854
  5026.502  5026.500  0.500  4.205848  88.0217  24.4856  0.365034
  5026.798  5026.800  0.500  4.206229  88.0175  24.4742  0.364726
  5027.099  5027.100  0.500  4.206729  88.0285  24.4707  0.364491
  5027.401  5027.400  0.500  4.207215  88.0396  24.5011  0.364767
  5027.700  5027.700  0.500  4.207323  88.0564  24.5194  0.365000
  5028.001  5028.000  0.500  4.208394  88.0626  24.5391  0.364902
  5028.302  5028.300  0.500  4.209397  88.0895  24.5522  0.364732
  5028.599  5028.600  0.500  4.209616  88.0888  24.5697  0.364911
  5028.898  5028.900  0.500  4.211261  88.1161  24.5764  0.364410
  5029.201  5029.200  0.500  4.210968  88.1159  24.5778  0.364537
  5029.501  5029.500  0.500  4.212048  88.1179  24.5819  0.364206
  5029.803  5029.800  0.500  4.213132  88.1154  24.5817  0.363807
  5030.102  5030.100  0.500  4.214099  88.1184  24.6043  0.363790
  5030.399  5030.400  0.500  4.214400  88.1322  24.6239  0.363970
  5030.702  5030.700  0.500  4.214806  88.1107  24.6237  0.363820
  5031.000  5031.000  0.500  4.214906  88.1128  24.6049  0.363506
  5031.303  5031.300  0.500  4.214733  88.1317  24.6319  0.363967
  5031.604  5031.600  0.500  4.214042  88.139  24.655  0.364561
  5031.904  5031.900  0.500  4.213079  88.1641  24.6756  0.365217
  5032.203  5032.200  0.500  4.211188  88.1714  24.685  0.366048
  5032.504  5032.500  0.500  4.209165  88.1559  24.6882  0.366837
  5032.800  5032.800  0.500  4.207319  88.1597  24.7043  0.367754
  5033.101  5033.100  0.500  4.204459  88.1692  24.7016  0.368767
  5033.403  5033.400  0.500  4.202386  88.1768  24.6927  0.369400
  5033.703  5033.700  0.500  4.200725  88.1865  24.6988  0.370104
  5034.004  5034.000  0.500  4.198600  88.1958  24.7123  0.371095
  5034.302  5034.300  0.500  4.196554  88.1937  24.7261  0.372063
  5034.603  5034.600  0.500  4.194733  88.2124  24.7591  0.373238
  5034.900  5034.900  0.500  4.193206  88.2041  24.7707  0.373983
  5035.198  5035.200  0.500  4.191812  88.2188  24.7819  0.374674
  5035.504  5035.500  0.500  4.190013  88.2208  24.7866  0.375420
  5035.803  5035.800  0.500  4.188541  88.2354  24.7958  0.376112
  5036.103  5036.100  0.500  4.186550  88.4743  24.8744  0.378056
  5036.404  5036.400  0.500  4.185875  88.5  24.8805  0.378405
  5036.700  5036.700  0.500  4.184434  88.5315  24.8862  0.379037
  5036.897  5036.900  0.500  4.183502  88.5289  24.8973  0.379560
  5037.899  5037.890  0.500  4.179981  88.5481  24.9263  0.381342
  5038.898  5038.890  0.500  4.176859  88.5813  24.9559  0.382989
  5039.925  5039.910  0.500  4.174578  88.613  25.0137  0.384753
  5040.953  5040.960  0.500  4.169817  88.6349  25.0443  0.387062
  5042.015  5042.020  0.500  4.166725  88.6616  25.0778  0.388779
  5043.097  5043.100  0.500  4.163547  88.6942  25.119  0.390658
  5044.199  5044.200  0.500  4.160921  88.7352  25.157  0.392278
  5045.323  5045.320  0.500  4.159050  88.754  25.1993  0.393674
  5046.469  5046.460  0.500  4.157333  88.799  25.2553  0.395226
  5047.615  5047.610  0.500  4.155310  88.8256  25.3061  0.396824
  5048.796  5048.790  0.500  4.153106  88.8796  25.3582  0.398517
  5049.985  5049.980  0.500  4.150039  88.9127  25.402  0.400432
  5051.204  5051.200  0.500  4.149096  88.9323  25.4524  0.401605
  5052.439  5052.430  0.500  4.146567  88.9698  25.4945  0.403288
  5053.684  5053.680  0.500  4.144258  88.9939  25.5555  0.405188
  5054.955  5054.950  0.500  4.142454  89.0198  25.5903  0.406472
  5056.246  5056.240  0.500  4.140649  89.065  25.6272  0.407793
  5057.558  5057.550  0.500  4.138651  89.1109  25.6605  0.409140
  5058.886  5058.880  0.500  4.136172  89.1472  25.7355  0.411355
  5060.236  5060.230  0.500  4.134067  89.1791  25.7587  0.412593
  5061.615  5061.600  0.500  4.131270  89.2102  25.813  0.414621
  5062.986  5062.980  0.500  4.129472  89.2441  25.8654  0.416210
  5064.393  5064.390  0.500  4.125096  89.2677  25.9103  0.418761
  5065.816  5065.810  0.500  4.121068  89.3062  25.9544  0.421166
  5067.259  5067.250  0.500  4.118038  89.3309  26.0055  0.423276
  5068.718  5068.710  0.500  4.113962  89.3592  26.0717  0.426087
  5070.199  5070.190  0.500  4.109888  89.3959  26.1257  0.428713
  5071.709  5071.690  0.500  4.106442  89.4298  26.1863  0.431190
  5073.216  5073.210  0.500  4.102163  89.4381  26.2307  0.433774
  5074.759  5074.750  0.500  4.098122  89.483  26.2871  0.436467
  5076.329  5076.310  0.500  4.094400  89.5082  26.3341  0.438878
  5077.899  5077.880  0.500  4.091348  89.5116  26.383  0.441036
  5079.486  5079.480  0.500  4.087938  89.5346  26.4348  0.443412
  5081.112  5081.090  0.500  4.084502  89.5633  26.5003  0.446041
  5082.750  5082.730  0.500  4.081172  89.5929  26.5538  0.448432
  5084.400  5084.380  0.500  4.078529  89.6198  26.6075  0.450527
  5086.070  5086.050  0.500  4.074795  89.6317  26.6554  0.453028
  5087.757  5087.740  0.500  4.071403  89.636  26.6948  0.455238
  5089.466  5089.450  0.500  4.068492  89.6569  26.7493  0.457497
  5091.198  5091.180  0.500  4.065099  89.6662  26.8049  0.460006
  5092.932  5092.930  0.500  4.062123  89.6726  26.8567  0.462270
  5094.706  5094.690  0.500  4.058342  89.6763  26.913  0.464993
  5096.474  5096.480  0.500  4.054809  89.6886  26.9652  0.467544
  5098.299  5098.280  0.500  4.050922  89.6843  27.0295  0.470484
  5100.112  5100.110  0.500  4.047140  89.6907  27.0734  0.473035
  5101.960  5101.950  0.500  4.043918  89.6704  27.1136  0.475265
  5103.826  5103.810  0.500  4.040103  89.6446  27.1764  0.478187
  5105.691  5105.690  0.500  4.036560  89.6365  27.2316  0.480858
  5107.590  5107.590  0.500  4.032681  89.6126  27.2809  0.483602
  5109.505  5109.510  0.500  4.029394  89.611  27.3286  0.486043
  5111.445  5111.450  0.500  4.024620  89.5752  27.3903  0.489471
  5113.408  5113.410  0.500  4.020535  89.5476  27.4447  0.492450
  5115.379  5115.380  0.500  4.016535  89.5135  27.4997  0.495415
  5117.395  5117.380  0.500  4.011665  89.4685  27.5487  0.498721
  5119.383  5119.390  0.500  4.007789  89.4479  27.5923  0.501450
  5121.410  5121.420  0.500  4.003688  89.3841  27.6314  0.504223
  5123.482  5123.480  0.500  3.999388  89.3234  27.688  0.507435
  5125.552  5125.550  0.500  3.994928  89.2691  27.7427  0.510709
  5127.642  5127.640  0.500  3.990808  89.2236  27.772  0.513358
  5129.760  5129.750  0.500  3.986827  89.154  27.8184  0.516268
  5131.887  5131.880  0.500  3.982348  89.08  27.8628  0.519414
  5134.029  5134.020  0.500  3.978210  88.9936  27.9106  0.522462
  5136.197  5136.190  0.500  3.974173  88.9193  27.9545  0.525401
  5138.391  5138.380  0.500  3.970033  88.8412  27.9816  0.528091
  5140.586  5140.580  0.500  3.965905  88.7528  28.0202  0.531007
  5142.806  5142.800  0.500  3.961352  88.6616  28.0508  0.534013
  5145.052  5145.050  0.500  3.957447  88.5773  28.097  0.536986
  5147.311  5147.310  0.500  3.952514  88.4711  28.1228  0.540136
  5149.594  5149.590  0.500  3.948534  88.3604  28.157  0.542950
  5151.893  5151.890  0.500  3.943737  88.2384  28.1723  0.545858
  5154.215  5154.210  0.500  3.939496  88.1638  28.1994  0.548704
  5156.551  5156.550  0.500  3.934274  88.0597  28.2385  0.552342
  5158.901  5158.900  0.500  3.930170  87.9817  28.3229  0.556272
  5161.282  5161.280  0.500  3.925229  87.8667  28.3589  0.559737
  5163.674  5163.670  0.500  3.920906  87.7964  28.393  0.562839
  5166.094  5166.090  0.500  3.915896  87.6622  28.4181  0.566164
  5168.522  5168.520  0.500  3.911399  87.5466  28.4565  0.569484
  5170.972  5170.970  0.500  3.907265  87.4602  28.5074  0.572866
  5173.454  5173.450  0.500  3.901860  87.3419  28.5558  0.576949
  5175.944  5175.940  0.500  3.897073  87.2637  28.6074  0.580765
  5178.452  5178.450  0.500  3.892406  87.1459  28.6309  0.583963
  5180.970  5180.970  0.500  3.887305  87.0715  28.6762  0.587877
  5183.524  5183.520  0.500  3.882052  87  28.736  0.592206
  5186.095  5186.090  0.500  3.876959  86.9145  28.7811  0.596163
  5188.676  5188.670  0.500  3.871816  86.8567  28.8255  0.600162
  5191.285  5191.280  0.500  3.867149  86.7905  28.8749  0.604003
  5193.904  5193.900  0.500  3.862144  86.6833  28.9041  0.607648
  5196.554  5196.550  0.500  3.856935  86.619  28.9819  0.612466
  5199.210  5199.210  0.500  3.852123  86.5697  29.0419  0.616693
  5201.899  5201.890  0.500  3.846686  86.5013  29.1018  0.621335
  5204.594  5204.590  0.500  3.841615  86.4012  29.1348  0.625200
  5207.311  5207.310  0.500  3.836354  86.3467  29.2016  0.629940
  5210.053  5210.050  0.500  3.830868  86.3122  29.2601  0.634674
  5212.805  5212.800  0.500  3.825615  86.2554  29.3129  0.639169
  5215.585  5215.580  0.500  3.819897  86.2241  29.3842  0.644397
  5218.377  5218.370  0.500  3.814318  86.194  29.476  0.650027
  5221.195  5221.190  0.500  3.808964  86.1253  29.5398  0.654932
  5224.029  5224.020  0.500  3.802772  86.1199  29.6144  0.660663
  5226.886  5226.870  0.500  3.797479  86.0799  29.6923  0.665916
  5229.774  5229.750  0.500  3.791599  86.0573  29.7406  0.670933
  5232.649  5232.640  0.500  3.786268  85.9811  29.8147  0.676201
  5235.557  5235.550  0.500  3.780303  85.9873  29.9067  0.682345
  5238.496  5238.470  0.500  3.774594  85.9592  29.9962  0.688305
  5241.427  5241.420  0.500  3.768843  85.9225  30.0398  0.693282
  5244.395  5244.390  0.500  3.763032  85.8936  30.1182  0.699142
  5247.397  5247.370  0.500  3.757264  85.8713  30.1984  0.705057
  5250.401  5250.380  0.500  3.751001  85.8206  30.2667  0.711091
  5253.421  5253.400  0.500  3.745531  85.7419  30.3362  0.716636
  5256.471  5256.450  0.500  3.739434  85.8072  30.4596  0.723951
  5259.533  5259.510  0.500  3.733369  85.7538  30.5444  0.730383
  5262.612  5262.590  0.500  3.727412  85.74  30.6279  0.736754
  5265.703  5265.690  0.500  3.721664  85.7242  30.722  0.743277
  5268.818  5268.810  0.500  3.715653  85.711  30.8191  0.750123
  5271.942  5271.950  0.500  3.709513  85.7008  30.8738  0.756081
  5275.087  5275.100  0.500  3.703644  85.724  30.9798  0.763143
  5278.269  5278.280  0.500  3.697153  79.3779  28.7694  0.713308
  5281.460  5281.470  0.500  3.691117  85.4289  31.0606  0.774779
  5284.686  5284.690  0.500  3.684894  85.4488  31.1781  0.782564
  5287.939  5287.920  0.500  3.678963  85.5524  31.3313  0.791087
  5291.154  5291.170  0.500  3.672742  85.559  31.4383  0.798745
  5294.437  5294.450  0.500  3.666664  85.5484  31.511  0.805472
  5297.724  5297.740  0.500  3.660874  85.5174  31.6108  0.812715
  5301.041  5301.050  0.500  3.654326  85.5347  31.7137  0.820716
  5304.362  5304.370  0.500  3.648549  85.4815  31.7712  0.826969
  5307.708  5307.720  0.500  3.642231  85.5235  31.8748  0.834923
  5311.112  5311.090  0.500  3.635150  85.5621  32.0026  0.844227
  5314.457  5314.470  0.500  3.629437  85.5633  32.1127  0.851986
  5317.875  5317.880  0.500  3.623100  85.5552  32.2051  0.859870
  5321.286  5321.300  0.500  3.616653  85.5513  32.295  0.867847
  5324.766  5324.750  0.500  3.610283  85.5887  32.4009  0.876257
  5328.196  5328.210  0.500  3.603760  85.5402  32.4799  0.884141
  5331.683  5331.690  0.500  3.597265  85.5713  32.6059  0.893356
  5335.179  5335.190  0.500  3.590979  85.5143  32.7242  0.902250
  5338.696  5338.710  0.500  3.584236  85.5674  32.8513  0.911883
  5342.241  5342.250  0.500  3.577851  85.5561  32.9496  0.920468
  5345.785  5345.800  0.500  3.571802  85.5726  33.0599  0.929152