File: xdidata/La/La-L3-LaAlO3.xdi
# XDI/1.0 BlueSky/1.5.3
# Beamline.name: 6BM
# Beamline.xray_source: NSLS-II three-pole wiggler
# Beamline.collimation: paraboloid mirror, 5 nm Rh on 30 nm Pt
# Beamline.focusing: not in use
# Beamline.harmonic_rejection: flat mirror, Si stripe, pitch = 7.0 mrad relative to beam
# Detector.i0: 10 cm N2
# Detector.I1: 25 cm N2
# Detector.I2: 25 cm N2
# Element.symbol: La
# Element.edge: L3
# Facility.name: NSLS-II
# Facility.energy: 3.0
# Facility.current: 399.6
# Facility.mode: top-off
# Facility.GUP: 305832
# Facility.SAF: 305669
# Facility.cycle: 2020-1
# Mono.name: Si(111)
# Mono.d_spacing: 3.13532
# Mono.encoder_resolution: 0.0000050 deg/ct
# Mono.angle_offset: 16.0581 deg
# Mono.scan_mode: fixed exit
# Mono.scan_type: step
# Mono.direction: forward in energy
# Sample.name: LaAlO3
# Sample.prep: Powder in polyethylene glycol pellet
# Sample.x_position: -3.945 mm
# Sample.y_position: 103.894 mm
# Scan.experimenters: Neil Hyatt, Martin Stennett, Dan Austin, Seb Lawson
# Scan.edge_energy: 5482.7
# Scan.start_time: 2020-03-03T02:41:35
# Scan.end_time: 2020-03-03T02:51:40
# Scan.transient_id: 22549
# Scan.uid: 7f73b169-c664-4e8e-b0a5-c4ebab800bb6
# Scan.plot_hint: (DTC1 + DTC2 + DTC3 + DTC4) / i0  --  ($8+$9+$10+$11) / $5
# Column.1: energy eV
# Column.2: requested_energy eV
# Column.3: measurement_time seconds
# Column.4: mutrans
# Column.5: i0
# Column.6: itrans
# Column.7: irefer
# ///////////
#
# -----------
#  energy  requested_energy  measurement_time  mutrans  i0  itrans  irefer
5282.700  5282.700  1.000  0.000000  55.3115  0.677791  0.102185
5292.708  5292.700  1.000  0.038282  55.6145  0.700973  0.104264
5302.709  5302.700  1.000  0.000000  55.8864  0.726191  0.109066
5312.709  5312.700  1.000  0.000000  56.1598  0.749922  0.116072
5322.709  5322.700  1.000  0.000000  56.2888  0.773795  0.116760
5332.706  5332.700  1.000  0.030391  56.4074  0.794645  0.120162
5342.707  5342.700  1.000  0.000000  56.6099  0.819742  0.126608
5352.709  5352.700  1.000  0.000000  56.7453  0.845658  0.134892
5362.706  5362.700  1.000  0.000000  57.3467  0.876895  0.135891
5372.702  5372.700  1.000  0.000000  57.6151  0.904689  0.143226
5382.706  5382.700  1.000  0.000000  57.9176  0.932222  0.148196
5392.685  5392.700  1.000  0.000000  58.2988  0.963699  0.160504
5402.695  5402.700  1.000  0.017505  58.5905  0.993999  0.164099
5412.696  5412.700  1.000  0.035587  58.8135  1.023349  0.170059
5422.700  5422.700  1.000  0.000000  59.0684  1.053213  0.173862
5432.700  5432.700  1.000  0.017320  59.3875  1.085217  0.181170
5442.703  5442.700  1.000  0.000000  59.6259  1.116138  0.186882
5452.700  5452.700  1.000  0.017914  59.8578  1.145314  0.194553
5454.699  5454.700  1.000  0.017065  59.9022  1.148911  0.194332
5456.695  5456.700  1.000  0.019252  59.9331  1.154206  0.194681
5458.693  5458.700  1.000  0.000000  59.9389  1.157402  0.196703
5460.692  5460.700  1.000  0.033909  59.9761  1.163746  0.196166
5462.700  5462.700  1.000  0.000000  60.0185  1.165784  0.195727
5464.705  5464.700  1.000  0.033948  60.0359  1.167476  0.149515
5466.703  5466.700  1.000  0.034298  60.0796  1.172076  0.153611
5468.702  5468.700  1.000  0.017112  60.0765  1.170966  0.143311
5470.704  5470.700  1.000  0.017334  60.0952  1.166583  0.133412
5472.702  5472.700  1.000  0.019409  60.1086  1.162892  0.126557
5472.946  5472.950  1.000  0.017049  60.1037  1.163429  0.124476
5473.195  5473.200  1.000  0.033917  60.1122  1.160677  0.125375
5473.444  5473.450  1.000  0.033627  60.1079  1.159221  0.118226
5473.693  5473.700  1.000  0.037195  60.1105  1.157780  0.119941
5473.943  5473.950  1.000  0.033276  60.1027  1.155229  0.113406
5474.192  5474.200  1.000  0.016639  60.0996  1.153404  0.112033
5474.443  5474.450  1.000  0.029580  60.0998  1.154983  0.110893
5474.693  5474.700  1.000  0.031197  60.1018  1.153631  0.109585
5474.945  5474.950  1.000  0.031202  60.0931  1.151900  0.107246
5475.194  5475.200  1.000  0.000000  60.1076  1.148739  0.105721
5475.447  5475.450  1.000  0.017046  60.0965  1.145140  0.103902
5475.696  5475.700  1.000  0.062845  60.1128  1.145828  0.103928
5475.947  5475.950  1.000  0.033265  60.1234  1.144129  0.104239
5476.196  5476.200  1.000  0.029121  60.0934  1.138221  0.102454
5476.447  5476.450  1.000  0.000000  60.0977  1.135857  0.100899
5476.693  5476.700  1.000  0.000000  60.1005  1.134511  0.098174
5476.947  5476.950  1.000  0.039003  60.085  1.129977  0.099449
5477.197  5477.200  1.000  0.000000  60.1031  1.126063  0.096958
5477.447  5477.450  1.000  0.034473  60.0892  1.125370  0.093515
5477.697  5477.700  1.000  0.016642  60.0879  1.118902  0.090638
5477.952  5477.950  1.000  0.078403  60.1285  1.116757  0.087766
5478.200  5478.200  1.000  0.031421  60.116  1.112375  0.091895
5478.450  5478.450  1.000  0.016637  60.108  1.106905  0.089348
5478.697  5478.700  1.000  0.024959  60.0991  1.103479  0.087175
5478.946  5478.950  1.000  0.028750  60.0781  1.097379  0.087683
5479.196  5479.200  1.000  0.070727  60.0905  1.089948  0.082117
5479.448  5479.450  1.000  0.069348  60.0831  1.083311  0.086750
5479.699  5479.700  1.000  0.016635  60.1127  1.077780  0.086252
5479.951  5479.950  1.000  0.026631  60.0813  1.070272  0.082836
5480.203  5480.200  1.000  0.166429  60.0857  1.060515  0.081122
5480.453  5480.450  1.000  0.016647  60.0694  1.050459  0.079844
5480.703  5480.700  1.000  0.027050  60.0744  1.040259  0.077581
5480.950  5480.950  1.000  0.033291  60.0762  1.030598  0.075502
5481.197  5481.200  1.000  0.115284  60.0526  1.017736  0.074496
5481.448  5481.450  1.000  0.000000  60.0701  1.003813  0.071228
5481.699  5481.700  1.000  0.076493  60.0804  0.987731  0.066892
5481.951  5481.950  1.000  0.016848  60.062  0.974750  0.071473
5482.201  5482.200  1.000  0.016652  60.0513  0.954306  0.070678
5482.453  5482.450  1.000  0.041626  60.0582  0.935901  0.065392
5482.703  5482.700  1.000  0.000000  60.0517  0.916303  0.066198
5482.952  5482.950  1.000  0.024234  60.0218  0.893360  0.062296
5483.202  5483.200  1.000  0.031465  60.0316  0.874050  0.063349
5483.450  5483.450  1.000  0.031218  60.0613  0.854796  0.056613
5483.699  5483.700  1.000  0.116528  60.0714  0.835399  0.056660
5483.948  5483.950  1.000  0.054331  60.0275  0.814940  0.059557
5484.202  5484.200  1.000  0.000000  60.0238  0.789911  0.053569
5484.452  5484.450  1.000  0.095752  60.0507  0.767397  0.057574
5484.701  5484.700  1.000  0.042759  60.0486  0.740722  0.057278
5484.952  5484.950  1.000  0.059233  60.0263  0.705479  0.054369
5485.204  5485.200  1.000  0.097880  60.0223  0.670155  0.050339
5485.453  5485.450  1.000  0.000000  60.019  0.633745  0.048211
5485.699  5485.700  1.000  0.000000  60.0281  0.592881  0.043713
5485.950  5485.950  1.000  0.073330  60.0028  0.546749  0.043472
5486.201  5486.200  1.000  0.047913  60.0047  0.496312  0.044396
5486.450  5486.450  1.000  0.054325  60.0044  0.444267  0.040025
5486.701  5486.700  1.000  0.108440  59.9877  0.393338  0.036703
5486.953  5486.950  1.000  0.016668  59.9951  0.345848  0.031952
5487.204  5487.200  1.000  0.043508  59.9936  0.297055  0.026465
5487.453  5487.450  1.000  0.016851  59.982  0.253294  0.024960
5487.701  5487.700  1.000  0.034485  59.9741  0.214095  0.022561
5487.951  5487.950  1.000  0.078620  59.9631  0.182028  0.020452
5488.197  5488.200  1.000  0.000000  59.9798  0.153659  0.020396
5488.451  5488.450  1.000  0.029155  60.0236  0.133211  0.019342
5488.703  5488.700  1.000  0.074554  60.1381  0.116478  0.018677
5488.952  5488.950  1.000  0.078353  60.1769  0.104086  0.016605
5489.202  5489.200  1.000  0.017137  60.159  0.095399  0.015366
5489.452  5489.450  1.000  0.000000  60.1537  0.095283  0.016651
5489.700  5489.700  1.000  0.063823  60.1511  0.094377  0.013417
5489.950  5489.950  1.000  0.017103  60.1559  0.100262  0.016223
5490.199  5490.200  1.000  0.000000  60.124  0.105613  0.015282
5490.452  5490.450  1.000  0.027720  60.1255  0.114564  0.016464
5490.701  5490.700  1.000  0.034611  60.1432  0.126164  0.014592
5490.950  5490.950  1.000  0.051807  60.1061  0.140613  0.017054
5491.202  5491.200  1.000  0.034713  60.12  0.155613  0.018906
5491.453  5491.450  1.000  0.034773  60.1432  0.172682  0.020591
5491.701  5491.700  1.000  0.016985  60.1004  0.186277  0.018559
5491.952  5491.950  1.000  0.035848  60.0829  0.203802  0.020510
5492.201  5492.200  1.000  0.051419  60.1121  0.223194  0.022364
5492.448  5492.450  1.000  0.017205  60.1039  0.240236  0.022573
5492.701  5492.700  1.000  0.063699  60.0542  0.261511  0.024690
5492.955  5492.950  1.000  0.034065  60.077  0.281733  0.026832
5493.201  5493.200  1.000  0.050913  60.0793  0.301698  0.026584
5493.453  5493.450  1.000  0.056909  60.0929  0.321779  0.027178
5493.703  5493.700  1.000  0.017404  60.0704  0.343308  0.031471
5493.950  5493.950  1.000  0.017243  60.0398  0.361661  0.030405
5494.201  5494.200  1.000  0.017187  60.06  0.382796  0.032662
5494.451  5494.450  1.000  0.000000  60.041  0.398517  0.035007
5494.700  5494.700  1.000  0.017071  60.0611  0.414902  0.037023
5494.951  5494.950  1.000  0.034963  60.0426  0.431124  0.037006
5495.204  5495.200  1.000  0.098066  59.9934  0.443476  0.037226
5495.452  5495.450  1.000  0.000000  60.0205  0.457460  0.038221
5495.703  5495.700  1.000  0.016999  60.0293  0.469982  0.040212
5495.952  5495.950  1.000  0.056126  59.9908  0.479387  0.041258
5496.197  5496.200  1.000  0.018049  60.0226  0.491564  0.040170
5496.448  5496.450  1.000  0.000000  60.0105  0.501197  0.043353
5496.700  5496.700  1.000  0.018013  59.9827  0.510346  0.045815
5496.951  5496.950  1.000  0.035726  59.9811  0.520447  0.045006
5497.202  5497.200  1.000  0.018897  59.974  0.528901  0.043958
5497.455  5497.450  1.000  0.046069  59.9648  0.537249  0.045213
5497.704  5497.700  1.000  0.017225  59.95  0.541652  0.045301
5497.950  5497.950  1.000  0.060022  59.9202  0.548118  0.046615
5498.202  5498.200  1.000  0.017186  59.9311  0.550944  0.045289
5498.451  5498.450  1.000  0.000000  59.9399  0.555306  0.044129
5498.699  5498.700  1.000  0.045492  59.9013  0.555260  0.044573
5498.953  5498.950  1.000  0.053118  59.8716  0.557491  0.045958
5499.202  5499.200  1.000  0.054648  59.8873  0.558204  0.049585
5499.452  5499.450  1.000  0.017097  59.9002  0.555399  0.045748
5499.704  5499.700  1.000  0.017402  59.8597  0.554241  0.045295
5499.955  5499.950  1.000  0.065801  59.8464  0.551836  0.043827
5500.202  5500.200  1.000  0.017195  59.849  0.551133  0.045635
5500.449  5500.450  1.000  0.052433  59.8171  0.552478  0.043783
5500.702  5500.700  1.000  0.000000  59.8112  0.550641  0.046148
5500.950  5500.950  1.000  0.031345  59.8172  0.552157  0.043635
5501.199  5501.200  1.000  0.070573  59.7931  0.550513  0.045223
5501.453  5501.450  1.000  0.038023  59.7942  0.554413  0.044612
5501.704  5501.700  1.000  0.017210  59.7503  0.553824  0.043713
5501.951  5501.950  1.000  0.000000  59.7103  0.556751  0.043807
5502.203  5502.200  1.000  0.000000  59.7089  0.558937  0.044532
5502.451  5502.450  1.000  0.034260  59.7199  0.561275  0.047052
5502.699  5502.700  1.000  0.092629  59.7149  0.563567  0.044151
5502.950  5502.950  1.000  0.000000  59.6919  0.564368  0.043743
5503.203  5503.200  1.000  0.089823  59.6573  0.566953  0.045644
5503.450  5503.450  1.000  0.000000  59.6525  0.569956  0.041492
5503.704  5503.700  1.000  0.033536  59.6375  0.571766  0.043419
5503.955  5503.950  1.000  0.052532  59.6231  0.575621  0.043848
5504.201  5504.200  1.000  0.000000  59.6374  0.575743  0.043962
5504.452  5504.450  1.000  0.034765  59.6076  0.579258  0.048100
5504.703  5504.700  1.000  0.000000  59.5999  0.578557  0.044850
5504.949  5504.950  1.000  0.055340  59.5846  0.579719  0.043744
5505.198  5505.200  1.000  0.000000  59.5522  0.581024  0.044829
5505.453  5505.450  1.000  0.000000  59.5456  0.580996  0.046097
5505.703  5505.700  1.000  0.017327  59.5348  0.581487  0.044349
5505.951  5505.950  1.000  0.017500  59.5229  0.583489  0.044687
5506.203  5506.200  1.000  0.000000  59.4984  0.582852  0.044013
5506.452  5506.450  1.000  0.060608  59.5001  0.584545  0.045091
5506.699  5506.700  1.000  0.017484  59.5074  0.583364  0.044428
5506.949  5506.950  1.000  0.044564  59.4789  0.583852  0.045080
5507.202  5507.200  1.000  0.035115  59.4598  0.582595  0.044367
5507.451  5507.450  1.000  0.029437  59.4498  0.583329  0.044452
5507.700  5507.700  1.000  0.038057  59.4548  0.582664  0.041739
5507.955  5507.950  1.000  0.070137  59.4366  0.580076  0.045797
5508.204  5508.200  1.000  0.017352  59.4136  0.580491  0.046008
5508.449  5508.450  1.000  0.017325  59.4168  0.577865  0.044251
5508.700  5508.700  1.000  0.035532  59.4144  0.575029  0.045543
5508.950  5508.950  1.000  0.088794  59.3567  0.572192  0.042786
5509.195  5509.200  1.000  0.000000  59.3469  0.570594  0.042879
5509.450  5509.450  1.000  0.017235  59.3539  0.565643  0.043242
5509.701  5509.700  1.000  0.000000  59.3604  0.562594  0.042307
5509.952  5509.950  1.000  0.036295  59.3429  0.557774  0.044360
5510.203  5510.200  1.000  0.053925  59.3124  0.554348  0.042964
5510.454  5510.450  1.000  0.048682  59.332  0.550520  0.042858
5510.705  5510.700  1.000  0.017200  59.315  0.547391  0.043151
5510.950  5510.950  1.000  0.018116  59.4473  0.542400  0.040494
5511.199  5511.200  1.000  0.035163  59.4923  0.538425  0.043845
5511.449  5511.450  1.000  0.029871  59.5155  0.534660  0.042847
5511.703  5511.700  1.000  0.019608  59.4982  0.532033  0.041755
5511.948  5511.950  1.000  0.000000  59.4802  0.526491  0.038197
5512.203  5512.200  1.000  0.017930  59.4894  0.522826  0.041298
5512.454  5512.450  1.000  0.035063  59.493  0.518405  0.041345
5512.701  5512.700  1.000  0.018108  59.471  0.514244  0.041610
5513.792  5513.780  1.000  0.000000  59.4071  0.496174  0.039207
5514.895  5514.880  1.000  0.017903  59.3468  0.475212  0.038426
5515.990  5515.990  1.000  0.052074  59.3211  0.454217  0.036837
5517.131  5517.130  1.000  0.019280  59.2763  0.439100  0.037382
5518.284  5518.280  1.000  0.000000  59.2292  0.431771  0.035577
5519.465  5519.460  1.000  0.017353  59.1719  0.432384  0.037169
5520.657  5520.650  1.000  0.000000  59.123  0.437531  0.038118
5521.863  5521.860  1.000  0.000000  59.089  0.447607  0.037498
5523.096  5523.090  1.000  0.000000  59.0001  0.461827  0.041401
5524.345  5524.340  1.000  0.043490  58.9212  0.478652  0.041468
5525.614  5525.610  1.000  0.053576  58.8816  0.499396  0.042852
5526.906  5526.900  1.000  0.029751  58.8225  0.519625  0.048482
5528.214  5528.210  1.000  0.042951  58.7118  0.538181  0.049740
5529.535  5529.530  1.000  0.000000  58.6659  0.554804  0.054570
5530.886  5530.880  1.000  0.073943  58.5935  0.566626  0.049376
5532.243  5532.240  1.000  0.000000  58.4974  0.577058  0.048225
5533.635  5533.630  1.000  0.017960  58.4347  0.585742  0.048277
5535.033  5535.030  1.000  0.017575  58.3591  0.590281  0.050013
5536.455  5536.450  1.000  0.053152  58.2823  0.592933  0.049445
5537.896  5537.890  1.000  0.017692  58.1863  0.592719  0.049162
5539.354  5539.350  1.000  0.036344  58.0799  0.587912  0.051836
5540.834  5540.830  1.000  0.000000  57.9797  0.581633  0.046423
5542.334  5542.330  1.000  0.052742  57.9055  0.575167  0.048381
5543.846  5543.840  1.000  0.017828  57.8269  0.568888  0.047507
5545.384  5545.380  1.000  0.000000  57.7123  0.563167  0.048835
5546.945  5546.940  1.000  0.000000  57.584  0.557902  0.050400
5548.515  5548.510  1.000  0.035184  57.4753  0.550161  0.049665
5550.106  5550.100  1.000  0.028519  57.3783  0.540847  0.049604
5551.715  5551.710  1.000  0.034915  57.2815  0.530647  0.048597
5553.355  5553.350  1.000  0.000000  57.1512  0.522266  0.047540
5555.005  5555.000  1.000  0.054789  57.0495  0.518901  0.045360
5556.676  5556.670  1.000  0.092810  56.9211  0.517463  0.045154
5558.355  5558.350  1.000  0.018870  56.7795  0.518057  0.042808
5560.062  5560.060  1.000  0.037116  56.6477  0.518549  0.044164
5561.797  5561.790  1.000  0.018263  56.5044  0.521217  0.042617
5563.535  5563.530  1.000  0.020465  56.3814  0.525786  0.040950
5565.304  5565.300  1.000  0.021339  56.2359  0.533542  0.041284
5567.082  5567.080  1.000  0.030548  56.1177  0.543184  0.042295
5568.885  5568.880  1.000  0.037614  55.9522  0.553545  0.044643
5570.705  5570.700  1.000  0.019291  55.8261  0.563980  0.046165
5572.548  5572.540  1.000  0.037186  55.6707  0.573854  0.049068
5574.406  5574.400  1.000  0.000000  55.5226  0.582055  0.049599
5576.285  5576.280  1.000  0.018454  55.3549  0.585752  0.051650
5578.187  5578.180  1.000  0.049049  55.2079  0.586459  0.053516
5580.108  5580.100  1.000  0.075230  55.0689  0.583161  0.053180
5582.040  5582.030  1.000  0.038240  54.9164  0.578817  0.051351
5583.995  5583.990  1.000  0.036515  54.7727  0.572908  0.050786
5585.967  5585.960  1.000  0.078446  54.5833  0.563655  0.050611
5587.964  5587.960  1.000  0.037523  54.4115  0.554186  0.049680
5589.976  5589.970  1.000  0.019080  54.2508  0.550216  0.048801
5592.007  5592.000  1.000  0.000000  54.1223  0.548238  0.052477
5594.062  5594.050  1.000  0.075556  53.9212  0.550374  0.050055
5596.117  5596.120  1.000  0.120522  53.7547  0.553533  0.049390
5598.205  5598.210  1.000  0.000000  53.5821  0.559632  0.050863
5600.320  5600.310  1.000  0.020047  53.4464  0.567185  0.052615
5602.448  5602.440  1.000  0.077504  53.2754  0.572512  0.054198
5604.599  5604.590  1.000  0.060273  53.0832  0.574564  0.053952
5606.743  5606.750  1.000  0.062084  52.9135  0.572776  0.053308
5608.925  5608.930  1.000  0.058980  52.7246  0.570759  0.051563
5611.130  5611.140  1.000  0.000000  52.5728  0.573008  0.051210
5613.354  5613.360  1.000  0.019709  52.4294  0.574222  0.050458
5615.593  5615.600  1.000  0.000000  52.2375  0.575196  0.050796
5617.858  5617.860  1.000  0.019875  52.0706  0.578292  0.050565
5620.152  5620.140  1.000  0.040195  51.9208  0.579216  0.049788
5622.433  5622.440  1.000  0.080016  51.7289  0.578383  0.047129
5624.754  5624.750  1.000  0.020253  51.412  0.575064  0.048947
5627.087  5627.090  1.000  0.000000  51.1799  0.573914  0.054783
5629.434  5629.440  1.000  0.061711  51.1672  0.575550  0.051391
5631.818  5631.820  1.000  0.076477  51.0364  0.576157  0.051403
5634.213  5634.210  1.000  0.084174  50.885  0.576915  0.051154
5636.619  5636.620  1.000  0.073854  50.7197  0.578275  0.055210
5639.047  5639.050  1.000  0.020350  50.5048  0.580579  0.047476
5641.511  5641.500  1.000  0.060917  50.342  0.584025  0.057583
5643.970  5643.970  1.000  0.000000  49.9591  0.586186  0.056732
5646.465  5646.460  1.000  0.034296  49.5682  0.587117  0.053925
5648.981  5648.970  1.000  0.000000  49.4623  0.591096  0.057326
5651.498  5651.490  1.000  0.031146  49.3952  0.595281  0.053485
5654.051  5654.040  1.000  0.063180  49.2749  0.598217  0.056660
5656.610  5656.600  1.000  0.000000  49.3513  0.602000  0.053489
5659.201  5659.190  1.000  0.041931  49.3055  0.606386  0.063443
5661.803  5661.790  1.000  0.043912  49.2434  0.609785  0.064161
5664.421  5664.410  1.000  0.103802  49.1874  0.612105  0.058358
5667.062  5667.050  1.000  0.042337  49.1108  0.615205  0.060895
5669.702  5669.710  1.000  0.044712  49.0403  0.617013  0.061808
5672.401  5672.390  1.000  0.000000  48.9426  0.619895  0.059949
5675.090  5675.090  1.000  0.022021  48.9039  0.622273  0.061691
5677.805  5677.810  1.000  0.093931  48.8288  0.623632  0.061260
5680.552  5680.540  1.000  0.021139  48.7833  0.625287  0.059601
5683.287  5683.300  1.000  0.000000  48.7147  0.626761  0.060421
5686.064  5686.070  1.000  0.020936  48.6335  0.628825  0.061486
5688.859  5688.870  1.000  0.065371  48.5755  0.631534  0.060458
5691.670  5691.680  1.000  0.042262  48.5164  0.633909  0.061927
5694.506  5694.510  1.000  0.030016  48.4592  0.638217  0.059738
5697.366  5697.360  1.000  0.041324  48.3981  0.641744  0.060330
5700.228  5700.230  1.000  0.075026  48.3566  0.645497  0.059814
5703.128  5703.120  1.000  0.055813  48.316  0.648511  0.061278
5706.026  5706.020  1.000  0.050313  48.2914  0.652531  0.063659
5708.946  5708.950  1.000  0.024849  48.2912  0.656440  0.064708
5711.894  5711.900  1.000  0.103461  48.2211  0.658721  0.065682
5714.853  5714.860  1.000  0.021305  48.194  0.661419  0.068437
5717.828  5717.840  1.000  0.071988  48.1142  0.664476  0.068624
5720.860  5720.850  1.000  0.021672  48.1153  0.670517  0.068927
5723.856  5723.870  1.000  0.044955  48.0679  0.677194  0.069380
5726.903  5726.910  1.000  0.042784  47.9985  0.684865  0.071736
5729.961  5729.970  1.000  0.042701  48.0086  0.693037  0.072347
5733.042  5733.050  1.000  0.024338  47.9361  0.699142  0.070769
5736.138  5736.150  1.000  0.092885  47.9223  0.703147  0.072715
5739.249  5739.260  1.000  0.025053  47.8987  0.706310  0.071491
5742.391  5742.400  1.000  0.068164  47.8496  0.708017  0.071729
5745.541  5745.550  1.000  0.021626  47.8166  0.711330  0.073984
5748.718  5748.730  1.000  0.022087  47.7903  0.714791  0.073582
5751.906  5751.920  1.000  0.044175  47.7434  0.719308  0.075853
5755.118  5755.130  1.000  0.000000  47.6927  0.722119  0.077057
5758.357  5758.360  1.000  0.045269  47.6649  0.725240  0.075740
5761.607  5761.620  1.000  0.070557  47.6479  0.729903  0.078260
5764.868  5764.880  1.000  0.063784  47.5934  0.733134  0.075744
5768.156  5768.170  1.000  0.060801  47.5742  0.738355  0.077927
5771.467  5771.480  1.000  0.031554  47.5372  0.743790  0.077909
5774.797  5774.810  1.000  0.000000  47.4746  0.748676  0.078730
5778.137  5778.150  1.000  0.021488  47.4423  0.754792  0.075844
5781.505  5781.520  1.000  0.021858  47.3974  0.761816  0.080011
5784.887  5784.900  1.000  0.068643  47.3657  0.767889  0.080146
5788.286  5788.300  1.000  0.022148  47.317  0.772701  0.081181
5791.717  5791.730  1.000  0.098010  47.2537  0.777220  0.083850
5795.169  5795.170  1.000  0.065226  47.2147  0.783313  0.084162
5798.619  5798.630  1.000  0.021934  47.1362  0.789478  0.084636
5802.087  5802.100  1.000  0.159912  47.0806  0.797032  0.085661
5805.591  5805.600  1.000  0.081146  47.0465  0.804545  0.087282
5809.105  5809.120  1.000  0.065703  46.9933  0.810408  0.087840
5812.647  5812.660  1.000  0.021949  46.9267  0.815324  0.087781
5816.200  5816.210  1.000  0.066838  46.86  0.819774  0.089493
5819.777  5819.790  1.000  0.033036  46.7805  0.823861  0.091005
5823.367  5823.380  1.000  0.000000  46.7168  0.827058  0.093218
5826.984  5826.990  1.000  0.045256  46.6486  0.830384  0.092813
5830.613  5830.620  1.000  0.029118  46.6079  0.834004  0.093686
5834.260  5834.270  1.000  0.022338  46.5293  0.837127  0.094475
5837.929  5837.940  1.000  0.022351  46.4231  0.842022  0.092011
5841.617  5841.630  1.000  0.026192  46.3603  0.849459  0.097923
5845.331  5845.340  1.000  0.066964  46.2691  0.857041  0.096815
5849.053  5849.060  1.000  0.000000  46.1701  0.865400  0.098702
5852.797  5852.810  1.000  0.101366  46.0965  0.874792  0.099599
5856.564  5856.570  1.000  0.044902  45.9779  0.881200  0.102647
5860.355  5860.360  1.000  0.033953  45.8146  0.887074  0.100699
5864.151  5864.160  1.000  0.057975  45.6164  0.890862  0.102589
5867.977  5867.980  1.000  0.023003  45.1194  0.887910  0.103566
5871.809  5871.820  1.000  0.085275  35.4324  0.701210  0.083766
5875.676  5875.680  1.000  0.000000  46.2436  0.919888  0.108398
5879.557  5879.560  1.000  0.032629  45.9711  0.917158  0.104925
5883.450  5883.460  1.000  0.050987  45.7634  0.911396  0.106163
5887.368  5887.380  1.000  0.052718  45.5916  0.891874  0.104017
5891.296  5891.310  1.000  0.022507  45.4636  0.809619  0.093570
5895.259  5895.270  1.000  0.022408  45.3303  0.406661  0.052438
5899.239  5899.240  1.000  0.000000  45.1605  0.392727  0.050873
5903.227  5903.240  1.000  0.022875  45.0212  0.627432  0.076108
5907.242  5907.250  1.000  0.068764  44.8566  0.681013  0.083167
5911.279  5911.280  1.000  0.045722  44.6294  0.686291  0.085907
5915.318  5915.330  1.000  0.023215  44.11  0.685199  0.085307
5919.400  5919.400  1.000  0.000000  35.6836  0.531572  0.067178
5923.486  5923.490  1.000  0.000000  44.6689  0.625880  0.076265
5927.595  5927.600  1.000  0.125016  44.1994  0.609699  0.076299
5931.718  5931.720  1.000  0.066031  39.4431  0.570916  0.071857
5935.872  5935.870  1.000  0.000000  44.1929  0.683932  0.085844
5940.025  5940.030  1.000  0.084055  43.5138  0.698417  0.086074