File: xdidata/La/La-L3-LanthanumHydroxide.xdi
# XDI/1.0 BlueSky/1.10.0 BMM/2023-1.0-py310-tiled
# Beamline.name: BMM (06BM) -- Beamline for Materials Measurement (NIST)
# Beamline.xray_source: NSLS-II three-pole wiggler
# Beamline.collimation: paraboloid mirror, 5 nm Rh on 30 nm Pt
# Beamline.focusing: not in use
# Beamline.harmonic_rejection: flat mirror, Si stripe, pitch = 7.0 mrad relative to beam
# Beamline.software: Bluesky 1.10.0, Ophyd 1.7.0, DataBroker 2.0.0b13, Python 3.10.8, 2023-1.0-py310-tiled
# Detector.I0: 10 cm N2
# Detector.I1: 25 cm N2
# Detector.I2: 25 cm N2
# Element.symbol: La
# Element.edge: L3
# Element.reference: La
# Element.reference_material: La(OH)3
# Facility.name: NSLS-II
# Facility.energy: 3.0
# Facility.current: 399.8
# Facility.mode: top-off
# Facility.GUP: 301027
# Facility.SAF: 310583
# Facility.cycle: 2023-2
# Mono.name: Si(111)
# Mono.d_spacing: 3.13519
# Mono.encoder_resolution: 0.0000050 deg/ct
# Mono.angle_offset: 16.0754 deg
# Mono.scan_mode: pseudo channel cut
# Mono.scan_type: step
# Mono.direction: forward in energy
# Sample.name: La(OH)3
# Sample.prep: PEG pellet
# Sample.x: 109.138 mm
# Sample.y: 153.150 mm
# Sample.SDD_position: 205.000 mm
# Scan.experimenters: Bruce Ravel
# Scan.edge_energy: 5482.7
# Scan.start_time: 2023-05-28T11:16:01
# Scan.end_time: 2023-05-28T11:22:05
# Scan.transient_id: 78630
# Scan.uid: 146b8c55-6538-4a3a-bc86-e2f344adfa26
# Scan.plot_hint: ln(It/Ir)  --  ln($6/$7)
# Column.1: energy eV
# Column.2: requested_energy eV
# Column.3: measurement_time seconds
# Column.4: xmu
# Column.5: I0 nA
# Column.6: It nA
# Column.7: Ir nA
# ///////////
# sample courtesy Martin Stennett, University of Sheffield
# -----------
# energy  requested_energy  measurement_time  xmu  I0  It  Ir
  5282.709  5282.700  0.500  4.143048  99.7448  36.3051  0.576321
  5292.709  5292.700  0.500  4.119724  100.525  36.9865  0.600994
  5302.695  5302.700  0.500  4.096540  101.116  37.5514  0.624485
  5312.707  5312.700  0.500  4.073910  101.718  38.1426  0.648834
  5322.714  5322.700  0.500  4.051466  102.299  38.7105  0.673441
  5332.712  5332.700  0.500  4.028551  102.851  39.2682  0.698978
  5342.710  5342.700  0.500  4.006783  103.382  39.8436  0.724827
  5352.707  5352.700  0.500  3.984389  103.888  40.3959  0.751517
  5362.708  5362.700  0.500  3.962545  104.424  40.9559  0.778762
  5372.709  5372.700  0.500  3.940512  104.898  41.5  0.806687
  5382.704  5382.700  0.500  3.919248  104.529  41.7205  0.828403
  5392.706  5392.700  0.500  3.897717  105.043  42.3027  0.858245
  5402.714  5402.700  0.500  3.876296  105.497  42.8632  0.888445
  5412.711  5412.700  0.500  3.855813  105.741  43.3388  0.916892
  5422.709  5422.700  0.500  3.834747  106.108  43.8628  0.947734
  5432.709  5432.700  0.500  3.815122  106.458  44.4079  0.978528
  5442.707  5442.700  0.500  3.795427  106.796  44.9167  1.009426
  5452.705  5452.700  0.500  3.778537  107.071  45.4161  1.038034
  5454.711  5454.700  0.500  3.775731  107.18  45.5507  1.044037
  5456.703  5456.700  0.500  3.772962  107.218  45.6495  1.049202
  5458.706  5458.700  0.500  3.770708  107.255  45.7431  1.053725
  5460.709  5460.700  0.500  3.767926  107.358  45.8395  1.058889
  5462.709  5462.700  0.500  3.766573  107.449  45.9658  1.063244
  5464.702  5464.700  0.500  3.765978  107.462  46.0561  1.065968
  5466.701  5466.700  0.500  3.765418  107.501  46.1535  1.068820
  5468.698  5468.700  0.500  3.766598  107.552  46.258  1.069976
  5470.699  5470.700  0.500  3.768926  107.559  46.3279  1.069102
  5472.701  5472.700  0.500  3.774071  107.624  46.4325  1.066018
  5472.995  5473.000  0.500  3.775154  107.619  46.4344  1.064906
  5473.293  5473.300  0.500  3.776591  107.641  46.4706  1.064206
  5473.590  5473.600  0.500  3.777528  107.639  46.4783  1.063386
  5473.892  5473.900  0.500  3.779172  107.638  46.4828  1.061742
  5474.192  5474.200  0.500  3.780578  107.622  46.4931  1.060484
  5474.493  5474.500  0.500  3.781843  107.66  46.5198  1.059752
  5474.790  5474.800  0.500  3.783703  107.659  46.5311  1.058040
  5475.092  5475.100  0.500  3.785840  107.702  46.5734  1.056741
  5475.392  5475.400  0.500  3.788037  107.673  46.5881  1.054755
  5475.692  5475.700  0.500  3.789656  107.683  46.5941  1.053184
  5475.990  5476.000  0.500  3.792164  107.663  46.5935  1.050533
  5476.293  5476.300  0.500  3.794851  107.681  46.6099  1.048082
  5476.593  5476.600  0.500  3.797740  107.679  46.6388  1.045706
  5476.893  5476.900  0.500  3.800682  107.688  46.6362  1.042575
  5477.196  5477.200  0.500  3.803909  107.726  46.667  1.039903
  5477.493  5477.500  0.500  3.807646  107.722  46.6986  1.036726
  5477.794  5477.800  0.500  3.811291  107.735  46.6866  1.032690
  5478.093  5478.100  0.500  3.815298  107.739  46.6643  1.028069
  5478.394  5478.400  0.500  3.820326  107.709  46.659  1.022796
  5478.694  5478.700  0.500  3.824996  107.703  46.6618  1.018091
  5478.996  5479.000  0.500  3.830953  107.726  46.6775  1.012386
  5479.297  5479.300  0.500  3.837261  107.707  46.7165  1.006859
  5479.596  5479.600  0.500  3.843965  107.669  46.7293  1.000407
  5479.899  5479.900  0.500  3.851761  107.719  46.7701  0.993506
  5480.194  5480.200  0.500  3.860256  107.753  46.7983  0.985694
  5480.493  5480.500  0.500  3.869257  107.737  46.7889  0.976666
  5480.795  5480.800  0.500  3.880257  107.722  46.8005  0.966219
  5481.094  5481.100  0.500  3.892496  107.773  46.8646  0.955775
  5481.397  5481.400  0.500  3.906111  107.767  46.8712  0.942982
  5481.699  5481.700  0.500  3.920844  107.782  46.8777  0.929321
  5481.998  5482.000  0.500  3.939059  107.785  46.8569  0.912141
  5482.300  5482.300  0.500  3.959744  107.75  46.8565  0.893459
  5482.597  5482.600  0.500  3.982561  108.112  47.0477  0.876868
  5482.895  5482.900  0.500  4.007721  108.114  47.0642  0.855381
  5483.198  5483.200  0.500  4.035254  108.171  47.0737  0.832318
  5483.497  5483.500  0.500  4.063451  108.179  47.1077  0.809763
  5483.799  5483.800  0.500  4.091611  108.138  47.0952  0.787069
  5484.100  5484.100  0.500  4.118668  108.184  47.1247  0.766538
  5484.398  5484.400  0.500  4.148322  108.167  47.1459  0.744476
  5484.700  5484.700  0.500  4.183057  108.172  47.1572  0.719232
  5484.996  5485.000  0.500  4.223650  108.201  47.1761  0.690898
  5485.298  5485.300  0.500  4.273708  108.191  47.1392  0.656652
  5485.594  5485.600  0.500  4.333631  108.208  47.1451  0.618535
  5485.898  5485.900  0.500  4.409842  108.172  47.1419  0.573109
  5486.200  5486.200  0.500  4.501157  108.213  47.2095  0.523843
  5486.500  5486.500  0.500  4.606407  108.203  47.2287  0.471704
  5486.800  5486.800  0.500  4.734357  108.234  47.2563  0.415293
  5487.099  5487.100  0.500  4.892001  108.243  47.2959  0.355021
  5487.400  5487.400  0.500  5.077572  108.189  47.2367  0.294522
  5487.695  5487.700  0.500  5.285984  108.231  47.2664  0.239265
  5487.999  5488.000  0.500  5.529175  108.255  47.2643  0.187604
  5488.300  5488.300  0.500  5.794008  108.265  47.3032  0.144074
  5488.603  5488.600  0.500  6.067250  108.26  47.3342  0.109699
  5488.902  5488.900  0.500  6.316962  108.275  47.3345  0.085459
  5489.199  5489.200  0.500  6.523347  108.315  47.3361  0.069525
  5489.501  5489.500  0.500  6.675958  108.298  47.3678  0.059724
  5489.799  5489.800  0.500  6.748904  108.321  47.3736  0.055530
  5490.099  5490.100  0.500  6.743275  108.303  47.4005  0.055875
  5490.400  5490.400  0.500  6.672883  108.29  47.3854  0.059931
  5490.702  5490.700  0.500  6.550594  108.295  47.4049  0.067754
  5491.000  5491.000  0.500  6.398903  108.307  47.4428  0.078915
  5491.298  5491.300  0.500  6.240248  108.249  47.415  0.092429
  5491.601  5491.600  0.500  6.080871  108.277  47.4225  0.108417
  5491.899  5491.900  0.500  5.923945  108.268  47.4535  0.126920
  5492.197  5492.200  0.500  5.770793  108.291  47.4772  0.148000
  5492.500  5492.500  0.500  5.629712  108.338  47.4999  0.170506
  5492.801  5492.800  0.500  5.502489  108.291  47.4844  0.193576
  5493.104  5493.100  0.500  5.384436  108.349  47.5283  0.218033
  5493.401  5493.400  0.500  5.279085  108.314  47.5265  0.242247
  5493.699  5493.700  0.500  5.184769  108.338  47.5547  0.266365
  5494.001  5494.000  0.500  5.103961  108.347  47.5718  0.288886
  5494.298  5494.300  0.500  5.033111  108.387  47.5944  0.310244
  5494.603  5494.600  0.500  4.969454  108.319  47.5887  0.330596
  5494.902  5494.900  0.500  4.914570  108.486  47.69  0.349991
  5495.203  5495.200  0.500  4.868319  108.496  47.705  0.366674
  5495.499  5495.500  0.500  4.827273  108.439  47.6877  0.381899
  5495.799  5495.800  0.500  4.789775  108.371  47.6656  0.396307
  5496.102  5496.100  0.500  4.754383  108.352  47.6601  0.410537
  5496.403  5496.400  0.500  4.723144  108.336  47.6965  0.423888
  5496.703  5496.700  0.500  4.693743  108.331  47.7158  0.436713
  5497.003  5497.000  0.500  4.666679  108.338  47.6917  0.448467
  5497.304  5497.300  0.500  4.642534  108.345  47.711  0.459612
  5497.600  5497.600  0.500  4.623189  108.328  47.6858  0.468342
  5497.905  5497.900  0.500  4.608216  108.334  47.7051  0.475600
  5498.203  5498.200  0.500  4.596820  108.394  47.7685  0.481690
  5498.502  5498.500  0.500  4.589504  108.405  47.81  0.485649
  5498.806  5498.800  0.500  4.585896  108.394  47.7943  0.487244
  5499.107  5499.100  0.500  4.584626  108.39  47.7992  0.487914
  5499.402  5499.400  0.500  4.585957  108.377  47.8028  0.487301
  5499.705  5499.700  0.500  4.586788  108.387  47.838  0.487254
  5500.009  5500.000  0.500  4.587887  108.24  47.776  0.486089
  5500.304  5500.300  0.500  4.586372  108.332  47.788  0.486949
  5500.599  5500.600  0.500  4.584189  108.381  47.8139  0.488277
  5500.903  5500.900  0.500  4.579695  108.309  47.8103  0.490439
  5501.201  5501.200  0.500  4.574547  108.36  47.8408  0.493285
  5501.503  5501.500  0.500  4.568085  108.353  47.8384  0.496458
  5501.805  5501.800  0.500  4.562192  108.345  47.8446  0.499457
  5502.104  5502.100  0.500  4.556581  108.351  47.8592  0.502420
  5502.401  5502.400  0.500  4.551200  108.37  47.887  0.505425
  5502.701  5502.700  0.500  4.545097  108.412  47.9293  0.508968
  5502.997  5503.000  0.500  4.538737  108.399  47.9473  0.512408
  5503.300  5503.300  0.500  4.532837  108.402  47.9607  0.515584
  5503.603  5503.600  0.500  4.525933  108.332  47.9363  0.518892
  5503.902  5503.900  0.500  4.518925  108.402  47.9746  0.522958
  5504.202  5504.200  0.500  4.511951  108.401  47.9969  0.526863
  5504.506  5504.500  0.500  4.504288  108.364  47.9965  0.530911
  5504.800  5504.800  0.500  4.497264  108.385  48.0143  0.534852
  5505.100  5505.100  0.500  4.491039  108.403  48.043  0.538513
  5505.402  5505.400  0.500  4.485261  108.427  48.0569  0.541790
  5505.697  5505.700  0.500  4.481278  108.387  48.0668  0.544066
  5506.001  5506.000  0.500  4.478031  108.393  48.0705  0.545876
  5506.304  5506.300  0.500  4.476855  108.32  48.0383  0.546152
  5506.600  5506.600  0.500  4.477311  108.431  48.1078  0.546694
  5506.901  5506.900  0.500  4.479398  108.397  48.1154  0.545640
  5507.203  5507.200  0.500  4.482119  108.354  48.0894  0.543863
  5507.497  5507.500  0.500  4.486583  108.418  48.1242  0.541833
  5507.696  5507.700  0.500  4.489709  108.378  48.0937  0.539800
  5508.699  5508.690  0.500  4.506869  108.391  48.1557  0.531300
  5509.698  5509.690  0.500  4.528105  108.41  48.2267  0.520903
  5510.725  5510.710  0.500  4.555882  108.426  48.2549  0.506929
  5511.756  5511.760  0.500  4.585798  108.386  48.2895  0.492341
  5512.818  5512.820  0.500  4.614779  108.408  48.3427  0.478804
  5513.898  5513.900  0.500  4.644739  108.421  48.3869  0.465096
  5515.005  5515.000  0.500  4.678925  108.467  48.447  0.450024
  5516.121  5516.120  0.500  4.711764  108.464  48.5059  0.436015
  5517.266  5517.260  0.500  4.740655  108.46  48.5342  0.423845
  5518.409  5518.410  0.500  4.760565  108.463  48.5814  0.415894
  5519.594  5519.590  0.500  4.773507  108.458  48.6317  0.410971
  5520.780  5520.780  0.500  4.776095  108.516  48.7072  0.410546
  5522.006  5522.000  0.500  4.770586  108.512  48.7525  0.413198
  5523.231  5523.230  0.500  4.756246  108.481  48.803  0.419599
  5524.484  5524.480  0.500  4.735053  108.465  48.8612  0.429098
  5525.750  5525.750  0.500  4.711450  108.583  48.9411  0.440065
  5527.044  5527.040  0.500  4.686123  108.545  48.9539  0.451471
  5528.356  5528.350  0.500  4.657765  108.575  49.0032  0.464926
  5529.681  5529.680  0.500  4.628636  108.58  49.0673  0.479293
  5531.038  5531.030  0.500  4.599461  108.568  49.1268  0.494081
  5532.405  5532.400  0.500  4.572426  108.574  49.1858  0.508230
  5533.787  5533.780  0.500  4.550008  108.585  49.2159  0.520070
  5535.196  5535.190  0.500  4.532951  108.621  49.2832  0.529741
  5536.619  5536.610  0.500  4.522336  108.607  49.3491  0.536109
  5538.052  5538.050  0.500  4.517015  108.615  49.4154  0.539694
  5539.511  5539.510  0.500  4.515738  108.655  49.4886  0.541184
  5540.993  5540.990  0.500  4.512670  108.664  49.5488  0.543507
  5542.494  5542.490  0.500  4.509566  108.673  49.5927  0.545680
  5544.019  5544.010  0.500  4.506631  108.661  49.6746  0.548187
  5545.557  5545.550  0.500  4.506999  108.673  49.7512  0.548831
  5547.114  5547.110  0.500  4.509714  108.711  49.8219  0.548121
  5548.686  5548.680  0.500  4.514364  108.672  49.8572  0.545965
  5550.290  5550.280  0.500  4.520353  108.704  49.9461  0.543672
  5551.900  5551.890  0.500  4.526696  108.732  50.0213  0.541048
  5553.539  5553.530  0.500  4.534902  108.696  50.0584  0.537025
  5555.187  5555.180  0.500  4.546138  108.716  50.1363  0.531851
  5556.861  5556.850  0.500  4.559059  108.75  50.2135  0.525831
  5558.545  5558.540  0.500  4.570665  108.671  50.2321  0.519956
  5560.261  5560.250  0.500  4.579472  108.707  50.3229  0.516329
  5561.988  5561.980  0.500  4.584252  108.678  50.3705  0.514353
  5563.744  5563.730  0.500  4.585099  108.783  50.5042  0.515281
  5565.499  5565.490  0.500  4.582843  108.758  50.5561  0.516975
  5567.287  5567.280  0.500  4.579489  108.76  50.6143  0.519309
  5569.092  5569.080  0.500  4.575362  108.753  50.6932  0.522270
  5570.921  5570.910  0.500  4.566940  108.736  50.7618  0.527401
  5572.762  5572.750  0.500  4.555883  108.705  50.81  0.533770
  5574.620  5574.610  0.500  4.542887  108.773  50.8992  0.541702
  5576.495  5576.490  0.500  4.529383  108.792  50.9746  0.549880
  5578.399  5578.390  0.500  4.516650  108.778  51.0215  0.557439
  5580.318  5580.310  0.500  4.503263  108.764  51.1254  0.566102
  5582.257  5582.250  0.500  4.489312  108.793  51.2255  0.575179
  5584.222  5584.210  0.500  4.477688  108.769  51.3154  0.582924
  5586.189  5586.180  0.500  4.471249  108.814  51.3882  0.587523
  5588.194  5588.180  0.500  4.468502  108.766  51.4494  0.589841
  5590.202  5590.190  0.500  4.464866  108.758  51.4799  0.592340
  5592.229  5592.220  0.500  4.463757  108.783  51.5704  0.594040
  5594.297  5594.280  0.500  4.461393  108.764  51.644  0.596295
  5596.359  5596.350  0.500  4.461429  108.758  51.73  0.597268
  5598.449  5598.440  0.500  4.459681  108.79  51.8282  0.599448
  5600.566  5600.550  0.500  4.457128  108.779  51.9211  0.602057
  5602.690  5602.680  0.500  4.456832  108.711  51.9886  0.603018
  5604.837  5604.820  0.500  4.458458  108.755  52.0878  0.603188
  5607.001  5606.990  0.500  4.462662  108.771  52.209  0.602055
  5609.192  5609.180  0.500  4.461973  108.801  52.3011  0.603533
  5611.387  5611.380  0.500  4.456972  108.759  52.3298  0.606891
  5613.612  5613.600  0.500  4.450169  108.773  52.4095  0.611965
  5615.859  5615.850  0.500  4.447609  108.828  52.5462  0.615133
  5618.128  5618.110  0.500  4.441634  108.823  52.6465  0.620001
  5620.407  5620.390  0.500  4.437663  108.826  52.7478  0.623665
  5622.708  5622.690  0.500  4.437163  108.837  52.8511  0.625199
  5625.021  5625.010  0.500  4.435274  108.737  52.9021  0.626987
  5627.368  5627.350  0.500  4.430742  108.732  52.9941  0.630930
  5629.712  5629.700  0.500  4.425752  109.121  53.2492  0.637138
  5632.096  5632.080  0.500  4.420847  109.151  53.3716  0.641742
  5634.486  5634.470  0.500  4.416295  109.171  53.4518  0.645639
  5636.908  5636.890  0.500  4.409936  109.145  53.5067  0.650425
  5639.328  5639.320  0.500  4.403155  109.173  53.6444  0.656535
  5641.774  5641.770  0.500  4.393977  109.212  53.7568  0.663977
  5644.261  5644.250  0.500  4.383700  109.199  53.8582  0.672102
  5646.750  5646.740  0.500  4.372955  109.164  53.9399  0.680393
  5649.258  5649.250  0.500  4.363523  109.167  54.0455  0.688185
  5651.779  5651.770  0.500  4.356217  109.142  54.1253  0.694255
  5654.328  5654.320  0.500  4.349681  109.081  54.1626  0.699290
  5656.895  5656.890  0.500  4.343910  109.122  54.3087  0.705234
  5659.475  5659.470  0.500  4.339369  109.051  54.3712  0.709259
  5662.087  5662.080  0.500  4.336390  109.043  54.4856  0.712871
  5664.707  5664.700  0.500  4.333937  109.064  54.6061  0.716204
  5667.355  5667.350  0.500  4.332126  108.932  54.683  0.718511
  5670.014  5670.010  0.500  4.327907  109.021  54.8053  0.723164
  5672.697  5672.690  0.500  4.323037  108.867  54.7984  0.726602
  5675.395  5675.390  0.500  4.318009  108.939  54.9462  0.732234
  5678.114  5678.110  0.500  4.311709  108.862  55.0199  0.737851
  5680.853  5680.850  0.500  4.306994  108.851  55.1223  0.742718
  5683.601  5683.600  0.500  4.302717  108.743  55.2038  0.747003
  5686.381  5686.380  0.500  4.297578  108.768  55.3185  0.752412
  5689.174  5689.170  0.500  4.292164  108.732  55.4138  0.757800
  5691.993  5691.990  0.500  4.286425  108.595  55.4473  0.762623
  5694.820  5694.820  0.500  4.282561  108.481  55.4977  0.766271
  5697.667  5697.670  0.500  4.278258  108.512  55.6206  0.771280
  5700.548  5700.550  0.500  4.272862  108.346  55.6508  0.775873
  5703.442  5703.440  0.500  4.268683  108.245  55.7095  0.779945
  5706.354  5706.350  0.500  4.264792  108.229  55.8613  0.785118
  5709.274  5709.270  0.500  4.260881  108.122  55.8772  0.788420
  5712.222  5712.220  0.500  4.257037  108.054  55.9617  0.792653
  5715.187  5715.190  0.500  4.251557  107.906  56.0091  0.797684
  5718.174  5718.170  0.500  4.244804  107.772  56.0632  0.803865
  5721.186  5721.180  0.500  4.238463  107.634  56.0959  0.809450
  5724.202  5724.200  0.500  4.230184  107.481  56.1152  0.816459
  5727.248  5727.250  0.500  4.221145  107.373  56.2041  0.825178
  5730.314  5730.310  0.500  4.211949  107.241  56.2503  0.833487
  5733.393  5733.390  0.500  4.203439  107.043  56.2682  0.840877
  5736.492  5736.490  0.500  4.194423  106.874  56.3038  0.849029
  5739.612  5739.610  0.500  4.187517  106.665  56.3125  0.855046
  5742.754  5742.750  0.500  4.180975  106.484  56.353  0.861276
  5745.906  5745.900  0.500  4.175793  106.322  56.3779  0.866133
  5749.082  5749.080  0.500  4.171722  106.121  56.3945  0.869923
  5752.274  5752.270  0.500  4.167121  105.869  56.398  0.873990
  5755.496  5755.490  0.500  4.163585  105.576  56.3503  0.876343
  5758.723  5758.720  0.500  4.158626  105.455  56.3967  0.881425
  5761.971  5761.970  0.500  4.154357  105.183  56.3849  0.885011
  5765.254  5765.250  0.500  4.148490  104.931  56.3676  0.889945
  5768.543  5768.540  0.500  4.140961  104.718  56.3644  0.896620
  5771.852  5771.850  0.500  4.133056  104.38  56.3127  0.902906
  5775.175  5775.170  0.500  4.126377  104.178  56.3286  0.909215
  5778.529  5778.520  0.500  4.118750  103.883  56.3041  0.915777
  5781.898  5781.890  0.500  4.111926  103.596  56.2698  0.921486
  5785.280  5785.270  0.500  4.104504  103.28  56.208  0.927330
  5788.683  5788.680  0.500  4.096933  102.982  56.1868  0.934026
  5792.113  5792.100  0.500  4.089876  102.704  56.1484  0.939997
  5795.575  5795.550  0.500  4.083566  102.369  56.1102  0.945304
  5799.026  5799.010  0.500  4.077554  101.992  56.0336  0.949706
  5802.484  5802.490  0.500  4.071482  101.696  55.9976  0.954876
  5805.980  5805.990  0.500  4.065604  101.362  55.94  0.959519
  5809.506  5809.510  0.500  4.060364  101.05  55.895  0.963783
  5813.039  5813.050  0.500  4.053882  100.651  55.809  0.968558
  5816.598  5816.600  0.500  4.047931  100.394  55.7878  0.973969
  5820.190  5820.180  0.500  4.040888  100.036  55.7139  0.979554
  5823.793  5823.780  0.500  4.033102  99.6788  55.6566  0.986195
  5827.384  5827.390  0.500  4.024473  99.2865  55.5767  0.993315
  5831.009  5831.020  0.500  4.015376  98.9399  55.486  1.000755
  5834.670  5834.680  0.500  4.006122  98.6122  55.4187  1.008834
  5838.363  5838.350  0.500  3.997987  98.2584  55.3783  1.016333
  5842.029  5842.040  0.500  3.990261  97.934  55.3346  1.023406
  5845.752  5845.750  0.500  3.982746  97.5285  55.2419  1.029399
  5849.473  5849.480  0.500  3.975615  97.183  55.1699  1.035415
  5853.206  5853.220  0.500  3.968630  96.7778  55.0659  1.040707
  5856.983  5856.990  0.500  3.961433  96.4369  55.0061  1.047086
  5860.780  5860.780  0.500  3.954513  95.9656  54.8432  1.051234
  5864.601  5864.580  0.500  3.947861  95.4553  54.6735  1.054976
  5868.422  5868.410  0.500  3.942260  94.537  54.2736  1.053142
  5872.244  5872.250  0.500  3.937030  89.3462  51.4202  1.003006