File: xdidata/La/La-L1-LanthanumNickelate.xdi
# XDI/1.0 BlueSky/1.10.0 BMM/2023-1.0-py310-tiled
# Beamline.name: BMM (06BM) -- Beamline for Materials Measurement (NIST)
# Beamline.xray_source: NSLS-II three-pole wiggler
# Beamline.collimation: paraboloid mirror, 5 nm Rh on 30 nm Pt
# Beamline.focusing: not in use
# Beamline.harmonic_rejection: flat mirror, Si stripe, pitch = 7.0 mrad relative to beam
# Beamline.software: Bluesky 1.10.0, Ophyd 1.7.0, DataBroker 2.0.0b13, Python 3.10.8, 2023-1.0-py310-tiled
# Detector.I0: 10 cm N2
# Detector.I1: 25 cm N2
# Detector.I2: 25 cm N2
# Element.symbol: La
# Element.edge: L1
# Element.reference: La
# Element.reference_material: La(OH)3
# Facility.name: NSLS-II
# Facility.energy: 3.0
# Facility.current: 399.2
# Facility.mode: top-off
# Facility.GUP: 301027
# Facility.SAF: 310583
# Facility.cycle: 2023-2
# Mono.name: Si(111)
# Mono.d_spacing: 3.13519
# Mono.encoder_resolution: 0.0000050 deg/ct
# Mono.angle_offset: 16.0754 deg
# Mono.scan_mode: pseudo channel cut
# Mono.scan_type: step
# Mono.direction: forward in energy
# Sample.name: LaNiO3
# Sample.prep: powder in PEG pellet
# Sample.x: 117.785 mm
# Sample.y: 114.695 mm
# Sample.SDD_position: 205.000 mm
# Scan.experimenters: Bruce Ravel
# Scan.edge_energy: 6266.3
# Scan.start_time: 2023-06-23T14:42:27
# Scan.end_time: 2023-06-23T14:50:28
# Scan.transient_id: 84821
# Scan.uid: 6208df65-973b-47a1-9b19-a8dc28e2cbd2
# Scan.plot_hint: ln(I0/It)  --  ln($5/$6)
# Column.1: energy eV
# Column.2: requested_energy eV
# Column.3: measurement_time seconds
# Column.4: xmu
# Column.5: I0 nA
# Column.6: It nA
# Column.7: Ir nA
# ///////////
# sample courtesy Martin Stennett, University of Sheffield
# -----------
# energy  requested_energy  measurement_time  xmu  I0  It  Ir
  6066.307  6066.300  0.500  6.244465  142.945  0.277480  0.007226
  6076.303  6076.300  0.500  6.217176  143.392  0.286049  0.007597
  6086.308  6086.300  0.500  6.174504  143.774  0.299314  0.007898
  6096.304  6096.300  0.500  6.129847  144.199  0.313910  0.008308
  6106.312  6106.300  0.500  6.120364  144.575  0.317726  0.008486
  6116.314  6116.300  0.500  6.121004  144.915  0.318270  0.008658
  6126.307  6126.300  0.500  6.095199  145.314  0.327489  0.009025
  6136.314  6136.300  0.500  6.062666  145.687  0.339186  0.009412
  6146.315  6146.300  0.500  6.025489  146.008  0.352808  0.009882
  6156.308  6156.300  0.500  5.989314  146.264  0.366448  0.010320
  6166.304  6166.300  0.500  5.968197  146.528  0.374944  0.010684
  6176.304  6176.300  0.500  5.952966  145.965  0.379235  0.010985
  6186.302  6186.300  0.500  5.928120  146.325  0.389734  0.011565
  6196.302  6196.300  0.500  5.907176  146.69  0.398976  0.011792
  6206.300  6206.300  0.500  5.878062  146.976  0.411564  0.012140
  6216.304  6216.300  0.500  5.846084  147.252  0.425735  0.012882
  6226.304  6226.300  0.500  5.822616  147.52  0.436636  0.013314
  6236.302  6236.300  0.500  5.807116  147.766  0.444196  0.013568
  6238.323  6238.300  0.500  5.804049  147.879  0.445903  0.013663
  6240.314  6240.300  0.500  5.799575  147.929  0.448053  0.013848
  6242.298  6242.300  0.500  5.795331  147.963  0.450063  0.014028
  6244.301  6244.300  0.500  5.790847  148.025  0.452274  0.013943
  6246.298  6246.300  0.500  5.785515  148.029  0.454705  0.014184
  6248.293  6248.300  0.500  5.781043  148.101  0.456966  0.014302
  6250.299  6250.300  0.500  5.775196  148.15  0.459795  0.014475
  6252.298  6252.300  0.500  5.770857  148.19  0.461920  0.014549
  6254.294  6254.300  0.500  5.766865  148.216  0.463850  0.014498
  6256.301  6256.300  0.500  5.763386  148.306  0.465749  0.014523
  6256.586  6256.600  0.500  5.762649  148.271  0.465981  0.014607
  6256.884  6256.900  0.500  5.762155  148.306  0.466321  0.014633
  6257.184  6257.200  0.500  5.761808  148.294  0.466447  0.014558
  6257.486  6257.500  0.500  5.761276  148.368  0.466927  0.014653
  6257.788  6257.800  0.500  5.760297  148.343  0.467305  0.014754
  6258.085  6258.100  0.500  5.759967  148.303  0.467334  0.014658
  6258.390  6258.400  0.500  5.759467  148.296  0.467548  0.014763
  6258.687  6258.700  0.500  5.759150  148.742  0.469101  0.014891
  6258.990  6259.000  0.500  5.758760  148.859  0.469655  0.014755
  6259.287  6259.300  0.500  5.758395  148.932  0.470055  0.014740
  6259.590  6259.600  0.500  5.758155  148.913  0.470107  0.014724
  6259.889  6259.900  0.500  5.757754  148.905  0.470272  0.014816
  6260.189  6260.200  0.500  5.757397  148.907  0.470445  0.014962
  6260.485  6260.500  0.500  5.757414  148.913  0.470455  0.014836
  6260.788  6260.800  0.500  5.756915  148.919  0.470710  0.014759
  6261.089  6261.100  0.500  5.756225  148.92  0.471038  0.014809
  6261.393  6261.400  0.500  5.756738  148.89  0.470703  0.014854
  6261.693  6261.700  0.500  5.756248  148.927  0.471051  0.014805
  6261.993  6262.000  0.500  5.755885  148.936  0.471250  0.014838
  6262.291  6262.300  0.500  5.755877  148.944  0.471279  0.014923
  6262.595  6262.600  0.500  5.755968  148.966  0.471304  0.014710
  6262.893  6262.900  0.500  5.756002  148.915  0.471128  0.014880
  6263.191  6263.200  0.500  5.755765  148.969  0.471411  0.014923
  6263.488  6263.500  0.500  5.755830  148.912  0.471198  0.014917
  6263.797  6263.800  0.500  5.756393  148.974  0.471131  0.014907
  6264.098  6264.100  0.500  5.756796  148.94  0.470832  0.014834
  6264.398  6264.400  0.500  5.757397  148.995  0.470723  0.014791
  6264.696  6264.700  0.500  5.757463  148.994  0.470689  0.014813
  6264.995  6265.000  0.500  5.758685  148.944  0.469957  0.014879
  6265.299  6265.300  0.500  5.759638  148.994  0.469667  0.014810
  6265.600  6265.600  0.500  5.759687  149.001  0.469666  0.014802
  6265.899  6265.900  0.500  5.761008  148.996  0.469031  0.014749
  6266.197  6266.200  0.500  5.761739  148.978  0.468632  0.014814
  6266.493  6266.500  0.500  5.762422  148.998  0.468375  0.014781
  6266.796  6266.800  0.500  5.763384  149.01  0.467961  0.014720
  6267.098  6267.100  0.500  5.764510  148.99  0.467373  0.014854
  6267.399  6267.400  0.500  5.765536  149.042  0.467057  0.014781
  6267.699  6267.700  0.500  5.767731  149.006  0.465920  0.014703
  6268.000  6268.000  0.500  5.770061  149.048  0.464965  0.014705
  6268.298  6268.300  0.500  5.771259  149.07  0.464478  0.014616
  6268.600  6268.600  0.500  5.773701  149.04  0.463250  0.014361
  6268.898  6268.900  0.500  5.777249  149.062  0.461679  0.014555
  6269.193  6269.200  0.500  5.780902  149.034  0.459910  0.014331
  6269.497  6269.500  0.500  5.785616  149.132  0.458046  0.014231
  6269.804  6269.800  0.500  5.790049  149.102  0.455929  0.014222
  6270.102  6270.100  0.500  5.796395  149.129  0.453128  0.014169
  6270.401  6270.400  0.500  5.803603  149.156  0.449954  0.013946
  6270.699  6270.700  0.500  5.810977  149.197  0.446771  0.013821
  6271.004  6271.000  0.500  5.818419  149.184  0.443419  0.013627
  6271.299  6271.300  0.500  5.826512  149.202  0.439899  0.013567
  6271.599  6271.600  0.500  5.833413  149.22  0.436928  0.013490
  6271.899  6271.900  0.500  5.840573  149.19  0.433722  0.013320
  6272.202  6272.200  0.500  5.846599  149.222  0.431207  0.013284
  6272.502  6272.500  0.500  5.850722  149.246  0.429504  0.013042
  6272.805  6272.800  0.500  5.854182  149.248  0.428024  0.012976
  6273.105  6273.100  0.500  5.857815  149.246  0.426467  0.013014
  6273.401  6273.400  0.500  5.861238  149.248  0.425016  0.012939
  6273.698  6273.700  0.500  5.864883  149.311  0.423647  0.013060
  6274.002  6274.000  0.500  5.867833  149.335  0.422469  0.012757
  6274.295  6274.300  0.500  5.871210  149.316  0.420992  0.012794
  6274.600  6274.600  0.500  5.875549  149.396  0.419393  0.012763
  6274.904  6274.900  0.500  5.880133  149.403  0.417494  0.012645
  6275.202  6275.200  0.500  5.885229  149.413  0.415399  0.012470
  6275.499  6275.500  0.500  5.890476  149.414  0.413228  0.012286
  6275.804  6275.800  0.500  5.897958  149.446  0.410236  0.012216
  6276.104  6276.100  0.500  5.904914  149.459  0.407428  0.012147
  6276.400  6276.400  0.500  5.913679  149.485  0.403943  0.012076
  6276.697  6276.700  0.500  5.924334  149.498  0.399697  0.011832
  6277.002  6277.000  0.500  5.935472  149.515  0.395314  0.011581
  6277.298  6277.300  0.500  5.948200  149.553  0.390413  0.011606
  6277.605  6277.600  0.500  5.961746  149.562  0.385184  0.011257
  6277.902  6277.900  0.500  5.976938  149.615  0.379511  0.011040
  6278.201  6278.200  0.500  5.993233  149.611  0.373365  0.010869
  6278.503  6278.500  0.500  6.009590  149.598  0.367277  0.010588
  6278.803  6278.800  0.500  6.029089  149.656  0.360324  0.010258
  6279.096  6279.100  0.500  6.048245  149.656  0.353489  0.010012
  6279.399  6279.400  0.500  6.069078  149.704  0.346310  0.009745
  6279.700  6279.700  0.500  6.091736  149.683  0.338504  0.009558
  6280.006  6280.000  0.500  6.117066  149.723  0.330126  0.009252
  6280.300  6280.300  0.500  6.141362  149.772  0.322307  0.008913
  6280.607  6280.600  0.500  6.166356  149.817  0.314445  0.008643
  6280.903  6280.900  0.500  6.189792  149.826  0.307181  0.008387
  6281.204  6281.200  0.500  6.211769  149.822  0.300496  0.008089
  6281.496  6281.500  0.500  6.233187  149.866  0.294216  0.007816
  6281.802  6281.800  0.500  6.251842  149.86  0.288765  0.007640
  6282.096  6282.100  0.500  6.267572  149.875  0.284287  0.007525
  6282.400  6282.400  0.500  6.281552  149.889  0.280366  0.007444
  6282.706  6282.700  0.500  6.292093  149.9  0.277448  0.007437
  6283.004  6283.000  0.500  6.298719  149.947  0.275701  0.007150
  6283.302  6283.300  0.500  6.303744  149.91  0.274251  0.007161
  6283.603  6283.600  0.500  6.304823  149.91  0.273955  0.007051
  6283.899  6283.900  0.500  6.302905  149.968  0.274588  0.007135
  6284.200  6284.200  0.500  6.297305  149.963  0.276121  0.007105
  6284.499  6284.500  0.500  6.290255  149.984  0.278114  0.007146
  6284.800  6284.800  0.500  6.278912  150.001  0.281319  0.007299
  6285.102  6285.100  0.500  6.267157  149.991  0.284626  0.007319
  6285.403  6285.400  0.500  6.251665  150.018  0.289122  0.007536
  6285.704  6285.700  0.500  6.238488  150.019  0.292957  0.007544
  6286.009  6286.000  0.500  6.222484  150.013  0.297673  0.007751
  6286.300  6286.300  0.500  6.208911  150.028  0.301771  0.007735
  6286.600  6286.600  0.500  6.193837  150.022  0.306342  0.007951
  6286.899  6286.900  0.500  6.179244  150.066  0.310936  0.008142
  6287.204  6287.200  0.500  6.166498  150.049  0.314889  0.008177
  6287.501  6287.500  0.500  6.153911  150.048  0.318875  0.008388
  6287.804  6287.800  0.500  6.143276  150.082  0.322358  0.008370
  6288.103  6288.100  0.500  6.132600  150.077  0.325806  0.008515
  6288.405  6288.400  0.500  6.122550  150.096  0.329140  0.008573
  6288.707  6288.700  0.500  6.113838  150.117  0.332065  0.008692
  6289.010  6289.000  0.500  6.105962  150.11  0.334675  0.008789
  6289.303  6289.300  0.500  6.099541  150.076  0.336755  0.008982
  6289.603  6289.600  0.500  6.093214  150.136  0.339028  0.008959
  6289.903  6289.900  0.500  6.087684  150.131  0.340896  0.009143
  6290.203  6290.200  0.500  6.082414  150.152  0.342747  0.009198
  6290.506  6290.500  0.500  6.078575  150.163  0.344090  0.009113
  6290.808  6290.800  0.500  6.073496  150.187  0.345897  0.009161
  6291.107  6291.100  0.500  6.070499  150.173  0.346903  0.009178
  6291.301  6291.300  0.500  6.068868  150.119  0.347344  0.009382
  6292.304  6292.290  0.500  6.062667  150.21  0.349717  0.009365
  6293.301  6293.290  0.500  6.060608  150.204  0.350424  0.009569
  6294.330  6294.310  0.500  6.060914  150.254  0.350434  0.009608
  6295.358  6295.360  0.500  6.058293  150.259  0.351365  0.009602
  6296.411  6296.420  0.500  6.055524  150.275  0.352376  0.009649
  6297.498  6297.500  0.500  6.051614  150.316  0.353853  0.009752
  6298.595  6298.600  0.500  6.045817  150.301  0.355874  0.009910
  6299.719  6299.720  0.500  6.038284  150.329  0.358631  0.010138
  6300.860  6300.860  0.500  6.027597  150.343  0.362518  0.010192
  6302.008  6302.010  0.500  6.014074  150.369  0.367519  0.010527
  6303.195  6303.190  0.500  6.000233  150.373  0.372652  0.010708
  6304.385  6304.380  0.500  5.987838  150.402  0.377370  0.010824
  6305.610  6305.600  0.500  5.975820  150.425  0.381992  0.010995
  6306.835  6306.830  0.500  5.967191  150.471  0.385419  0.011125
  6308.089  6308.080  0.500  5.960300  150.481  0.388110  0.011141
  6309.356  6309.350  0.500  5.959089  150.51  0.388656  0.011342
  6310.646  6310.640  0.500  5.961654  150.505  0.387649  0.011376
  6311.957  6311.950  0.500  5.968212  150.545  0.385216  0.011258
  6313.285  6313.280  0.500  5.977983  150.554  0.381493  0.011081
  6314.638  6314.630  0.500  5.988398  150.613  0.377689  0.010851
  6316.007  6316.000  0.500  5.998404  150.593  0.373878  0.010706
  6317.392  6317.380  0.500  6.005507  150.679  0.371444  0.010600
  6318.798  6318.790  0.500  6.008715  150.656  0.370199  0.010634
  6320.217  6320.210  0.500  6.007122  150.67  0.370823  0.010654
  6321.659  6321.650  0.500  6.000796  150.719  0.373298  0.010651
  6323.120  6323.110  0.500  5.991330  150.767  0.376969  0.010790
  6324.596  6324.590  0.500  5.981872  150.777  0.380575  0.010856
  6326.102  6326.090  0.500  5.974185  150.8  0.383570  0.010926
  6327.617  6327.610  0.500  5.969882  150.804  0.385235  0.010989
  6329.154  6329.150  0.500  5.968932  150.842  0.385698  0.010959
  6330.723  6330.710  0.500  5.968871  150.866  0.385784  0.011058
  6332.287  6332.280  0.500  5.970420  150.89  0.385248  0.011029
  6333.892  6333.880  0.500  5.970660  150.932  0.385262  0.011005
  6335.500  6335.490  0.500  5.968606  150.954  0.386111  0.011143
  6337.136  6337.130  0.500  5.963785  150.979  0.388040  0.011159
  6338.791  6338.780  0.500  5.954442  151.025  0.391803  0.011283
  6340.459  6340.450  0.500  5.940973  150.98  0.396998  0.011488
  6342.150  6342.140  0.500  5.925308  151.029  0.403396  0.011833
  6343.863  6343.850  0.500  5.910025  151.078  0.409741  0.012123
  6345.586  6345.580  0.500  5.895329  151.105  0.415881  0.012194
  6347.340  6347.330  0.500  5.886844  151.143  0.419532  0.012341
  6349.103  6349.090  0.500  5.879673  151.169  0.422622  0.012670
  6350.885  6350.880  0.500  5.873958  151.191  0.425107  0.012707
  6352.694  6352.680  0.500  5.868497  151.245  0.427587  0.012906
  6354.522  6354.510  0.500  5.864703  151.239  0.429195  0.012921
  6356.359  6356.350  0.500  5.864460  151.31  0.429502  0.012926
  6358.222  6358.210  0.500  5.866116  151.367  0.428953  0.012899
  6360.101  6360.090  0.500  5.871550  151.338  0.426547  0.012974
  6361.999  6361.990  0.500  5.874656  151.429  0.425480  0.012807
  6363.918  6363.910  0.500  5.875190  151.435  0.425269  0.012819
  6365.866  6365.850  0.500  5.870998  151.519  0.427293  0.013025
  6367.822  6367.810  0.500  5.864134  151.54  0.430296  0.013055
  6369.787  6369.780  0.500  5.855452  151.535  0.434034  0.013215
  6371.790  6371.780  0.500  5.845787  151.577  0.438369  0.013325
  6373.800  6373.790  0.500  5.837226  151.62  0.442263  0.013377
  6375.831  6375.820  0.500  5.827205  151.626  0.446736  0.013568
  6377.889  6377.880  0.500  5.818558  151.69  0.450807  0.013774
  6379.961  6379.950  0.500  5.813110  151.744  0.453430  0.013797
  6382.051  6382.040  0.500  5.811663  151.74  0.454076  0.013851
  6384.162  6384.150  0.500  5.811690  151.73  0.454033  0.013880
  6386.293  6386.280  0.500  5.810633  151.777  0.454653  0.014025
  6388.426  6388.420  0.500  5.807249  151.818  0.456319  0.014137
  6390.600  6390.590  0.500  5.801033  152.07  0.459926  0.014287
  6392.788  6392.780  0.500  5.791926  152.372  0.465056  0.014539
  6394.991  6394.980  0.500  5.781760  152.373  0.469809  0.014515
  6397.213  6397.200  0.500  5.772412  152.438  0.474423  0.014748
  6399.459  6399.450  0.500  5.763682  152.469  0.478680  0.014954
  6401.719  6401.710  0.500  5.756357  152.456  0.482161  0.014920
  6403.997  6403.990  0.500  5.749416  152.486  0.485614  0.015030
  6406.298  6406.290  0.500  5.743861  152.495  0.488347  0.015278
  6408.616  6408.610  0.500  5.740403  152.556  0.490235  0.015485
  6410.962  6410.950  0.500  5.738199  152.6  0.491458  0.015462
  6413.311  6413.300  0.500  5.736703  152.543  0.492011  0.015553
  6415.685  6415.680  0.500  5.734251  152.65  0.493563  0.015830
  6418.076  6418.070  0.500  5.730354  152.669  0.495553  0.015822
  6420.491  6420.490  0.500  5.726256  152.692  0.497663  0.015946
  6422.933  6422.920  0.500  5.721801  152.696  0.499897  0.016041
  6425.380  6425.370  0.500  5.717326  152.746  0.502304  0.016150
  6427.856  6427.850  0.500  5.713224  152.721  0.504287  0.016366
  6430.347  6430.340  0.500  5.708053  152.731  0.506935  0.016455
  6432.854  6432.850  0.500  5.701852  152.684  0.509930  0.016526
  6435.377  6435.370  0.500  5.694292  152.66  0.513718  0.016720
  6437.924  6437.920  0.500  5.686696  152.736  0.517895  0.016951
  6440.496  6440.490  0.500  5.678341  152.795  0.522440  0.017001
  6443.080  6443.070  0.500  5.670053  152.822  0.526880  0.017305
  6445.686  6445.680  0.500  5.661352  152.871  0.531658  0.017430
  6448.307  6448.300  0.500  5.652989  152.101  0.533421  0.017580
  6450.950  6450.950  0.500  5.643820  152.805  0.540826  0.017919
  6453.616  6453.610  0.500  5.636154  152.931  0.545438  0.018125
  6456.296  6456.290  0.500  5.628077  153.018  0.550175  0.018198
  6458.999  6458.990  0.500  5.620103  151.758  0.550012  0.018286
  6461.721  6461.710  0.500  5.613802  152.891  0.557619  0.018638
  6464.463  6464.450  0.500  5.607552  151.659  0.556596  0.018565
  6467.208  6467.200  0.500  5.603451  152.794  0.563064  0.019029
  6469.988  6469.980  0.500  5.600590  152.928  0.565173  0.019188
  6472.778  6472.770  0.500  5.596951  152.998  0.567491  0.019251
  6475.598  6475.590  0.500  5.593174  152.452  0.567609  0.019309
  6478.429  6478.420  0.500  5.590146  153.01  0.571414  0.019520
  6481.278  6481.270  0.500  5.584921  153.03  0.574481  0.019678
  6484.160  6484.150  0.500  5.579373  153.03  0.577678  0.019852
  6487.051  6487.040  0.500  5.571831  153.103  0.582330  0.019984
  6489.964  6489.950  0.500  5.562696  153.104  0.587678  0.020188
  6492.880  6492.870  0.500  5.553515  153.102  0.593090  0.020601
  6495.832  6495.820  0.500  5.543725  153.121  0.599000  0.020895
  6498.797  6498.790  0.500  5.533308  153.154  0.605402  0.021117
  6501.780  6501.770  0.500  5.523466  153.128  0.611284  0.021530
  6504.796  6504.780  0.500  5.514376  153.143  0.616927  0.021757
  6507.832  6507.800  0.500  5.506495  153.123  0.621728  0.022021
  6510.886  6510.850  0.500  5.498763  153.097  0.626447  0.022239
  6513.950  6513.910  0.500  5.491602  153.105  0.630982  0.022561
  6517.024  6516.990  0.500  5.484454  153.142  0.635663  0.022665
  6520.105  6520.090  0.500  5.477675  153.166  0.640086  0.022900
  6523.250  6523.210  0.500  5.472196  153.218  0.643821  0.023049
  6526.372  6526.350  0.500  5.466649  153.212  0.647376  0.023389
  6529.522  6529.500  0.500  5.461541  153.223  0.650741  0.023618
  6532.678  6532.680  0.500  5.455784  153.236  0.654550  0.023709
  6535.909  6535.870  0.500  5.450114  153.209  0.658160  0.023926
  6539.127  6539.090  0.500  5.444276  153.184  0.661905  0.024223
  6542.343  6542.320  0.500  5.438251  153.197  0.665961  0.024412
  6545.568  6545.570  0.500  5.431452  153.205  0.670540  0.024661
  6548.836  6548.850  0.500  5.423476  153.154  0.675682  0.025021
  6552.140  6552.140  0.500  5.414881  153.146  0.681479  0.025251
  6555.451  6555.450  0.500  5.405514  153.126  0.687801  0.025493
  6558.798  6558.770  0.500  5.397341  153.107  0.693361  0.025980
  6561.960  6562.120  0.500  5.392156  152.997  0.696465  0.026145
  6565.501  6565.490  0.500  5.379424  153.066  0.705706  0.026696
  6568.854  6568.870  0.500  5.370085  153.08  0.712394  0.026968
  6572.310  6572.280  0.500  5.360041  153.02  0.719301  0.027342
  6575.721  6575.700  0.500  5.350558  153.066  0.726374  0.027906
  6579.159  6579.150  0.500  5.341266  153.027  0.732971  0.028094
  6582.624  6582.610  0.500  5.333420  153.031  0.738762  0.028456
  6586.094  6586.090  0.500  5.326064  152.775  0.742972  0.028689
  6589.622  6589.590  0.500  5.319192  153.01  0.749245  0.028963
  6593.143  6593.110  0.500  5.312583  152.988  0.754103  0.029447
  6596.644  6596.650  0.500  5.306778  152.978  0.758445  0.029774
  6600.214  6600.200  0.500  5.300519  152.946  0.763048  0.029949
  6603.809  6603.780  0.500  5.294286  152.559  0.765874  0.030251
  6607.412  6607.380  0.500  5.286507  152.908  0.773623  0.030711
  6611.014  6610.990  0.500  5.278489  152.904  0.779832  0.030982
  6614.640  6614.620  0.500  5.269532  152.862  0.786631  0.031554
  6618.313  6618.280  0.500  5.260449  152.83  0.793644  0.031905
  6621.966  6621.950  0.500  5.250997  152.822  0.801138  0.032264
  6625.670  6625.640  0.500  5.242518  152.777  0.807723  0.032577
  6629.346  6629.350  0.500  5.234661  152.779  0.814103  0.033092
  6633.098  6633.080  0.500  5.227047  152.778  0.820317  0.033428
  6636.807  6636.820  0.500  5.219226  152.73  0.826502  0.033748
  6640.576  6640.590  0.500  5.210505  152.677  0.833450  0.034299
  6644.365  6644.380  0.500  5.202262  152.615  0.840009  0.034773
  6648.160  6648.180  0.500  5.193062  152.623  0.847816  0.035155
  6652.053  6652.010  0.500  5.184192  152.604  0.855266  0.035784
  6655.836  6655.850  0.500  5.175597  152.484  0.861969  0.036059
  6659.694  6659.710  0.500  5.165771  152.493  0.870532  0.036605
  6663.637  6663.590  0.500  5.156354  152.489  0.878744  0.037209
  6667.468  6667.490  0.500  5.146902  152.45  0.886862  0.037682
  6671.428  6671.410  0.500  5.137887  152.445  0.894862  0.038066
  6675.338  6675.350  0.500  5.130070  152.373  0.901460  0.038616
  6679.351  6679.310  0.500  5.122193  152.327  0.908318  0.039178
  6683.297  6683.280  0.500  5.114694  152.354  0.915312  0.039682
  6687.258  6687.280  0.500  5.107247  152.293  0.921788  0.040066
  6691.274  6691.290  0.500  5.098458  152.271  0.929790  0.040562
  6695.371  6695.330  0.500  5.089693  152.165  0.937322  0.041046
  6699.421  6699.380  0.500  5.080831  152.135  0.945478  0.041679
  6703.432  6703.450  0.500  5.071970  152.113  0.953756  0.042176
  6707.514  6707.540  0.500  5.062995  152.041  0.961897  0.042649
  6711.621  6711.650  0.500  5.054836  151.997  0.969497  0.043283
  6715.781  6715.780  0.500  5.046301  151.996  0.977803  0.043767
  6719.963  6719.930  0.500  5.038809  151.916  0.984638  0.044316
  6724.080  6724.090  0.500  5.030210  151.827  0.992556  0.045068
  6728.265  6728.280  0.500  5.020780  151.837  1.002030  0.045563
  6732.473  6732.480  0.500  5.012244  151.777  1.010221  0.045998
  6736.690  6736.710  0.500  5.003101  151.738  1.019238  0.046704
  6740.942  6740.950  0.500  4.994080  151.643  1.027827  0.047439
  6745.185  6745.210  0.500  4.984070  151.629  1.038076  0.048222
  6749.460  6749.490  0.500  4.974397  151.563  1.047706  0.048835
  6753.799  6753.790  0.500  4.964402  151.564  1.058236  0.049545
  6758.085  6758.110  0.500  4.955050  151.504  1.067757  0.050238
  6762.425  6762.450  0.500  4.945846  151.443  1.077198  0.050987
  6766.792  6766.810  0.500  4.936896  151.392  1.086515  0.051633
  6771.170  6771.190  0.500  4.927834  151.334  1.095988  0.052378
  6775.561  6775.580  0.500  4.919040  151.315  1.105529  0.053122
  6779.990  6780.000  0.500  4.909638  151.271  1.115648  0.053827
  6784.402  6784.430  0.500  4.900624  151.181  1.125077  0.054633
  6788.857  6788.880  0.500  4.892572  151.083  1.133442  0.055102
  6793.328  6793.350  0.500  4.884641  150.522  1.138220  0.055572
  6797.814  6797.840  0.500  4.875822  150.769  1.150188  0.056753
  6802.329  6802.350  0.500  4.867006  150.955  1.161802  0.057356
  6806.859  6806.880  0.500  4.857389  150.988  1.173288  0.057957
  6811.410  6811.430  0.500  4.848417  141.164  1.106834  0.055243
  6815.971  6816.000  0.500  4.838118  150.22  1.190035  0.059847
  6820.560  6820.580  0.500  4.828352  150.55  1.204352  0.060575
  6825.163  6825.190  0.500  4.818640  148.523  1.199734  0.060849
  6829.784  6829.810  0.500  4.809473  149.791  1.221121  0.062120
  6834.442  6834.460  0.500  4.799424  149.697  1.232677  0.062963
  6839.100  6839.120  0.500  4.790152  148.569  1.234786  0.063663
  6843.781  6843.800  0.500  4.780832  149.41  1.253402  0.064912
  6848.477  6848.500  0.500  4.771496  149.455  1.265539  0.065730
  6853.193  6853.220  0.500  4.762252  149.398  1.276807  0.066807
  6857.944  6857.960  0.500  4.753012  149.367  1.288391  0.067650
  6862.683  6862.710  0.500  4.743666  149.186  1.298911  0.068542
  6867.468  6867.490  0.500  4.734410  149.249  1.311545  0.069637
  6872.265  6872.290  0.500  4.725279  149.196  1.323104  0.070538
  6877.070  6877.100  0.500  4.715884  149.13  1.335008  0.071512
  6881.905  6881.930  0.500  4.706926  149.043  1.346230  0.072472
  6886.772  6886.790  0.500  4.697523  148.929  1.357907  0.073540
  6891.644  6891.660  0.500  4.688030  148.856  1.370192  0.074678
  6896.535  6896.550  0.500  4.678600  148.734  1.382043  0.075524
  6901.433  6901.460  0.500  4.668928  148.609  1.394300  0.076635
  6906.363  6906.390  0.500  4.659865  148.463  1.405606  0.077869
  6911.306  6911.330  0.500  4.650108  148.306  1.417890  0.078784
  6916.271  6916.300  0.500  4.640265  148.108  1.430003  0.079870
  6921.264  6921.290  0.500  4.630464  147.869  1.441754  0.080932
  6926.288  6926.290  0.500  4.620649  147.688  1.454198  0.082141
  6931.306  6931.320  0.500  4.610703  147.576  1.467616  0.083380
  6936.334  6936.360  0.500  4.600621  147.38  1.480519  0.084479
  6941.391  6941.420  0.500  4.591052  147.247  1.493403  0.085647
  6946.479  6946.500  0.500  4.580959  147.069  1.506735  0.086906
  6951.593  6951.600  0.500  4.571237  146.868  1.519374  0.088124
  6956.702  6956.720  0.500  4.561897  146.723  1.532111  0.089143
  6961.830  6961.860  0.500  4.552255  146.564  1.545281  0.090508
  6966.996  6967.020  0.500  4.542693  146.414  1.558535  0.091747
  6972.176  6972.200  0.500  4.532807  146.24  1.572146  0.093110
  6977.361  6977.390  0.500  4.523852  146.061  1.584342  0.094411
  6982.580  6982.610  0.500  4.514104  145.86  1.597662  0.095598
  6987.824  6987.840  0.500  4.504516  145.673  1.610990  0.096875
  6993.068  6993.090  0.500  4.494750  145.467  1.624500  0.098318
  6998.336  6998.360  0.500  4.484989  145.286  1.638390  0.099633
  7003.630  7003.650  0.500  4.474834  145.126  1.653290  0.101096
  7008.938  7008.960  0.500  4.464923  144.899  1.667146  0.102405
  7014.272  7014.290  0.500  4.454876  145.05  1.685740  0.104115
  7019.613  7019.640  0.500  4.445073  145.023  1.702027  0.105556
  7024.993  7025.010  0.500  4.434975  144.816  1.716852  0.107055
  7030.368  7030.390  0.500  4.425370  144.637  1.731274  0.108833
  7035.786  7035.800  0.500  4.415280  144.415  1.746140  0.110281
  7041.202  7041.220  0.500  4.405062  144.208  1.761555  0.111845
  7046.654  7046.670  0.500  4.395254  144.016  1.776546  0.113324
  7052.110  7052.130  0.500  4.385509  143.793  1.791163  0.114941
  7057.607  7057.610  0.500  4.375548  143.577  1.806375  0.116727
  7063.109  7063.110  0.500  4.365823  141.9  1.802724  0.116777
  7068.633  7068.630  0.500  4.355848  143.235  1.837923  0.119953
  7074.150  7074.170  0.500  4.345643  142.964  1.853269  0.121601
  7079.706  7079.720  0.500  4.336117  142.627  1.866594  0.122993
  7085.282  7085.300  0.500  4.326290  142.449  1.882673  0.124893
  7090.882  7090.900  0.500  4.316082  142.236  1.899153  0.126677
  7096.496  7096.510  0.500  4.306269  142.006  1.914779  0.128506
  7102.132  7102.150  0.500  4.296230  141.809  1.931415  0.129985
  7107.779  7107.800  0.500  4.286626  141.486  1.945615  0.131862
  7113.457  7113.470  0.500  4.276666  141.092  1.959615  0.133503
  7119.144  7119.160  0.500  4.266617  140.788  1.975142  0.135322