File: xdidata/La/La-L3-LanthanumNickelate.xdi
# XDI/1.0 BlueSky/1.10.0 BMM/2023-1.0-py310-tiled
# Beamline.name: BMM (06BM) -- Beamline for Materials Measurement (NIST)
# Beamline.xray_source: NSLS-II three-pole wiggler
# Beamline.collimation: paraboloid mirror, 5 nm Rh on 30 nm Pt
# Beamline.focusing: not in use
# Beamline.harmonic_rejection: flat mirror, Si stripe, pitch = 7.0 mrad relative to beam
# Beamline.software: Bluesky 1.10.0, Ophyd 1.7.0, DataBroker 2.0.0b13, Python 3.10.8, 2023-1.0-py310-tiled
# Detector.I0: 10 cm N2
# Detector.I1: 25 cm N2
# Detector.I2: 25 cm N2
# Element.symbol: La
# Element.edge: L3
# Element.reference: La
# Element.reference_material: La(OH)3
# Facility.name: NSLS-II
# Facility.energy: 3.0
# Facility.current: 399.5
# Facility.mode: top-off
# Facility.GUP: 301027
# Facility.SAF: 310583
# Facility.cycle: 2023-2
# Mono.name: Si(111)
# Mono.d_spacing: 3.13519
# Mono.encoder_resolution: 0.0000050 deg/ct
# Mono.angle_offset: 16.0754 deg
# Mono.scan_mode: pseudo channel cut
# Mono.scan_type: step
# Mono.direction: forward in energy
# Sample.name: LaNiO3
# Sample.prep: powder in PEG pellet
# Sample.x: 117.785 mm
# Sample.y: 114.695 mm
# Sample.SDD_position: 205.000 mm
# Scan.experimenters: Bruce Ravel
# Scan.edge_energy: 5482.7
# Scan.start_time: 2023-06-23T14:32:33
# Scan.end_time: 2023-06-23T14:38:43
# Scan.transient_id: 84814
# Scan.uid: e56bbcca-f8dc-41b4-8cea-f3e67959c6ab
# Scan.plot_hint: ln(I0/It)  --  ln($5/$6)
# Column.1: energy eV
# Column.2: requested_energy eV
# Column.3: measurement_time seconds
# Column.4: xmu
# Column.5: I0 nA
# Column.6: It nA
# Column.7: Ir nA
# ///////////
# sample courtesy Martin Stennett, University of Sheffield
# -----------
# energy  requested_energy  measurement_time  xmu  I0  It  Ir
  5282.708  5282.700  0.500  6.026711  99.2385  0.239504  0.005827
  5292.711  5292.700  0.500  5.990765  99.9579  0.250069  0.006235
  5302.686  5302.700  0.500  5.954431  100.602  0.260994  0.006521
  5312.704  5312.700  0.500  5.918841  101.286  0.272288  0.007105
  5322.708  5322.700  0.500  5.883100  101.901  0.283909  0.007336
  5332.711  5332.700  0.500  5.847941  102.509  0.295825  0.007912
  5342.706  5342.700  0.500  5.812925  103.101  0.308135  0.008278
  5352.706  5352.700  0.500  5.777570  103.673  0.320994  0.008887
  5362.704  5362.700  0.500  5.742982  104.25  0.334141  0.009238
  5372.700  5372.700  0.500  5.708757  104.244  0.345756  0.009780
  5382.706  5382.700  0.500  5.675262  104.829  0.359540  0.010383
  5392.709  5392.700  0.500  5.641868  105.349  0.373592  0.011018
  5402.705  5402.700  0.500  5.608274  105.81  0.388049  0.011602
  5412.700  5412.700  0.500  5.574555  106.142  0.402613  0.012151
  5422.700  5422.700  0.500  5.542893  106.623  0.417449  0.012866
  5432.702  5432.700  0.500  5.510867  107.093  0.432933  0.013464
  5442.702  5442.700  0.500  5.481227  107.513  0.447708  0.014384
  5452.702  5452.700  0.500  5.454661  107.927  0.461529  0.014856
  5454.704  5454.700  0.500  5.450787  108.019  0.463716  0.015108
  5456.699  5456.700  0.500  5.446053  108.088  0.466215  0.015027
  5458.698  5458.700  0.500  5.442017  108.135  0.468304  0.015240
  5460.698  5460.700  0.500  5.439281  108.219  0.469954  0.015318
  5462.710  5462.700  0.500  5.437147  108.278  0.471211  0.015375
  5464.709  5464.700  0.500  5.436663  108.352  0.471762  0.015464
  5466.705  5466.700  0.500  5.438223  108.416  0.471306  0.015405
  5468.698  5468.700  0.500  5.440213  108.497  0.470719  0.015379
  5470.698  5470.700  0.500  5.446746  108.577  0.468002  0.015269
  5472.699  5472.700  0.500  5.457566  108.737  0.463647  0.015020
  5472.995  5473.000  0.500  5.459775  108.971  0.463620  0.014980
  5473.296  5473.300  0.500  5.461919  109.013  0.462805  0.014990
  5473.593  5473.600  0.500  5.464368  109.001  0.461622  0.015093
  5473.892  5473.900  0.500  5.466601  109.019  0.460669  0.014784
  5474.191  5474.200  0.500  5.469520  109.016  0.459310  0.014739
  5474.493  5474.500  0.500  5.473246  109.03  0.457663  0.014740
  5474.795  5474.800  0.500  5.477045  109.043  0.455981  0.014629
  5475.095  5475.100  0.500  5.481146  109.045  0.454125  0.014603
  5475.392  5475.400  0.500  5.483484  109.015  0.452938  0.014460
  5475.692  5475.700  0.500  5.488003  109.033  0.450971  0.014397
  5475.991  5476.000  0.500  5.493025  109.032  0.448708  0.014303
  5476.293  5476.300  0.500  5.498632  109.067  0.446344  0.014023
  5476.594  5476.600  0.500  5.503678  109.086  0.444173  0.014002
  5476.894  5476.900  0.500  5.509124  109.099  0.441813  0.013943
  5477.196  5477.200  0.500  5.514755  109.121  0.439422  0.013925
  5477.496  5477.500  0.500  5.522365  109.124  0.436101  0.013490
  5477.794  5477.800  0.500  5.530178  109.138  0.432762  0.013580
  5478.092  5478.100  0.500  5.538240  109.114  0.429194  0.013378
  5478.392  5478.400  0.500  5.547477  109.167  0.425455  0.013216
  5478.692  5478.700  0.500  5.558099  109.157  0.420919  0.012941
  5478.996  5479.000  0.500  5.568290  109.18  0.416739  0.012692
  5479.294  5479.300  0.500  5.580224  109.202  0.411879  0.012494
  5479.598  5479.600  0.500  5.593599  109.191  0.406367  0.012197
  5479.894  5479.900  0.500  5.609116  109.21  0.400180  0.012136
  5480.196  5480.200  0.500  5.624899  109.239  0.394017  0.011590
  5480.494  5480.500  0.500  5.642915  109.233  0.386961  0.011436
  5480.796  5480.800  0.500  5.663361  109.288  0.379319  0.011151
  5481.093  5481.100  0.500  5.686975  109.283  0.370452  0.010733
  5481.397  5481.400  0.500  5.712836  109.299  0.361046  0.010221
  5481.694  5481.700  0.500  5.742645  109.316  0.350498  0.009859
  5481.999  5482.000  0.500  5.776597  109.352  0.338908  0.009285
  5482.298  5482.300  0.500  5.817290  109.361  0.325422  0.008725
  5482.596  5482.600  0.500  5.861560  109.387  0.311403  0.008219
  5482.898  5482.900  0.500  5.911272  109.417  0.296381  0.007644
  5483.195  5483.200  0.500  5.965769  109.437  0.280713  0.007039
  5483.494  5483.500  0.500  6.024765  109.463  0.264695  0.006468
  5483.800  5483.800  0.500  6.084756  109.475  0.249310  0.006090
  5484.096  5484.100  0.500  6.143198  109.503  0.235217  0.005455
  5484.398  5484.400  0.500  6.208175  109.484  0.220381  0.005042
  5484.700  5484.700  0.500  6.284387  109.518  0.204272  0.004466
  5484.997  5485.000  0.500  6.373869  109.539  0.186823  0.004024
  5485.298  5485.300  0.500  6.480428  109.566  0.167981  0.003383
  5485.597  5485.600  0.500  6.611307  109.597  0.147416  0.002907
  5485.895  5485.900  0.500  6.772814  109.603  0.125437  0.002244
  5486.200  5486.200  0.500  6.970705  109.655  0.102965  0.001717
  5486.500  5486.500  0.500  7.198756  109.685  0.081991  0.001253
  5486.800  5486.800  0.500  7.468195  109.688  0.062627  0.000985
  5487.101  5487.100  0.500  7.798061  109.679  0.045026  0.000611
  5487.401  5487.400  0.500  8.167509  109.717  0.031129  0.000484
  5487.700  5487.700  0.500  8.566020  109.705  0.020895  0.000272
  5487.996  5488.000  0.500  8.970955  109.765  0.013945  0.000216
  5488.298  5488.300  0.500  9.387147  109.759  0.009197  0.000157
  5488.600  5488.600  0.500  9.747077  109.781  0.006418  0.000092
  5488.900  5488.900  0.500  10.0545  109.799  0.004720  0.000162
  5489.201  5489.200  0.500  10.2113  109.814  0.004036  0.000125
  5489.500  5489.500  0.500  10.3667  109.829  0.003456  0.000182
  5489.801  5489.800  0.500  10.3882  109.863  0.003383  0.000153
  5490.096  5490.100  0.500  10.358  109.882  0.003487  0.000089
  5490.397  5490.400  0.500  10.2809  109.912  0.003768  0.000080
  5490.698  5490.700  0.500  10.1413  109.9  0.004332  0.000107
  5491.002  5491.000  0.500  9.932318  109.915  0.005340  0.000196
  5491.300  5491.300  0.500  9.747694  109.929  0.006423  0.000177
  5491.603  5491.600  0.500  9.531003  109.928  0.007977  0.000183
  5491.899  5491.900  0.500  9.302974  109.965  0.010024  0.000211
  5492.201  5492.200  0.500  9.075122  109.972  0.012589  0.000205
  5492.498  5492.500  0.500  8.862805  109.954  0.015565  0.000110
  5492.802  5492.800  0.500  8.648668  109.99  0.019288  0.000235
  5493.100  5493.100  0.500  8.453255  110.017  0.023456  0.000276
  5493.402  5493.400  0.500  8.263592  110.01  0.028353  0.000327
  5493.704  5493.700  0.500  8.090191  110.036  0.033729  0.000437
  5494.002  5494.000  0.500  7.943560  110.053  0.039062  0.000408
  5494.299  5494.300  0.500  7.809852  110.075  0.044660  0.000514
  5494.596  5494.600  0.500  7.686062  110.089  0.050551  0.000618
  5494.897  5494.900  0.500  7.577874  110.061  0.056313  0.000838
  5495.197  5495.200  0.500  7.480923  110.096  0.062065  0.000828
  5495.503  5495.500  0.500  7.396077  110.1  0.067563  0.000938
  5495.799  5495.800  0.500  7.320155  110.111  0.072900  0.001035
  5496.106  5496.100  0.500  7.250183  110.111  0.078184  0.001116
  5496.401  5496.400  0.500  7.188234  110.147  0.083207  0.001208
  5496.698  5496.700  0.500  7.129993  110.15  0.088200  0.001209
  5496.997  5497.000  0.500  7.077885  110.161  0.092927  0.001346
  5497.304  5497.300  0.500  7.027955  110.158  0.097681  0.001333
  5497.603  5497.600  0.500  6.990116  110.172  0.101462  0.001374
  5497.903  5497.900  0.500  6.957972  110.189  0.104792  0.001629
  5498.203  5498.200  0.500  6.936505  110.178  0.107056  0.001691
  5498.503  5498.500  0.500  6.921071  110.165  0.108707  0.001611
  5498.796  5498.800  0.500  6.914402  110.187  0.109457  0.001673
  5499.098  5499.100  0.500  6.913400  110.223  0.109602  0.001696
  5499.400  5499.400  0.500  6.916778  110.223  0.109233  0.001750
  5499.702  5499.700  0.500  6.924733  110.232  0.108377  0.001699
  5500.000  5500.000  0.500  6.936892  110.239  0.107074  0.001577
  5500.303  5500.300  0.500  6.948330  110.256  0.105872  0.001757
  5500.603  5500.600  0.500  6.960738  110.254  0.104565  0.001582
  5500.900  5500.900  0.500  6.973637  110.275  0.103244  0.001532
  5501.201  5501.200  0.500  6.984815  110.268  0.102090  0.001498
  5501.498  5501.500  0.500  6.994298  110.271  0.101129  0.001572
  5501.802  5501.800  0.500  7.002518  110.271  0.100302  0.001493
  5502.100  5502.100  0.500  7.010598  110.299  0.099519  0.001475
  5502.403  5502.400  0.500  7.019420  110.31  0.098655  0.001650
  5502.707  5502.700  0.500  7.026531  110.326  0.097971  0.001510
  5503.004  5503.000  0.500  7.034006  110.335  0.097249  0.001647
  5503.301  5503.300  0.500  7.036967  110.332  0.096958  0.001561
  5503.603  5503.600  0.500  7.040715  110.366  0.096625  0.001610
  5503.897  5503.900  0.500  7.040318  110.372  0.096669  0.001665
  5504.201  5504.200  0.500  7.039160  110.392  0.096798  0.001619
  5504.505  5504.500  0.500  7.034189  110.412  0.097298  0.001515
  5504.805  5504.800  0.500  7.027142  110.41  0.097985  0.001618
  5505.103  5505.100  0.500  7.020306  110.425  0.098671  0.001514
  5505.407  5505.400  0.500  7.014537  110.411  0.099229  0.001754
  5505.700  5505.700  0.500  7.009409  110.426  0.099752  0.001592
  5505.999  5506.000  0.500  7.002086  110.448  0.100505  0.001667
  5506.301  5506.300  0.500  6.996376  110.433  0.101067  0.001718
  5506.601  5506.600  0.500  6.992546  110.444  0.101466  0.001798
  5506.899  5506.900  0.500  6.988455  110.46  0.101896  0.001655
  5507.206  5507.200  0.500  6.987698  110.465  0.101978  0.001757
  5507.504  5507.500  0.500  6.985622  110.466  0.102191  0.001687
  5507.702  5507.700  0.500  6.985264  110.481  0.102241  0.001645
  5508.695  5508.690  0.500  6.990419  110.53  0.101761  0.001694
  5509.701  5509.690  0.500  7.009009  110.551  0.099905  0.001566
  5510.721  5510.710  0.500  7.040438  110.578  0.096838  0.001485
  5511.771  5511.760  0.500  7.077863  110.602  0.093301  0.001526
  5512.836  5512.820  0.500  7.120064  110.682  0.089510  0.001240
  5513.905  5513.900  0.500  7.172267  110.721  0.084987  0.001154
  5515.011  5515.000  0.500  7.230002  110.725  0.080222  0.001165
  5516.129  5516.120  0.500  7.285408  110.753  0.075918  0.001090
  5517.271  5517.260  0.500  7.325501  110.76  0.072939  0.001039
  5518.420  5518.410  0.500  7.338858  110.84  0.072023  0.001042
  5519.598  5519.590  0.500  7.329228  110.88  0.072746  0.000914
  5520.788  5520.780  0.500  7.307823  110.951  0.074368  0.000870
  5522.017  5522.000  0.500  7.275870  110.949  0.076781  0.001048
  5523.233  5523.230  0.500  7.236960  110.98  0.079850  0.001067
  5524.483  5524.480  0.500  7.195717  111.067  0.083277  0.001169
  5525.759  5525.750  0.500  7.147032  111.097  0.087455  0.001238
  5527.048  5527.040  0.500  7.101994  111.153  0.091530  0.001250
  5528.361  5528.350  0.500  7.060995  111.167  0.095373  0.001433
  5529.688  5529.680  0.500  7.028582  111.187  0.098533  0.001447
  5531.037  5531.030  0.500  7.004793  111.234  0.100947  0.001385
  5532.408  5532.400  0.500  6.985400  111.284  0.102970  0.001594
  5533.789  5533.780  0.500  6.969072  111.3  0.104680  0.001533
  5535.201  5535.190  0.500  6.957279  111.37  0.105989  0.001596
  5536.616  5536.610  0.500  6.948724  111.408  0.106936  0.001645
  5538.058  5538.050  0.500  6.945600  111.445  0.107306  0.001726
  5539.519  5539.510  0.500  6.951492  111.51  0.106738  0.001633
  5540.997  5540.990  0.500  6.956747  111.541  0.106208  0.001693
  5542.499  5542.490  0.500  6.958906  111.598  0.106033  0.001744
  5544.023  5544.010  0.500  6.953214  111.63  0.106669  0.001736
  5545.559  5545.550  0.500  6.945492  111.642  0.107508  0.001641
  5547.118  5547.110  0.500  6.932900  111.717  0.108943  0.001700
  5548.691  5548.680  0.500  6.926529  111.758  0.109679  0.001676
  5550.290  5550.280  0.500  6.928762  111.802  0.109477  0.001556
  5551.902  5551.890  0.500  6.941310  111.858  0.108167  0.001810
  5553.539  5553.530  0.500  6.960510  111.859  0.106111  0.001588
  5555.203  5555.180  0.500  6.987518  111.906  0.103327  0.001522
  5556.862  5556.850  0.500  7.014867  111.966  0.100593  0.001400
  5558.546  5558.540  0.500  7.036710  112.014  0.098462  0.001465
  5560.273  5560.250  0.500  7.053383  112.057  0.096871  0.001485
  5561.990  5561.980  0.500  7.056474  112.077  0.096590  0.001482
  5563.753  5563.730  0.500  7.049718  112.135  0.097294  0.001432
  5565.500  5565.490  0.500  7.036109  112.162  0.098651  0.001535
  5567.290  5567.280  0.500  7.015992  112.176  0.100668  0.001580
  5569.083  5569.080  0.500  6.991634  112.24  0.103209  0.001405
  5570.920  5570.910  0.500  6.960871  112.301  0.106492  0.001649
  5572.761  5572.750  0.500  6.925965  112.314  0.110287  0.001665
  5574.634  5574.610  0.500  6.894584  112.378  0.113868  0.001750
  5576.492  5576.490  0.500  6.868105  112.416  0.116963  0.001711
  5578.389  5578.390  0.500  6.851074  112.446  0.119004  0.001910
  5580.313  5580.310  0.500  6.844866  112.45  0.119749  0.001927
  5582.272  5582.250  0.500  6.850090  112.5  0.119178  0.001879
  5584.233  5584.210  0.500  6.858632  112.537  0.118203  0.001894
  5586.176  5586.180  0.500  6.874209  112.546  0.116386  0.001834
  5588.173  5588.180  0.500  6.888877  112.592  0.114738  0.001892
  5590.191  5590.190  0.500  6.888955  112.635  0.114773  0.001906
  5592.229  5592.220  0.500  6.885803  112.783  0.115287  0.001908
  5594.274  5594.280  0.500  6.873640  113.16  0.117087  0.002043
  5596.346  5596.350  0.500  6.860069  113.209  0.118738  0.001990
  5598.438  5598.440  0.500  6.841104  113.216  0.121019  0.001986
  5600.544  5600.550  0.500  6.828293  113.237  0.122603  0.001993
  5602.678  5602.680  0.500  6.828348  113.299  0.122663  0.001926
  5604.836  5604.820  0.500  6.841887  113.304  0.121018  0.002022
  5606.985  5606.990  0.500  6.860187  113.325  0.118846  0.001929
  5609.175  5609.180  0.500  6.869639  113.413  0.117820  0.001885
  5611.377  5611.380  0.500  6.864100  113.444  0.118506  0.001836
  5613.595  5613.600  0.500  6.857607  113.488  0.119324  0.002080
  5615.844  5615.850  0.500  6.851451  113.469  0.120041  0.002109
  5618.100  5618.110  0.500  6.834173  113.489  0.122155  0.001989
  5620.384  5620.390  0.500  6.818760  113.521  0.124087  0.002036
  5622.686  5622.690  0.500  6.801393  113.549  0.126293  0.002005
  5625.015  5625.010  0.500  6.776730  113.558  0.129456  0.002053
  5627.359  5627.350  0.500  6.749920  113.585  0.133005  0.002113
  5629.695  5629.700  0.500  6.723655  113.572  0.136528  0.002299
  5632.086  5632.080  0.500  6.704366  113.609  0.139233  0.002288
  5634.465  5634.470  0.500  6.693719  113.605  0.140719  0.002416
  5636.883  5636.890  0.500  6.686648  113.605  0.141717  0.002418
  5639.315  5639.320  0.500  6.684513  113.634  0.142056  0.002452
  5641.765  5641.770  0.500  6.686074  113.652  0.141858  0.002446
  5644.254  5644.250  0.500  6.692809  113.644  0.140896  0.002370
  5646.751  5646.740  0.500  6.699756  113.66  0.139940  0.002461
  5649.258  5649.250  0.500  6.705257  113.647  0.139156  0.002445
  5651.777  5651.770  0.500  6.706418  113.667  0.139019  0.002542
  5654.327  5654.320  0.500  6.704468  113.629  0.139243  0.002481
  5656.896  5656.890  0.500  6.694555  113.57  0.140558  0.002561
  5659.478  5659.470  0.500  6.680931  113.632  0.142563  0.002556
  5662.086  5662.080  0.500  6.670659  113.581  0.143971  0.002555
  5664.706  5664.700  0.500  6.663825  113.57  0.144944  0.002508
  5667.353  5667.350  0.500  6.658896  113.561  0.145649  0.002597
  5670.016  5670.010  0.500  6.650724  113.533  0.146807  0.002783
  5672.701  5672.690  0.500  6.637032  113.505  0.148795  0.002664
  5675.399  5675.390  0.500  6.619885  113.442  0.151285  0.002730
  5678.122  5678.110  0.500  6.595286  113.462  0.155080  0.002769
  5680.862  5680.850  0.500  6.571053  113.446  0.158860  0.002964
  5683.610  5683.600  0.500  6.547595  113.387  0.162547  0.002964
  5686.392  5686.380  0.500  6.526930  113.316  0.165837  0.003094
  5689.155  5689.170  0.500  6.512651  113.253  0.168128  0.003071
  5692.014  5691.990  0.500  6.504916  113.159  0.169293  0.003006
  5694.839  5694.820  0.500  6.503886  113.182  0.169503  0.003228
  5697.693  5697.670  0.500  6.509906  113.124  0.168399  0.003149
  5700.559  5700.550  0.500  6.514972  113.107  0.167523  0.003265
  5703.427  5703.440  0.500  6.522405  113.03  0.166168  0.003238
  5706.356  5706.350  0.500  6.529546  113.019  0.164970  0.003162
  5709.285  5709.270  0.500  6.531478  112.968  0.164577  0.003142
  5712.208  5712.220  0.500  6.526927  112.895  0.165221  0.003037
  5715.213  5715.190  0.500  6.516306  112.891  0.166980  0.003140
  5718.193  5718.170  0.500  6.504122  112.786  0.168869  0.003228
  5721.176  5721.180  0.500  6.489016  112.718  0.171336  0.003323
  5724.191  5724.200  0.500  6.472187  112.688  0.174198  0.003351
  5727.243  5727.250  0.500  6.457860  112.634  0.176627  0.003560
  5730.290  5730.310  0.500  6.442611  112.58  0.179255  0.003578
  5733.373  5733.390  0.500  6.426757  112.55  0.182071  0.003573
  5736.480  5736.490  0.500  6.409699  112.45  0.185038  0.003634
  5739.590  5739.610  0.500  6.391839  112.385  0.188264  0.003741
  5742.731  5742.750  0.500  6.373600  112.34  0.191654  0.003926
  5745.889  5745.900  0.500  6.358140  112.283  0.194540  0.003983
  5749.062  5749.080  0.500  6.345663  112.225  0.196880  0.004111
  5752.254  5752.270  0.500  6.336854  112.155  0.198498  0.004156
  5755.476  5755.490  0.500  6.331284  112.107  0.199523  0.004178
  5758.710  5758.720  0.500  6.328232  111.973  0.199892  0.004188
  5761.955  5761.970  0.500  6.327797  111.892  0.199834  0.004144
  5765.231  5765.250  0.500  6.327745  111.807  0.199694  0.004160
  5768.547  5768.540  0.500  6.322365  111.767  0.200698  0.004178
  5771.838  5771.850  0.500  6.312797  111.69  0.202488  0.004313
  5775.151  5775.170  0.500  6.300726  111.56  0.204709  0.004363
  5778.513  5778.520  0.500  6.289377  111.459  0.206859  0.004509
  5781.877  5781.890  0.500  6.279312  111.369  0.208783  0.004500
  5785.256  5785.270  0.500  6.271552  111.314  0.210305  0.004639
  5788.668  5788.680  0.500  6.261917  111.216  0.212153  0.004798
  5792.089  5792.100  0.500  6.249520  111.103  0.214583  0.004726
  5795.554  5795.550  0.500  6.231691  110.988  0.218216  0.004897
  5798.996  5799.010  0.500  6.215436  110.878  0.221571  0.004924
  5802.480  5802.490  0.500  6.198360  110.723  0.225073  0.005008
  5805.980  5805.990  0.500  6.180810  110.627  0.228860  0.005294
  5809.496  5809.510  0.500  6.164305  110.457  0.232310  0.005242
  5813.036  5813.050  0.500  6.151557  110.297  0.234950  0.005319
  5816.583  5816.600  0.500  6.141876  110.137  0.236892  0.005437
  5820.162  5820.180  0.500  6.134205  109.992  0.238401  0.005430
  5823.768  5823.780  0.500  6.129617  109.823  0.239130  0.005520
  5827.372  5827.390  0.500  6.124570  109.651  0.239963  0.005654
  5831.007  5831.020  0.500  6.117444  109.461  0.241260  0.005616
  5834.666  5834.680  0.500  6.106472  109.271  0.243499  0.005719
  5838.329  5838.350  0.500  6.093193  109.026  0.246201  0.005962
  5842.022  5842.040  0.500  6.078791  108.769  0.249183  0.005984
  5845.732  5845.750  0.500  6.065356  108.517  0.251968  0.006107
  5849.466  5849.480  0.500  6.050512  108.296  0.255217  0.006164
  5853.206  5853.220  0.500  6.038270  107.98  0.257607  0.006424
  5856.978  5856.990  0.500  6.027832  107.622  0.259447  0.006426
  5860.770  5860.780  0.500  6.017632  107.228  0.261145  0.006424
  5864.561  5864.580  0.500  6.008885  106.738  0.262238  0.006668
  5868.398  5868.410  0.500  5.998658  105.731  0.262433  0.006637
  5872.228  5872.250  0.500  5.990808  99.6805  0.249365  0.006390
  5876.097  5876.110  0.500  5.980595  107.966  0.272864  0.006909
  5879.973  5879.990  0.500  5.975036  107.17  0.272363  0.006970