File: xdidata/La/La-L1-LanthanumHydroxide.xdi
# XDI/1.0 BlueSky/1.10.0 BMM/2023-1.0-py310-tiled
# Beamline.name: BMM (06BM) -- Beamline for Materials Measurement (NIST)
# Beamline.xray_source: NSLS-II three-pole wiggler
# Beamline.collimation: paraboloid mirror, 5 nm Rh on 30 nm Pt
# Beamline.focusing: not in use
# Beamline.harmonic_rejection: flat mirror, Si stripe, pitch = 7.0 mrad relative to beam
# Beamline.software: Bluesky 1.10.0, Ophyd 1.7.0, DataBroker 2.0.0b13, Python 3.10.8, 2023-1.0-py310-tiled
# Detector.I0: 10 cm N2
# Detector.I1: 25 cm N2
# Detector.I2: 25 cm N2
# Element.symbol: La
# Element.edge: L1
# Element.reference: La
# Element.reference_material: La(OH)3
# Facility.name: NSLS-II
# Facility.energy: 3.0
# Facility.current: 398.6
# Facility.mode: top-off
# Facility.GUP: 301027
# Facility.SAF: 310583
# Facility.cycle: 2023-2
# Mono.name: Si(111)
# Mono.d_spacing: 3.13519
# Mono.encoder_resolution: 0.0000050 deg/ct
# Mono.angle_offset: 16.0754 deg
# Mono.scan_mode: pseudo channel cut
# Mono.scan_type: step
# Mono.direction: forward in energy
# Sample.name: La(OH)3
# Sample.prep: PEG pellet
# Sample.x: 109.138 mm
# Sample.y: 153.150 mm
# Sample.SDD_position: 205.000 mm
# Scan.experimenters: Bruce Ravel
# Scan.edge_energy: 6266.3
# Scan.start_time: 2023-05-28T12:14:57
# Scan.end_time: 2023-05-28T12:23:04
# Scan.transient_id: 78672
# Scan.uid: 1c7fe93c-c574-483a-b625-93c2d677014d
# Scan.plot_hint: ln(It/Ir)  --  ln($6/$7)
# Column.1: energy eV
# Column.2: requested_energy eV
# Column.3: measurement_time seconds
# Column.4: xmu
# Column.5: I0 nA
# Column.6: It nA
# Column.7: Ir nA
# ///////////
# sample courtesy Martin Stennett, University of Sheffield
# -----------
# energy  requested_energy  measurement_time  xmu  I0  It  Ir
  6066.300  6066.300  0.500  4.017890  143.44  92.6887  1.667551
  6076.309  6076.300  0.500  4.005391  143.933  93.486  1.703050
  6086.315  6086.300  0.500  3.989449  144.285  94.2205  1.744013
  6096.301  6096.300  0.500  3.974364  144.707  94.9894  1.784969
  6106.304  6106.300  0.500  3.959340  145.13  95.7904  1.827268
  6116.325  6116.300  0.500  3.945421  145.55  96.6124  1.868780
  6126.309  6126.300  0.500  3.930373  145.949  97.3601  1.911797
  6136.314  6136.300  0.500  3.910958  146.305  98.1266  1.964623
  6146.310  6146.300  0.500  3.892116  146.651  98.8919  2.017606
  6156.314  6156.300  0.500  3.876935  146.983  99.658  2.064338
  6166.311  6166.300  0.500  3.864476  147.217  100.357  2.104883
  6176.310  6176.300  0.500  3.849029  147.673  101.123  2.153969
  6186.292  6186.300  0.500  3.832732  148.095  101.953  2.207311
  6196.301  6196.300  0.500  3.816544  148.098  102.422  2.253672
  6206.299  6206.300  0.500  3.801695  148.459  103.183  2.304374
  6216.296  6216.300  0.500  3.787979  148.751  103.963  2.353865
  6226.302  6226.300  0.500  3.774647  149.098  104.73  2.403048
  6236.300  6236.300  0.500  3.758678  149.409  105.483  2.459294
  6238.301  6238.300  0.500  3.755359  149.467  105.624  2.470773
  6240.296  6240.300  0.500  3.752283  149.554  105.736  2.481010
  6242.295  6242.300  0.500  3.748842  149.621  105.87  2.492700
  6244.299  6244.300  0.500  3.745680  149.637  105.993  2.503517
  6246.301  6246.300  0.500  3.742884  149.683  106.192  2.515222
  6248.294  6248.300  0.500  3.740084  149.781  106.349  2.526009
  6250.294  6250.300  0.500  3.737477  149.81  106.504  2.536300
  6252.295  6252.300  0.500  3.735023  149.882  106.661  2.546278
  6254.297  6254.300  0.500  3.732685  149.942  106.819  2.556020
  6256.294  6256.300  0.500  3.730490  149.982  106.919  2.564036
  6256.586  6256.600  0.500  3.730299  150.016  106.938  2.564989
  6256.886  6256.900  0.500  3.729987  150.019  106.911  2.565138
  6257.183  6257.200  0.500  3.729625  149.999  106.975  2.567606
  6257.483  6257.500  0.500  3.729580  150.015  107.017  2.568725
  6257.783  6257.800  0.500  3.728969  150.033  106.943  2.568511
  6258.085  6258.100  0.500  3.728607  150.011  106.939  2.569341
  6258.388  6258.400  0.500  3.728338  150.063  107.05  2.572698
  6258.688  6258.700  0.500  3.728241  150.065  107.089  2.573880
  6258.988  6259.000  0.500  3.727790  150.061  107.119  2.575771
  6259.287  6259.300  0.500  3.727681  150.051  107.16  2.577048
  6259.592  6259.600  0.500  3.727404  150.056  107.113  2.576631
  6259.891  6259.900  0.500  3.727189  150.054  107.093  2.576686
  6260.189  6260.200  0.500  3.726830  150.07  107.125  2.578390
  6260.488  6260.500  0.500  3.726529  150.027  107.175  2.580373
  6260.790  6260.800  0.500  3.726319  150.037  107.164  2.580649
  6261.089  6261.100  0.500  3.726157  150.054  107.179  2.581422
  6261.393  6261.400  0.500  3.725854  150.048  107.201  2.582751
  6261.691  6261.700  0.500  3.725701  150.03  107.217  2.583527
  6261.997  6262.000  0.500  3.725798  150.078  107.289  2.584997
  6262.297  6262.300  0.500  3.725340  150.093  107.336  2.587315
  6262.599  6262.600  0.500  3.725592  150.08  107.326  2.586431
  6262.895  6262.900  0.500  3.725068  150.09  107.383  2.589171
  6263.199  6263.200  0.500  3.725022  150.096  107.365  2.588840
  6263.493  6263.500  0.500  3.724827  150.104  107.335  2.588633
  6263.795  6263.800  0.500  3.725006  150.104  107.382  2.589302
  6264.093  6264.100  0.500  3.725145  150.13  107.376  2.588803
  6264.395  6264.400  0.500  3.724899  150.139  107.372  2.589327
  6264.693  6264.700  0.500  3.724948  150.103  107.366  2.589070
  6265.000  6265.000  0.500  3.725145  150.14  107.411  2.589641
  6265.298  6265.300  0.500  3.725291  150.154  107.463  2.590523
  6265.597  6265.600  0.500  3.725355  150.152  107.504  2.591328
  6265.896  6265.900  0.500  3.725412  150.164  107.593  2.593321
  6266.199  6266.200  0.500  3.725713  150.179  107.617  2.593122
  6266.495  6266.500  0.500  3.725934  150.191  107.623  2.592709
  6266.796  6266.800  0.500  3.726221  150.157  107.526  2.589610
  6267.097  6267.100  0.500  3.726585  150.196  107.544  2.589103
  6267.398  6267.400  0.500  3.726697  150.182  107.554  2.589060
  6267.695  6267.700  0.500  3.727037  150.209  107.589  2.589029
  6267.996  6268.000  0.500  3.727602  150.217  107.618  2.588256
  6268.298  6268.300  0.500  3.728466  150.224  107.644  2.586655
  6268.602  6268.600  0.500  3.729476  150.247  107.684  2.584993
  6268.900  6268.900  0.500  3.730588  150.228  107.685  2.582147
  6269.196  6269.200  0.500  3.731985  150.247  107.713  2.579226
  6269.494  6269.500  0.500  3.733438  150.26  107.724  2.575738
  6269.795  6269.800  0.500  3.735374  150.234  107.719  2.570631
  6270.100  6270.100  0.500  3.737787  150.255  107.764  2.565516
  6270.396  6270.400  0.500  3.740866  150.26  107.772  2.557801
  6270.699  6270.700  0.500  3.743955  150.277  107.796  2.550490
  6271.002  6271.000  0.500  3.747748  150.263  107.81  2.541165
  6271.302  6271.300  0.500  3.750798  150.262  107.838  2.534075
  6271.599  6271.600  0.500  3.754368  150.278  107.849  2.525305
  6271.899  6271.900  0.500  3.757130  150.257  107.844  2.518217
  6272.195  6272.200  0.500  3.759194  150.281  107.91  2.514574
  6272.497  6272.500  0.500  3.761093  150.283  107.964  2.511062
  6272.802  6272.800  0.500  3.762433  150.297  107.987  2.508224
  6273.100  6273.100  0.500  3.763663  150.313  107.965  2.504637
  6273.400  6273.400  0.500  3.765108  150.314  108.017  2.502229
  6273.703  6273.700  0.500  3.766484  150.31  108.012  2.498676
  6274.007  6274.000  0.500  3.768292  150.304  108.044  2.494899
  6274.302  6274.300  0.500  3.770018  150.308  108.066  2.491099
  6274.600  6274.600  0.500  3.772047  150.298  108.094  2.486685
  6274.895  6274.900  0.500  3.774532  150.319  108.111  2.480923
  6275.197  6275.200  0.500  3.777449  150.327  108.137  2.474278
  6275.499  6275.500  0.500  3.780544  150.343  108.141  2.466734
  6275.798  6275.800  0.500  3.783816  150.349  108.175  2.459439
  6276.099  6276.100  0.500  3.787579  150.356  108.197  2.450704
  6276.401  6276.400  0.500  3.791734  150.351  108.183  2.440222
  6276.700  6276.700  0.500  3.796353  150.368  108.23  2.430045
  6277.004  6277.000  0.500  3.801689  150.378  108.276  2.418122
  6277.301  6277.300  0.500  3.807007  150.38  108.288  2.405575
  6277.598  6277.600  0.500  3.812775  150.387  108.324  2.392528
  6277.895  6277.900  0.500  3.819116  150.374  108.303  2.376950
  6278.199  6278.200  0.500  3.826136  150.396  108.331  2.360923
  6278.499  6278.500  0.500  3.833827  150.4  108.361  2.343498
  6278.800  6278.800  0.500  3.841397  150.406  108.396  2.326562
  6279.100  6279.100  0.500  3.849476  150.412  108.353  2.306924
  6279.403  6279.400  0.500  3.857575  150.419  108.392  2.289140
  6279.703  6279.700  0.500  3.866428  150.404  108.402  2.269173
  6280.002  6280.000  0.500  3.875957  150.441  108.435  2.248345
  6280.298  6280.300  0.500  3.885625  150.411  108.416  2.226326
  6280.599  6280.600  0.500  3.895533  150.455  108.497  2.206013
  6280.900  6280.900  0.500  3.905518  150.439  108.543  2.185028
  6281.202  6281.200  0.500  3.914760  150.471  108.518  2.164431
  6281.504  6281.500  0.500  3.924170  150.485  108.556  2.144902
  6281.802  6281.800  0.500  3.933166  150.503  108.633  2.127207
  6282.103  6282.100  0.500  3.941660  150.519  108.592  2.108413
  6282.405  6282.400  0.500  3.949505  150.506  108.614  2.092368
  6282.705  6282.700  0.500  3.956929  150.521  108.62  2.077001
  6283.001  6283.000  0.500  3.963548  150.517  108.65  2.063867
  6283.297  6283.300  0.500  3.969806  150.526  108.709  2.052114
  6283.599  6283.600  0.500  3.974950  150.518  108.708  2.041557
  6283.902  6283.900  0.500  3.979191  150.518  108.713  2.033018
  6284.203  6284.200  0.500  3.982290  150.519  108.747  2.027367
  6284.498  6284.500  0.500  3.983743  150.52  108.748  2.024433
  6284.804  6284.800  0.500  3.984212  150.534  108.793  2.024330
  6285.103  6285.100  0.500  3.983284  150.547  108.827  2.026828
  6285.403  6285.400  0.500  3.981132  150.58  108.859  2.031806
  6285.699  6285.700  0.500  3.978568  150.553  108.856  2.036953
  6285.997  6286.000  0.500  3.975078  150.555  108.875  2.044428
  6286.300  6286.300  0.500  3.971039  150.569  108.897  2.053125
  6286.598  6286.600  0.500  3.966581  150.583  108.905  2.062459
  6286.901  6286.900  0.500  3.962150  150.591  108.927  2.072027
  6287.199  6287.200  0.500  3.957582  150.594  108.952  2.082002
  6287.502  6287.500  0.500  3.953269  150.592  108.971  2.091351
  6287.804  6287.800  0.500  3.948893  150.575  108.97  2.100506
  6288.105  6288.100  0.500  3.945039  150.587  108.985  2.108900
  6288.400  6288.400  0.500  3.941519  150.61  108.991  2.116470
  6288.702  6288.700  0.500  3.937855  150.626  109.009  2.124574
  6289.000  6289.000  0.500  3.934712  150.631  109.05  2.132068
  6289.300  6289.300  0.500  3.931388  150.613  109.118  2.140507
  6289.605  6289.600  0.500  3.928653  150.646  109.12  2.146414
  6289.905  6289.900  0.500  3.926060  150.658  109.108  2.151748
  6290.201  6290.200  0.500  3.923069  150.666  109.154  2.159089
  6290.503  6290.500  0.500  3.920350  151.13  109.505  2.171931
  6290.805  6290.800  0.500  3.917599  151.197  109.553  2.178886
  6291.098  6291.100  0.500  3.915056  151.217  109.578  2.184914
  6291.296  6291.300  0.500  3.913189  151.234  109.593  2.189311
  6292.301  6292.290  0.500  3.906179  151.271  109.705  2.206953
  6293.311  6293.290  0.500  3.901347  151.275  109.763  2.218820
  6294.310  6294.310  0.500  3.896979  151.321  109.854  2.230382
  6295.353  6295.360  0.500  3.891822  151.333  109.915  2.243150
  6296.423  6296.420  0.500  3.884761  151.362  109.994  2.260670
  6297.501  6297.500  0.500  3.876706  151.388  110.066  2.280455
  6298.601  6298.600  0.500  3.868251  151.387  110.151  2.301593
  6299.725  6299.720  0.500  3.858555  151.415  110.209  2.325232
  6300.861  6300.860  0.500  3.849049  151.466  110.32  2.349821
  6302.013  6302.010  0.500  3.840216  151.48  110.378  2.371911
  6303.196  6303.190  0.500  3.832928  151.493  110.42  2.390167
  6304.380  6304.380  0.500  3.826529  151.521  110.54  2.408123
  6305.605  6305.600  0.500  3.821917  151.567  110.645  2.421558
  6306.830  6306.830  0.500  3.818497  151.573  110.698  2.431019
  6308.084  6308.080  0.500  3.815659  151.587  110.746  2.438979
  6309.353  6309.350  0.500  3.813278  151.579  110.833  2.446725
  6310.641  6310.640  0.500  3.812802  151.614  110.942  2.450294
  6311.952  6311.950  0.500  3.813693  151.63  110.991  2.449196
  6313.283  6313.280  0.500  3.817358  151.651  111.02  2.440864
  6314.636  6314.630  0.500  3.821889  151.665  111.108  2.431752
  6316.002  6316.000  0.500  3.826243  151.676  111.201  2.423225
  6317.389  6317.380  0.500  3.829017  151.666  111.262  2.417832
  6318.794  6318.790  0.500  3.830814  151.706  111.39  2.416258
  6320.219  6320.210  0.500  3.832439  151.705  111.503  2.414791
  6321.656  6321.650  0.500  3.832863  151.676  111.527  2.414282
  6323.117  6323.110  0.500  3.832395  151.721  111.631  2.417665
  6324.597  6324.590  0.500  3.831478  151.749  111.733  2.422107
  6326.094  6326.090  0.500  3.830263  151.775  111.841  2.427376
  6327.616  6327.610  0.500  3.829832  151.742  111.907  2.429869
  6329.154  6329.150  0.500  3.829912  151.774  111.999  2.431676
  6330.718  6330.710  0.500  3.829394  151.76  112.073  2.434536
  6332.286  6332.280  0.500  3.827668  151.802  112.194  2.441369
  6333.887  6333.880  0.500  3.824462  151.815  112.289  2.451283
  6335.498  6335.490  0.500  3.820966  151.788  112.342  2.461040
  6337.140  6337.130  0.500  3.815772  151.862  112.465  2.476549
  6338.784  6338.780  0.500  3.810294  151.884  112.564  2.492347
  6340.459  6340.450  0.500  3.803925  151.906  112.697  2.511251
  6342.145  6342.140  0.500  3.797186  151.907  112.785  2.530188
  6343.859  6343.850  0.500  3.789798  151.878  112.845  2.550318
  6345.590  6345.580  0.500  3.782748  151.94  112.984  2.571523
  6347.336  6347.330  0.500  3.776771  151.953  113.095  2.589472
  6349.096  6349.090  0.500  3.771653  151.969  113.227  2.605813
  6350.888  6350.880  0.500  3.766899  151.952  113.231  2.618316
  6352.689  6352.680  0.500  3.762924  152.017  113.343  2.631336
  6354.519  6354.510  0.500  3.759153  152.024  113.493  2.644787
  6356.364  6356.350  0.500  3.756030  152.032  113.607  2.655719
  6358.214  6358.210  0.500  3.753803  152.074  113.758  2.665179
  6360.100  6360.090  0.500  3.752001  152.082  113.855  2.672257
  6362.001  6361.990  0.500  3.750530  152.148  113.984  2.679218
  6363.917  6363.910  0.500  3.749703  152.14  114.074  2.683559
  6365.859  6365.850  0.500  3.749314  152.193  114.218  2.687993
  6367.820  6367.810  0.500  3.748670  152.207  114.307  2.691811
  6369.789  6369.780  0.500  3.747318  152.222  114.416  2.698024
  6371.795  6371.780  0.500  3.745127  152.268  114.598  2.708247
  6373.804  6373.790  0.500  3.742092  152.303  114.775  2.720679
  6375.826  6375.820  0.500  3.738839  152.337  114.83  2.730850
  6377.889  6377.880  0.500  3.735325  152.339  114.915  2.742502
  6379.963  6379.950  0.500  3.732162  152.354  115.025  2.753804
  6382.054  6382.040  0.500  3.728888  152.382  115.16  2.766098
  6384.161  6384.150  0.500  3.725945  152.403  115.293  2.777454
  6386.289  6386.280  0.500  3.723367  152.443  115.477  2.789055
  6388.435  6388.420  0.500  3.720631  152.442  115.611  2.799950
  6390.604  6390.590  0.500  3.718290  152.477  115.736  2.809551
  6392.791  6392.780  0.500  3.715897  152.511  115.84  2.818798
  6394.993  6394.980  0.500  3.713399  152.521  115.994  2.829603
  6397.211  6397.200  0.500  3.711125  152.537  116.106  2.838803
  6399.464  6399.450  0.500  3.708808  152.578  116.203  2.847754
  6401.725  6401.710  0.500  3.706316  152.612  116.336  2.858117
  6404.006  6403.990  0.500  3.702540  152.612  116.44  2.871501
  6406.301  6406.290  0.500  3.697258  152.636  116.579  2.890157
  6408.621  6408.610  0.500  3.692565  152.669  116.74  2.907766
  6410.964  6410.950  0.500  3.688288  152.702  116.899  2.924215
  6413.315  6413.300  0.500  3.683514  152.731  117.036  2.941639
  6415.695  6415.680  0.500  3.678819  152.743  117.162  2.958678
  6418.079  6418.070  0.500  3.674289  152.776  117.317  2.976026
  6420.496  6420.490  0.500  3.670088  152.811  117.453  2.992034
  6422.933  6422.920  0.500  3.666395  152.794  117.597  3.006773
  6425.383  6425.370  0.500  3.662552  152.834  117.743  3.022105
  6427.862  6427.850  0.500  3.659067  152.834  117.871  3.035944
  6430.351  6430.340  0.500  3.656032  152.823  117.977  3.047904
  6432.864  6432.850  0.500  3.653555  152.793  118.131  3.059461
  6435.384  6435.370  0.500  3.651051  152.767  118.224  3.069543
  6437.933  6437.920  0.500  3.648391  152.814  118.384  3.081896
  6440.503  6440.490  0.500  3.645362  152.92  118.638  3.097858
  6443.083  6443.070  0.500  3.642329  152.959  118.781  3.111033
  6445.693  6445.680  0.500  3.638960  152.924  118.896  3.124539
  6448.312  6448.300  0.500  3.635183  152.301  118.577  3.127952
  6450.961  6450.950  0.500  3.631003  152.798  119.046  3.153489
  6453.619  6453.610  0.500  3.626432  152.992  119.314  3.175063
  6456.299  6456.290  0.500  3.622456  153.044  119.476  3.192040
  6458.994  6458.990  0.500  3.618789  151.83  118.671  3.182172
  6461.714  6461.710  0.500  3.614862  153.004  119.753  3.223837
  6464.457  6464.450  0.500  3.610945  151.658  118.877  3.212791
  6467.208  6467.200  0.500  3.607217  152.905  119.999  3.255237
  6469.990  6469.980  0.500  3.603548  153.056  120.251  3.274076
  6472.778  6472.770  0.500  3.599571  153.126  120.433  3.292104
  6475.596  6475.590  0.500  3.595737  152.436  120.036  3.293834
  6478.433  6478.420  0.500  3.591804  153.053  120.638  3.323412
  6481.279  6481.270  0.500  3.587576  153.093  120.818  3.342474
  6484.169  6484.150  0.500  3.583614  153.14  121.022  3.361405
  6487.048  6487.040  0.500  3.579553  153.204  121.204  3.380150
  6489.962  6489.950  0.500  3.575036  153.217  121.354  3.399667
  6492.889  6492.870  0.500  3.570561  153.244  121.496  3.418893
  6495.828  6495.820  0.500  3.565784  153.253  121.671  3.440222
  6498.803  6498.790  0.500  3.561137  153.245  121.831  3.460792
  6501.782  6501.770  0.500  3.556287  153.239  121.993  3.482248
  6504.796  6504.780  0.500  3.551779  153.276  122.181  3.503367
  6507.818  6507.800  0.500  3.547218  153.298  122.339  3.523921
  6510.863  6510.850  0.500  3.542912  153.314  122.555  3.545394
  6513.920  6513.910  0.500  3.538902  153.313  122.711  3.564167
  6516.997  6516.990  0.500  3.534910  153.334  122.866  3.582939
  6520.101  6520.090  0.500  3.531103  153.344  123.049  3.601960
  6523.226  6523.210  0.500  3.527465  153.404  123.204  3.619655
  6526.374  6526.350  0.500  3.523864  153.408  123.361  3.637343
  6529.527  6529.500  0.500  3.519998  153.436  123.534  3.656558
  6532.705  6532.680  0.500  3.516245  153.441  123.681  3.674668
  6535.902  6535.870  0.500  3.512080  153.433  123.847  3.694942
  6539.122  6539.090  0.500  3.507780  153.435  123.993  3.715235
  6542.336  6542.320  0.500  3.503070  153.446  124.207  3.739235
  6545.572  6545.570  0.500  3.498220  153.454  124.379  3.762626
  6548.841  6548.850  0.500  3.493318  153.43  124.524  3.785501
  6552.131  6552.140  0.500  3.488654  153.43  124.709  3.808842
  6555.446  6555.450  0.500  3.483822  153.413  124.878  3.832508
  6558.755  6558.770  0.500  3.479264  153.422  125.069  3.855878
  6562.109  6562.120  0.500  3.474641  153.154  124.975  3.870832
  6565.472  6565.490  0.500  3.469869  153.427  125.375  3.901805
  6568.868  6568.870  0.500  3.465552  153.412  125.528  3.923478
  6572.277  6572.280  0.500  3.460999  153.425  125.719  3.947374
  6575.691  6575.700  0.500  3.456806  153.458  125.93  3.970598
  6579.137  6579.150  0.500  3.452249  153.467  126.139  3.995361
  6582.601  6582.610  0.500  3.447663  153.467  126.329  4.019776
  6586.088  6586.090  0.500  3.443248  153.253  126.294  4.036455
  6589.574  6589.590  0.500  3.438675  153.479  126.661  4.066727
  6593.094  6593.110  0.500  3.434059  153.468  126.792  4.089780
  6596.637  6596.650  0.500  3.429393  153.438  126.943  4.113803
  6600.188  6600.200  0.500  3.424259  153.465  127.125  4.140888
  6603.769  6603.780  0.500  3.418797  153.153  127.047  4.161026
  6607.368  6607.380  0.500  3.413536  153.455  127.523  4.198624
  6610.970  6610.990  0.500  3.408355  153.465  127.758  4.228220
  6614.600  6614.620  0.500  3.403404  153.444  127.926  4.254810
  6618.271  6618.280  0.500  3.398955  153.395  128.014  4.276720
  6621.935  6621.950  0.500  3.394329  153.352  128.131  4.300474
  6625.622  6625.640  0.500  3.389604  153.325  128.284  4.325994
  6629.339  6629.350  0.500  3.385112  153.293  128.472  4.351855
  6633.066  6633.080  0.500  3.380465  153.487  128.857  4.385203
  6636.836  6636.820  0.500  3.375777  153.845  129.287  4.420524
  6640.572  6640.590  0.500  3.370915  153.878  129.47  4.448348
  6644.367  6644.380  0.500  3.366072  153.91  129.68  4.477214
  6648.173  6648.180  0.500  3.361481  153.843  129.849  4.503669
  6652.036  6652.010  0.500  3.356487  153.87  130.066  4.533758
  6655.868  6655.850  0.500  3.351485  153.823  130.239  4.562569
  6659.722  6659.710  0.500  3.346514  153.804  130.436  4.592262
  6663.584  6663.590  0.500  3.341251  153.801  130.617  4.622901
  6667.477  6667.490  0.500  3.336040  153.739  130.737  4.651299
  6671.403  6671.410  0.500  3.330592  153.697  130.908  4.682820
  6675.347  6675.350  0.500  3.325536  153.679  131.097  4.713364
  6679.292  6679.310  0.500  3.319963  153.65  131.236  4.744737
  6683.288  6683.280  0.500  3.314917  153.574  131.356  4.773102
  6687.294  6687.280  0.500  3.310004  153.595  131.593  4.805258
  6691.276  6691.290  0.500  3.305094  153.538  131.747  4.834569
  6695.313  6695.330  0.500  3.300184  153.465  131.851  4.862202
  6699.366  6699.380  0.500  3.295450  153.421  132.029  4.891871
  6703.434  6703.450  0.500  3.290346  153.329  132.13  4.920663
  6707.526  6707.540  0.500  3.285291  153.257  132.247  4.949971
  6711.644  6711.650  0.500  3.280314  153.176  132.371  4.979330
  6715.760  6715.780  0.500  3.274995  153.147  132.544  5.012429
  6719.909  6719.930  0.500  3.269799  153.041  132.672  5.043418
  6724.093  6724.090  0.500  3.264548  153  132.827  5.075859
  6728.267  6728.280  0.500  3.259433  152.922  132.962  5.107090
  6732.461  6732.480  0.500  3.253961  152.856  133.115  5.141042
  6736.698  6736.710  0.500  3.248572  152.738  133.25  5.174050
  6740.934  6740.950  0.500  3.243227  152.683  133.382  5.206914
  6745.207  6745.210  0.500  3.237921  152.598  133.485  5.238676
  6749.466  6749.490  0.500  3.232539  152.526  133.618  5.272182
  6753.771  6753.790  0.500  3.227393  152.374  133.736  5.304068
  6758.106  6758.110  0.500  3.221970  152.341  133.9  5.339448
  6762.433  6762.450  0.500  3.216730  152.225  134.037  5.372988
  6766.794  6766.810  0.500  3.211317  152.128  134.156  5.406961
  6771.168  6771.190  0.500  3.206376  152.054  134.289  5.439136
  6775.557  6775.580  0.500  3.201039  151.982  134.481  5.476031
  6779.982  6780.000  0.500  3.196027  151.874  134.577  5.507508
  6784.410  6784.430  0.500  3.190542  151.783  134.687  5.542309
  6788.861  6788.880  0.500  3.185316  151.63  134.719  5.572667
  6793.328  6793.350  0.500  3.180069  151.245  134.636  5.598525
  6797.816  6797.840  0.500  3.174859  151.005  134.654  5.628531
  6802.323  6802.350  0.500  3.169339  151.255  135.091  5.678073
  6806.856  6806.880  0.500  3.163856  151.24  135.304  5.718283
  6811.414  6811.430  0.500  3.158249  141.312  126.613  5.381081
  6815.983  6816.000  0.500  3.153074  150.53  135.115  5.772204
  6820.564  6820.580  0.500  3.147680  150.698  135.414  5.816239
  6825.165  6825.190  0.500  3.142318  148.98  134.092  5.790427
  6829.788  6829.810  0.500  3.136779  150.096  135.301  5.875104
  6834.440  6834.460  0.500  3.131358  150.009  135.465  5.914203
  6839.100  6839.120  0.500  3.125763  149.023  134.778  5.917217
  6843.787  6843.800  0.500  3.120408  149.398  135.333  5.973489
  6848.477  6848.500  0.500  3.114907  149.521  135.648  6.020426
  6853.201  6853.220  0.500  3.109402  149.399  135.735  6.057543
  6857.936  6857.960  0.500  3.103759  149.327  135.917  6.099989
  6862.685  6862.710  0.500  3.098370  149.036  135.893  6.131839
  6867.472  6867.490  0.500  3.092923  149.137  136.179  6.178330
  6872.267  6872.290  0.500  3.087293  149.038  136.261  6.216932
  6877.078  6877.100  0.500  3.081863  148.983  136.438  6.258918
  6881.909  6881.930  0.500  3.076265  148.864  136.55  6.299217
  6886.770  6886.790  0.500  3.070978  148.731  136.674  6.338366
  6891.640  6891.660  0.500  3.065398  148.64  136.793  6.379388
  6896.533  6896.550  0.500  3.059703  148.504  136.913  6.421425
  6901.441  6901.460  0.500  3.054136  148.389  137.027  6.462648
  6906.365  6906.390  0.500  3.048796  148.186  137.07  6.499311
  6911.314  6911.330  0.500  3.043139  148.026  137.132  6.539127
  6916.283  6916.300  0.500  3.037476  147.815  137.122  6.575774
  6921.270  6921.290  0.500  3.032081  147.548  137.154  6.612911
  6926.274  6926.290  0.500  3.026487  147.421  137.241  6.654236
  6931.304  6931.320  0.500  3.020715  147.283  137.335  6.697330
  6936.342  6936.360  0.500  3.015017  147.126  137.407  6.739113
  6941.401  6941.420  0.500  3.009273  146.995  137.518  6.783400
  6946.483  6946.500  0.500  3.003616  146.82  137.571  6.824521
  6951.574  6951.600  0.500  2.997816  146.626  137.611  6.866202
  6956.702  6956.720  0.500  2.992236  146.495  137.745  6.911353
  6961.840  6961.860  0.500  2.986615  146.357  137.847  6.955466
  6967.000  6967.020  0.500  2.981098  146.232  137.934  6.998371
  6972.174  6972.200  0.500  2.975353  146.071  138.002  7.042168
  6977.371  6977.390  0.500  2.969828  145.9  138.054  7.083832
  6982.592  6982.610  0.500  2.963810  145.696  138.089  7.128399
  6987.818  6987.840  0.500  2.958428  145.56  138.199  7.172604
  6993.074  6993.090  0.500  2.952698  145.372  138.229  7.215387
  6998.341  6998.360  0.500  2.946936  145.22  138.332  7.262453
  7003.632  7003.650  0.500  2.941231  145.025  138.376  7.306329
  7008.936  7008.960  0.500  2.935660  144.842  138.417  7.349346
  7014.269  7014.290  0.500  2.929797  144.637  138.434  7.393480
  7019.622  7019.640  0.500  2.924152  144.426  138.473  7.437395
  7024.991  7025.010  0.500  2.918326  144.186  138.486  7.481558
  7030.366  7030.390  0.500  2.912495  143.988  138.516  7.526985
  7035.786  7035.800  0.500  2.906844  143.762  138.528  7.570254
  7041.206  7041.220  0.500  2.901017  143.55  138.545  7.615422
  7046.645  7046.670  0.500  2.895313  143.288  138.599  7.661973
  7052.108  7052.130  0.500  2.889681  142.989  138.514  7.700515
  7057.591  7057.610  0.500  2.883932  142.789  138.487  7.743433
  7063.092  7063.110  0.500  2.878111  141.181  137.167  7.714412
  7068.607  7068.630  0.500  2.872472  142.351  138.573  7.837558
  7074.150  7074.170  0.500  2.866554  142.032  138.465  7.877905
  7079.698  7079.720  0.500  2.860979  141.657  138.284  7.911577
  7085.276  7085.300  0.500  2.855141  141.346  138.229  7.954790
  7090.885  7090.900  0.500  2.849474  141.098  138.188  7.997609
  7096.490  7096.510  0.500  2.843527  140.75  138.1  8.040198
  7102.132  7102.150  0.500  2.837902  140.536  138.134  8.087549
  7107.790  7107.800  0.500  2.832012  140.209  138.038  8.129632
  7113.444  7113.470  0.500  2.826136  139.636  137.701  8.157562
  7119.144  7119.160  0.500  2.820323  139.187  137.49  8.192576