File: xdidata/Data/As/As-K-SodiumMetaArsenite.xdi
# XDI/1.0 BlueSky/1.10.0 BMM/2023-1.0-py310-tiled
# Beamline.name: BMM (06BM) -- Beamline for Materials Measurement (NIST)
# Beamline.xray_source: NSLS-II three-pole wiggler
# Beamline.collimation: paraboloid mirror, 5 nm Rh on 30 nm Pt
# Beamline.focusing: not in use
# Beamline.harmonic_rejection: flat mirror, Pt stripe, pitch = 7.0 mrad relative to beam
# Beamline.software: Bluesky 1.10.0, Ophyd 1.7.0, DataBroker 2.0.0b13, Python 3.10.8, 2023-1.0-py310-tiled
# Detector.I0: 10 cm N2
# Detector.I1: 25 cm N2
# Detector.I2: 25 cm N2
# Element.symbol: As
# Element.edge: K
# Element.reference: As
# Element.reference_material: As2O3
# Facility.name: NSLS-II
# Facility.energy: 3.0
# Facility.current: 400.2
# Facility.mode: top-off
# Facility.GUP: 301027
# Facility.SAF: 310583
# Facility.cycle: 2023-2
# Mono.name: Si(111)
# Mono.d_spacing: 3.13519
# Mono.encoder_resolution: 0.0000050 deg/ct
# Mono.angle_offset: 16.0754 deg
# Mono.scan_mode: pseudo channel cut
# Mono.scan_type: step
# Mono.direction: forward in energy
# Sample.name: NaAsO2
# Sample.prep: powder in PEG pellet
# Sample.x: 115.008 mm
# Sample.y: 114.461 mm
# Sample.SDD_position: 170.000 mm
# Scan.experimenters: Bruce Ravel
# Scan.edge_energy: 11866.7
# Scan.start_time: 2023-07-10T16:28:30
# Scan.end_time: 2023-07-10T16:36:25
# Scan.transient_id: 90286
# Scan.uid: 9d345a00-46ad-417e-9e0f-1206f92e57f2
# Scan.plot_hint: ln(I0/It)  --  ln($5/$6)
# Column.1: energy eV
# Column.2: requested_energy eV
# Column.3: measurement_time seconds
# Column.4: xmu
# Column.5: I0 nA
# Column.6: It nA
# Column.7: Ir nA
# ///////////
# sample courtesy Evan Jahrman, NIST
# -----------
# energy  requested_energy  measurement_time  xmu  I0  It  Ir
  11666.689  11666.700  0.500  -0.037501  64.974  67.4569  45.8213
  11676.721  11676.700  0.500  -0.039022  64.8692  67.4506  45.8593
  11686.753  11686.700  0.500  -0.040533  64.7347  67.4125  45.873
  11696.742  11696.700  0.500  -0.042075  64.6177  67.3945  45.9043
  11706.719  11706.700  0.500  -0.043605  64.493  67.3674  45.9271
  11716.725  11716.700  0.500  -0.045111  64.3682  67.3384  45.9464
  11726.767  11726.700  0.500  -0.046634  64.2044  67.2695  45.9444
  11736.742  11736.700  0.500  -0.048106  63.9061  67.0556  45.8336
  11746.770  11746.700  0.500  -0.049552  63.7091  66.9455  45.7975
  11756.744  11756.700  0.500  -0.051140  63.6848  67.0264  45.8802
  11766.747  11766.700  0.500  -0.052551  63.6547  67.0893  45.9673
  11776.737  11776.700  0.500  -0.053981  63.327  66.8394  45.8295
  11786.744  11786.700  0.500  -0.055402  63.3927  67.0039  45.9691
  11796.756  11796.700  0.500  -0.056760  63.2636  66.9583  45.9645
  11806.737  11806.700  0.500  -0.058169  62.8912  66.658  45.7741
  11816.748  11816.700  0.500  -0.059444  62.9567  66.8126  45.8862
  11826.745  11826.700  0.500  -0.060595  62.8231  66.7475  45.8263
  11836.753  11836.700  0.500  -0.061405  62.701  66.6718  45.7219
  11838.692  11838.700  0.500  -0.061515  62.6929  66.6706  45.6963
  11840.681  11840.700  0.500  -0.061639  62.6618  66.6457  45.6559
  11842.688  11842.700  0.500  -0.061666  62.6333  66.6172  45.6026
  11844.696  11844.700  0.500  -0.061562  62.6029  66.5779  45.5457
  11846.693  11846.700  0.500  -0.061631  62.5692  66.5467  45.4681
  11848.672  11848.700  0.500  -0.061382  62.3669  66.315  45.2532
  11850.694  11850.700  0.500  -0.061148  62.5142  66.4561  45.2732
  11852.687  11852.700  0.500  -0.060806  62.4936  66.4115  45.1495
  11854.687  11854.700  0.500  -0.060185  62.4496  66.3235  44.9606
  11856.687  11856.700  0.500  -0.059365  62.2699  66.0785  44.625
  11856.944  11857.000  0.500  -0.059269  62.3017  66.1059  44.6167
  11857.262  11857.300  0.500  -0.059070  62.3473  66.1411  44.6049
  11857.555  11857.600  0.500  -0.058888  62.3709  66.1541  44.581
  11857.855  11857.900  0.500  -0.058661  62.3949  66.1645  44.5538
  11858.167  11858.200  0.500  -0.058503  62.3963  66.1556  44.5074
  11858.467  11858.500  0.500  -0.058273  62.3697  66.1122  44.4431
  11858.773  11858.800  0.500  -0.058019  62.3157  66.0382  44.3465
  11859.073  11859.100  0.500  -0.057835  62.2336  65.939  44.2378
  11859.385  11859.400  0.500  -0.057466  62.1639  65.8408  44.1205
  11859.679  11859.700  0.500  -0.057261  62.0954  65.7548  44.0118
  11859.973  11860.000  0.500  -0.056883  62.0546  65.6869  43.9163
  11860.285  11860.300  0.500  -0.056536  62.0266  65.6344  43.8255
  11860.579  11860.600  0.500  -0.056218  62.0446  65.6326  43.7618
  11860.885  11860.900  0.500  -0.055785  62.0895  65.6516  43.7082
  11861.185  11861.200  0.500  -0.055362  62.1321  65.6688  43.6509
  11861.479  11861.500  0.500  -0.054932  62.1987  65.711  43.6042
  11861.791  11861.800  0.500  -0.054457  62.233  65.7159  43.5319
  11862.085  11862.100  0.500  -0.053957  62.228  65.6779  43.4321
  11862.385  11862.400  0.500  -0.053417  62.1902  65.6025  43.2939
  11862.666  11862.700  0.500  -0.052892  62.1535  65.5294  43.1486
  11862.973  11863.000  0.500  -0.052218  62.1264  65.4568  43.0055
  11863.279  11863.300  0.500  -0.051520  62.1174  65.4016  42.8582
  11863.567  11863.600  0.500  -0.050808  62.1424  65.3813  42.7347
  11863.873  11863.900  0.500  -0.049889  62.1793  65.3601  42.5897
  11864.173  11864.200  0.500  -0.048880  62.226  65.3431  42.4456
  11864.486  11864.500  0.500  -0.047892  62.2563  65.3104  42.2683
  11864.773  11864.800  0.500  -0.046896  62.278  65.2681  42.0802
  11865.080  11865.100  0.500  -0.045547  62.2953  65.1982  41.8489
  11865.380  11865.400  0.500  -0.044247  62.2868  65.1047  41.5971
  11865.699  11865.700  0.500  -0.042525  62.3008  65.0073  41.297
  11865.987  11866.000  0.500  -0.040837  62.2841  64.8802  40.9837
  11866.299  11866.300  0.500  -0.038711  62.2932  64.752  40.6281
  11866.593  11866.600  0.500  -0.036526  62.2774  64.5942  40.2311
  11866.906  11866.900  0.500  -0.033756  62.2745  64.4125  39.769
  11867.194  11867.200  0.500  -0.030856  62.2641  64.2153  39.2851
  11867.494  11867.500  0.500  -0.027183  62.2594  63.975  38.7123
  11867.794  11867.800  0.500  -0.023143  62.2499  63.7073  38.0918
  11868.095  11868.100  0.500  -0.018371  62.2504  63.4046  37.3812
  11868.401  11868.400  0.500  -0.012718  62.2368  63.0334  36.5831
  11868.689  11868.700  0.500  -0.006122  62.2346  62.6168  35.7099
  11868.996  11869.000  0.500  0.001986  62.2268  62.1033  34.6623
  11869.278  11869.300  0.500  0.011337  62.2205  61.519  33.5766
  11869.590  11869.600  0.500  0.023873  62.2153  60.7477  32.2386
  11869.872  11869.900  0.500  0.038947  62.2022  59.8262  30.7779
  11870.185  11870.200  0.500  0.058729  62.1786  58.6321  29.0778
  11870.486  11870.500  0.500  0.084027  62.1308  57.1234  27.1682
  11870.786  11870.800  0.500  0.115114  62.0806  55.3302  25.1552
  11871.099  11871.100  0.500  0.156608  62.0286  53.0369  22.8756
  11871.393  11871.400  0.500  0.203450  62.0144  50.5982  20.7096
  11871.694  11871.700  0.500  0.257032  62.0186  47.9617  18.5857
  11872.013  11872.000  0.500  0.318312  62.0669  45.146  16.503
  11872.295  11872.300  0.500  0.370998  62.0995  42.8515  14.9194
  11872.602  11872.600  0.500  0.417209  62.1353  40.9399  13.6427
  11872.896  11872.900  0.500  0.446142  62.1568  39.7861  12.8753
  11873.203  11873.200  0.500  0.456313  62.1687  39.391  12.5664
  11873.503  11873.500  0.500  0.448779  62.1739  39.6923  12.6686
  11873.804  11873.800  0.500  0.429386  62.1706  40.4674  13.0599
  11874.111  11874.100  0.500  0.401267  62.1667  41.6188  13.6825
  11874.393  11874.400  0.500  0.374720  62.1709  42.7414  14.3196
  11874.688  11874.700  0.500  0.349137  62.1564  43.8387  14.9698
  11874.994  11875.000  0.500  0.326626  62.1443  44.828  15.5766
  11875.295  11875.300  0.500  0.309295  62.1385  45.6075  16.0756
  11875.596  11875.600  0.500  0.295288  62.1378  46.2502  16.4932
  11875.890  11875.900  0.500  0.283684  62.1225  46.7785  16.8524
  11876.197  11876.200  0.500  0.272932  62.1267  47.2874  17.2067
  11876.492  11876.500  0.500  0.263513  62.1221  47.7314  17.5289
  11876.805  11876.800  0.500  0.253386  62.1084  48.2065  17.8989
  11877.094  11877.100  0.500  0.243210  62.1044  48.6965  18.2951
  11877.407  11877.400  0.500  0.232551  62.0972  49.2126  18.7568
  11877.701  11877.700  0.500  0.222391  62.0933  49.7121  19.2292
  11878.002  11878.000  0.500  0.213103  62.0866  50.1705  19.7104
  11878.321  11878.300  0.500  0.204545  62.0748  50.5921  20.2001
  11878.610  11878.600  0.500  0.197943  62.0686  50.9221  20.6295
  11878.911  11878.900  0.500  0.192548  62.0633  51.1932  21.0327
  11879.200  11879.200  0.500  0.189038  62.1132  51.4146  21.3799
  11879.507  11879.500  0.500  0.186997  62.2732  51.6523  21.7093
  11879.801  11879.800  0.500  0.186270  62.2668  51.6845  21.9034
  11880.096  11880.100  0.500  0.186618  62.2621  51.6627  22.0233
  11880.403  11880.400  0.500  0.188055  62.2563  51.5836  22.0778
  11880.692  11880.700  0.500  0.189799  62.2407  51.4809  22.0674
  11880.993  11881.000  0.500  0.192222  62.2438  51.3589  21.9984
  11881.282  11881.300  0.500  0.194493  62.2393  51.2387  21.872
  11881.601  11881.600  0.500  0.196802  62.2322  51.1146  21.6974
  11881.878  11881.900  0.500  0.198499  62.2228  51.0202  21.4961
  11882.197  11882.200  0.500  0.199698  62.22  50.9568  21.2706
  11882.492  11882.500  0.500  0.200195  62.2134  50.926  21.0598
  11882.799  11882.800  0.500  0.199864  62.2061  50.937  20.8642
  11883.107  11883.100  0.500  0.198669  62.19  50.9847  20.7172
  11883.395  11883.400  0.500  0.196698  62.1821  51.0788  20.6263
  11883.721  11883.700  0.500  0.194148  62.1617  51.1924  20.58
  11884.010  11884.000  0.500  0.190955  62.1075  51.3113  20.5863
  11884.311  11884.300  0.500  0.187193  62.0136  51.4269  20.6318
  11884.606  11884.600  0.500  0.183328  61.8578  51.4963  20.6963
  11884.914  11884.900  0.500  0.178852  61.6981  51.5938  20.8
  11885.209  11885.200  0.500  0.174475  61.5693  51.7119  20.9229
  11885.504  11885.500  0.500  0.169905  61.5015  51.8916  21.0887
  11885.799  11885.800  0.500  0.165439  61.4898  52.114  21.2708
  11886.106  11886.100  0.500  0.160918  61.5363  52.3896  21.4683
  11886.395  11886.400  0.500  0.156812  61.62  52.6768  21.6585
  11886.690  11886.700  0.500  0.153119  61.7183  52.956  21.8343
  11886.998  11887.000  0.500  0.149700  61.8397  53.2419  22.0084
  11887.287  11887.300  0.500  0.146607  61.9543  53.5058  22.1642
  11887.588  11887.600  0.500  0.144223  62.0249  53.6946  22.2801
  11887.877  11887.900  0.500  0.142392  62.0743  53.8359  22.373
  11888.191  11888.200  0.500  0.140789  62.0985  53.9433  22.4477
  11888.492  11888.500  0.500  0.139812  62.115  54.0103  22.5062
  11888.800  11888.800  0.500  0.139364  62.1114  54.0314  22.5507
  11889.095  11889.100  0.500  0.139242  62.1177  54.0435  22.5965
  11889.403  11889.400  0.500  0.139295  62.1167  54.0398  22.6399
  11889.704  11889.700  0.500  0.139551  62.1073  54.0177  22.6832
  11890.012  11890.000  0.500  0.139889  62.1202  54.0107  22.743
  11890.307  11890.300  0.500  0.140201  62.1223  53.9957  22.8067
  11890.621  11890.600  0.500  0.140643  62.1197  53.9696  22.8766
  11890.904  11890.900  0.500  0.140801  62.1099  53.9526  22.9439
  11891.224  11891.200  0.500  0.140965  62.1056  53.9399  23.0143
  11891.507  11891.500  0.500  0.141006  62.1049  53.9371  23.075
  11891.710  11891.700  0.500  0.140908  62.1032  53.9409  23.1127
  11892.707  11892.690  0.500  0.140143  62.097  53.9768  23.2717
  11893.692  11893.690  0.500  0.138150  62.0853  54.0743  23.4784
  11894.714  11894.710  0.500  0.134951  62.0709  54.235  23.8326
  11895.779  11895.760  0.500  0.130533  62.0608  54.4663  24.223
  11896.845  11896.820  0.500  0.125802  62.0394  54.7057  24.4781
  11897.923  11897.900  0.500  0.121815  62.0247  54.9112  24.6024
  11899.026  11899.000  0.500  0.118791  62.0073  55.0621  24.6845
  11900.123  11900.120  0.500  0.116026  61.9616  55.1739  24.7638
  11901.282  11901.260  0.500  0.113570  61.7243  55.0977  24.7759
  11902.428  11902.410  0.500  0.111204  61.3054  54.8534  24.7079
  11903.606  11903.590  0.500  0.108942  61.585  55.2283  24.9417
  11904.796  11904.780  0.500  0.106734  61.904  55.6372  25.2198
  11906.011  11906.000  0.500  0.104563  61.925  55.7769  25.3787
  11907.233  11907.230  0.500  0.102259  61.9078  55.8901  25.4966
  11908.486  11908.480  0.500  0.100440  61.9092  55.9931  25.6018
  11909.757  11909.750  0.500  0.099455  61.8889  56.03  25.6716
  11911.066  11911.040  0.500  0.099595  61.8685  56.0036  25.6657
  11912.363  11912.350  0.500  0.100438  61.8505  55.9401  25.5685
  11913.685  11913.680  0.500  0.101753  61.8299  55.848  25.4042
  11915.044  11915.030  0.500  0.103213  61.7923  55.7326  25.2013
  11916.416  11916.400  0.500  0.104934  61.5634  55.4307  24.9277
  11917.800  11917.780  0.500  0.106636  61.1142  54.9327  24.585
  11919.210  11919.190  0.500  0.108725  61.5391  55.1991  24.6276
  11920.620  11920.610  0.500  0.111017  61.7367  55.2496  24.6059
  11922.067  11922.050  0.500  0.113787  61.7326  55.0931  24.4968
  11923.540  11923.510  0.500  0.116368  61.7141  54.9347  24.3601
  11925.019  11924.990  0.500  0.118722  61.7081  54.8002  24.2085
  11926.498  11926.490  0.500  0.120876  61.6882  54.6646  24.0374
  11928.021  11928.010  0.500  0.122711  61.6629  54.5421  23.8674
  11929.545  11929.550  0.500  0.124299  61.6366  54.4323  23.7204
  11931.131  11931.110  0.500  0.126232  61.6167  54.3097  23.6009
  11932.711  11932.680  0.500  0.127886  61.5832  54.1904  23.514
  11934.285  11934.280  0.500  0.129214  61.3174  53.8849  23.3429
  11935.885  11935.890  0.500  0.130499  60.9166  53.4639  23.1076
  11937.553  11937.530  0.500  0.131569  61.417  53.8454  23.2501
  11939.191  11939.180  0.500  0.132301  61.4698  53.8523  23.2507
  11940.841  11940.850  0.500  0.133068  61.4612  53.8035  23.2223
  11942.548  11942.540  0.500  0.133478  61.4426  53.7651  23.1809
  11944.268  11944.250  0.500  0.133727  61.4243  53.7357  23.1351
  11945.994  11945.980  0.500  0.133584  61.3989  53.7212  23.1003
  11947.728  11947.730  0.500  0.133331  61.3758  53.7146  23.0888
  11949.493  11949.490  0.500  0.133076  61.3549  53.71  23.1023
  11951.283  11951.280  0.500  0.132557  61.3256  53.7122  23.1498
  11953.080  11953.080  0.500  0.131619  61.2974  53.7379  23.2299
  11954.908  11954.910  0.500  0.130220  61.2751  53.7935  23.321
  11956.744  11956.750  0.500  0.128527  61.2584  53.87  23.403
  11958.586  11958.610  0.500  0.126619  61.2269  53.9452  23.47
  11960.491  11960.490  0.500  0.124710  61.1973  54.0221  23.5381
  11962.378  11962.390  0.500  0.122976  61.1706  54.0922  23.612
  11964.272  11964.310  0.500  0.121325  61.1464  54.1602  23.688
  11966.229  11966.250  0.500  0.119689  61.1141  54.2202  23.7572
  11968.192  11968.210  0.500  0.118199  61.0924  54.2817  23.8125
  11970.587  11970.180  0.500  0.116550  61.0456  54.3297  23.873
  11972.146  11972.180  0.500  0.115435  61.0134  54.3617  23.9149
  11974.368  11974.190  0.500  0.114198  60.9822  54.4011  23.967
  11976.340  11976.220  0.500  0.112804  60.954  54.4518  24.0187
  11978.345  11978.280  0.500  0.111994  60.916  54.462  24.0542
  11980.350  11980.350  0.500  0.111091  60.8693  54.4694  24.0909
  11982.412  11982.440  0.500  0.110491  60.8408  54.4766  24.1388
  11984.512  11984.550  0.500  0.109968  60.8104  54.4777  24.1902
  11986.645  11986.680  0.500  0.109493  60.788  54.4836  24.2384
  11988.790  11988.820  0.500  0.108938  60.762  54.4905  24.2816
  11990.962  11990.990  0.500  0.108476  60.7287  54.4858  24.3063
  11993.147  11993.180  0.500  0.108029  60.6956  54.4805  24.3214
  11995.357  11995.380  0.500  0.107451  60.6609  54.4808  24.3332
  11997.581  11997.600  0.500  0.106986  60.6313  54.4795  24.3392
  11999.837  11999.850  0.500  0.106665  60.6094  54.4774  24.3349
  12002.094  12002.110  0.500  0.106426  60.5717  54.4565  24.3096
  12004.365  12004.390  0.500  0.106211  60.5406  54.4402  24.2755
  12006.667  12006.690  0.500  0.106152  60.5143  54.4198  24.238
  12008.990  12009.010  0.500  0.106124  60.486  54.3959  24.1883
  12011.338  12011.350  0.500  0.106063  60.4554  54.3717  24.1399
  12013.688  12013.700  0.500  0.106085  60.4238  54.342  24.0897
  12016.063  12016.080  0.500  0.106151  60.3933  54.311  24.0436
  12018.446  12018.470  0.500  0.106323  60.3697  54.2805  24.0078
  12020.873  12020.890  0.500  0.106647  60.3312  54.2283  23.9661
  12023.321  12023.320  0.500  0.107184  60.3032  54.174  23.9215
  12025.763  12025.770  0.500  0.107572  60.2687  54.122  23.8834
  12028.244  12028.250  0.500  0.108007  60.2436  54.076  23.8501
  12030.720  12030.740  0.500  0.108282  60.2016  54.0234  23.8186
  12033.235  12033.250  0.500  0.108337  60.1644  53.9871  23.7958
  12035.769  12035.770  0.500  0.108580  60.1274  53.9407  23.7658
  12038.318  12038.320  0.500  0.108491  60.0886  53.9107  23.7534
  12040.886  12040.890  0.500  0.108213  60.0508  53.8917  23.7647
  12043.455  12043.470  0.500  0.107984  60.0063  53.8642  23.7644
  12046.064  12046.080  0.500  0.107221  59.8502  53.7651  23.7452
  12048.711  12048.700  0.500  0.106602  58.2448  52.3553  23.1465
  12051.347  12051.350  0.500  0.105916  59.7903  53.7814  23.8054
  12053.997  12054.010  0.500  0.105184  59.8334  53.8596  23.8684
  12056.674  12056.690  0.500  0.104518  59.816  53.8797  23.9064
  12059.389  12059.390  0.500  0.103611  59.7882  53.9036  23.9463
  12062.125  12062.110  0.500  0.102635  59.7511  53.9227  23.9754
  12064.843  12064.850  0.500  0.101722  59.7201  53.944  23.9999
  12067.588  12067.600  0.500  0.100702  59.6729  53.9564  24.0126
  12070.372  12070.380  0.500  0.099840  59.6424  53.9753  24.0267
  12073.164  12073.170  0.500  0.098919  59.6038  53.9901  24.04
  12075.988  12075.990  0.500  0.098040  59.5636  54.0011  24.0544
  12078.814  12078.820  0.500  0.097200  59.5223  54.009  24.0737
  12081.667  12081.670  0.500  0.096366  59.4869  54.0219  24.0995
  12084.553  12084.550  0.500  0.095725  59.4393  54.0133  24.1131
  12087.422  12087.440  0.500  0.095185  59.4057  54.012  24.133
  12090.348  12090.350  0.500  0.094575  59.3557  53.9994  24.1463
  12093.283  12093.270  0.500  0.094084  59.1947  53.8794  24.1046
  12096.219  12096.220  0.500  0.093694  59.2999  53.9962  24.1714
  12099.176  12099.190  0.500  0.093291  59.2603  53.9819  24.1797
  12102.166  12102.170  0.500  0.092681  59.2159  53.9743  24.1807
  12105.209  12105.180  0.500  0.092177  59.1811  53.9698  24.1931
  12108.196  12108.200  0.500  0.091599  59.1492  53.9719  24.214
  12111.254  12111.250  0.500  0.090823  59.1003  53.9692  24.2323
  12114.327  12114.310  0.500  0.090170  59.057  53.9648  24.2535
  12117.395  12117.390  0.500  0.089605  59.0256  53.9667  24.2749
  12120.490  12120.490  0.500  0.089002  58.9801  53.9576  24.2875
  12123.632  12123.610  0.500  0.088479  58.9352  53.9446  24.2957
  12126.756  12126.750  0.500  0.088024  58.8895  53.9273  24.2962
  12129.901  12129.900  0.500  0.087555  58.6306  53.7155  24.2033
  12133.112  12133.080  0.500  0.087029  58.8158  53.9135  24.2972
  12136.273  12136.270  0.500  0.086649  58.7758  53.8974  24.292
  12139.500  12139.490  0.500  0.086194  58.7283  53.8783  24.2787
  12142.735  12142.720  0.500  0.085753  58.6936  53.8703  24.2619
  12145.991  12145.970  0.500  0.085342  58.6425  53.8454  24.2367
  12149.274  12149.250  0.500  0.084982  58.5966  53.8227  24.2139
  12152.553  12152.540  0.500  0.084531  58.5476  53.8019  24.1907
  12155.873  12155.850  0.500  0.084215  58.5102  53.7846  24.1714
  12159.168  12159.170  0.500  0.083696  58.4523  53.7593  24.1558
  12162.543  12162.520  0.500  0.083276  58.223  53.5708  24.0761
  12165.906  12165.890  0.500  0.082950  58.372  53.7255  24.1571
  12169.265  12169.270  0.500  0.082416  58.3295  53.7149  24.1692
  12172.704  12172.680  0.500  0.081907  58.277  53.694  24.183
  12176.124  12176.100  0.500  0.081342  58.2309  53.6818  24.205
  12179.560  12179.550  0.500  0.080588  58.3471  53.8295  24.2984
  12183.030  12183.010  0.500  0.079958  58.3013  53.8212  24.3279
  12186.496  12186.490  0.500  0.079249  58.2567  53.8182  24.3559
  12189.996  12189.990  0.500  0.078490  58.2036  53.8099  24.3793
  12193.537  12193.510  0.500  0.077772  58.1619  53.8099  24.4041
  12197.054  12197.050  0.500  0.076944  58.1079  53.8045  24.4215
  12200.605  12200.600  0.500  0.076185  57.9328  53.6831  24.383
  12204.211  12204.180  0.500  0.075407  58.0236  53.8091  24.4522
  12207.786  12207.780  0.500  0.074637  57.9885  53.818  24.464
  12211.409  12211.390  0.500  0.073794  57.9356  53.8142  24.4696
  12215.040  12215.020  0.500  0.073053  57.8875  53.8094  24.4719
  12218.693  12218.680  0.500  0.072337  57.8459  53.8092  24.4726
  12222.375  12222.350  0.500  0.071619  57.7977  53.8031  24.4737
  12226.065  12226.040  0.500  0.071081  57.7541  53.7914  24.4745
  12229.757  12229.750  0.500  0.070340  57.6997  53.7805  24.4758
  12233.504  12233.480  0.500  0.069590  57.5619  53.6924  24.4469
  12237.233  12237.220  0.500  0.068973  56.7951  53.0098  24.1418
  12241.004  12240.990  0.500  0.068300  57.4958  53.7  24.4825
  12244.784  12244.780  0.500  0.067642  57.4789  53.7195  24.5122
  12248.586  12248.580  0.500  0.066923  57.4341  53.7162  24.5341
  12252.443  12252.410  0.500  0.066226  57.388  53.7106  24.5561
  12256.250  12256.250  0.500  0.065478  57.1997  53.5744  24.5225
  12260.131  12260.110  0.500  0.064810  57.271  53.677  24.5945
  12263.995  12263.990  0.500  0.064106  56.3006  52.8046  24.2265
  12267.913  12267.890  0.500  0.063507  57.0838  53.5713  24.5929
  12271.828  12271.810  0.500  0.062834  57.0003  53.529  24.5896
  12275.765  12275.750  0.500  0.062055  57.0822  53.6476  24.656
  12279.725  12279.710  0.500  0.061270  57.024  53.635  24.6624
  12283.713  12283.680  0.500  0.060636  56.865  53.5194  24.6187
  12287.697  12287.680  0.500  0.059884  56.882  53.5756  24.6479
  12291.724  12291.690  0.500  0.059298  55.5316  52.3344  24.075
  12295.739  12295.730  0.500  0.058577  56.757  53.5278  24.6261
  12299.804  12299.780  0.500  0.057992  56.5761  53.3884  24.5605
  12303.865  12303.850  0.500  0.057330  56.6848  53.5264  24.625
  12307.961  12307.940  0.500  0.056860  56.6384  53.5078  24.6203
  12312.061  12312.050  0.500  0.056154  56.5845  53.4947  24.6181
  12316.189  12316.180  0.500  0.055668  56.5339  53.4727  24.6167
  12320.347  12320.330  0.500  0.054921  55.6899  52.7138  24.2849
  12324.494  12324.490  0.500  0.054232  56.2991  53.3272  24.5717
  12328.704  12328.680  0.500  0.053604  56.3387  53.3982  24.6218
  12332.910  12332.880  0.500  0.052945  56.2902  53.3875  24.6382
  12337.119  12337.110  0.500  0.052209  56.2415  53.3805  24.6562
  12341.391  12341.350  0.500  0.051504  56.1909  53.3701  24.6784
  12345.619  12345.610  0.500  0.050657  56.1426  53.3694  24.6981
  12349.910  12349.890  0.500  0.049917  55.9503  53.226  24.655
  12354.223  12354.190  0.500  0.049212  56.0357  53.3448  24.734
  12358.520  12358.510  0.500  0.048352  55.9044  53.2656  24.7189
  12362.880  12362.850  0.500  0.047600  55.9228  53.3232  24.7669
  12367.210  12367.210  0.500  0.046856  55.8777  53.3199  24.7804
  12371.623  12371.590  0.500  0.046005  55.8141  53.3045  24.7912
  12376.005  12375.980  0.500  0.045181  55.7649  53.3014  24.8016
  12380.418  12380.400  0.500  0.044505  55.7006  53.276  24.7975
  12384.860  12384.830  0.500  0.043761  55.2519  52.8862  24.6258
  12389.292  12389.280  0.500  0.042977  55.6125  53.2731  24.8187
  12393.781  12393.750  0.500  0.042181  55.5475  53.2532  24.8193
  12398.253  12398.240  0.500  0.041459  55.4877  53.2343  24.8208
  12402.776  12402.750  0.500  0.040737  55.4381  53.2251  24.8241
  12407.308  12407.280  0.500  0.039914  55.3735  53.2068  24.8279
  12411.857  12411.830  0.500  0.039165  55.3121  53.1877  24.8355
  12416.430  12416.400  0.500  0.038356  55.2327  53.1543  24.8368
  12420.993  12420.980  0.500  0.037653  55.1963  53.1567  24.8563
  12425.619  12425.590  0.500  0.036865  55.1399  53.1442  24.8694
  12430.229  12430.210  0.500  0.036158  55.0521  53.0971  24.8692
  12434.896  12434.860  0.500  0.035420  54.9492  53.037  24.8648
  12439.540  12439.520  0.500  0.034588  54.9357  53.0681  24.9005
  12444.221  12444.200  0.500  0.033842  54.9179  53.0904  24.9326
  12448.913  12448.900  0.500  0.033002  54.8523  53.0716  24.9405
  12453.655  12453.620  0.500  0.032286  54.6571  52.9207  24.8893
  12458.367  12458.360  0.500  0.031467  54.7332  53.0377  24.9594
  12463.151  12463.110  0.500  0.030714  54.6728  53.0192  24.9679
  12467.918  12467.890  0.500  0.029966  54.5993  52.9874  24.9605
  12472.716  12472.690  0.500  0.029284  54.5572  52.9827  24.973
  12477.531  12477.500  0.500  0.028502  54.4936  52.9623  24.9699
  12482.349  12482.330  0.500  0.027732  54.4132  52.9249  24.9636
  12487.226  12487.190  0.500  0.026926  54.1504  52.7118  24.8705
  12492.080  12492.060  0.500  0.026212  54.3294  52.9238  24.9797
  12496.978  12496.950  0.500  0.025423  54.2607  52.8986  24.9736
  12501.901  12501.860  0.500  0.024828  54.2039  52.8747  24.9771
  12506.813  12506.790  0.500  0.024046  54.1379  52.8516  24.9776
  12511.771  12511.730  0.500  0.023247  54.0716  52.8292  24.9829
  12516.719  12516.700  0.500  0.022514  54.0086  52.8062  24.9893
  12521.733  12521.690  0.500  0.021714  53.9424  52.7838  24.9972
  12526.709  12526.690  0.500  0.020911  53.8832  52.7681  25.0071
  12531.758  12531.720  0.500  0.020184  53.8153  52.74  25.017
  12536.804  12536.760  0.500  0.019392  53.744  52.7118  25.0229
  12541.868  12541.820  0.500  0.018518  53.4447  52.4641  24.9241
  12546.950  12546.900  0.500  0.017694  53.639  52.6983  25.0592
  12552.043  12552.000  0.500  0.016932  53.5758  52.6763  25.0665
  12557.147  12557.120  0.500  0.016111  53.5111  52.6559  25.0747
  12562.311  12562.260  0.500  0.015273  53.4463  52.6362  25.0858
  12567.458  12567.420  0.500  0.014519  53.3847  52.6152  25.0924
  12572.650  12572.600  0.500  0.013581  53.3136  52.5944  25.0986
  12577.826  12577.790  0.500  0.012840  53.2333  52.5541  25.0957
  12583.055  12583.010  0.500  0.012018  53.1874  52.5521  25.1072
  12588.295  12588.240  0.500  0.011291  53.1259  52.5294  25.1116
  12593.519  12593.490  0.500  0.010420  53.0595  52.5094  25.1156
  12598.803  12598.760  0.500  0.009592  52.9928  52.4869  25.1181
  12604.098  12604.050  0.500  0.008780  52.9257  52.4631  25.1179
  12609.383  12609.360  0.500  0.007994  52.8615  52.4406  25.1243
  12614.729  12614.690  0.500  0.007176  52.7947  52.4172  25.1323
  12620.079  12620.040  0.500  0.006459  52.7278  52.3883  25.1331
  12625.475  12625.410  0.500  0.005483  52.6554  52.3675  25.1384
  12630.835  12630.790  0.500  0.004796  52.6039  52.3521  25.1502
  12636.234  12636.200  0.500  0.003899  52.515  52.3107  25.1504
  12641.651  12641.620  0.500  0.003200  52.4253  52.2578  25.1452
  12647.115  12647.070  0.500  0.002294  52.4076  52.2876  25.1775
  12652.570  12652.530  0.500  0.001490  52.3405  52.2626  25.1851
  12658.051  12658.010  0.500  0.000735  52.2787  52.2402  25.1979
  12663.550  12663.510  0.500  -0.000086  52.2089  52.2134  25.199
  12669.075  12669.030  0.500  -0.001000  52.1433  52.1954  25.2071
  12674.626  12674.570  0.500  -0.001634  52.0771  52.1623  25.2106
  12680.140  12680.120  0.500  -0.002599  52.0051  52.1405  25.2155
  12685.757  12685.700  0.500  -0.003466  51.9373  52.1176  25.2167
  12691.316  12691.300  0.500  -0.004167  51.872  52.0886  25.2203
  12696.957  12696.910  0.500  -0.005093  51.8013  52.0658  25.2234
  12702.596  12702.550  0.500  -0.005900  51.7279  52.034  25.2219
  12708.233  12708.200  0.500  -0.006688  51.6602  52.0069  25.2182
  12713.932  12713.870  0.500  -0.007459  51.589  51.9752  25.217
  12719.579  12719.560  0.500  -0.008198  51.5236  51.9477  25.2197