File: xdidata/Data/As/As-K-CacodylicAcid.xdi
# XDI/1.0 BlueSky/1.10.0 BMM/2023-1.0-py310-tiled
# Beamline.name: BMM (06BM) -- Beamline for Materials Measurement (NIST)
# Beamline.xray_source: NSLS-II three-pole wiggler
# Beamline.collimation: paraboloid mirror, 5 nm Rh on 30 nm Pt
# Beamline.focusing: not in use
# Beamline.harmonic_rejection: flat mirror, Pt stripe, pitch = 7.0 mrad relative to beam
# Beamline.software: Bluesky 1.10.0, Ophyd 1.7.0, DataBroker 2.0.0b13, Python 3.10.8, 2023-1.0-py310-tiled
# Detector.I0: 10 cm N2
# Detector.I1: 25 cm N2
# Detector.I2: 25 cm N2
# Element.symbol: As
# Element.edge: K
# Element.reference: As
# Element.reference_material: As2O3
# Facility.name: NSLS-II
# Facility.energy: 3.0
# Facility.current: 400.2
# Facility.mode: top-off
# Facility.GUP: 301027
# Facility.SAF: 310583
# Facility.cycle: 2023-2
# Mono.name: Si(111)
# Mono.d_spacing: 3.13519
# Mono.encoder_resolution: 0.0000050 deg/ct
# Mono.angle_offset: 16.0754 deg
# Mono.scan_mode: pseudo channel cut
# Mono.scan_type: step
# Mono.direction: forward in energy
# Sample.name: C2H7AsO2
# Sample.prep: powder in PEG pellet
# Sample.x: 115.008 mm
# Sample.y: 114.461 mm
# Sample.SDD_position: 170.000 mm
# Scan.experimenters: Bruce Ravel
# Scan.edge_energy: 11866.7
# Scan.start_time: 2023-07-10T16:53:48
# Scan.end_time: 2023-07-10T17:01:41
# Scan.transient_id: 90301
# Scan.uid: d8b30e46-0f08-461c-a012-15ef953595df
# Scan.plot_hint: ln(I0/It)  --  ln($5/$6)
# Column.1: energy eV
# Column.2: requested_energy eV
# Column.3: measurement_time seconds
# Column.4: xmu
# Column.5: I0 nA
# Column.6: It nA
# Column.7: Ir nA
# ///////////
# sample courtesy Evan Jahrman, NIST
# -----------
# energy  requested_energy  measurement_time  xmu  I0  It  Ir
  11666.684  11666.700  0.500  0.086209  65.0732  59.6984  40.5583
  11676.733  11676.700  0.500  0.084436  64.9749  59.714  40.6025
  11686.753  11686.700  0.500  0.082575  64.8429  59.7037  40.6377
  11696.736  11696.700  0.500  0.080690  64.7278  59.7101  40.675
  11706.743  11706.700  0.500  0.078901  64.5893  59.689  40.6978
  11716.743  11716.700  0.500  0.077133  64.4761  59.6898  40.7312
  11726.749  11726.700  0.500  0.075382  64.3209  59.6506  40.7448
  11736.772  11736.700  0.500  0.073613  64.0381  59.4934  40.6677
  11746.716  11746.700  0.500  0.071886  63.8222  59.3952  40.6377
  11756.732  11756.700  0.500  0.070147  63.7998  59.4778  40.7249
  11766.747  11766.700  0.500  0.068417  63.7688  59.5518  40.804
  11776.743  11776.700  0.500  0.066752  63.4444  59.3476  40.6922
  11786.750  11786.700  0.500  0.065267  63.5207  59.5073  40.8296
  11796.774  11796.700  0.500  0.063724  63.3702  59.4579  40.817
  11806.689  11806.700  0.500  0.062399  63.0068  59.1954  40.6552
  11816.711  11816.700  0.500  0.061322  63.0702  59.3188  40.7499
  11826.714  11826.700  0.500  0.060380  62.9326  59.2451  40.6794
  11836.704  11836.700  0.500  0.060308  62.8145  59.1382  40.5591
  11838.668  11838.700  0.500  0.060484  62.798  59.1123  40.523
  11840.668  11840.700  0.500  0.060602  62.7619  59.0714  40.472
  11842.664  11842.700  0.500  0.060935  62.7497  59.0402  40.4228
  11844.666  11844.700  0.500  0.061373  62.7326  58.9982  40.3632
  11846.656  11846.700  0.500  0.061796  62.7019  58.9445  40.2788
  11848.660  11848.700  0.500  0.062525  62.4809  58.6939  40.0574
  11850.664  11850.700  0.500  0.063620  62.6319  58.7713  40.0475
  11852.663  11852.700  0.500  0.064843  62.6115  58.6804  39.9008
  11854.656  11854.700  0.500  0.066480  62.5548  58.5314  39.6851
  11856.668  11856.700  0.500  0.068681  62.3826  58.242  39.3384
  11856.944  11857.000  0.500  0.069147  62.414  58.2441  39.3142
  11857.249  11857.300  0.500  0.069550  62.4553  58.2592  39.2942
  11857.561  11857.600  0.500  0.069922  62.4781  58.2587  39.2658
  11857.855  11857.900  0.500  0.070450  62.5015  58.2498  39.2313
  11858.149  11858.200  0.500  0.070989  62.5146  58.2306  39.1855
  11858.467  11858.500  0.500  0.071534  62.4888  58.1748  39.1096
  11858.749  11858.800  0.500  0.072074  62.4389  58.097  39.0273
  11859.055  11859.100  0.500  0.072593  62.3579  57.9916  38.9155
  11859.361  11859.400  0.500  0.073274  62.2813  57.8809  38.7969
  11859.660  11859.700  0.500  0.073893  62.2206  57.7887  38.6935
  11859.960  11860.000  0.500  0.074705  62.1635  57.6888  38.5776
  11860.260  11860.300  0.500  0.075429  62.1484  57.633  38.4945
  11860.566  11860.600  0.500  0.076204  62.1523  57.5921  38.4071
  11860.848  11860.900  0.500  0.077034  62.1895  57.5786  38.3461
  11861.160  11861.200  0.500  0.077884  62.2418  57.5782  38.2862
  11861.460  11861.500  0.500  0.078784  62.3011  57.5811  38.222
  11861.760  11861.800  0.500  0.079787  62.3358  57.5554  38.1443
  11862.066  11862.100  0.500  0.080841  62.3377  57.4965  38.0289
  11862.366  11862.400  0.500  0.081945  62.3054  57.4034  37.8921
  11862.691  11862.700  0.500  0.083228  62.2618  57.2897  37.7337
  11862.979  11863.000  0.500  0.084393  62.2387  57.2017  37.5932
  11863.291  11863.300  0.500  0.085722  62.2279  57.1158  37.4383
  11863.579  11863.600  0.500  0.087207  62.2461  57.0477  37.2965
  11863.885  11863.900  0.500  0.088797  62.2863  56.9939  37.1476
  11864.185  11864.200  0.500  0.090562  62.3329  56.936  36.9872
  11864.498  11864.500  0.500  0.092370  62.3621  56.8598  36.8066
  11864.792  11864.800  0.500  0.094358  62.3878  56.7702  36.6088
  11865.092  11865.100  0.500  0.096610  62.4013  56.6548  36.3744
  11865.398  11865.400  0.500  0.099043  62.405  56.5204  36.1104
  11865.692  11865.700  0.500  0.101653  62.4053  56.3733  35.8271
  11865.987  11866.000  0.500  0.104445  62.3978  56.2095  35.5124
  11866.287  11866.300  0.500  0.107653  62.3906  56.0229  35.1611
  11866.581  11866.600  0.500  0.111222  62.3873  55.8205  34.7805
  11866.887  11866.900  0.500  0.114967  62.379  55.6043  34.3555
  11867.163  11867.200  0.500  0.119040  62.3881  55.3864  33.9237
  11867.494  11867.500  0.500  0.124268  62.3789  55.0895  33.3533
  11867.776  11867.800  0.500  0.129262  62.3697  54.807  32.8113
  11868.089  11868.100  0.500  0.135491  62.3749  54.4711  32.1532
  11868.377  11868.400  0.500  0.142112  62.3526  54.0924  31.4442
  11868.689  11868.700  0.500  0.150132  62.3497  53.6578  30.6254
  11868.984  11869.000  0.500  0.158937  62.3584  53.1949  29.7384
  11869.290  11869.300  0.500  0.169126  62.3376  52.638  28.7385
  11869.609  11869.600  0.500  0.181832  62.3202  51.959  27.5477
  11869.897  11869.900  0.500  0.195548  62.3215  51.2522  26.351
  11870.204  11870.200  0.500  0.212954  62.292  50.344  24.9242
  11870.504  11870.500  0.500  0.233913  62.245  49.2626  23.3818
  11870.798  11870.800  0.500  0.258802  62.1933  48.0117  21.7707
  11871.099  11871.100  0.500  0.290460  62.1558  46.4875  20.0431
  11871.393  11871.400  0.500  0.329253  62.1292  44.6995  18.3036
  11871.712  11871.700  0.500  0.382594  62.1417  42.3862  16.419
  11872.000  11872.000  0.500  0.443121  62.1641  39.9112  14.7529
  11872.289  11872.300  0.500  0.521592  62.2115  36.9272  13.0769
  11872.595  11872.600  0.500  0.620819  62.2432  33.456  11.4343
  11872.890  11872.900  0.500  0.735032  62.2727  29.8591  9.959385
  11873.197  11873.200  0.500  0.878489  62.287  25.8746  8.499154
  11873.479  11873.500  0.500  1.033511  62.2892  22.1597  7.247215
  11873.792  11873.800  0.500  1.200800  62.2894  18.7462  6.158365
  11874.092  11874.100  0.500  1.367544  62.2894  15.8671  5.274920
  11874.393  11874.400  0.500  1.514103  62.2878  13.7037  4.629928
  11874.706  11874.700  0.500  1.634368  62.279  12.1491  4.182509
  11874.988  11875.000  0.500  1.701227  62.2749  11.3626  3.976422
  11875.301  11875.300  0.500  1.723093  62.2719  11.1164  3.945113
  11875.602  11875.600  0.500  1.700618  62.2638  11.3675  4.079147
  11875.909  11875.900  0.500  1.644437  62.2716  12.026  4.352213
  11876.210  11876.200  0.500  1.565112  62.259  13.0162  4.752358
  11876.498  11876.500  0.500  1.480306  62.2408  14.164  5.220958
  11876.823  11876.800  0.500  1.383367  62.2404  15.6057  5.820270
  11877.100  11877.100  0.500  1.300079  62.233  16.9591  6.403513
  11877.407  11877.400  0.500  1.219185  62.2269  18.3862  7.042366
  11877.707  11877.700  0.500  1.147428  62.2196  19.7517  7.683984
  11877.996  11878.000  0.500  1.087777  62.2129  20.9635  8.280909
  11878.297  11878.300  0.500  1.036935  62.2128  22.0569  8.847307
  11878.579  11878.600  0.500  0.996712  62.2002  22.9575  9.341111
  11878.905  11878.900  0.500  0.961821  62.1949  23.7706  9.814077
  11879.181  11879.200  0.500  0.938429  62.1906  24.3316  10.1631
  11879.482  11879.500  0.500  0.921607  62.1824  24.7411  10.4413
  11879.789  11879.800  0.500  0.911109  62.3893  25.0854  10.6772
  11880.090  11880.100  0.500  0.906495  62.3948  25.2036  10.7949
  11880.397  11880.400  0.500  0.905945  62.3933  25.2168  10.844
  11880.686  11880.700  0.500  0.908205  62.3736  25.152  10.8329
  11881.011  11881.000  0.500  0.912234  62.371  25.0498  10.78
  11881.294  11881.300  0.500  0.916500  62.3607  24.9391  10.6981
  11881.607  11881.600  0.500  0.921196  62.3518  24.8187  10.5852
  11881.896  11881.900  0.500  0.925687  62.3505  24.707  10.4624
  11882.216  11882.200  0.500  0.930814  62.3408  24.5768  10.3147
  11882.504  11882.500  0.500  0.935542  62.3327  24.4577  10.1718
  11882.806  11882.800  0.500  0.940814  62.3245  24.3259  10.0266
  11883.094  11883.100  0.500  0.946145  62.3113  24.1914  9.893769
  11883.414  11883.400  0.500  0.951804  62.2942  24.0483  9.772165
  11883.703  11883.700  0.500  0.956657  62.2765  23.9251  9.682308
  11883.998  11884.000  0.500  0.960474  62.2288  23.8157  9.617430
  11884.299  11884.300  0.500  0.963118  62.1248  23.7131  9.573357
  11884.594  11884.600  0.500  0.963888  61.9818  23.6403  9.556238
  11884.895  11884.900  0.500  0.962480  61.8303  23.6157  9.571054
  11885.172  11885.200  0.500  0.959576  61.7015  23.6351  9.612265
  11885.498  11885.500  0.500  0.954311  61.6066  23.7233  9.690471
  11885.780  11885.800  0.500  0.948151  61.5871  23.8623  9.783228
  11886.106  11886.100  0.500  0.940179  61.635  24.072  9.909566
  11886.395  11886.400  0.500  0.932033  61.6922  24.2915  10.0341
  11886.703  11886.700  0.500  0.922716  61.8087  24.5651  10.1757
  11887.004  11887.000  0.500  0.914204  61.9205  24.8199  10.3037
  11887.305  11887.300  0.500  0.905004  62.0411  25.0981  10.4427
  11887.600  11887.600  0.500  0.896378  62.1013  25.3401  10.5579
  11887.914  11887.900  0.500  0.887303  62.1421  25.5879  10.6768
  11888.209  11888.200  0.500  0.879198  62.157  25.8023  10.782
  11888.517  11888.500  0.500  0.870723  62.1699  26.0273  10.89
  11888.788  11888.800  0.500  0.863207  62.1681  26.223  10.9875
  11889.120  11889.100  0.500  0.855029  62.17  26.4391  11.0963
  11889.409  11889.400  0.500  0.847931  62.1575  26.622  11.1951
  11889.704  11889.700  0.500  0.840639  62.1537  26.8153  11.3027
  11889.999  11890.000  0.500  0.834275  62.1486  26.9843  11.4056
  11890.307  11890.300  0.500  0.827560  62.1406  27.1626  11.5192
  11890.590  11890.600  0.500  0.821704  62.1329  27.3187  11.6186
  11890.898  11890.900  0.500  0.816028  62.1278  27.4719  11.7233
  11891.181  11891.200  0.500  0.810957  62.1272  27.6114  11.8208
  11891.495  11891.500  0.500  0.805478  62.1242  27.7617  11.9185
  11891.685  11891.700  0.500  0.802379  62.1033  27.8385  11.9686
  11892.726  11892.690  0.500  0.788632  62.0905  28.218  12.2096
  11893.711  11893.690  0.500  0.779320  62.0728  28.4739  12.4098
  11894.720  11894.710  0.500  0.772399  62.0628  28.667  12.6387
  11895.779  11895.760  0.500  0.765922  62.0337  28.8398  12.8662
  11896.826  11896.820  0.500  0.756991  62.0139  29.0892  13.0566
  11897.898  11897.900  0.500  0.743175  61.9982  29.4864  13.2509
  11899.007  11899.000  0.500  0.724334  61.9711  30.0341  13.4993
  11900.135  11900.120  0.500  0.702888  61.9381  30.6689  13.7994
  11901.288  11901.260  0.500  0.680652  61.6878  31.2317  14.0807
  11902.434  11902.410  0.500  0.659167  61.266  31.6918  14.3128
  11903.606  11903.590  0.500  0.639517  61.5366  32.4634  14.6979
  11904.784  11904.780  0.500  0.623310  61.8577  33.166  15.0699
  11906.011  11906.000  0.500  0.610870  61.8806  33.5937  15.3216
  11907.252  11907.230  0.500  0.602671  61.8647  33.8615  15.4863
  11908.504  11908.480  0.500  0.597770  61.8492  34.0194  15.5915
  11909.764  11909.750  0.500  0.595657  61.833  34.0823  15.6554
  11911.042  11911.040  0.500  0.595452  61.8189  34.0816  15.6573
  11912.357  11912.350  0.500  0.596542  61.8013  34.0348  15.5976
  11913.691  11913.680  0.500  0.598953  61.7788  33.9404  15.4834
  11915.044  11915.030  0.500  0.602791  61.7328  33.7853  15.3219
  11916.428  11916.400  0.500  0.608316  61.51  33.4778  15.0961
  11917.794  11917.780  0.500  0.615619  61.0572  32.9896  14.8074
  11919.198  11919.190  0.500  0.624852  61.4632  32.9038  14.7261
  11920.632  11920.610  0.500  0.635224  61.6743  32.6761  14.5976
  11922.080  11922.050  0.500  0.645843  61.6719  32.3297  14.4197
  11923.521  11923.510  0.500  0.655623  61.6547  32.0061  14.2379
  11925.000  11924.990  0.500  0.664384  61.6345  31.7165  14.0577
  11926.498  11926.490  0.500  0.672789  61.6127  31.4399  13.8717
  11928.021  11928.010  0.500  0.680721  61.5908  31.1804  13.691
  11929.570  11929.550  0.500  0.687841  61.5692  30.9484  13.5308
  11931.131  11931.110  0.500  0.694049  61.5568  30.7506  13.4082
  11932.674  11932.680  0.500  0.699731  61.5213  30.5588  13.3065
  11934.285  11934.280  0.500  0.705255  61.268  30.2653  13.1573
  11935.903  11935.890  0.500  0.709595  60.8419  29.9247  12.9766
  11937.553  11937.530  0.500  0.711785  61.3493  30.1082  13.0454
  11939.178  11939.180  0.500  0.713397  61.4149  30.0919  13.0385
  11940.854  11940.850  0.500  0.715604  61.4016  30.019  13.0016
  11942.548  11942.540  0.500  0.718314  61.3854  29.9299  12.9515
  11944.262  11944.250  0.500  0.720472  61.3564  29.8513  12.8983
  11945.994  11945.980  0.500  0.722170  61.3328  29.7892  12.8535
  11947.728  11947.730  0.500  0.723373  61.303  29.7389  12.8296
  11949.499  11949.490  0.500  0.723723  61.2838  29.7192  12.8296
  11951.295  11951.280  0.500  0.723574  61.2595  29.7118  12.8494
  11953.092  11953.080  0.500  0.723037  61.2303  29.7136  12.8912
  11954.908  11954.910  0.500  0.722111  61.2078  29.7302  12.9353
  11956.756  11956.750  0.500  0.720648  61.1819  29.7612  12.973
  11958.623  11958.610  0.500  0.718997  61.1596  29.7995  13.0104
  11960.479  11960.490  0.500  0.716880  61.1306  29.8484  13.0513
  11962.397  11962.390  0.500  0.714357  61.1037  29.9107  13.1011
  11964.315  11964.310  0.500  0.711580  61.0726  29.9786  13.1561
  11966.266  11966.250  0.500  0.707987  61.0482  30.0745  13.2194
  11968.198  11968.210  0.500  0.704239  61.0251  30.176  13.2819
  11970.175  11970.180  0.500  0.699605  60.9908  30.2991  13.3526
  11972.184  11972.180  0.500  0.694739  60.9539  30.4285  13.429
  11974.193  11974.190  0.500  0.690095  60.9293  30.5578  13.5067
  11976.203  11976.220  0.500  0.685605  60.8984  30.6797  13.575
  11978.245  11978.280  0.500  0.681102  60.8676  30.8026  13.6457
  11980.325  11980.350  0.500  0.676958  60.8436  30.9183  13.7164
  11982.406  11982.440  0.500  0.673292  60.8147  31.0171  13.7852
  11984.612  11984.550  0.500  0.669535  60.7655  31.1087  13.8555
  11986.651  11986.680  0.500  0.667049  60.745  31.1756  13.9142
  11988.803  11988.820  0.500  0.664542  60.7099  31.2358  13.9618
  11991.156  11990.990  0.500  0.662575  60.6697  31.2766  13.9944
  11993.284  11993.180  0.500  0.661212  60.651  31.3096  14.0175
  11995.414  11995.380  0.500  0.660253  60.6112  31.3191  14.0316
  11997.612  11997.600  0.500  0.659646  60.5787  31.3213  14.0367
  11999.850  11999.850  0.500  0.659342  60.5524  31.3172  14.031
  12002.119  12002.110  0.500  0.659132  60.5265  31.3103  14.0199
  12004.396  12004.390  0.500  0.659169  60.5007  31.2959  13.998
  12006.680  12006.690  0.500  0.658962  60.4729  31.288  13.9764
  12009.009  12009.010  0.500  0.658896  60.4384  31.2722  13.9479
  12011.363  12011.350  0.500  0.658906  60.4073  31.2558  13.9195
  12013.694  12013.700  0.500  0.659098  60.3797  31.2355  13.891
  12016.082  12016.080  0.500  0.659231  60.3419  31.2118  13.8626
  12018.465  12018.470  0.500  0.659627  60.314  31.185  13.8381
  12020.892  12020.890  0.500  0.660245  60.2867  31.1516  13.8127
  12023.340  12023.320  0.500  0.660924  60.2568  31.115  13.7831
  12025.782  12025.770  0.500  0.661692  60.2199  31.0721  13.7558
  12028.257  12028.250  0.500  0.662545  60.1875  31.0289  13.7286
  12030.726  12030.740  0.500  0.663484  60.1523  30.9817  13.7019
  12033.247  12033.250  0.500  0.664203  60.1188  30.9421  13.6797
  12035.775  12035.770  0.500  0.664968  60.0806  30.8988  13.6566
  12038.318  12038.320  0.500  0.665867  60.0456  30.8531  13.6381
  12040.905  12040.890  0.500  0.666969  60.0088  30.8002  13.6245
  12043.474  12043.470  0.500  0.666961  59.972  30.7816  13.6211
  12046.076  12046.080  0.500  0.667059  59.8095  30.6952  13.6021
  12048.711  12048.700  0.500  0.666584  58.1871  29.8767  13.2505
  12051.366  12051.350  0.500  0.665912  59.7451  30.6973  13.6313
  12054.010  12054.010  0.500  0.665096  59.7943  30.7477  13.6699
  12056.693  12056.690  0.500  0.664172  59.7716  30.7644  13.6917
  12059.383  12059.390  0.500  0.663067  59.7362  30.7802  13.7146
  12062.132  12062.110  0.500  0.661919  59.7074  30.8007  13.7379
  12064.856  12064.850  0.500  0.660735  59.6698  30.8178  13.7521
  12067.601  12067.600  0.500  0.659494  59.6332  30.8371  13.7678
  12070.378  12070.380  0.500  0.658011  59.5918  30.8614  13.7801
  12073.183  12073.170  0.500  0.656814  59.5612  30.8825  13.7949
  12075.995  12075.990  0.500  0.655160  59.5178  30.9111  13.8118
  12078.834  12078.820  0.500  0.653636  59.4751  30.936  13.8304
  12081.667  12081.670  0.500  0.652224  59.4383  30.9606  13.8524
  12084.553  12084.550  0.500  0.650620  59.3961  30.9882  13.8749
  12087.466  12087.440  0.500  0.649350  59.366  31.0119  13.901
  12090.348  12090.350  0.500  0.647698  59.3141  31.036  13.9188
  12093.251  12093.270  0.500  0.646148  59.1424  30.9942  13.9092
  12096.213  12096.220  0.500  0.644635  59.2591  31.1024  13.9649
  12099.202  12099.190  0.500  0.643250  59.2162  31.1229  13.9799
  12102.160  12102.170  0.500  0.642067  59.1785  31.14  13.9916
  12105.183  12105.180  0.500  0.640837  59.1405  31.1583  14.0086
  12108.196  12108.200  0.500  0.639428  59.0971  31.1792  14.0299
  12111.254  12111.250  0.500  0.638043  59.0618  31.2039  14.0535
  12114.308  12114.310  0.500  0.637025  59.0201  31.2136  14.0699
  12117.402  12117.390  0.500  0.636024  58.9805  31.2239  14.0869
  12120.516  12120.490  0.500  0.635062  58.9375  31.2311  14.0984
  12123.600  12123.610  0.500  0.634174  58.8922  31.2348  14.1091
  12126.762  12126.750  0.500  0.633300  58.8422  31.2356  14.1153
  12129.920  12129.900  0.500  0.632410  58.5927  31.1309  14.0686
  12133.080  12133.080  0.500  0.631427  58.7797  31.2609  14.1311
  12136.273  12136.270  0.500  0.630619  58.7346  31.2622  14.1313
  12139.506  12139.490  0.500  0.629639  58.6923  31.2703  14.1302
  12142.735  12142.720  0.500  0.628695  58.6512  31.278  14.1295
  12145.965  12145.970  0.500  0.627715  58.6091  31.2861  14.1234
  12149.249  12149.250  0.500  0.626803  58.5619  31.2895  14.1181
  12152.553  12152.540  0.500  0.625791  58.5172  31.2973  14.1129
  12155.860  12155.850  0.500  0.624818  58.468  31.3014  14.1084
  12159.194  12159.170  0.500  0.623911  58.4175  31.3027  14.1068
  12162.530  12162.520  0.500  0.622789  58.1894  31.2155  14.0712
  12165.906  12165.890  0.500  0.621873  58.3396  31.3247  14.1263
  12169.291  12169.270  0.500  0.620856  58.29  31.33  14.1384
  12172.684  12172.680  0.500  0.619835  58.2422  31.3363  14.1554
  12176.118  12176.100  0.500  0.619061  58.2004  31.338  14.1729
  12179.586  12179.550  0.500  0.617798  58.1461  31.3483  14.1922
  12183.017  12183.010  0.500  0.616890  58.1057  31.355  14.2122
  12186.502  12186.490  0.500  0.615835  58.0539  31.3601  14.2332
  12190.035  12189.990  0.500  0.614904  58.0084  31.3648  14.2523
  12193.524  12193.510  0.500  0.613776  57.9593  31.3736  14.2694
  12197.060  12197.050  0.500  0.612761  57.9149  31.3814  14.2842
  12200.618  12200.600  0.500  0.611681  57.7413  31.3211  14.2685
  12204.178  12204.180  0.500  0.610651  57.8365  31.405  14.3106
  12207.799  12207.780  0.500  0.609484  57.7829  31.4126  14.3202
  12211.402  12211.390  0.500  0.608438  57.9439  31.5331  14.3811
  12215.027  12215.020  0.500  0.607165  57.8913  31.5446  14.3862
  12218.700  12218.680  0.500  0.606192  57.8503  31.5529  14.394
  12222.375  12222.350  0.500  0.604838  57.7974  31.5668  14.4007
  12226.045  12226.040  0.500  0.603670  57.7558  31.581  14.4121
  12229.764  12229.750  0.500  0.602394  57.7054  31.5937  14.4196
  12233.484  12233.480  0.500  0.601293  57.5738  31.5563  14.4096
  12237.233  12237.220  0.500  0.600047  56.7975  31.1697  14.2358
  12241.024  12240.990  0.500  0.598725  57.5097  31.6023  14.4486
  12244.784  12244.780  0.500  0.597368  57.4892  31.6339  14.4732
  12248.612  12248.580  0.500  0.596163  57.442  31.646  14.4952
  12252.430  12252.410  0.500  0.594883  57.391  31.6584  14.5159
  12256.269  12256.250  0.500  0.593445  57.2051  31.6013  14.5067
  12260.150  12260.110  0.500  0.592242  57.2771  31.6791  14.558
  12264.008  12263.990  0.500  0.590843  56.3146  31.1904  14.3508
  12267.907  12267.890  0.500  0.589518  57.0872  31.6603  14.5714
  12271.835  12271.810  0.500  0.588064  56.9954  31.6553  14.5791
  12275.759  12275.750  0.500  0.586884  57.0887  31.7446  14.6326
  12279.731  12279.710  0.500  0.585357  57.025  31.7576  14.643
  12283.687  12283.680  0.500  0.584039  56.8678  31.7118  14.627
  12287.697  12287.680  0.500  0.582727  56.8896  31.7656  14.6545
  12291.724  12291.690  0.500  0.581314  55.5173  31.0432  14.3204
  12295.733  12295.730  0.500  0.580013  56.7573  31.7779  14.6589
  12299.804  12299.780  0.500  0.578515  56.5698  31.7204  14.6314
  12303.852  12303.850  0.500  0.577278  56.6874  31.8257  14.6847
  12307.975  12307.940  0.500  0.575884  56.6367  31.8416  14.6914
  12312.081  12312.050  0.500  0.574618  56.5784  31.8491  14.6993
  12316.189  12316.180  0.500  0.573186  56.5217  31.8628  14.7067
  12320.360  12320.330  0.500  0.571944  55.7004  31.4388  14.5267
  12324.514  12324.490  0.500  0.570732  56.2972  31.8142  14.6984
  12328.691  12328.680  0.500  0.569193  56.3321  31.883  14.7403
  12332.923  12332.880  0.500  0.567947  56.292  31.9  14.7616
  12337.119  12337.110  0.500  0.566781  56.2444  31.9102  14.7807
  12341.377  12341.350  0.500  0.565373  56.1913  31.925  14.7989
  12345.625  12345.610  0.500  0.564018  56.1321  31.9346  14.8178
  12349.903  12349.890  0.500  0.562752  55.9464  31.8693  14.8027
  12354.217  12354.190  0.500  0.561575  56.0292  31.954  14.8562
  12358.527  12358.510  0.500  0.560271  55.8937  31.9183  14.8516
  12362.873  12362.850  0.500  0.559082  55.9131  31.9674  14.8875
  12367.223  12367.210  0.500  0.557957  55.8737  31.9808  14.904
  12371.596  12371.590  0.500  0.556736  55.8046  31.9803  14.9144
  12376.018  12375.980  0.500  0.555450  55.7605  31.9962  14.9248
  12380.404  12380.400  0.500  0.554332  55.6958  31.9948  14.9333
  12384.867  12384.830  0.500  0.553022  55.2435  31.7765  14.8353
  12389.272  12389.280  0.500  0.551857  55.6082  32.0236  14.9594
  12393.774  12393.750  0.500  0.550531  55.5463  32.0304  14.967
  12398.273  12398.240  0.500  0.549292  55.4858  32.0352  14.9762
  12402.762  12402.750  0.500  0.547986  55.4271  32.0431  14.9826
  12407.328  12407.280  0.500  0.546628  55.3724  32.055  14.9957
  12411.830  12411.830  0.500  0.545279  55.3045  32.0589  15.0092
  12416.430  12416.400  0.500  0.544021  55.2313  32.0568  15.0191
  12420.993  12420.980  0.500  0.542754  55.1907  32.0738  15.0388
  12425.619  12425.590  0.500  0.541319  55.1307  32.085  15.0551
  12430.243  12430.210  0.500  0.539987  55.0419  32.076  15.0621
  12434.863  12434.860  0.500  0.538578  54.9423  32.0631  15.0703
  12439.567  12439.520  0.500  0.537242  54.9256  32.0962  15.0974
  12444.221  12444.200  0.500  0.535788  54.9136  32.1359  15.1308
  12448.920  12448.900  0.500  0.534464  54.8494  32.1408  15.1442
  12453.655  12453.620  0.500  0.532905  54.6515  32.0748  15.1235
  12458.367  12458.360  0.500  0.531496  54.7296  32.1659  15.1767
  12463.151  12463.110  0.500  0.530005  54.6662  32.1766  15.1909
  12467.898  12467.890  0.500  0.528576  54.5867  32.1758  15.1982
  12472.716  12472.690  0.500  0.527190  54.5477  32.1974  15.2159
  12477.517  12477.500  0.500  0.525681  54.4821  32.2073  15.2231
  12482.356  12482.330  0.500  0.524259  54.4035  32.2066  15.2297
  12487.213  12487.190  0.500  0.522789  54.1385  32.0968  15.1824
  12492.080  12492.060  0.500  0.521225  54.3234  32.2568  15.2631
  12496.985  12496.950  0.500  0.519846  54.2547  32.2605  15.2721
  12501.880  12501.860  0.500  0.518265  54.189  32.2724  15.2832
  12506.807  12506.790  0.500  0.516943  54.1275  32.2784  15.2967
  12511.764  12511.730  0.500  0.515517  54.0633  32.2862  15.3067
  12516.726  12516.700  0.500  0.514077  53.9957  32.2922  15.3205
  12521.726  12521.690  0.500  0.512688  53.933  32.2996  15.3352
  12526.723  12526.690  0.500  0.511312  53.8724  32.3078  15.3507
  12531.744  12531.720  0.500  0.509798  53.8032  32.3151  15.3651
  12536.777  12536.760  0.500  0.508454  53.7297  32.3144  15.3768
  12541.868  12541.820  0.500  0.507139  53.4253  32.1736  15.3229
  12546.923  12546.900  0.500  0.505780  53.632  32.342  15.4169
  12552.023  12552.000  0.500  0.504492  53.564  32.3426  15.4295
  12557.147  12557.120  0.500  0.502903  53.4929  32.351  15.444
  12562.290  12562.260  0.500  0.501661  53.4386  32.3583  15.4603
  12567.444  12567.420  0.500  0.500401  53.3698  32.3574  15.4724
  12572.643  12572.600  0.500  0.499127  53.3086  32.3615  15.4834
  12577.833  12577.790  0.500  0.497739  53.2199  32.3526  15.4854
  12583.048  12583.010  0.500  0.496321  53.1758  32.3716  15.5053
  12588.247  12588.240  0.500  0.495011  53.1113  32.3747  15.5163
  12593.540  12593.490  0.500  0.493615  53.0463  32.3803  15.525
  12598.789  12598.760  0.500  0.492321  52.9785  32.3807  15.5352
  12604.091  12604.050  0.500  0.490927  52.9127  32.3857  15.5478
  12609.425  12609.360  0.500  0.489603  52.8523  32.3916  15.5583
  12614.708  12614.690  0.500  0.488268  52.7829  32.3922  15.5671
  12620.086  12620.040  0.500  0.486842  52.7155  32.397  15.5797
  12625.434  12625.410  0.500  0.485414  52.6407  32.3973  15.5907
  12630.842  12630.790  0.500  0.483945  52.5824  32.409  15.6082
  12636.227  12636.200  0.500  0.482549  52.4998  32.4033  15.6156
  12641.651  12641.620  0.500  0.481226  52.4098  32.3906  15.6262
  12647.115  12647.070  0.500  0.479811  52.3961  32.428  15.6533
  12652.577  12652.530  0.500  0.478268  52.3265  32.4349  15.6692
  12658.051  12658.010  0.500  0.476799  52.2588  32.4405  15.6828
  12663.536  12663.510  0.500  0.475273  52.1907  32.4477  15.699
  12669.075  12669.030  0.500  0.473809  52.1226  32.4529  15.7137
  12674.619  12674.570  0.500  0.472369  52.0559  32.4581  15.7244
  12680.161  12680.120  0.500  0.470818  51.9958  32.4709  15.738
  12685.722  12685.700  0.500  0.469314  51.9167  32.4704  15.7488
  12691.323  12691.300  0.500  0.467766  51.8466  32.4767  15.7599
  12696.950  12696.910  0.500  0.466349  51.7851  32.4842  15.7731
  12702.589  12702.550  0.500  0.464835  51.7081  32.485  15.7815
  12708.254  12708.200  0.500  0.463280  51.6434  32.4949  15.7947
  12713.918  12713.870  0.500  0.461822  51.5726  32.4977  15.8035
  12719.600  12719.560  0.500  0.460387  51.4997  32.4983  15.8154