File: xdidata/Ho/Ho-L3-HolmiumOxide.xdi
# XDI/1.0 BlueSky/1.10.0 BMM/2023-1.0-py310-tiled
# Beamline.name: BMM (06BM) -- Beamline for Materials Measurement (NIST)
# Beamline.xray_source: NSLS-II three-pole wiggler
# Beamline.collimation: paraboloid mirror, 5 nm Rh on 30 nm Pt
# Beamline.focusing: not in use
# Beamline.harmonic_rejection: flat mirror, Pt stripe, pitch = 7.0 mrad relative to beam
# Beamline.software: Bluesky 1.10.0, Ophyd 1.7.0, DataBroker 2.0.0b13, Python 3.10.8, 2023-1.0-py310-tiled
# Detector.I0: 10 cm N2
# Detector.I1: 25 cm N2
# Detector.I2: 25 cm N2
# Element.symbol: Ho
# Element.edge: L3
# Element.reference: Ho
# Element.reference_material: Ho2O3
# Facility.name: NSLS-II
# Facility.energy: 3.0
# Facility.current: 399.7
# Facility.mode: top-off
# Facility.GUP: 301027
# Facility.SAF: 310583
# Facility.cycle: 2023-2
# Mono.name: Si(111)
# Mono.d_spacing: 3.13519
# Mono.encoder_resolution: 0.0000050 deg/ct
# Mono.angle_offset: 16.0754 deg
# Mono.scan_mode: pseudo channel cut
# Mono.scan_type: step
# Mono.direction: forward in energy
# Sample.name: Ho2O3
# Sample.prep: PEG pellet
# Sample.x: 109.138 mm
# Sample.y: 153.150 mm
# Sample.SDD_position: 205.000 mm
# Scan.experimenters: Bruce Ravel
# Scan.edge_energy: 8071.1
# Scan.start_time: 2023-05-28T14:45:16
# Scan.end_time: 2023-05-28T14:53:09
# Scan.transient_id: 78770
# Scan.uid: 7e36ac9f-ec01-4463-a4dc-fbf08421a0ee
# Scan.plot_hint: ln(It/Ir)  --  ln($6/$7)
# Column.1: energy eV
# Column.2: requested_energy eV
# Column.3: measurement_time seconds
# Column.4: xmu
# Column.5: I0 nA
# Column.6: It nA
# Column.7: Ir nA
# ///////////
# sample courtesy Martin Stennett, University of Sheffield
# -----------
# energy  requested_energy  measurement_time  xmu  I0  It  Ir
  7871.098  7871.100  0.500  1.341223  139.991  165.539  43.2926
  7881.113  7881.100  0.500  1.336158  139.881  165.709  43.5573
  7891.125  7891.100  0.500  1.331278  139.79  165.925  43.8274
  7901.165  7901.100  0.500  1.326365  139.496  165.886  44.0329
  7911.176  7911.100  0.500  1.321387  139.513  166.242  44.3476
  7921.152  7921.100  0.500  1.316515  139.423  166.436  44.6162
  7931.108  7931.100  0.500  1.311917  139.232  166.512  44.8423
  7941.111  7941.100  0.500  1.307299  139.326  166.947  45.1674
  7951.130  7951.100  0.500  1.302356  138.001  165.663  45.0423
  7961.183  7961.100  0.500  1.297617  138.917  167.052  45.6356
  7971.113  7971.100  0.500  1.292981  138.821  167.246  45.9008
  7981.107  7981.100  0.500  1.288246  137.626  166.119  45.808
  7991.118  7991.100  0.500  1.283510  138.541  167.518  46.413
  8001.120  8001.100  0.500  1.278927  138.39  167.659  46.6655
  8011.106  8011.100  0.500  1.274563  138.269  167.801  46.9093
  8021.116  8021.100  0.500  1.270427  138.118  167.918  47.1366
  8031.118  8031.100  0.500  1.266460  137.984  168.066  47.3657
  8041.118  8041.100  0.500  1.263244  137.811  168.151  47.5421
  8043.102  8043.100  0.500  1.262750  137.766  168.162  47.5687
  8045.095  8045.100  0.500  1.262714  137.741  168.205  47.5827
  8047.097  8047.100  0.500  1.262532  137.706  168.194  47.5883
  8049.090  8049.100  0.500  1.262509  137.653  168.192  47.5887
  8051.092  8051.100  0.500  1.262731  137.598  168.204  47.5817
  8053.089  8053.100  0.500  1.263145  137.535  168.168  47.5517
  8055.098  8055.100  0.500  1.264054  137.436  168.109  47.492
  8057.094  8057.100  0.500  1.265516  137.1  167.765  47.3255
  8059.092  8059.100  0.500  1.267892  132.149  161.753  45.5212
  8061.099  8061.100  0.500  1.271803  137.535  168.415  47.211
  8061.382  8061.400  0.500  1.272497  137.555  168.453  47.1889
  8061.674  8061.700  0.500  1.273303  137.548  168.413  47.1398
  8061.977  8062.000  0.500  1.274283  137.736  168.684  47.1693
  8062.272  8062.300  0.500  1.275169  137.993  169.023  47.2222
  8062.578  8062.600  0.500  1.276309  137.983  169.018  47.167
  8062.873  8062.900  0.500  1.277499  137.995  169.032  47.1148
  8063.179  8063.200  0.500  1.278823  137.989  169.03  47.052
  8063.477  8063.500  0.500  1.280191  137.992  169.029  46.9873
  8063.774  8063.800  0.500  1.281740  137.982  169.04  46.9176
  8064.080  8064.100  0.500  1.283441  137.979  169.054  46.8418
  8064.378  8064.400  0.500  1.285325  137.977  169.059  46.755
  8064.679  8064.700  0.500  1.287628  137.935  169.038  46.6417
  8064.982  8065.000  0.500  1.290055  137.939  169.046  46.5308
  8065.285  8065.300  0.500  1.292694  137.945  169.004  46.3968
  8065.594  8065.600  0.500  1.295617  137.914  168.97  46.252
  8065.889  8065.900  0.500  1.298578  137.91  168.993  46.1215
  8066.184  8066.200  0.500  1.301519  137.919  169.004  45.9891
  8066.493  8066.500  0.500  1.304752  137.903  169.003  45.8404
  8066.789  8066.800  0.500  1.307629  137.875  168.952  45.6948
  8067.087  8067.100  0.500  1.310734  137.859  168.93  45.5473
  8067.393  8067.400  0.500  1.313818  137.815  168.919  45.404
  8067.682  8067.700  0.500  1.316927  137.793  168.886  45.2542
  8067.994  8068.000  0.500  1.320514  137.763  168.862  45.0857
  8068.295  8068.300  0.500  1.324296  137.715  168.831  44.9075
  8068.590  8068.600  0.500  1.328432  137.622  168.735  44.6965
  8068.883  8068.900  0.500  1.333093  137.487  168.576  44.4467
  8069.187  8069.200  0.500  1.338408  137.246  168.309  44.1413
  8069.488  8069.500  0.500  1.344400  136.738  167.692  43.7166
  8069.791  8069.800  0.500  1.351250  135.379  166.03  42.9879
  8070.089  8070.100  0.500  1.359242  133.242  163.42  41.9754
  8070.396  8070.400  0.500  1.369351  131.882  161.752  41.1289
  8070.700  8070.700  0.500  1.381183  132.554  162.583  40.854
  8070.998  8071.000  0.500  1.394575  134.335  164.771  40.853
  8071.296  8071.300  0.500  1.409199  136.266  167.128  40.836
  8071.597  8071.600  0.500  1.426045  137.596  168.8  40.5555
  8071.901  8071.900  0.500  1.445230  137.999  169.307  39.9044
  8072.197  8072.200  0.500  1.466693  138.066  169.361  39.0694
  8072.489  8072.500  0.500  1.490483  138.076  169.439  38.1686
  8072.793  8072.800  0.500  1.517227  138.083  169.455  37.1647
  8073.092  8073.100  0.500  1.545898  138.076  169.452  36.1137
  8073.396  8073.400  0.500  1.576434  138.052  169.416  35.0201
  8073.694  8073.700  0.500  1.607136  138.037  169.383  33.9547
  8074.001  8074.000  0.500  1.636935  138.057  169.432  32.9673
  8074.297  8074.300  0.500  1.664259  138.028  169.393  32.0714
  8074.601  8074.600  0.500  1.688805  138.011  169.35  31.2857
  8074.899  8074.900  0.500  1.709872  137.978  169.344  30.6324
  8075.195  8075.200  0.500  1.728175  137.98  169.362  30.0802
  8075.497  8075.500  0.500  1.743472  137.948  169.358  29.6228
  8075.795  8075.800  0.500  1.756192  137.915  169.329  29.2434
  8076.097  8076.100  0.500  1.766378  137.911  169.322  28.9458
  8076.387  8076.400  0.500  1.774518  137.871  169.287  28.7052
  8076.694  8076.700  0.500  1.781042  137.845  169.259  28.5138
  8076.993  8077.000  0.500  1.785374  137.799  169.216  28.3833
  8077.297  8077.300  0.500  1.787782  137.737  169.109  28.2973
  8077.598  8077.600  0.500  1.787537  137.678  169.022  28.2895
  8077.903  8077.900  0.500  1.784289  137.562  168.889  28.3593
  8078.204  8078.200  0.500  1.777913  137.414  168.724  28.5128
  8078.506  8078.500  0.500  1.768310  137.06  168.288  28.7136
  8078.799  8078.800  0.500  1.755738  136.262  167.326  28.9105
  8079.106  8079.100  0.500  1.740656  134.478  165.16  28.9699
  8079.402  8079.400  0.500  1.722946  132.506  162.744  29.0562
  8079.696  8079.700  0.500  1.704487  131.931  162.068  29.4746
  8079.992  8080.000  0.500  1.684862  132.915  163.293  30.2859
  8080.294  8080.300  0.500  1.665469  134.723  165.48  31.2927
  8080.598  8080.600  0.500  1.645954  136.603  167.815  32.3595
  8080.894  8080.900  0.500  1.627094  137.646  169.123  33.2327
  8081.205  8081.200  0.500  1.608374  137.963  169.516  33.9393
  8081.504  8081.500  0.500  1.591027  137.991  169.537  34.5374
  8081.808  8081.800  0.500  1.574809  137.997  169.549  35.1046
  8082.099  8082.100  0.500  1.560715  137.982  169.535  35.6
  8082.401  8082.400  0.500  1.547747  137.987  169.588  36.0758
  8082.700  8082.700  0.500  1.536601  137.966  169.558  36.4738
  8083.005  8083.000  0.500  1.526589  137.964  169.543  36.8375
  8083.293  8083.300  0.500  1.517980  137.924  169.527  37.1526
  8083.592  8083.600  0.500  1.510186  137.934  169.521  37.4419
  8083.891  8083.900  0.500  1.503257  137.912  169.5  37.6976
  8084.190  8084.200  0.500  1.497111  137.895  169.503  37.9307
  8084.492  8084.500  0.500  1.491651  137.892  169.506  38.139
  8084.794  8084.800  0.500  1.486630  137.877  169.475  38.3239
  8085.102  8085.100  0.500  1.482169  137.875  169.49  38.4987
  8085.404  8085.400  0.500  1.478190  137.854  169.461  38.6455
  8085.704  8085.700  0.500  1.474707  137.835  169.486  38.7861
  8086.003  8086.000  0.500  1.471562  137.814  169.458  38.9019
  8086.305  8086.300  0.500  1.468531  137.773  169.388  39.0039
  8086.607  8086.600  0.500  1.465820  137.772  169.433  39.1201
  8086.901  8086.900  0.500  1.463173  137.764  169.452  39.2283
  8087.195  8087.200  0.500  1.460934  137.731  169.411  39.3067
  8087.495  8087.500  0.500  1.458894  137.725  169.426  39.3904
  8087.794  8087.800  0.500  1.457067  137.694  169.392  39.4546
  8088.094  8088.100  0.500  1.455484  137.695  169.388  39.5161
  8088.396  8088.400  0.500  1.454117  137.657  169.359  39.5634
  8088.704  8088.700  0.500  1.452954  137.622  169.358  39.6092
  8089.004  8089.000  0.500  1.451949  137.591  169.292  39.6336
  8089.298  8089.300  0.500  1.451214  137.543  169.252  39.6532
  8089.600  8089.600  0.500  1.450566  137.492  169.185  39.6633
  8089.894  8089.900  0.500  1.450229  137.398  169.08  39.6521
  8090.208  8090.200  0.500  1.449960  137.286  168.944  39.6309
  8090.499  8090.500  0.500  1.449942  137.081  168.667  39.5665
  8090.799  8090.800  0.500  1.450054  136.68  168.197  39.452
  8091.099  8091.100  0.500  1.450326  135.584  166.875  39.1313
  8091.401  8091.400  0.500  1.450667  133.269  164.022  38.449
  8091.696  8091.700  0.500  1.451311  131.667  162.079  37.9691
  8091.995  8092.000  0.500  1.452028  131.911  162.394  38.0155
  8092.304  8092.300  0.500  1.452768  133.351  164.134  38.3946
  8092.604  8092.600  0.500  1.453469  135.304  166.576  38.9385
  8092.901  8092.900  0.500  1.454023  136.918  168.554  39.379
  8093.203  8093.200  0.500  1.454419  137.584  169.394  39.5596
  8093.506  8093.500  0.500  1.454757  137.71  169.572  39.5878
  8093.806  8093.800  0.500  1.455091  137.705  169.582  39.577
  8094.098  8094.100  0.500  1.455160  137.734  169.625  39.5842
  8094.389  8094.400  0.500  1.455141  137.723  169.619  39.5835
  8094.689  8094.700  0.500  1.455037  137.711  169.606  39.5847
  8094.998  8095.000  0.500  1.454688  137.702  169.589  39.5944
  8095.290  8095.300  0.500  1.454355  137.687  169.55  39.5984
  8095.587  8095.600  0.500  1.453908  137.65  169.542  39.6145
  8095.893  8095.900  0.500  1.453266  137.653  169.549  39.6415
  8096.106  8096.100  0.500  1.452721  137.625  169.534  39.6596
  8097.161  8097.090  0.500  1.449810  137.605  169.546  39.7781
  8098.109  8098.090  0.500  1.447109  137.533  169.509  39.8769
  8099.165  8099.110  0.500  1.444576  137.514  169.52  39.9806
  8100.170  8100.160  0.500  1.443674  137.465  169.491  40.0099
  8101.203  8101.220  0.500  1.444637  137.436  169.485  39.97
  8102.285  8102.300  0.500  1.447569  137.427  169.503  39.8572
  8103.387  8103.400  0.500  1.451653  137.405  169.502  39.6945
  8104.511  8104.520  0.500  1.456879  137.376  169.5  39.4871
  8105.655  8105.660  0.500  1.462221  137.355  169.495  39.2755
  8106.808  8106.810  0.500  1.468050  137.336  169.468  39.041
  8107.987  8107.990  0.500  1.474661  137.296  169.449  38.7795
  8109.175  8109.180  0.500  1.481556  137.275  169.453  38.514
  8110.394  8110.400  0.500  1.488378  137.256  169.503  38.2633
  8111.621  8111.630  0.500  1.493754  137.26  169.584  38.0763
  8112.880  8112.880  0.500  1.496728  137.231  169.545  37.9545
  8114.143  8114.150  0.500  1.496928  137.184  169.525  37.9425
  8115.437  8115.440  0.500  1.494390  137.185  169.56  38.0467
  8116.753  8116.750  0.500  1.489814  137.158  169.573  38.2241
  8118.073  8118.080  0.500  1.484364  137.125  169.572  38.4328
  8119.425  8119.430  0.500  1.478392  137.097  169.58  38.6649
  8120.796  8120.800  0.500  1.472953  137.077  169.604  38.8814
  8122.174  8122.180  0.500  1.467991  137.063  169.63  39.0806
  8123.581  8123.590  0.500  1.463959  137.013  169.609  39.2337
  8125.002  8125.010  0.500  1.460579  136.993  169.617  39.3685
  8126.444  8126.450  0.500  1.457566  136.978  169.639  39.4922
  8127.917  8127.910  0.500  1.454473  136.95  169.654  39.6181
  8129.390  8129.390  0.500  1.451680  136.922  169.655  39.7292
  8130.890  8130.890  0.500  1.449367  136.886  169.659  39.8221
  8132.407  8132.410  0.500  1.447346  136.86  169.656  39.902
  8133.951  8133.950  0.500  1.445616  136.816  169.647  39.9691
  8135.512  8135.510  0.500  1.443985  137.199  170.173  40.1584
  8137.076  8137.080  0.500  1.442445  137.224  170.237  40.2354
  8138.684  8138.680  0.500  1.441190  137.198  170.257  40.2907
  8140.292  8140.290  0.500  1.440309  137.169  170.254  40.3253
  8141.935  8141.930  0.500  1.439687  137.129  170.232  40.3452
  8143.581  8143.580  0.500  1.439511  137.098  170.252  40.357
  8145.260  8145.250  0.500  1.439811  137.061  170.247  40.3438
  8146.941  8146.940  0.500  1.440642  137.028  170.256  40.3125
  8148.650  8148.650  0.500  1.441824  137.005  170.286  40.2719
  8150.384  8150.380  0.500  1.443367  136.98  170.29  40.2108
  8152.140  8152.130  0.500  1.444910  136.935  170.295  40.15
  8153.893  8153.890  0.500  1.446292  136.908  170.325  40.1016
  8155.681  8155.680  0.500  1.447545  136.887  170.354  40.0583
  8157.476  8157.480  0.500  1.448347  136.84  170.343  40.0234
  8159.302  8159.310  0.500  1.448744  136.773  170.322  40.0026
  8161.150  8161.150  0.500  1.448726  136.748  170.366  40.0138
  8163.016  8163.010  0.500  1.448234  136.728  170.364  40.0329
  8164.902  8164.890  0.500  1.447401  136.685  170.357  40.0647
  8166.789  8166.790  0.500  1.446434  136.684  170.43  40.1206
  8168.718  8168.710  0.500  1.445509  136.645  170.448  40.162
  8170.653  8170.650  0.500  1.444623  136.59  170.408  40.1881
  8172.620  8172.610  0.500  1.443793  136.556  170.428  40.2263
  8174.591  8174.580  0.500  1.442845  136.506  170.385  40.2542
  8176.592  8176.580  0.500  1.441700  136.48  170.44  40.3134
  8178.594  8178.590  0.500  1.440574  136.421  170.435  40.3576
  8180.622  8180.620  0.500  1.439383  136.366  170.394  40.3959
  8182.695  8182.680  0.500  1.438387  136.366  170.461  40.4522
  8184.754  8184.750  0.500  1.437414  136.31  170.449  40.4888
  8186.844  8186.840  0.500  1.436534  136.254  170.455  40.5258
  8188.971  8188.950  0.500  1.435665  136.246  170.496  40.5708
  8191.086  8191.080  0.500  1.434417  136.215  170.52  40.627
  8193.227  8193.220  0.500  1.432717  136.15  170.502  40.6919
  8195.390  8195.390  0.500  1.430614  136.111  170.523  40.7826
  8197.591  8197.580  0.500  1.427889  136.075  170.515  40.8921
  8199.785  8199.780  0.500  1.425195  136.007  170.511  41.0013
  8202.014  8202.000  0.500  1.422383  135.981  170.542  41.1243
  8204.262  8204.250  0.500  1.419431  135.944  170.541  41.2457
  8206.515  8206.510  0.500  1.417073  135.907  170.528  41.3399
  8208.806  8208.790  0.500  1.415536  135.865  170.552  41.4093
  8211.096  8211.090  0.500  1.414879  135.809  170.571  41.441
  8213.430  8213.410  0.500  1.414983  135.775  170.601  41.4441
  8215.762  8215.750  0.500  1.415206  135.727  170.641  41.4445
  8218.117  8218.100  0.500  1.415291  135.675  170.566  41.4227
  8220.478  8220.480  0.500  1.415209  135.645  170.58  41.4297
  8222.893  8222.870  0.500  1.415081  135.591  170.602  41.4402
  8225.298  8225.290  0.500  1.414981  135.535  170.597  41.4432
  8227.742  8227.720  0.500  1.415177  135.504  170.667  41.452
  8230.179  8230.170  0.500  1.415643  135.457  170.65  41.4286
  8232.667  8232.650  0.500  1.416350  135.4  170.661  41.4019
  8235.150  8235.140  0.500  1.416742  135.348  170.651  41.3833
  8237.667  8237.650  0.500  1.416637  135.309  170.677  41.3939
  8240.183  8240.170  0.500  1.415822  135.253  170.682  41.4289
  8242.741  8242.720  0.500  1.414108  135.194  170.714  41.5078
  8245.298  8245.290  0.500  1.411695  135.122  170.686  41.6012
  8247.882  8247.870  0.500  1.408925  135.087  170.683  41.7158
  8250.489  8250.480  0.500  1.406156  135.035  170.671  41.8286
  8253.118  8253.100  0.500  1.404088  134.975  170.655  41.9114
  8255.763  8255.750  0.500  1.402298  134.936  170.688  41.9944
  8258.430  8258.410  0.500  1.400814  134.885  170.673  42.0533
  8261.111  8261.090  0.500  1.399640  134.841  170.698  42.1088
  8263.799  8263.790  0.500  1.398813  134.78  170.717  42.1484
  8266.528  8266.510  0.500  1.398098  134.693  170.703  42.1749
  8269.264  8269.250  0.500  1.397491  134.65  170.721  42.2049
  8272.019  8272.000  0.500  1.396726  134.605  170.726  42.2385
  8274.788  8274.780  0.500  1.395999  134.544  170.74  42.2727
  8277.592  8277.570  0.500  1.395219  134.47  170.685  42.292
  8280.403  8280.390  0.500  1.394462  134.28  170.547  42.2898
  8283.239  8283.220  0.500  1.393415  134.31  170.658  42.3618
  8286.093  8286.070  0.500  1.391981  134.278  170.676  42.4271
  8288.966  8288.950  0.500  1.390082  134.21  170.655  42.5025
  8291.862  8291.840  0.500  1.387840  134.155  170.663  42.5999
  8294.760  8294.750  0.500  1.385731  134.111  170.661  42.6892
  8297.689  8297.670  0.500  1.383811  134.053  170.701  42.7813
  8300.629  8300.620  0.500  1.382017  133.975  170.669  42.8502
  8303.605  8303.590  0.500  1.380564  133.893  170.63  42.9027
  8306.597  8306.570  0.500  1.379373  133.843  170.675  42.965
  8309.585  8309.580  0.500  1.378381  133.767  170.665  43.0052
  8312.626  8312.600  0.500  1.377583  133.695  170.636  43.0323
  8315.660  8315.650  0.500  1.376881  133.639  170.679  43.0732
  8318.727  8318.710  0.500  1.376148  133.538  170.575  43.0787
  8321.810  8321.790  0.500  1.375381  133.487  170.611  43.1209
  8324.914  8324.890  0.500  1.374517  133.458  170.673  43.1736
  8328.020  8328.010  0.500  1.373806  133.363  170.65  43.1987
  8331.170  8331.150  0.500  1.372927  133.299  170.654  43.2377
  8334.308  8334.300  0.500  1.371817  133.099  170.482  43.242
  8337.495  8337.480  0.500  1.370556  132.985  170.409  43.278
  8340.692  8340.670  0.500  1.369160  132.846  170.316  43.3148
  8343.908  8343.890  0.500  1.367678  132.711  170.223  43.3555
  8347.130  8347.120  0.500  1.366182  132.615  170.18  43.4095
  8350.385  8350.370  0.500  1.364551  132.394  169.981  43.4294
  8353.669  8353.650  0.500  1.362783  132.152  169.768  43.4517
  8356.953  8356.940  0.500  1.361018  132.066  169.738  43.5208
  8360.267  8360.250  0.500  1.359210  132.039  169.79  43.6128
  8363.592  8363.570  0.500  1.357223  131.97  169.801  43.7025
  8366.944  8366.920  0.500  1.355389  131.938  169.839  43.7924
  8370.311  8370.290  0.500  1.353818  131.907  169.874  43.8704
  8373.692  8373.670  0.500  1.352617  131.836  169.87  43.922
  8377.098  8377.080  0.500  1.351303  131.772  169.888  43.9844
  8380.515  8380.500  0.500  1.350207  131.68  169.813  44.0131
  8383.972  8383.950  0.500  1.349043  131.626  169.821  44.0667
  8387.431  8387.410  0.500  1.347915  131.479  169.715  44.0888
  8390.918  8390.890  0.500  1.346620  131.385  169.698  44.1416
  8394.398  8394.390  0.500  1.345055  131.278  169.654  44.1992
  8397.921  8397.910  0.500  1.343441  131.227  169.699  44.2824
  8401.458  8401.450  0.500  1.341675  131.126  169.67  44.3531
  8405.005  8405.000  0.500  1.339896  131.033  169.638  44.4235
  8408.586  8408.580  0.500  1.338301  130.961  169.597  44.4836
  8412.190  8412.180  0.500  1.336703  130.849  169.532  44.5377
  8415.808  8415.790  0.500  1.335210  130.78  169.54  44.6064
  8419.434  8419.420  0.500  1.333774  130.675  169.506  44.6615
  8423.088  8423.080  0.500  1.332327  130.614  169.526  44.7315
  8426.763  8426.750  0.500  1.331004  130.494  169.462  44.774
  8430.457  8430.440  0.500  1.329486  130.453  169.509  44.8544
  8434.161  8434.150  0.500  1.327818  130.367  169.484  44.9226
  8437.895  8437.880  0.500  1.326177  130.244  169.413  44.9774
  8441.633  8441.620  0.500  1.324657  130.209  169.481  45.0641
  8445.407  8445.390  0.500  1.323232  130.11  169.421  45.1122
  8449.189  8449.180  0.500  1.321894  129.989  169.365  45.1577
  8452.992  8452.980  0.500  1.320558  129.887  169.322  45.2065
  8456.823  8456.810  0.500  1.319283  129.792  169.299  45.258
  8460.667  8460.650  0.500  1.317812  129.723  169.287  45.3216
  8464.524  8464.510  0.500  1.316299  129.623  169.278  45.3878
  8468.403  8468.390  0.500  1.314711  129.524  169.255  45.4538
  8472.304  8472.290  0.500  1.313007  129.441  169.24  45.5273
  8476.215  8476.210  0.500  1.311273  129.35  169.167  45.5864
  8480.157  8480.150  0.500  1.309493  129.234  169.095  45.6484
  8484.122  8484.110  0.500  1.307751  129.156  169.112  45.7327
  8488.094  8488.080  0.500  1.305863  129.016  169.047  45.8013
  8492.094  8492.080  0.500  1.304080  128.939  169.039  45.8809
  8496.101  8496.090  0.500  1.302280  128.859  169.018  45.9577
  8500.153  8500.130  0.500  1.300377  128.748  168.983  46.036
  8504.199  8504.180  0.500  1.298613  128.64  168.926  46.1017
  8508.265  8508.250  0.500  1.296604  128.493  168.808  46.162
  8512.347  8512.340  0.500  1.294796  128.407  168.806  46.245
  8516.467  8516.450  0.500  1.292985  128.275  168.73  46.3079
  8520.594  8520.580  0.500  1.291427  128.143  168.654  46.3592
  8524.742  8524.730  0.500  1.290040  127.907  168.437  46.3638
  8528.909  8528.890  0.500  1.288651  126.793  167.084  46.0554
  8533.093  8533.080  0.500  1.287451  125.405  165.35  45.6321
  8537.299  8537.280  0.500  1.285990  127.858  168.699  46.6244
  8541.526  8541.510  0.500  1.284489  127.771  168.681  46.6896
  8545.763  8545.750  0.500  1.282788  127.62  168.575  46.7395
  8550.033  8550.010  0.500  1.280966  127.534  168.546  46.8169
  8554.317  8554.290  0.500  1.279171  127.466  168.577  46.9094
  8558.611  8558.590  0.500  1.277378  127.34  168.522  46.9785
  8562.932  8562.910  0.500  1.275464  127.231  168.466  47.0527
  8567.270  8567.250  0.500  1.273563  127.119  168.419  47.1292
  8571.644  8571.610  0.500  1.271656  126.982  168.329  47.1938
  8576.010  8575.990  0.500  1.269800  126.827  168.191  47.2429
  8580.396  8580.380  0.500  1.268025  126.679  168.135  47.311
  8584.825  8584.800  0.500  1.266067  126.5  167.981  47.3603
  8589.255  8589.230  0.500  1.264080  126.203  167.682  47.37
  8593.703  8593.680  0.500  1.262359  109.771  145.965  41.3059
  8598.172  8598.150  0.500  1.260390  125.678  167.21  47.4115
  8602.664  8602.640  0.500  1.258641  125.69  167.314  47.5239
  8607.174  8607.150  0.500  1.256998  125.473  167.108  47.5434
  8611.695  8611.680  0.500  1.255509  124.787  166.286  47.38
  8616.243  8616.230  0.500  1.253945  120.897  161.206  46.0043
  8620.809  8620.800  0.500  1.252610  126.522  168.808  48.2383
  8625.399  8625.380  0.500  1.251173  126.485  168.876  48.3271
  8630.014  8629.990  0.500  1.249377  126.103  168.453  48.2927
  8634.630  8634.610  0.500  1.247435  125.975  168.379  48.3652
  8639.287  8639.260  0.500  1.245433  125.761  168.195  48.4093
  8643.942  8643.920  0.500  1.243241  109.905  147.072  42.4227
  8648.619  8648.600  0.500  1.241073  125.414  167.945  48.5486
  8653.313  8653.300  0.500  1.238851  125.498  168.167  48.7207
  8658.039  8658.020  0.500  1.236738  125.386  168.114  48.8086
  8662.783  8662.760  0.500  1.234690  125.25  168.047  48.889
  8667.539  8667.510  0.500  1.232741  125.154  168.013  48.9744
  8672.313  8672.290  0.500  1.230931  125.034  167.976  49.0523
  8677.105  8677.090  0.500  1.229039  124.88  167.903  49.1239
  8681.919  8681.900  0.500  1.227282  124.717  167.768  49.1709
  8686.742  8686.730  0.500  1.225609  124.601  167.718  49.2383
  8691.609  8691.590  0.500  1.224015  124.407  167.575  49.2749
  8696.482  8696.460  0.500  1.222427  124.233  167.43  49.3106
  8701.379  8701.350  0.500  1.220753  123.954  167.184  49.3205
  8706.286  8706.260  0.500  1.218985  121.521  163.985  48.4624
  8711.215  8711.190  0.500  1.217368  123.821  167.2  49.4927
  8716.156  8716.130  0.500  1.215574  123.941  167.459  49.6581
  8721.126  8721.100  0.500  1.213700  123.796  167.373  49.726
  8726.105  8726.090  0.500  1.211805  123.633  167.275  49.7909
  8731.106  8731.090  0.500  1.209693  123.465  167.132  49.8536
  8736.133  8736.120  0.500  1.207447  123.347  167.081  49.9504
  8741.178  8741.160  0.500  1.205210  123.211  167.027  50.0462
  8746.243  8746.220  0.500  1.202982  123.053  166.899  50.1193
  8751.321  8751.300  0.500  1.200919  122.904  166.791  50.1905
  8756.417  8756.400  0.500  1.198903  122.783  166.773  50.2862
  8761.543  8761.520  0.500  1.196871  122.64  166.688  50.3627
  8766.679  8766.660  0.500  1.194925  122.479  166.576  50.4271
  8771.847  8771.820  0.500  1.192985  122.364  166.525  50.5095
  8777.028  8777.000  0.500  1.191074  122.21  166.44  50.5802
  8782.238  8782.190  0.500  1.189245  122.04  166.306  50.6321
  8787.439  8787.410  0.500  1.187438  121.887  166.183  50.686
  8792.652  8792.640  0.500  1.185692  121.716  166.028  50.7272
  8797.898  8797.890  0.500  1.183945  121.609  166.025  50.8152
  8803.171  8803.160  0.500  1.182196  121.457  165.93  50.875
  8808.463  8808.450  0.500  1.180282  121.276  165.796  50.9313
  8813.775  8813.760  0.500  1.178248  121.13  165.685  51.0006
  8819.108  8819.090  0.500  1.176055  120.969  165.606  51.0883
  8824.463  8824.440  0.500  1.173889  120.817  165.49  51.1634
  8829.826  8829.810  0.500  1.171661  120.624  165.31  51.2217
  8835.205  8835.190  0.500  1.169549  120.485  165.249  51.311
  8840.618  8840.600  0.500  1.167398  120.308  165.108  51.3775
  8846.030  8846.020  0.500  1.165317  120.201  165.063  51.4705
  8851.480  8851.470  0.500  1.163238  120.042  164.958  51.5449
  8856.951  8856.930  0.500  1.161063  119.875  164.82  51.6139
  8862.438  8862.410  0.500  1.158972  119.73  164.721  51.6909
  8867.953  8867.910  0.500  1.157040  119.577  164.624  51.7602
  8873.458  8873.430  0.500  1.155159  119.392  164.478  51.8118
  8879.003  8878.970  0.500  1.153359  119.235  164.39  51.8772
  8884.577  8884.520  0.500  1.151619  119.068  164.275  51.9314
  8890.130  8890.100  0.500  1.149904  118.927  164.182  51.991
  8895.731  8895.700  0.500  1.148473  118.733  164.024  52.0154