File: xdidata/Ho/Ho-L1-Ho2TiO5.xdi
# XDI/1.0 BlueSky/1.10.0 BMM/2023-1.0-py310-tiled
# Beamline.name: BMM (06BM) -- Beamline for Materials Measurement (NIST)
# Beamline.xray_source: NSLS-II three-pole wiggler
# Beamline.collimation: paraboloid mirror, 5 nm Rh on 30 nm Pt
# Beamline.focusing: not in use
# Beamline.harmonic_rejection: flat mirror, Pt stripe, pitch = 7.0 mrad relative to beam
# Beamline.software: Bluesky 1.10.0, Ophyd 1.7.0, DataBroker 2.0.0b13, Python 3.10.8, 2023-1.0-py310-tiled
# Detector.I0: 10 cm N2
# Detector.I1: 25 cm N2
# Detector.I2: 25 cm N2
# Element.symbol: Ho
# Element.edge: L1
# Element.reference: Ho
# Element.reference_material: Ho2O3
# Facility.name: NSLS-II
# Facility.energy: 3.0
# Facility.current: 399.5
# Facility.mode: top-off
# Facility.GUP: 123456
# Facility.SAF: 301027
# Facility.cycle: 2023-2
# Mono.name: Si(111)
# Mono.d_spacing: 3.13519
# Mono.encoder_resolution: 0.0000050 deg/ct
# Mono.angle_offset: 16.0754 deg
# Mono.scan_mode: pseudo channel cut
# Mono.scan_type: step
# Mono.direction: forward in energy
# Sample.name: Ho2TiO5
# Sample.prep: Powder in PEG pellet
# Sample.x: 149.848 mm
# Sample.y: 114.690 mm
# Sample.SDD_position: 205.000 mm
# Scan.experimenters: Bruce Ravel
# Scan.edge_energy: 9394.2
# Scan.start_time: 2023-05-08T22:30:10
# Scan.end_time: 2023-05-08T22:36:04
# Scan.transient_id: 75678
# Scan.uid: 7e0c8198-df56-46ce-a97c-caa9f9462e7e
# Scan.plot_hint: ln(I0/It)  --  ln($5/$6)
# Column.1: energy eV
# Column.2: requested_energy eV
# Column.3: measurement_time seconds
# Column.4: xmu
# Column.5: I0 nA
# Column.6: It nA
# Column.7: Ir nA
# ///////////
# sample courtesy Martin Stennett, University of Sheffield
# -----------
# energy  requested_energy  measurement_time  xmu  I0  It  Ir
  9194.228  9194.200  0.500  0.440356  111.625  71.8647  26.4353
  9204.226  9204.200  0.500  0.437469  111.377  71.9124  26.536
  9214.228  9214.200  0.500  0.434699  111.159  71.9709  26.6451
  9224.216  9224.200  0.500  0.431875  110.956  72.0427  26.7351
  9234.259  9234.200  0.500  0.429192  110.771  72.1156  26.8242
  9244.243  9244.200  0.500  0.426506  110.575  72.1818  26.9177
  9254.249  9254.200  0.500  0.423711  110.385  72.2595  27.024
  9264.233  9264.200  0.500  0.421165  110.192  72.317  27.1125
  9274.232  9274.200  0.500  0.418577  109.974  72.3606  27.1944
  9284.224  9284.200  0.500  0.415966  109.826  72.4522  27.3025
  9294.181  9294.200  0.500  0.413138  109.618  72.5198  27.393
  9304.205  9304.200  0.500  0.410802  109.663  72.7198  27.5265
  9314.207  9314.200  0.500  0.408061  109.503  72.8128  27.6303
  9324.208  9324.200  0.500  0.405454  108.45  72.301  27.5084
  9334.208  9334.200  0.500  0.402844  109.09  72.9174  27.8167
  9344.200  9344.200  0.500  0.400304  108.882  72.9633  27.9071
  9354.207  9354.200  0.500  0.397785  108.688  73.0175  27.9998
  9364.209  9364.200  0.500  0.395253  108.478  73.0608  28.0845
  9366.184  9366.200  0.500  0.394829  108.822  73.3236  28.1959
  9368.183  9368.200  0.500  0.394273  108.752  73.3173  28.2025
  9370.182  9370.200  0.500  0.393862  108.695  73.3088  28.2085
  9372.179  9372.200  0.500  0.393332  108.639  73.3104  28.2177
  9374.172  9374.200  0.500  0.393049  108.584  73.2934  28.2211
  9376.174  9376.200  0.500  0.392652  108.534  73.2891  28.2286
  9378.177  9378.200  0.500  0.392016  108.484  73.3017  28.2417
  9380.181  9380.200  0.500  0.391401  108.435  73.3136  28.2486
  9382.171  9382.200  0.500  0.391111  108.381  73.2986  28.2503
  9384.176  9384.200  0.500  0.390868  108.326  73.2795  28.2468
  9384.670  9384.700  0.500  0.390704  108.295  73.2702  28.2456
  9385.160  9385.200  0.500  0.390582  108.274  73.2648  28.2448
  9385.673  9385.700  0.500  0.390415  108.247  73.2589  28.2417
  9386.168  9386.200  0.500  0.390333  108.228  73.2524  28.2388
  9386.673  9386.700  0.500  0.390312  108.202  73.2358  28.2334
  9387.175  9387.200  0.500  0.390236  108.185  73.23  28.2313
  9387.673  9387.700  0.500  0.390231  108.162  73.2152  28.2263
  9388.179  9388.200  0.500  0.390196  108.138  73.2012  28.2159
  9388.673  9388.700  0.500  0.390087  108.116  73.1944  28.2152
  9389.175  9389.200  0.500  0.390017  108.101  73.1892  28.2128
  9389.670  9389.700  0.500  0.389905  108.079  73.1828  28.2049
  9390.168  9390.200  0.500  0.389931  108.058  73.1664  28.1999
  9390.682  9390.700  0.500  0.389834  108.034  73.1576  28.1935
  9391.176  9391.200  0.500  0.389764  108.017  73.1511  28.1892
  9391.678  9391.700  0.500  0.389674  108.007  73.1506  28.1866
  9392.188  9392.200  0.500  0.389633  107.991  73.1428  28.1779
  9392.683  9392.700  0.500  0.389782  107.973  73.1198  28.1599
  9393.182  9393.200  0.500  0.389806  107.954  73.1053  28.1485
  9393.688  9393.700  0.500  0.389906  107.938  73.087  28.1321
  9394.187  9394.200  0.500  0.389957  107.92  73.071  28.114
  9394.690  9394.700  0.500  0.390142  107.91  73.0509  28.0882
  9395.192  9395.200  0.500  0.390338  107.883  73.0183  28.0571
  9395.687  9395.700  0.500  0.390623  107.872  72.9902  28.0228
  9396.183  9396.200  0.500  0.390934  107.857  72.9572  27.9838
  9396.682  9396.700  0.500  0.391471  107.842  72.9075  27.9319
  9397.185  9397.200  0.500  0.391817  107.828  72.8729  27.888
  9397.684  9397.700  0.500  0.392270  107.811  72.8284  27.8377
  9398.194  9398.200  0.500  0.392666  107.799  72.7915  27.7914
  9398.690  9398.700  0.500  0.393102  107.778  72.7456  27.7451
  9399.197  9399.200  0.500  0.393585  107.763  72.7005  27.6998
  9399.700  9399.700  0.500  0.393977  107.751  72.6638  27.6568
  9400.199  9400.200  0.500  0.394409  107.736  72.6226  27.6121
  9400.703  9400.700  0.500  0.394750  107.725  72.5903  27.57
  9401.202  9401.200  0.500  0.395170  107.703  72.5447  27.5251
  9401.698  9401.700  0.500  0.395425  107.694  72.5203  27.4833
  9402.186  9402.200  0.500  0.395884  107.686  72.4817  27.4406
  9402.693  9402.700  0.500  0.396312  107.672  72.4411  27.3951
  9403.189  9403.200  0.500  0.396829  107.655  72.3924  27.3449
  9403.689  9403.700  0.500  0.397230  107.641  72.3539  27.2951
  9404.201  9404.200  0.500  0.397693  107.629  72.3124  27.2428
  9404.693  9404.700  0.500  0.398258  107.615  72.2625  27.1836
  9405.200  9405.200  0.500  0.398891  107.611  72.2136  27.1247
  9405.704  9405.700  0.500  0.399517  107.588  72.1529  27.0552
  9406.208  9406.200  0.500  0.400330  107.575  72.0862  26.9876
  9406.701  9406.700  0.500  0.401216  107.564  72.0146  26.91
  9407.201  9407.200  0.500  0.401878  107.549  71.9572  26.8351
  9407.693  9407.700  0.500  0.402629  107.533  71.8924  26.7563
  9408.190  9408.200  0.500  0.403458  107.521  71.8244  26.674
  9408.694  9408.700  0.500  0.404310  107.506  71.7532  26.5971
  9409.187  9409.200  0.500  0.405037  107.501  71.6977  26.5318
  9409.691  9409.700  0.500  0.405731  107.485  71.6373  26.4711
  9410.195  9410.200  0.500  0.406298  107.473  71.5891  26.4259
  9410.700  9410.700  0.500  0.406799  107.459  71.5442  26.3912
  9411.204  9411.200  0.500  0.407065  107.449  71.518  26.3772
  9411.709  9411.700  0.500  0.406956  107.44  71.5202  26.3774
  9412.198  9412.200  0.500  0.406855  107.425  71.5171  26.381
  9412.703  9412.700  0.500  0.406676  107.413  71.5223  26.3919
  9413.200  9413.200  0.500  0.406315  107.408  71.5445  26.4142
  9413.697  9413.700  0.500  0.405877  107.4  71.5703  26.4356
  9414.190  9414.200  0.500  0.405563  107.383  71.5817  26.4506
  9414.691  9414.700  0.500  0.405137  107.371  71.6041  26.4647
  9415.196  9415.200  0.500  0.404841  107.359  71.6173  26.4743
  9415.697  9415.700  0.500  0.404506  107.345  71.6318  26.4804
  9416.202  9416.200  0.500  0.404252  107.335  71.6436  26.4849
  9416.703  9416.700  0.500  0.403928  107.323  71.6589  26.4877
  9417.204  9417.200  0.500  0.403678  107.308  71.6666  26.4902
  9417.702  9417.700  0.500  0.403358  107.295  71.6809  26.4912
  9418.203  9418.200  0.500  0.403073  107.286  71.695  26.4958
  9418.705  9418.700  0.500  0.402802  107.271  71.705  26.4991
  9419.206  9419.200  0.500  0.402563  107.261  71.7151  26.5054
  9420.202  9420.190  0.500  0.402020  107.236  71.7375  26.5195
  9421.201  9421.190  0.500  0.401449  107.217  71.7656  26.542
  9422.220  9422.210  0.500  0.401009  107.195  71.7823  26.5691
  9423.281  9423.260  0.500  0.400657  107.177  71.7959  26.6053
  9424.339  9424.320  0.500  0.400226  107.154  71.8115  26.6503
  9425.412  9425.400  0.500  0.399917  107.14  71.8242  26.6998
  9426.513  9426.500  0.500  0.399421  107.121  71.8469  26.7536
  9427.633  9427.620  0.500  0.398707  107.105  71.8872  26.819
  9428.772  9428.760  0.500  0.397817  107.085  71.9379  26.8822
  9429.919  9429.910  0.500  0.397057  107.061  71.9768  26.9452
  9431.093  9431.090  0.500  0.396234  107.04  72.0219  27.0045
  9432.287  9432.280  0.500  0.395511  107.019  72.06  27.0524
  9433.512  9433.500  0.500  0.394772  106.99  72.0937  27.0967
  9434.737  9434.730  0.500  0.394141  106.964  72.1214  27.1312
  9435.994  9435.980  0.500  0.393639  106.688  71.9718  27.0931
  9437.258  9437.250  0.500  0.393184  106.49  71.8708  27.0677
  9438.546  9438.540  0.500  0.392790  106.852  72.143  27.184
  9439.865  9439.850  0.500  0.392443  106.853  72.1692  27.1979
  9441.192  9441.180  0.500  0.392118  106.833  72.1791  27.2075
  9442.534  9442.530  0.500  0.391924  106.811  72.178  27.2102
  9443.908  9443.900  0.500  0.391979  106.793  72.1617  27.2037
  9445.286  9445.280  0.500  0.391779  106.762  72.1553  27.2006
  9446.703  9446.690  0.500  0.391820  106.739  72.1368  27.194
  9448.121  9448.110  0.500  0.391809  106.714  72.1211  27.19
  9449.558  9449.550  0.500  0.391827  106.691  72.1037  27.1789
  9451.015  9451.010  0.500  0.391647  106.659  72.0956  27.1703
  9452.503  9452.490  0.500  0.391601  106.634  72.0818  27.1583
  9453.988  9453.990  0.500  0.391653  106.61  72.0619  27.1422
  9455.512  9455.510  0.500  0.391500  106.582  72.0542  27.1305
  9457.063  9457.050  0.500  0.391099  106.552  72.0626  27.1222
  9458.619  9458.610  0.500  0.390759  106.52  72.0653  27.1129
  9460.187  9460.180  0.500  0.390474  106.492  72.0667  27.1007
  9461.790  9461.780  0.500  0.390109  106.468  72.0768  27.0937
  9463.406  9463.390  0.500  0.389652  106.431  72.0847  27.0847
  9465.033  9465.030  0.500  0.389470  106.407  72.0816  27.0816
  9466.688  9466.680  0.500  0.389056  106.375  72.0898  27.0866
  9468.364  9468.350  0.500  0.388614  106.334  72.0942  27.0963
  9470.047  9470.040  0.500  0.388226  106.308  72.1044  27.1157
  9471.747  9471.750  0.500  0.387783  106.279  72.1166  27.1393
  9473.497  9473.480  0.500  0.387196  106.241  72.1332  27.1716
  9475.237  9475.230  0.500  0.386573  106.204  72.1527  27.2107
  9476.996  9476.990  0.500  0.386038  106.168  72.167  27.2475
  9478.788  9478.780  0.500  0.385525  106.13  72.178  27.287
  9480.595  9480.580  0.500  0.384959  106.096  72.1961  27.3243
  9482.415  9482.410  0.500  0.384534  106.061  72.203  27.3511
  9484.263  9484.250  0.500  0.383875  106.033  72.2312  27.3814
  9486.119  9486.110  0.500  0.383327  105.989  72.241  27.4025
  9488.000  9487.990  0.500  0.382872  105.958  72.2529  27.4179
  9489.900  9489.890  0.500  0.382346  105.92  72.2649  27.4338
  9491.829  9491.810  0.500  0.381753  105.881  72.281  27.4508
  9493.754  9493.750  0.500  0.381329  105.84  72.2838  27.4584
  9495.719  9495.710  0.500  0.380832  105.806  72.2962  27.4757
  9497.693  9497.680  0.500  0.380335  105.761  72.3013  27.4953
  9499.683  9499.680  0.500  0.379694  105.724  72.3225  27.5204
  9501.706  9501.690  0.500  0.379180  105.681  72.3308  27.5472
  9503.733  9503.720  0.500  0.378675  105.64  72.3389  27.5715
  9505.788  9505.780  0.500  0.378111  105.602  72.3536  27.5999
  9507.864  9507.850  0.500  0.377481  105.564  72.373  27.6254
  9509.948  9509.940  0.500  0.376825  105.52  72.3908  27.6533
  9512.061  9512.050  0.500  0.376367  105.482  72.3974  27.6757
  9514.190  9514.180  0.500  0.375794  105.44  72.4099  27.6994
  9516.328  9516.320  0.500  0.375299  105.398  72.417  27.7177
  9518.514  9518.490  0.500  0.374811  105.354  72.4223  27.7334
  9520.693  9520.680  0.500  0.374357  105.317  72.4298  27.7449
  9522.893  9522.880  0.500  0.373853  105.271  72.4344  27.7532
  9525.117  9525.100  0.500  0.373602  105.228  72.4229  27.7573
  9527.358  9527.350  0.500  0.373164  105.185  72.4255  27.7608
  9529.636  9529.610  0.500  0.372632  105.142  72.4346  27.7641
  9531.895  9531.890  0.500  0.372071  105.095  72.4422  27.7682
  9534.206  9534.190  0.500  0.371544  105.048  72.448  27.7721
  9536.518  9536.510  0.500  0.370967  105.001  72.4576  27.7868
  9538.862  9538.850  0.500  0.370515  104.958  72.4607  27.8035
  9541.224  9541.200  0.500  0.369878  104.909  72.4728  27.8211
  9543.595  9543.580  0.500  0.369189  104.864  72.492  27.8463
  9545.990  9545.970  0.500  0.368574  104.817  72.504  27.8656
  9548.399  9548.390  0.500  0.367941  104.77  72.5177  27.8897
  9550.832  9550.820  0.500  0.367195  104.716  72.5339  27.9138
  9553.271  9553.270  0.500  0.366585  104.67  72.5468  27.9406
  9555.774  9555.750  0.500  0.365915  104.62  72.5604  27.9685
  9558.247  9558.240  0.500  0.365283  104.576  72.5757  28.004
  9560.772  9560.750  0.500  0.364502  104.523  72.5955  28.0427
  9563.283  9563.270  0.500  0.363935  104.477  72.6051  28.0748
  9565.831  9565.820  0.500  0.363338  104.429  72.6147  28.1059
  9568.408  9568.390  0.500  0.362773  104.379  72.6208  28.129
  9570.986  9570.970  0.500  0.362030  104.323  72.6363  28.1519
  9573.606  9573.580  0.500  0.361431  104.271  72.6433  28.1702
  9576.215  9576.200  0.500  0.360791  104.22  72.6541  28.185
  9578.865  9578.850  0.500  0.360230  104.168  72.6591  28.2001
  9581.520  9581.510  0.500  0.359633  104.113  72.664  28.218
  9584.209  9584.190  0.500  0.359043  104.066  72.6742  28.2382
  9586.907  9586.890  0.500  0.358376  104.017  72.6882  28.2602
  9589.631  9589.610  0.500  0.357676  103.962  72.7008  28.2843
  9592.364  9592.350  0.500  0.357067  103.908  72.7071  28.3091
  9595.122  9595.100  0.500  0.356476  103.858  72.7152  28.3328
  9597.894  9597.880  0.500  0.355719  103.8  72.7293  28.3605
  9600.696  9600.670  0.500  0.355010  104.134  73.0154  28.4916
  9603.507  9603.490  0.500  0.354272  104.074  73.027  28.5174
  9606.352  9606.320  0.500  0.353602  104.011  73.0321  28.5457
  9609.187  9609.170  0.500  0.353002  103.954  73.0353  28.5702
  9612.063  9612.050  0.500  0.352273  103.896  73.0479  28.5973
  9614.945  9614.940  0.500  0.351561  103.836  73.0575  28.6228
  9617.877  9617.850  0.500  0.350866  103.602  72.9442  28.5976
  9620.786  9620.770  0.500  0.350156  103.692  73.0588  28.6553
  9623.733  9623.720  0.500  0.349416  103.636  73.0739  28.677
  9626.699  9626.690  0.500  0.348780  103.572  73.075  28.6906
  9629.694  9629.670  0.500  0.348093  103.511  73.0824  28.7053
  9632.687  9632.680  0.500  0.347641  103.45  73.0721  28.7179
  9635.734  9635.700  0.500  0.346741  103.351  73.0682  28.7316
  9638.763  9638.750  0.500  0.346062  103.324  73.0981  28.7637
  9641.834  9641.810  0.500  0.345346  103.26  73.1053  28.7857
  9644.899  9644.890  0.500  0.344601  103.191  73.1113  28.8072
  9648.010  9647.990  0.500  0.344008  103.039  73.0465  28.8069
  9651.127  9651.110  0.500  0.343250  103.045  73.1065  28.854
  9654.275  9654.250  0.500  0.342442  103.002  73.1351  28.8853
  9657.416  9657.400  0.500  0.341620  102.938  73.1493  28.9153
  9660.600  9660.580  0.500  0.340947  102.861  73.1442  28.9422
  9663.786  9663.770  0.500  0.340133  102.789  73.1526  28.9686
  9667.003  9666.990  0.500  0.339467  102.475  72.9775  28.9261
  9670.238  9670.220  0.500  0.338711  102.624  73.139  29.014
  9673.491  9673.470  0.500  0.337942  102.547  73.1399  29.04
  9676.775  9676.750  0.500  0.337080  102.469  73.1477  29.0701
  9680.061  9680.040  0.500  0.336542  102.397  73.1356  29.0898
  9683.370  9683.350  0.500  0.335734  102.32  73.14  29.1142
  9686.681  9686.670  0.500  0.334880  102.249  73.1515  29.1405
  9690.059  9690.020  0.500  0.334007  102.174  73.1616  29.1664
  9693.370  9693.390  0.500  0.333227  102.086  73.1556  29.1823
  9696.749  9696.770  0.500  0.332400  102.011  73.1626  29.2085
  9700.167  9700.180  0.500  0.331635  101.934  73.1631  29.232
  9703.592  9703.600  0.500  0.330789  101.849  73.1641  29.254
  9707.051  9707.050  0.500  0.330082  101.746  73.1415  29.2717
  9710.521  9710.510  0.500  0.329315  100.892  72.583  29.0732
  9714.014  9713.990  0.500  0.328394  101.679  73.2166  29.3513
  9717.502  9717.490  0.500  0.327616  101.596  73.2142  29.3761
  9721.032  9721.010  0.500  0.326790  101.514  73.2156  29.4009
  9724.566  9724.550  0.500  0.325960  101.427  73.2136  29.4198
  9728.118  9728.100  0.500  0.325178  101.338  73.2068  29.4397
  9731.694  9731.680  0.500  0.324351  101.273  73.2201  29.4719
  9735.301  9735.280  0.500  0.323454  101.194  73.2288  29.495
  9738.906  9738.890  0.500  0.322754  101.119  73.2257  29.519
  9742.547  9742.520  0.500  0.321851  101.042  73.2358  29.5427
  9746.195  9746.180  0.500  0.321223  100.962  73.2239  29.5673
  9749.875  9749.850  0.500  0.320462  100.869  73.2124  29.5865
  9753.549  9753.540  0.500  0.319629  100.788  73.2145  29.6156
  9757.276  9757.250  0.500  0.318825  100.703  73.211  29.6342
  9760.992  9760.980  0.500  0.317936  100.617  73.214  29.659
  9764.745  9764.720  0.500  0.317061  100.53  73.2144  29.6871
  9768.505  9768.490  0.500  0.316174  100.432  73.2081  29.7079
  9772.305  9772.280  0.500  0.315338  100.187  73.0908  29.6871
  9776.096  9776.080  0.500  0.314433  100.296  73.2364  29.7734
  9779.926  9779.910  0.500  0.313514  100.163  73.2066  29.7857
  9783.756  9783.750  0.500  0.312613  98.5892  72.1212  29.3728
  9787.639  9787.610  0.500  0.311715  100.043  73.2507  29.8613
  9791.512  9791.490  0.500  0.310801  99.047  72.5875  29.6169
  9795.413  9795.390  0.500  0.309945  99.9296  73.2971  29.936
  9799.326  9799.310  0.500  0.309268  99.7948  73.2477  29.9449
  9803.271  9803.250  0.500  0.308288  98.8036  72.5914  29.7058
  9807.223  9807.210  0.500  0.307319  99.6774  73.3043  30.023
  9811.208  9811.180  0.500  0.306502  99.5839  73.2955  30.0512
  9815.192  9815.180  0.500  0.305632  99.4581  73.2666  30.0666
  9819.208  9819.190  0.500  0.304564  99.3711  73.2806  30.0953
  9823.257  9823.230  0.500  0.303720  99.2734  73.2705  30.1192
  9827.297  9827.280  0.500  0.302872  99.0746  73.1858  30.1142
  9831.369  9831.350  0.500  0.301975  99.1006  73.2707  30.1755
  9835.462  9835.440  0.500  0.300981  98.4892  72.891  30.0446
  9839.570  9839.550  0.500  0.300148  98.9334  73.2808  30.2267
  9843.695  9843.680  0.500  0.299288  98.2736  72.8548  30.0781
  9847.853  9847.830  0.500  0.298325  98.7447  73.2745  30.2768
  9852.018  9851.990  0.500  0.297423  98.675  73.2889  30.3094
  9856.196  9856.180  0.500  0.296652  98.5936  73.2849  30.3365
  9860.406  9860.380  0.500  0.295704  98.4988  73.2838  30.3624
  9864.629  9864.610  0.500  0.294815  98.4041  73.2785  30.3918
  9868.884  9868.850  0.500  0.293845  98.3107  73.28  30.4203
  9873.135  9873.110  0.500  0.292928  98.2235  73.2822  30.453
  9877.403  9877.390  0.500  0.292041  98.1174  73.268  30.4786
  9881.729  9881.690  0.500  0.291003  95.7802  71.597  29.8124
  9886.029  9886.010  0.500  0.290058  97.8751  73.2321  30.5227
  9890.376  9890.350  0.500  0.289116  97.8191  73.2592  30.567
  9894.735  9894.710  0.500  0.288162  97.7256  73.259  30.5985
  9899.115  9899.090  0.500  0.287259  97.6306  73.2539  30.624
  9903.511  9903.480  0.500  0.286223  97.528  73.2528  30.6518
  9907.916  9907.900  0.500  0.285340  97.432  73.2453  30.6778
  9912.363  9912.330  0.500  0.284333  97.3373  73.2479  30.7091
  9916.805  9916.780  0.500  0.283303  97.2377  73.2484  30.7373
  9921.264  9921.250  0.500  0.282408  97.1326  73.2347  30.7626
  9925.775  9925.740  0.500  0.281435  97.0171  73.2188  30.7806
  9930.272  9930.250  0.500  0.280551  96.7242  73.0623  30.7467
  9934.804  9934.780  0.500  0.279514  96.9115  73.2797  30.8637
  9939.352  9939.330  0.500  0.278614  96.8112  73.2698  30.889