File: xdidata/Ho/Ho-L1-HolmiumOxide.xdi
# XDI/1.0 BlueSky/1.10.0 BMM/2023-1.0-py310-tiled
# Beamline.name: BMM (06BM) -- Beamline for Materials Measurement (NIST)
# Beamline.xray_source: NSLS-II three-pole wiggler
# Beamline.collimation: paraboloid mirror, 5 nm Rh on 30 nm Pt
# Beamline.focusing: not in use
# Beamline.harmonic_rejection: flat mirror, Pt stripe, pitch = 7.0 mrad relative to beam
# Beamline.software: Bluesky 1.10.0, Ophyd 1.7.0, DataBroker 2.0.0b13, Python 3.10.8, 2023-1.0-py310-tiled
# Detector.I0: 10 cm N2
# Detector.I1: 25 cm N2
# Detector.I2: 25 cm N2
# Element.symbol: Ho
# Element.edge: L1
# Element.reference: Ho
# Element.reference_material: Ho2O3
# Facility.name: NSLS-II
# Facility.energy: 3.0
# Facility.current: 400.3
# Facility.mode: top-off
# Facility.GUP: 301027
# Facility.SAF: 310583
# Facility.cycle: 2023-2
# Mono.name: Si(111)
# Mono.d_spacing: 3.13519
# Mono.encoder_resolution: 0.0000050 deg/ct
# Mono.angle_offset: 16.0754 deg
# Mono.scan_mode: pseudo channel cut
# Mono.scan_type: step
# Mono.direction: forward in energy
# Sample.name: Ho2O3
# Sample.prep: PEG pellet
# Sample.x: 109.138 mm
# Sample.y: 153.150 mm
# Sample.SDD_position: 205.000 mm
# Scan.experimenters: Bruce Ravel
# Scan.edge_energy: 9394.2
# Scan.start_time: 2023-05-28T16:33:09
# Scan.end_time: 2023-05-28T16:41:12
# Scan.transient_id: 78840
# Scan.uid: e87cc0de-36a7-4f5a-bb9b-7a62903ff800
# Scan.plot_hint: ln(It/Ir)  --  ln($6/$7)
# Column.1: energy eV
# Column.2: requested_energy eV
# Column.3: measurement_time seconds
# Column.4: xmu
# Column.5: I0 nA
# Column.6: It nA
# Column.7: Ir nA
# ///////////
# sample courtesy Martin Stennett, University of Sheffield
# -----------
# energy  requested_energy  measurement_time  xmu  I0  It  Ir
  9194.213  9194.200  0.500  1.146384  112.773  161.076  51.1873
  9204.233  9204.200  0.500  1.142759  112.537  160.918  51.3229
  9214.254  9214.200  0.500  1.138943  112.361  160.838  51.4935
  9224.201  9224.200  0.500  1.136086  112.177  160.726  51.6049
  9234.207  9234.200  0.500  1.133466  112.005  160.625  51.7076
  9244.210  9244.200  0.500  1.130361  111.843  160.585  51.8557
  9254.220  9254.200  0.500  1.127073  111.631  160.439  51.9791
  9264.222  9264.200  0.500  1.124032  111.44  160.324  52.1
  9274.262  9274.200  0.500  1.121207  111.317  160.299  52.2392
  9284.246  9284.200  0.500  1.118124  111.115  160.18  52.3618
  9294.248  9294.200  0.500  1.115281  110.749  159.8  52.3862
  9304.257  9304.200  0.500  1.112615  110.835  160.084  52.6194
  9314.237  9314.200  0.500  1.109713  110.67  159.974  52.736
  9324.249  9324.200  0.500  1.106631  109.815  158.915  52.5486
  9334.245  9334.200  0.500  1.103508  110.282  159.764  52.9944
  9344.238  9344.200  0.500  1.100485  110.115  159.669  53.1233
  9354.226  9354.200  0.500  1.097493  109.921  159.529  53.2359
  9364.213  9364.200  0.500  1.094709  109.788  159.488  53.3707
  9366.188  9366.200  0.500  1.094180  109.75  159.452  53.3866
  9368.183  9368.200  0.500  1.093744  109.674  159.395  53.3909
  9370.190  9370.200  0.500  1.093364  109.638  159.386  53.4081
  9372.182  9372.200  0.500  1.092913  109.582  159.297  53.4024
  9374.187  9374.200  0.500  1.092462  109.527  159.242  53.4081
  9376.182  9376.200  0.500  1.092108  109.553  159.307  53.4488
  9378.185  9378.200  0.500  1.091725  109.493  159.271  53.4571
  9380.189  9380.200  0.500  1.091491  109.432  159.223  53.4536
  9382.186  9382.200  0.500  1.091202  109.405  159.21  53.4649
  9384.188  9384.200  0.500  1.090927  109.366  159.173  53.4669
  9384.469  9384.500  0.500  1.090881  109.353  159.154  53.463
  9384.765  9384.800  0.500  1.090814  109.388  159.23  53.4922
  9385.065  9385.100  0.500  1.090837  109.325  159.127  53.4563
  9385.369  9385.400  0.500  1.090772  109.376  159.178  53.4771
  9385.670  9385.700  0.500  1.090834  109.327  159.148  53.4637
  9385.974  9386.000  0.500  1.090761  109.345  159.187  53.4806
  9386.278  9386.300  0.500  1.090773  109.347  159.198  53.4838
  9386.578  9386.600  0.500  1.090678  109.301  159.137  53.4682
  9386.878  9386.900  0.500  1.090734  109.283  159.109  53.4559
  9387.179  9387.200  0.500  1.090723  109.271  159.086  53.4488
  9387.487  9387.500  0.500  1.090672  109.265  159.076  53.4479
  9387.783  9387.800  0.500  1.090678  109.277  159.106  53.4579
  9388.091  9388.100  0.500  1.090659  109.295  159.136  53.4689
  9388.380  9388.400  0.500  1.090705  109.26  159.099  53.4541
  9388.692  9388.700  0.500  1.090798  109.256  159.082  53.4433
  9388.985  9389.000  0.500  1.090663  109.217  159.037  53.4353
  9389.285  9389.300  0.500  1.090738  109.216  159.019  53.4255
  9389.582  9389.600  0.500  1.090741  109.223  159.034  53.4303
  9389.890  9389.900  0.500  1.090813  109.224  159.046  53.4305
  9390.191  9390.200  0.500  1.090835  109.202  159.023  53.4215
  9390.484  9390.500  0.500  1.090841  109.184  159.011  53.4171
  9390.792  9390.800  0.500  1.090832  109.197  159.023  53.4216
  9391.077  9391.100  0.500  1.090902  109.179  159.016  53.4154
  9391.389  9391.400  0.500  1.090954  109.167  159.015  53.4126
  9391.678  9391.700  0.500  1.090933  109.166  159.009  53.4116
  9391.983  9392.000  0.500  1.090991  109.192  159.054  53.4235
  9392.284  9392.300  0.500  1.091082  109.135  158.972  53.3912
  9392.592  9392.600  0.500  1.091226  109.132  158.97  53.3827
  9392.885  9392.900  0.500  1.091289  109.128  158.951  53.3733
  9393.193  9393.200  0.500  1.091383  109.128  158.963  53.372
  9393.490  9393.500  0.500  1.091499  109.104  158.942  53.3588
  9393.802  9393.800  0.500  1.091744  109.105  158.95  53.3483
  9394.092  9394.100  0.500  1.091893  109.079  158.919  53.3303
  9394.389  9394.400  0.500  1.092100  109.107  158.958  53.3323
  9394.701  9394.700  0.500  1.092413  109.061  158.911  53.2997
  9395.021  9395.000  0.500  1.092625  109.082  158.918  53.2908
  9395.329  9395.300  0.500  1.092988  109.076  158.928  53.2749
  9395.611  9395.600  0.500  1.093392  109.087  158.962  53.2648
  9395.901  9395.900  0.500  1.093809  109.055  158.892  53.2191
  9396.251  9396.200  0.500  1.094466  109.035  158.848  53.1693
  9396.461  9396.500  0.500  1.094867  108.994  158.823  53.1396
  9396.769  9396.800  0.500  1.095466  108.986  158.821  53.1072
  9397.082  9397.100  0.500  1.096143  109.365  159.379  53.2577
  9397.425  9397.400  0.500  1.096911  109.375  159.378  53.2163
  9397.733  9397.700  0.500  1.097735  109.347  159.352  53.1639
  9398.027  9398.000  0.500  1.098311  109.362  159.354  53.134
  9398.324  9398.300  0.500  1.099059  109.366  159.364  53.0977
  9398.625  9398.600  0.500  1.099711  109.356  159.368  53.0644
  9398.922  9398.900  0.500  1.100370  109.325  159.335  53.0186
  9399.223  9399.200  0.500  1.100945  109.336  159.345  52.9911
  9399.513  9399.500  0.500  1.101592  109.33  159.341  52.9557
  9399.822  9399.800  0.500  1.102200  109.301  159.3  52.9099
  9400.108  9400.100  0.500  1.102840  109.322  159.332  52.8868
  9400.409  9400.400  0.500  1.103504  109.329  159.346  52.8562
  9400.706  9400.700  0.500  1.104071  109.282  159.288  52.807
  9401.008  9401.000  0.500  1.104694  109.273  159.283  52.7724
  9401.305  9401.300  0.500  1.105438  109.272  159.314  52.7434
  9401.599  9401.600  0.500  1.106036  109.241  159.254  52.6922
  9401.896  9401.900  0.500  1.106698  109.248  159.253  52.6567
  9402.194  9402.200  0.500  1.107354  109.251  159.266  52.6266
  9402.514  9402.500  0.500  1.108021  109.23  159.254  52.5876
  9402.804  9402.800  0.500  1.108715  109.238  159.277  52.5586
  9403.105  9403.100  0.500  1.109340  109.225  159.243  52.5145
  9403.399  9403.400  0.500  1.110081  109.242  159.264  52.4825
  9403.708  9403.700  0.500  1.110742  109.245  159.281  52.4535
  9404.014  9404.000  0.500  1.111535  109.21  159.243  52.3995
  9404.307  9404.300  0.500  1.112274  109.207  159.23  52.3563
  9404.613  9404.600  0.500  1.113152  109.161  159.181  52.2943
  9404.907  9404.900  0.500  1.113950  109.178  159.211  52.2624
  9405.216  9405.200  0.500  1.114779  109.173  159.216  52.2209
  9405.510  9405.500  0.500  1.115671  109.166  159.185  52.1642
  9405.807  9405.800  0.500  1.116582  109.146  159.153  52.1063
  9406.109  9406.100  0.500  1.117586  109.145  159.165  52.058
  9406.414  9406.400  0.500  1.118521  109.134  159.173  52.0118
  9406.708  9406.700  0.500  1.119626  109.129  159.183  51.9577
  9407.006  9407.000  0.500  1.120700  109.111  159.153  51.8919
  9407.304  9407.300  0.500  1.121913  109.107  159.154  51.8296
  9407.602  9407.600  0.500  1.123018  109.109  159.16  51.7742
  9407.907  9407.900  0.500  1.124351  109.072  159.107  51.6879
  9408.198  9408.200  0.500  1.125627  109.088  159.133  51.6304
  9408.495  9408.500  0.500  1.126811  109.088  159.13  51.5685
  9408.790  9408.800  0.500  1.128154  109.086  159.138  51.5019
  9409.099  9409.100  0.500  1.129313  109.089  159.152  51.4468
  9409.393  9409.400  0.500  1.130406  109.061  159.114  51.3782
  9409.695  9409.700  0.500  1.131419  109.09  159.166  51.3429
  9409.997  9410.000  0.500  1.132423  109.012  159.067  51.2595
  9410.291  9410.300  0.500  1.133242  109.058  159.109  51.2311
  9410.604  9410.600  0.500  1.133962  109.042  159.09  51.188
  9410.899  9410.900  0.500  1.134480  109.015  159.062  51.1527
  9411.208  9411.200  0.500  1.135041  108.992  159.058  51.1228
  9411.502  9411.500  0.500  1.135189  108.997  159.056  51.1146
  9411.804  9411.800  0.500  1.135444  109.001  159.058  51.1019
  9412.106  9412.100  0.500  1.135492  108.999  159.068  51.1027
  9412.408  9412.400  0.500  1.135344  108.954  158.997  51.0875
  9412.706  9412.700  0.500  1.135188  109.003  159.053  51.1137
  9413.005  9413.000  0.500  1.135020  108.961  158.998  51.1044
  9413.314  9413.300  0.500  1.134707  108.94  158.98  51.1148
  9413.601  9413.600  0.500  1.134445  108.947  158.991  51.1316
  9413.907  9413.900  0.500  1.134149  108.948  158.997  51.1487
  9414.198  9414.200  0.500  1.133892  108.956  159  51.1627
  9414.507  9414.500  0.500  1.133668  108.914  158.96  51.1613
  9414.806  9414.800  0.500  1.133322  108.913  158.981  51.1859
  9415.100  9415.100  0.500  1.133191  108.913  159.001  51.199
  9415.399  9415.400  0.500  1.132992  108.929  159.023  51.2163
  9415.697  9415.700  0.500  1.132846  108.913  158.996  51.2151
  9415.999  9416.000  0.500  1.132764  108.905  158.974  51.2122
  9416.290  9416.300  0.500  1.132742  108.898  158.983  51.2162
  9416.596  9416.600  0.500  1.132660  108.914  159.006  51.2277
  9416.883  9416.900  0.500  1.132649  108.911  159.012  51.2303
  9417.201  9417.200  0.500  1.132788  108.892  158.979  51.2125
  9417.495  9417.500  0.500  1.132755  108.815  158.88  51.1823
  9417.801  9417.800  0.500  1.132859  108.827  158.883  51.178
  9418.100  9418.100  0.500  1.132936  108.831  158.907  51.1817
  9418.399  9418.400  0.500  1.132881  108.847  158.927  51.1909
  9418.709  9418.700  0.500  1.132909  108.866  158.966  51.2021
  9419.003  9419.000  0.500  1.132901  108.832  158.923  51.1886
  9419.199  9419.200  0.500  1.132914  108.796  158.865  51.1694
  9420.206  9420.190  0.500  1.132827  108.773  158.857  51.1713
  9421.209  9421.190  0.500  1.132370  108.763  158.863  51.1964
  9422.224  9422.210  0.500  1.131827  108.741  158.847  51.2193
  9423.270  9423.260  0.500  1.130774  108.725  158.851  51.2743
  9424.320  9424.320  0.500  1.129444  108.717  158.823  51.3336
  9425.420  9425.400  0.500  1.127767  108.697  158.825  51.4203
  9426.517  9426.500  0.500  1.125993  108.675  158.808  51.5063
  9427.629  9427.620  0.500  1.124036  108.664  158.813  51.6087
  9428.776  9428.760  0.500  1.122131  108.654  158.819  51.709
  9429.923  9429.910  0.500  1.120300  108.641  158.814  51.8022
  9431.090  9431.090  0.500  1.118626  108.582  158.734  51.8628
  9432.287  9432.280  0.500  1.116992  108.562  158.72  51.9433
  9433.520  9433.500  0.500  1.115672  108.555  158.718  52.011
  9434.749  9434.730  0.500  1.114541  108.516  158.68  52.0573
  9436.001  9435.980  0.500  1.113783  108.447  158.615  52.0755
  9437.258  9437.250  0.500  1.113121  107.96  157.93  51.8852
  9438.538  9438.540  0.500  1.112689  108.289  158.434  52.073
  9439.857  9439.850  0.500  1.112289  108.415  158.638  52.1611
  9441.195  9441.180  0.500  1.111951  108.388  158.62  52.1727
  9442.534  9442.530  0.500  1.111768  108.327  158.535  52.1545
  9443.912  9443.900  0.500  1.111702  108.368  158.601  52.1796
  9445.282  9445.280  0.500  1.111664  108.295  158.515  52.1533
  9446.688  9446.690  0.500  1.111591  108.252  158.469  52.1418
  9448.117  9448.110  0.500  1.111599  108.268  158.535  52.1631
  9449.566  9449.550  0.500  1.111612  108.214  158.477  52.1433
  9451.026  9451.010  0.500  1.111724  108.191  158.469  52.1349
  9452.499  9452.490  0.500  1.111854  108.18  158.472  52.1292
  9453.992  9453.990  0.500  1.112160  108.117  158.389  52.0858
  9455.512  9455.510  0.500  1.112451  108.114  158.418  52.0801
  9457.059  9457.050  0.500  1.112782  108.077  158.374  52.0485
  9458.619  9458.610  0.500  1.113152  108.048  158.354  52.0227
  9460.183  9460.180  0.500  1.113493  108.022  158.352  52.0042
  9461.794  9461.780  0.500  1.113947  108.005  158.357  51.9825
  9463.413  9463.390  0.500  1.114357  107.973  158.323  51.95
  9465.033  9465.030  0.500  1.114471  107.919  158.283  51.931
  9466.685  9466.680  0.500  1.114360  107.905  158.25  51.9258
  9468.360  9468.350  0.500  1.114118  107.837  158.17  51.9123
  9470.059  9470.040  0.500  1.113645  107.815  158.187  51.9424
  9471.750  9471.750  0.500  1.112913  107.791  158.173  51.9756
  9473.497  9473.480  0.500  1.111980  107.809  158.229  52.0427
  9475.241  9475.230  0.500  1.110807  107.725  158.13  52.0712
  9477.004  9476.990  0.500  1.109443  107.693  158.103  52.1333
  9478.784  9478.780  0.500  1.108130  107.673  158.103  52.2018
  9480.591  9480.580  0.500  1.106841  107.623  158.045  52.25
  9482.415  9482.410  0.500  1.105895  107.609  158.044  52.2992
  9484.251  9484.250  0.500  1.104937  107.582  158.025  52.3428
  9486.123  9486.110  0.500  1.104228  107.509  157.941  52.3522
  9488.011  9487.990  0.500  1.103653  107.498  157.951  52.3857
  9489.896  9489.890  0.500  1.103108  107.429  157.893  52.3948
  9491.813  9491.810  0.500  1.102792  107.416  157.918  52.4199
  9493.766  9493.750  0.500  1.102303  107.398  157.926  52.4482
  9495.727  9495.710  0.500  1.101871  107.339  157.862  52.4493
  9497.678  9497.680  0.500  1.101233  107.3  157.819  52.4686
  9499.695  9499.680  0.500  1.100449  107.233  157.733  52.4813
  9501.698  9501.690  0.500  1.099619  107.205  157.719  52.5202
  9503.729  9503.720  0.500  1.098676  107.164  157.677  52.5555
  9505.788  9505.780  0.500  1.097830  107.131  157.677  52.6002
  9507.868  9507.850  0.500  1.097025  107.102  157.681  52.6439
  9509.940  9509.940  0.500  1.096214  107.091  157.685  52.688
  9512.061  9512.050  0.500  1.095401  107.037  157.644  52.7169
  9514.202  9514.180  0.500  1.094626  106.986  157.603  52.7441
  9516.328  9516.320  0.500  1.093998  106.941  157.571  52.7664
  9518.498  9518.490  0.500  1.093338  106.907  157.541  52.7914
  9520.689  9520.680  0.500  1.092852  106.883  157.538  52.8162
  9522.877  9522.880  0.500  1.092486  106.872  157.55  52.8393
  9525.113  9525.100  0.500  1.092119  106.784  157.437  52.821
  9527.366  9527.350  0.500  1.091844  106.756  157.426  52.8318
  9529.620  9529.610  0.500  1.091693  106.714  157.419  52.8375
  9531.910  9531.890  0.500  1.091665  106.66  157.371  52.8227
  9534.209  9534.190  0.500  1.091519  106.619  157.33  52.8168
  9536.526  9536.510  0.500  1.091224  106.572  157.285  52.8171
  9538.870  9538.850  0.500  1.090660  106.54  157.268  52.8412
  9541.208  9541.200  0.500  1.089992  106.525  157.267  52.8761
  9543.583  9543.580  0.500  1.089385  106.429  157.176  52.8778
  9545.986  9545.970  0.500  1.088649  106.43  157.224  52.9328
  9548.387  9548.390  0.500  1.087954  106.357  157.179  52.9543
  9550.824  9550.820  0.500  1.087268  106.335  157.143  52.9788
  9553.291  9553.270  0.500  1.086397  106.243  157.035  52.9883
  9555.758  9555.750  0.500  1.085452  106.204  157.006  53.0287
  9558.259  9558.240  0.500  1.084406  106.182  157.019  53.0884
  9560.752  9560.750  0.500  1.083147  106.143  157.003  53.1499
  9563.287  9563.270  0.500  1.082009  106.111  156.994  53.2076
  9565.827  9565.820  0.500  1.080981  106.025  156.879  53.2231
  9568.404  9568.390  0.500  1.079965  105.967  156.829  53.2603
  9570.986  9570.970  0.500  1.079209  105.944  156.839  53.3038
  9573.586  9573.580  0.500  1.078652  106.127  157.143  53.4369
  9576.219  9576.200  0.500  1.078102  106.164  157.237  53.4983
  9578.861  9578.850  0.500  1.077527  106.148  157.268  53.5397
  9581.520  9581.510  0.500  1.076943  106.102  157.231  53.5584
  9584.205  9584.190  0.500  1.076260  106.08  157.235  53.5965
  9586.899  9586.890  0.500  1.075606  106.041  157.22  53.6262
  9589.639  9589.610  0.500  1.074815  105.986  157.169  53.6513
  9592.356  9592.350  0.500  1.074053  105.882  157.057  53.6539
  9595.126  9595.100  0.500  1.073139  105.85  157.043  53.6982
  9597.887  9597.880  0.500  1.072293  105.819  157.046  53.7447
  9600.700  9600.670  0.500  1.071420  105.758  156.99  53.7723
  9603.491  9603.490  0.500  1.070521  105.715  156.956  53.8093
  9606.344  9606.320  0.500  1.069624  105.674  156.936  53.8506
  9609.179  9609.170  0.500  1.068647  105.616  156.888  53.8867
  9612.063  9612.050  0.500  1.067748  105.567  156.874  53.9303
  9614.953  9614.940  0.500  1.066914  105.488  156.785  53.9449
  9617.865  9617.850  0.500  1.066087  105.205  156.369  53.846
  9620.774  9620.770  0.500  1.065426  105.347  156.619  53.9679
  9623.737  9623.720  0.500  1.064815  105.34  156.658  54.0142
  9626.707  9626.690  0.500  1.064182  105.265  156.597  54.0274
  9629.686  9629.670  0.500  1.063624  105.218  156.575  54.0501
  9632.695  9632.680  0.500  1.062965  105.152  156.512  54.0639
  9635.722  9635.700  0.500  1.062348  104.9  156.194  53.9876
  9638.763  9638.750  0.500  1.061629  105.021  156.412  54.1017
  9641.834  9641.810  0.500  1.060796  104.973  156.377  54.1346
  9644.891  9644.890  0.500  1.060019  104.921  156.333  54.1615
  9648.006  9647.990  0.500  1.059121  104.854  156.277  54.1906
  9651.111  9651.110  0.500  1.058215  104.743  156.157  54.1981
  9654.267  9654.250  0.500  1.057304  104.726  156.169  54.2516
  9657.416  9657.400  0.500  1.056397  104.702  156.18  54.305
  9660.600  9660.580  0.500  1.055325  104.632  156.115  54.3405
  9663.774  9663.770  0.500  1.054358  104.561  156.045  54.3686
  9667.003  9666.990  0.500  1.053312  104.344  155.76  54.326
  9670.238  9670.220  0.500  1.052299  104.397  155.864  54.4175
  9673.491  9673.470  0.500  1.051312  104.354  155.861  54.4701
  9676.771  9676.750  0.500  1.050220  104.31  155.832  54.5196
  9680.061  9680.040  0.500  1.049216  104.235  155.761  54.5494
  9683.382  9683.350  0.500  1.048362  104.169  155.711  54.5783
  9686.685  9686.670  0.500  1.047373  104.098  155.649  54.6108
  9690.051  9690.020  0.500  1.046589  104.02  155.577  54.6282
  9693.403  9693.390  0.500  1.045777  103.973  155.554  54.6645
  9696.798  9696.770  0.500  1.044899  103.928  155.535  54.7059
  9700.191  9700.180  0.500  1.043963  103.827  155.418  54.7159
  9703.624  9703.600  0.500  1.043141  103.745  155.361  54.741
  9707.063  9707.050  0.500  1.042146  103.675  155.285  54.7685
  9710.533  9710.510  0.500  1.041090  102.086  152.921  53.9918
  9714.014  9713.990  0.500  1.040209  103.58  155.208  54.8476
  9717.506  9717.490  0.500  1.039247  103.513  155.17  54.8869
  9721.037  9721.010  0.500  1.038238  103.432  155.098  54.9169
  9724.574  9724.550  0.500  1.037312  103.381  155.033  54.9446
  9728.127  9728.100  0.500  1.036484  103.274  154.946  54.9594
  9731.698  9731.680  0.500  1.035559  103.229  154.923  55.0019
  9735.297  9735.280  0.500  1.034652  103.162  154.859  55.029
  9738.919  9738.890  0.500  1.033746  103.097  154.805  55.0598
  9742.543  9742.520  0.500  1.032803  103.031  154.751  55.0924
  9746.200  9746.180  0.500  1.031857  102.947  154.674  55.1173
  9749.863  9749.850  0.500  1.030865  102.883  154.632  55.1571
  9753.561  9753.540  0.500  1.029824  102.783  154.537  55.1806
  9757.267  9757.250  0.500  1.028875  102.737  154.514  55.2246
  9760.997  9760.980  0.500  1.027910  102.649  154.408  55.2402
  9764.725  9764.720  0.500  1.026989  102.57  154.355  55.272
  9768.497  9768.490  0.500  1.025982  102.495  154.299  55.3075
  9772.288  9772.280  0.500  1.025081  102.317  154.064  55.2733
  9776.079  9776.080  0.500  1.023994  102.313  154.103  55.3473
  9779.918  9779.910  0.500  1.022925  102.246  154.047  55.3863
  9783.760  9783.750  0.500  1.021827  101.237  152.555  54.9101
  9787.630  9787.610  0.500  1.020822  102.143  153.967  55.4741
  9791.499  9791.490  0.500  1.019623  101.836  153.567  55.3964
  9795.396  9795.390  0.500  1.018645  102.039  153.902  55.5717
  9799.321  9799.310  0.500  1.017536  101.917  153.766  55.5842
  9803.266  9803.250  0.500  1.016326  100.303  151.379  54.7874
  9807.227  9807.210  0.500  1.015306  101.802  153.699  55.6837
  9811.183  9811.180  0.500  1.014308  101.703  153.607  55.7062
  9815.200  9815.180  0.500  1.013210  101.604  153.51  55.7319
  9819.212  9819.190  0.500  1.012278  101.552  153.484  55.7746
  9823.232  9823.230  0.500  1.011219  101.38  153.277  55.7582
  9827.305  9827.280  0.500  1.010030  101.36  153.283  55.8269
  9831.352  9831.350  0.500  1.009070  101.261  153.188  55.8458
  9835.470  9835.440  0.500  1.008031  100.708  152.408  55.6194
  9839.562  9839.550  0.500  1.007116  101.116  153.07  55.912
  9843.695  9843.680  0.500  1.006074  100.553  152.278  55.6808
  9847.840  9847.830  0.500  1.005142  100.95  152.924  55.9692
  9852.006  9851.990  0.500  1.004078  100.876  152.859  56.005
  9856.200  9856.180  0.500  1.003128  100.77  152.742  56.0152
  9860.402  9860.380  0.500  1.002051  100.686  152.668  56.0482
  9864.629  9864.610  0.500  1.000885  100.617  152.605  56.0905
  9868.876  9868.850  0.500  0.999762  100.519  152.516  56.1208
  9873.114  9873.110  0.500  0.998596  100.437  152.439  56.1578
  9877.416  9877.390  0.500  0.997426  100.347  152.352  56.1915
  9881.699  9881.690  0.500  0.996198  99.1916  150.648  55.6316
  9886.034  9886.010  0.500  0.995166  100.062  152.03  56.1999
  9890.372  9890.350  0.500  0.993974  100.046  152.056  56.2765
  9894.718  9894.710  0.500  0.992751  99.9785  151.986  56.3192
  9899.110  9899.090  0.500  0.991697  99.9091  151.92  56.3543
  9903.494  9903.480  0.500  0.990554  99.7975  151.806  56.3764
  9907.911  9907.900  0.500  0.989419  99.7114  151.749  56.4191
  9912.367  9912.330  0.500  0.988338  99.6118  151.638  56.4388
  9916.788  9916.780  0.500  0.987254  99.5341  151.56  56.4709
  9921.264  9921.250  0.500  0.986249  99.4261  151.454  56.4884
  9925.770  9925.740  0.500  0.985163  99.3185  151.346  56.5091
  9930.272  9930.250  0.500  0.984045  99.1411  151.109  56.4839
  9934.816  9934.780  0.500  0.983024  98.9688  150.909  56.4669
  9939.356  9939.330  0.500  0.981939  99.1169  151.202  56.6379
  9943.922  9943.900  0.500  0.980764  99.0184  151.089  56.6622
  9948.509  9948.480  0.500  0.979571  98.905  150.981  56.689
  9953.109  9953.090  0.500  0.978317  97.7241  149.233  56.1032
  9957.760  9957.710  0.500  0.977048  98.6342  150.672  56.7161
  9962.377  9962.360  0.500  0.975799  98.563  150.603  56.761
  9967.046  9967.020  0.500  0.974562  98.2193  150.125  56.6509
  9971.745  9971.700  0.500  0.973272  98.5319  150.664  56.9276
  9976.423  9976.400  0.500  0.972157  98.3666  150.453  56.9114
  9981.144  9981.120  0.500  0.971052  98.2013  150.286  56.911
  9985.887  9985.860  0.500  0.970091  96.6843  147.995  56.0971
  9990.656  9990.610  0.500  0.968789  98.0101  150.085  56.9635
  9995.413  9995.390  0.500  0.967668  97.8753  149.927  56.9676
  10000.226  10000.190  0.500  0.966631  95.6872  146.623  55.7697
  10005.026  10005.000  0.500  0.965367  97.8345  149.939  57.1034
  10009.862  10009.830  0.500  0.964318  97.7017  149.796  57.1089
  10014.732  10014.690  0.500  0.963107  95.8423  147.026  56.1206
  10019.586  10019.560  0.500  0.961965  97.4523  149.542  57.1461
  10024.471  10024.450  0.500  0.960806  97.367  149.468  57.1843
  10029.386  10029.360  0.500  0.959585  97.2407  149.317  57.196
  10034.320  10034.290  0.500  0.958377  96.9792  148.947  57.1234
  10039.254  10039.230  0.500  0.957197  97.133  149.246  57.3057
  10044.237  10044.200  0.500  0.955910  97.0288  149.154  57.3442
  10049.211  10049.190  0.500  0.954474  96.9062  148.997  57.3661
  10054.213  10054.190  0.500  0.953275  96.7936  148.885  57.3917
  10059.259  10059.220  0.500  0.952033  96.6925  148.781  57.4228
  10064.306  10064.260  0.500  0.950806  96.5832  148.676  57.4526
  10069.345  10069.320  0.500  0.949587  96.46  148.54  57.4701
  10074.433  10074.400  0.500  0.948443  96.3617  148.436  57.4959
  10079.535  10079.500  0.500  0.947225  96.2482  148.319  57.5204
  10084.633  10084.620  0.500  0.946080  96.1332  148.203  57.5412
  10089.794  10089.760  0.500  0.944871  93.7142  144.524  56.1807
  10094.948  10094.920  0.500  0.943643  95.8854  147.921  57.572
  10100.128  10100.100  0.500  0.942518  95.795  147.833  57.6023
  10105.314  10105.290  0.500  0.941390  95.6928  147.741  57.6317
  10110.550  10110.510  0.500  0.940177  95.5904  147.64  57.6623
  10115.765  10115.740  0.500  0.938978  95.4822  147.542  57.6928
  10121.012  10120.990  0.500  0.937739  95.3747  147.412  57.7138
  10126.282  10126.260  0.500  0.936559  95.2588  147.291  57.7344
  10131.571  10131.550  0.500  0.935212  95.1502  147.182  57.7691
  10136.888  10136.860  0.500  0.933916  95.0129  146.992  57.7696
  10142.219  10142.190  0.500  0.932601  94.9283  146.926  57.8198
  10147.561  10147.540  0.500  0.931266  94.8207  146.817  57.854
  10152.944  10152.910  0.500  0.929978  94.7073  146.7  57.8822
  10158.324  10158.290  0.500  0.928687  94.6014  146.594  57.9151
  10163.723  10163.700  0.500  0.927452  94.4888  146.47  57.9378
  10169.146  10169.120  0.500  0.926179  94.3637  146.332  57.9568
  10174.598  10174.570  0.500  0.925000  94.2513  146.201  57.9734
  10180.064  10180.030  0.500  0.923688  94.1383  146.086  58.0036
  10185.532  10185.510  0.500  0.922499  94.0223  145.979  58.0302
  10191.046  10191.010  0.500  0.921264  93.8978  145.828  58.0418
  10196.566  10196.530  0.500  0.920010  93.6827  145.549  58.0036
  10202.097  10202.070  0.500  0.918736  93.667  145.59  58.0938
  10207.652  10207.620  0.500  0.917433  93.5217  145.411  58.098
  10213.231  10213.200  0.500  0.916215  93.4086  145.298  58.1237
  10218.826  10218.800  0.500  0.914951  93.293  145.178  58.1492
  10224.440  10224.410  0.500  0.913583  93.1805  145.038  58.1725
  10230.075  10230.050  0.500  0.912370  93.3194  145.3  58.3481
  10235.729  10235.700  0.500  0.911138  93.2069  145.205  58.3821
  10241.403  10241.370  0.500  0.909733  93.1247  145.133  58.4351
  10247.088  10247.060  0.500  0.908447  92.9952  144.979  58.4482