File: xdidata/Ce/Ce-L3-CeO2.xdi
# XDI/1.0 BlueSky/1.10.0 BMM/2023-1.0-py310-tiled
# Beamline.name: BMM (06BM) -- Beamline for Materials Measurement (NIST)
# Beamline.xray_source: NSLS-II three-pole wiggler
# Beamline.collimation: paraboloid mirror, 5 nm Rh on 30 nm Pt
# Beamline.focusing: not in use
# Beamline.harmonic_rejection: flat mirror, Si stripe, pitch = 7.0 mrad relative to beam
# Beamline.software: Bluesky 1.10.0, Ophyd 1.7.0, DataBroker 2.0.0b13, Python 3.10.8, 2023-1.0-py310-tiled
# Detector.I0: 10 cm N2
# Detector.I1: 25 cm N2
# Detector.I2: 25 cm N2
# Detector.fluorescence: SII Vortex ME4 (4-element silicon drift)
# Detector.deadtime_correction: Xspress3
# Element.symbol: Ce
# Element.edge: L3
# Element.reference: Ce
# Element.reference_material: CeO2
# Facility.name: NSLS-II
# Facility.energy: 3.0
# Facility.current: 400.8
# Facility.mode: top-off
# Facility.GUP: 123456
# Facility.SAF: 301027
# Facility.cycle: 2023-2
# Mono.name: Si(111)
# Mono.d_spacing: 3.13519
# Mono.encoder_resolution: 0.0000050 deg/ct
# Mono.angle_offset: 16.0754 deg
# Mono.scan_mode: pseudo channel cut
# Mono.scan_type: step
# Mono.direction: forward in energy
# Sample.name: CeO2
# Sample.prep: Powder in PEG pellet
# Sample.x: 142.329 mm
# Sample.y: 114.126 mm
# Sample.SDD_position: 45.000 mm
# Scan.experimenters: Bruce Ravel
# Scan.edge_energy: 5723.4
# Scan.start_time: 2023-05-06T10:28:05
# Scan.end_time: 2023-05-06T10:33:53
# Scan.transient_id: 74719
# Scan.uid: ccd2ea8c-922b-431f-86e2-45cc90f56c2e
# Scan.plot_hint: (Ce1+Ce2+Ce3+Ce4)/I0  --  ($8+$9+$10+$11)/$5
# Column.1: energy eV
# Column.2: requested_energy eV
# Column.3: measurement_time seconds
# Column.4: xmu
# Column.5: I0 nA
# Column.6: It nA
# Column.7: Ir nA
# Column.8: Ce1
# Column.9: Ce2
# Column.10: Ce3
# Column.11: Ce4
# ///////////
# sample courtesy Martin Stennett, University of Sheffield
# -----------
# energy  requested_energy  measurement_time  xmu  I0  It  Ir  Ce1  Ce2  Ce3  Ce4
  5523.405  5523.400  0.500  1.474041  109.235  1.934472  0.143341  37.0033  46.0042  33.0038  45.0049
  5533.408  5533.400  0.500  1.460001  109.6  1.988391  0.149362  37.0033  46.0042  33.0038  44.0048
  5543.412  5543.400  0.500  1.656151  109.905  2.042242  0.155401  56.0051  33.003  45.0051  48.0052
  5553.412  5553.400  0.500  1.696468  110.241  2.098367  0.161954  47.0046  39.0038  50.0062  51.0058
  5563.409  5563.400  0.500  1.736719  110.565  2.157397  0.168812  40.0039  46.0045  62.0076  44.005
  5573.408  5573.400  0.500  1.687809  110.807  2.213573  0.175621  44.0043  44.0043  54.0066  45.0052
  5583.413  5583.400  0.500  1.665953  111.06  2.272478  0.182524  39.0039  44.0045  44.0055  58.0068
  5593.407  5593.400  0.500  1.636276  111.241  2.330172  0.189714  51.0051  34.0035  50.0063  47.0056
  5603.407  5603.400  0.500  1.867331  111.401  2.390576  0.197079  50.005  44.0044  45.0057  69.0082
  5613.403  5613.400  0.500  2.312760  111.568  2.449531  0.204766  62.0064  58.0061  73.0094  65.0079
  5623.418  5623.400  0.500  2.697088  111.615  2.506466  0.212106  83.0086  76.008  66.0085  76.0093
  5633.387  5633.400  0.500  3.141868  111.73  2.565924  0.220099  79.0082  92.0097  104.014  76.0094
  5643.387  5643.400  0.500  3.649169  111.819  2.625991  0.228098  79.0082  105.011  108.014  116.014
  5653.399  5653.400  0.500  5.346071  111.871  2.686025  0.236488  154.016  148.016  170.021  126.015
  5663.398  5663.400  0.500  7.158206  111.913  2.748623  0.244954  174.019  219.024  213.028  195.025
  5673.399  5673.400  0.500  9.906554  111.96  2.809018  0.253446  280.031  258.029  292.041  279.036
  5683.403  5683.400  0.500  15.5798  111.953  2.867697  0.262053  422.048  456.051  414.055  452.058
  5693.394  5693.400  0.500  23.2507  111.924  2.919967  0.270159  639.074  669.078  646.089  648.086
  5695.393  5695.400  0.500  26.6126  111.879  2.928236  0.271460  706.084  800.096  720.103  751.102
  5697.393  5697.400  0.500  28.9431  111.889  2.937648  0.273036  774.09  808.093  841.115  815.11
  5699.389  5699.400  0.500  31.3869  111.877  2.944762  0.274338  774.09  947.115  975.14  815.11
  5701.391  5701.400  0.500  38.0411  111.92  2.953478  0.275817  996.123  1143.14  1043.15  1075.15
  5703.400  5703.400  0.500  42.487  111.884  2.958025  0.276751  1145.14  1238.15  1221.18  1149.16
  5705.387  5705.400  0.500  50.7539  111.849  2.959444  0.277660  1370.17  1449.18  1460.22  1397.2
  5707.386  5707.400  0.500  56.4441  111.843  2.958958  0.278142  1537.2  1602.21  1567.24  1606.24
  5709.402  5709.400  0.500  66.0087  111.835  2.954598  0.278394  1813.25  1907.26  1783.29  1878.29
  5711.402  5711.400  0.500  80.9315  111.79  2.945174  0.278013  2197.31  2326.33  2230.36  2293.37
  5713.404  5713.400  0.500  97.7196  111.777  2.927016  0.276763  2751.41  2832.43  2745.48  2593.44
  5713.892  5713.900  0.500  101.332  111.77  2.919829  0.276484  2790.42  2843.43  2830.49  2861.48
  5714.387  5714.400  0.500  109.402  111.79  2.912943  0.275801  3053.46  3186.49  3055.54  2934.5
  5714.888  5714.900  0.500  113.436  111.755  2.903514  0.275119  3053.46  3298.51  3196.57  3128.53
  5715.390  5715.400  0.500  124.183  111.726  2.894116  0.274255  3489.57  3625.6  3365.62  3393.61
  5715.891  5715.900  0.500  132.331  111.751  2.883713  0.273340  3642.18  3880.61  3643.67  3621.65
  5716.391  5716.400  0.500  141.556  111.701  2.868852  0.272120  3950.72  4054.68  3927.75  3878.72
  5716.889  5716.900  0.500  151.196  111.71  2.852521  0.270455  4227.71  4268.73  4199.8  4193.78
  5717.392  5717.400  0.500  164.679  111.696  2.829655  0.268390  4594.25  4672.86  4667.97  4458.88
  5717.892  5717.900  0.500  180.028  111.703  2.804642  0.266069  5096.77  5172.95  4951.03  4888.99
  5718.392  5718.400  0.500  193.544  111.687  2.775277  0.263402  5096.77  5750.13  5378.19  5391.15
  5718.893  5718.900  0.500  222.019  111.688  2.736361  0.259557  6160  6489.3  6122.39  6025.31
  5719.393  5719.400  0.500  249.452  111.693  2.687022  0.254597  6877.3  7330.58  6769.63  6884.62
  5719.892  5719.900  0.500  273.482  111.696  2.633308  0.249619  6877.3  8158.84  7799.99  7710.88
  5720.390  5720.400  0.500  317.917  111.652  2.572011  0.243768  8579.09  9220.27  8938.45  8758.32
  5720.892  5720.900  0.500  348.604  111.661  2.522826  0.238830  9660.62  10036.5  9574.62  9653.58
  5721.393  5721.400  0.500  361.183  111.647  2.490156  0.235961  9660.62  10539.8  10138.9  9985.81
  5721.895  5721.900  0.500  388.184  111.654  2.461135  0.232863  10729.8  11248.1  10686.2  10678.1
  5722.394  5722.400  0.500  418.196  111.655  2.415677  0.228604  11565.2  12154.4  11478.6  11495.5
  5722.894  5722.900  0.500  458.698  111.603  2.348035  0.221647  12470.9  13461  12771.2  12489
  5723.392  5723.400  0.500  520.715  111.603  2.253150  0.212461  14540.7  15047.9  14292  14232.9
  5723.897  5723.900  0.500  590.318  111.591  2.139740  0.201313  16173.9  17175.2  16280.2  16245.1
  5724.396  5724.400  0.500  677.516  111.586  2.003142  0.187730  18870  19331.6  18989.1  18410.8
  5724.896  5724.900  0.500  792.145  111.567  1.838989  0.171684  21945.7  22904.1  21848.4  21679.1
  5725.394  5725.400  0.500  920.385  111.588  1.656695  0.153806  25446  26580.2  25627.7  25050.2
  5725.899  5725.900  0.500  1073.7  111.572  1.455256  0.134112  29422.6  31170.8  29793.2  29408.6
  5726.396  5726.400  0.500  1187.32  111.575  1.274979  0.116656  29422.6  35019.4  34279.3  33753.6
  5726.898  5726.900  0.500  1352.7  111.566  1.137068  0.103398  37102.4  39346.3  37640.5  36825.6
  5727.395  5727.400  0.500  1442.26  111.545  1.043654  0.094288  39783.9  41412.3  40321.1  39359.9
  5727.903  5727.900  0.500  1496.45  111.569  0.982396  0.088417  41553.6  42790.3  41669.3  40944.4
  5728.399  5728.400  0.500  1545.6  111.559  0.928548  0.083336  41553.6  44801.3  43594.3  42476.8
  5728.895  5728.900  0.500  1613.91  111.567  0.870982  0.077881  44650.1  46574.9  45008.2  43826
  5729.397  5729.400  0.500  1684.28  111.533  0.816152  0.072909  46500.9  48323.2  46877.1  46151.7
  5729.901  5729.900  0.500  1746.9  111.527  0.768240  0.068290  48131  50147.6  48859.7  47687.2
  5730.402  5730.400  0.500  1783.52  111.548  0.730159  0.064975  49032.4  50849.5  50343.6  48721.4
  5730.900  5730.900  0.500  1834.06  111.523  0.704306  0.062347  50274.4  53076  51239.4  49950
  5731.398  5731.400  0.500  1835.33  111.527  0.693308  0.061203  50303.9  53053.5  51396.7  49934.2
  5731.899  5731.900  0.500  1823.49  111.508  0.699734  0.061911  50097  52366.5  50878.6  49992.4
  5732.404  5732.400  0.500  1796.66  111.504  0.723814  0.064242  49569.9  51645.9  50216.6  48903
  5732.902  5732.900  0.500  1747.85  111.505  0.760381  0.067606  47891.2  50233.5  48696.3  48073.4
  5733.403  5733.400  0.500  1697.97  111.483  0.798782  0.071345  46565.7  48652.4  47743.6  46332
  5733.901  5733.900  0.500  1670.35  111.467  0.832230  0.074490  46565.7  47513.5  46522.6  45586.6
  5734.404  5734.400  0.500  1638.52  111.456  0.853238  0.076610  44988.9  47173.7  45725.5  44734.1
  5734.904  5734.900  0.500  1636.55  111.472  0.858985  0.077334  44887.1  47173.7  45725.5  44643.8
  5735.403  5735.400  0.500  1645.2  111.449  0.850247  0.076426  45264.2  47262.5  46183.5  44645.1
  5735.903  5735.900  0.500  1660.98  111.439  0.831152  0.074759  45264.2  47659.6  46840.2  45333.4
  5736.401  5736.400  0.500  1701.48  111.424  0.805096  0.072421  46763.4  49080.6  47282.1  46459
  5736.905  5736.900  0.500  1739.93  111.4  0.779061  0.069761  47902.7  49512.7  48806.5  47606.9
  5737.405  5737.400  0.500  1760.75  111.392  0.759820  0.068030  48086.7  50597.6  49478.3  47970.5
  5737.906  5737.900  0.500  1768.8  111.395  0.750597  0.067197  48086.7  50710.8  49478.3  48758.7
  5738.405  5738.400  0.500  1765.61  111.38  0.750556  0.067153  48615.9  50873.2  49165.5  47999.1
  5738.902  5738.900  0.500  1757.48  111.355  0.758925  0.067961  48046.2  50186  49597  47874.6
  5739.403  5739.400  0.500  1728.44  111.356  0.774897  0.069648  47521.6  49501.7  48139.5  47309.3
  5739.906  5739.900  0.500  1699.7  111.352  0.800296  0.071961  46520.7  48964.4  47499.2  46279.8
  5740.407  5740.400  0.500  1658.08  111.337  0.835437  0.075552  45385  47331.6  46448.7  45441.5
  5740.903  5740.900  0.500  1626.38  111.334  0.882037  0.079921  45385  47331.6  44859  43496.3
  5741.400  5741.400  0.500  1549.9  111.364  0.939212  0.085312  42622.2  44838.1  43240.5  41902
  5741.902  5741.900  0.500  1470.02  111.333  1.002399  0.091526  40527.5  42322.5  40830.2  39981
  5742.402  5742.400  0.500  1407.69  111.347  1.070746  0.098173  38635.9  40621.4  39259.7  38225.6
  5742.904  5742.900  0.500  1351.83  111.321  1.132215  0.104455  36921.6  39199.9  37488  36877.4
  5743.405  5743.400  0.500  1297.78  111.318  1.186109  0.109719  35473.4  37338  36149.6  35505.8
  5743.899  5743.900  0.500  1259.45  111.341  1.232319  0.114325  34634.1  35893.1  35180.1  34520.4
  5744.396  5744.400  0.500  1230.39  111.277  1.269423  0.118033  33960.3  35893.1  33972.7  33087.8
  5744.898  5744.900  0.500  1204.3  111.301  1.303691  0.121348  33081.4  34611.6  33340.8  33006.4
  5745.401  5745.400  0.500  1183.57  111.289  1.331201  0.124352  32607.8  34146  32576.8  32386.7
  5745.900  5745.900  0.500  1163.62  111.299  1.354214  0.126784  32063.2  33590.4  32249.5  31606.9
  5746.401  5746.400  0.500  1149.69  111.257  1.373346  0.128823  31586  33317.8  31750  31256.5
  5746.898  5746.900  0.500  1133.41  111.256  1.390514  0.130374  31094.9  32540.1  31718.7  30744.9
  5747.397  5747.400  0.500  1133.61  111.255  1.406094  0.131936  31034.6  33080.6  31217.5  30787
  5747.904  5747.900  0.500  1117.56  111.247  1.421199  0.133495  30655.6  32136.7  30874  30658.7
  5748.404  5748.400  0.500  1105.24  111.239  1.434962  0.134944  30151.7  32136.7  30512.8  30145.3
  5749.394  5749.390  0.500  1092.66  111.246  1.460106  0.137780  30217.9  31364.9  30275.4  29695.7
  5750.401  5750.390  0.500  1082.82  111.237  1.479549  0.139738  29620.7  31084.6  30199.2  29545.5
  5751.419  5751.410  0.500  1079.73  111.221  1.487420  0.140946  29897.3  31188.7  29576.8  29425.6
  5752.478  5752.460  0.500  1088.88  111.185  1.484875  0.140746  30008.8  31312.8  30190.1  29555.6
  5753.511  5753.520  0.500  1093.01  111.522  1.480246  0.140330  29978.1  31831.4  30318.4  29765.9
  5754.594  5754.600  0.500  1107.27  111.523  1.468179  0.139288  29978.1  32266.7  31169.3  30071.3
  5755.696  5755.700  0.500  1124.95  111.499  1.460129  0.138525  30939.1  32488.2  31134.6  30869.1
  5756.815  5756.820  0.500  1125.96  111.473  1.455058  0.138204  31062.2  32555.3  31184.5  30712.1
  5757.960  5757.960  0.500  1138.4  111.454  1.446992  0.137446  31250.8  32574.6  31721  31332.6
  5759.109  5759.110  0.500  1148.16  111.453  1.428205  0.135891  31250.8  33418.1  31721  31575.9
  5760.294  5760.290  0.500  1179.07  111.431  1.404258  0.133736  32528.3  33891.9  32720.1  32244.7
  5761.483  5761.480  0.500  1204.92  111.393  1.383476  0.131664  32976.9  34648.6  33486.1  33108.6
  5762.706  5762.700  0.500  1220.61  111.409  1.367873  0.130274  33715.2  35077.3  33843.8  33350.1
  5763.935  5763.930  0.500  1233.67  111.396  1.351328  0.128734  33930.1  35325.9  34819.8  33350.1
  5765.190  5765.180  0.500  1265.31  111.366  1.327676  0.126613  34925.5  36456  35131.2  34399.5
  5766.456  5766.450  0.500  1288.95  111.369  1.303162  0.124272  35452.4  37097.4  36089.4  34910.2
  5767.747  5767.740  0.500  1308.03  111.311  1.284192  0.122420  35790.1  37820.5  36593.9  35393.8
  5769.058  5769.050  0.500  1319.2  111.305  1.277362  0.121927  36233.4  37957.5  36239.7  36403.6
  5770.388  5770.380  0.500  1318.92  111.291  1.279531  0.122367  36154.5  37957.5  36363.9  36308.6
  5771.733  5771.730  0.500  1321.95  111.266  1.284834  0.123085  36546.9  38068  36489.2  35983.5
  5773.109  5773.100  0.500  1318.77  111.24  1.288430  0.123665  35886.2  37705.6  36850.5  36257.7
  5774.486  5774.480  0.500  1314.3  111.238  1.294403  0.124258  35918.9  37643.4  36605.9  36031.5
  5775.898  5775.890  0.500  1312.81  111.22  1.307562  0.125770  36081.2  37654.5  36468  35806.3
  5777.316  5777.310  0.500  1295.06  111.204  1.325938  0.127845  35726.7  37299.8  35811  35178.4
  5778.756  5778.750  0.500  1278.64  111.175  1.347052  0.130267  34929.3  36854.2  35383.6  34986.1
  5780.219  5780.210  0.500  1267.61  111.148  1.368945  0.132702  34454.2  36109.7  35422.4  34905.9
  5781.694  5781.690  0.500  1254.38  111.133  1.392715  0.135553  34373.2  35995.3  34751.7  34283.3
  5783.196  5783.190  0.500  1241.81  111.09  1.416361  0.138149  34031.5  35956.4  34388.5  33575.7
  5784.718  5784.710  0.500  1229.17  111.087  1.437541  0.140380  33572.8  35329.6  33954.8  33688.4
  5786.253  5786.250  0.500  1221.56  111.059  1.454690  0.142554  33540.4  35288.6  33651.6  33184
  5787.812  5787.810  0.500  1212.05  111.034  1.466766  0.143873  33010.5  34804  33345.4  33419.2
  5789.389  5789.380  0.500  1209.69  111.012  1.477759  0.145164  33043.6  34743.9  33603.3  32899.6
  5790.989  5790.980  0.500  1210.01  110.99  1.484120  0.146046  33022  34771.6  33492.2  33012.6
  5792.597  5792.590  0.500  1216.08  110.959  1.488088  0.147041  33202.5  34783  33898.7  33049.8
  5794.236  5794.230  0.500  1212.47  110.936  1.493645  0.147795  32706.7  34936.1  33749.5  33114.9
  5795.888  5795.880  0.500  1208.33  110.908  1.503150  0.148900  32706.7  34936.1  33749.5  32621.5
  5797.556  5797.550  0.500  1200.65  110.867  1.516017  0.150694  33018.4  34521.6  32876.6  32695.2
  5799.248  5799.240  0.500  1192.92  110.865  1.529399  0.152286  32481.3  34486.4  32741.5  32543.2
  5800.960  5800.950  0.500  1192.35  110.822  1.538412  0.153454  32604.9  34161.2  33047.8  32325
  5802.688  5802.680  0.500  1200.81  110.782  1.543898  0.154390  32885.9  34042.2  33307.2  32792.3
  5804.438  5804.430  0.500  1202.81  110.74  1.545177  0.154748  33006.1  34221.4  33615.3  32357.1
  5806.197  5806.190  0.500  1208.48  110.73  1.542876  0.154779  32971.3  34544.6  33680.4  32619.4
  5807.985  5807.980  0.500  1216.62  110.683  1.537576  0.154459  33005.9  34966.1  33522.3  33164.9
  5809.789  5809.780  0.500  1231.31  110.643  1.531312  0.153998  33730.7  35162.4  34176.9  33164.9
  5811.622  5811.610  0.500  1243.62  110.609  1.524248  0.153744  33676.2  35419.9  34618.8  33840.9
  5813.460  5813.450  0.500  1254.24  110.56  1.516993  0.153155  34348.6  35834.3  34571.5  33914.9
  5815.316  5815.310  0.500  1265.13  110.538  1.509579  0.152550  34379.9  36233.9  34963.2  34267.6
  5817.195  5817.190  0.500  1273.08  110.436  1.503278  0.152458  34650.7  36647.1  35086.4  34209.5
  5819.095  5819.090  0.500  1287.84  110.456  1.500255  0.152390  35471.1  36658.2  35524.8  34595.8
  5821.018  5821.010  0.500  1286.31  110.395  1.496333  0.152351  35021.3  36972.6  35460.1  34549
  5822.960  5822.950  0.500  1298.85  110.308  1.491975  0.151949  35521.1  36897.5  35991.1  34864.2
  5824.918  5824.910  0.500  1309.68  110.287  1.489498  0.151804  36132.1  37147  35904.4  35256.7
  5826.887  5826.880  0.500  1322.25  110.256  1.488179  0.152166  36003.7  37837.7  36526  35419.1
  5828.889  5828.880  0.500  1329.63  110.174  1.491181  0.152693  36212.3  37837.5  36594  35846.4
  5830.898  5830.890  0.500  1327.39  110.126  1.498817  0.153871  36027  37597.5  36621.3  35934.4
  5832.928  5832.920  0.500  1315.05  110.052  1.510877  0.155411  35609.2  37627.1  36347.7  35139.5
  5834.987  5834.980  0.500  1319.09  110.001  1.519643  0.156706  35934.1  37320.1  36332.6  35514.9
  5837.056  5837.050  0.500  1307.79  109.91  1.528919  0.158171  35433.2  37077.9  35962.5  35264.8
  5839.145  5839.140  0.500  1308.13  109.849  1.538378  0.159395  35602.3  37038.8  36018.5  35036.5
  5841.255  5841.250  0.500  1303.27  109.77  1.550704  0.161277  35112.5  37150.9  35950.5  34845.3
  5843.383  5843.380  0.500  1304.02  109.702  1.565810  0.163184  35229.6  37219.8  35436.8  35168.4
  5845.522  5845.520  0.500  1296.28  109.589  1.580900  0.165098  34958.3  36866.2  35375.7  34857.1
  5847.692  5847.690  0.500  1288.97  109.527  1.594143  0.167005  34909.3  36385  35312.4  34570.8
  5849.884  5849.880  0.500  1291.39  109.446  1.603790  0.168329  34977  36952.5  35055.4  34352.6
  5852.084  5852.080  0.500  1295.41  109.325  1.612184  0.169602  34811.9  36886.4  35508.9  34412.8
  5854.310  5854.300  0.500  1293.42  109.19  1.620782  0.171177  34793.4  36720.4  35146.5  34568.9
  5856.560  5856.550  0.500  1295.62  109.093  1.627622  0.172109  34793.4  36936.5  35140.8  34472.8
  5858.818  5858.810  0.500  1301.26  108.986  1.630345  0.173079  35285.3  36769  35131.3  34633.8
  5861.096  5861.090  0.500  1299.17  108.783  1.632915  0.173658  35285.3  36490  35267.7  34284.6
  5863.398  5863.390  0.500  1299.59  108.587  1.642273  0.174966  35025.3  36566.1  35281.7  34245.6
  5865.719  5865.710  0.500  1302.31  108.275  1.645735  0.175972  34635.4  36351.9  35502.5  34517.6
  5868.056  5868.050  0.500  1300.96  107.747  1.645912  0.176410  34555.3  36133.4  34844.9  34641.6
  5870.408  5870.400  0.500  1310.51  106.268  1.628147  0.174936  34311.5  36166.6  34670.6  34116.3
  5872.787  5872.780  0.500  1334.23  87.017  1.337452  0.144278  28847.4  29924.1  29073.6  28255.9
  5875.173  5875.170  0.500  1317.67  109.231  1.679258  0.181148  35233.2  37459.4  35782.6  35454.1
  5877.593  5877.590  0.500  1320.31  109.369  1.686100  0.182273  35568.9  37609.4  36017.7  35204.8
  5880.029  5880.020  0.500  1325.44  109.028  1.691812  0.183729  35505.5  37812.5  35772.3  35419.8
  5882.475  5882.470  0.500  1321.54  108.702  1.703125  0.185435  35713.4  36787.6  36105.5  35047.4
  5884.957  5884.950  0.500  1317.91  108.568  1.716101  0.187241  35278  36570.6  35998.8  35234.8
  5887.446  5887.440  0.500  1314.98  108.358  1.722841  0.188532  35255  36782.6  35636.2  34815.3
  5889.954  5889.950  0.500  1331.86  108.177  1.727498  0.189573  35610.1  37266.9  36063.3  35136.4
  5892.476  5892.470  0.500  1327.42  108.007  1.729153  0.190357  35399.1  37175.9  35785.6  35009.5
  5895.028  5895.020  0.500  1341.04  107.825  1.729530  0.190728  35728.7  37539.3  36414  34915.4
  5897.604  5897.590  0.500  1340.7  107.625  1.727804  0.191031  35694  37387.4  35904.5  35306.8
  5900.184  5900.170  0.500  1353.25  107.389  1.725363  0.191191  36056.2  37330.2  36208  35730.2
  5902.789  5902.780  0.500  1353.91  107.157  1.722908  0.191549  35694.2  37513.4  36281.7  35591.2
  5905.413  5905.400  0.500  1367.17  106.92  1.722371  0.191973  35925.9  37783.7  36460.7  36007.3
  5908.060  5908.050  0.500  1367.02  106.55  1.721829  0.192357  36486.9  37467.5  36300.9  35399.9
  5910.726  5910.710  0.500  1375.13  106.043  1.722784  0.193135  36148  37534.3  36390.9  35749.1
  5913.400  5913.390  0.500  1377.72  104.915  1.716633  0.192892  36148  37325.2  35948.4  35122.6
  5916.100  5916.090  0.500  1379.08  91.6963  1.515387  0.171191  31299.6  32697.5  31508.9  30950.2
  5918.821  5918.810  0.500  1366.26  105.982  1.763540  0.199347  35836.4  37349.2  36144.5  35468.9
  5921.562  5921.550  0.500  1357.28  106.907  1.795404  0.203742  35836.4  37349.2  36144.5  35772.5
  5924.312  5924.300  0.500  1367.36  106.29  1.802624  0.205250  36035.1  37463.5  36313.2  35524.3
  5927.076  5927.080  0.500  1363.89  105.475  1.807333  0.206464  35729.4  37094.1  35741.4  35290.9
  5929.884  5929.870  0.500  1374.05  104.695  1.810632  0.207352  35729.4  37094.1  35741.4  35290.9
  5932.710  5932.690  0.500  1351.75  105.927  1.846803  0.212207  35415.2  37152  35721.2  34898.4
  5935.541  5935.520  0.500  1358  105.567  1.853311  0.213683  35404.6  37000.8  35861.4  35093.5
  5938.387  5938.370  0.500  1358.68  104.873  1.853486  0.214191  35084.3  36817.6  35861.4  34725.2
  5941.238  5941.250  0.500  1361.02  103.729  1.843745  0.213922  35084.3  36463  35097.5  34532.8
  5944.130  5944.140  0.500  1365.75  98.1372  1.752059  0.203611  33073.4  34436.6  33667.4  32853.6
  5947.063  5947.050  0.500  1372.45  104.957  1.877654  0.218979  35768.9  37230.4  35820.5  35228.9
  5949.975  5949.970  0.500  1372.65  105.067  1.883547  0.220291  35989  37275.1  36108.7  34848.4
  5952.912  5952.920  0.500  1380.89  104.537  1.878952  0.220432  35456.2  37260.3  36214.8  35423.1
  5955.892  5955.890  0.500  1396.28  104.147  1.876448  0.220772  36047  37542.5  35968.7  35860.3
  5958.864  5958.870  0.500  1393.35  103.783  1.876191  0.221525  35495.6  37713.4  36068.8  35327.8
  5961.866  5961.880  0.500  1402.61  103.386  1.880193  0.222693  35676.8  37573.4  36216.9  35543
  5964.887  5964.900  0.500  1398.63  103.039  1.888033  0.224157  35676.7  37489.5  35851.4  35095.8
  5967.948  5967.950  0.500  1404.22  102.67  1.895443  0.225754  35602.3  37594.1  35916.5  35057.5
  5971.003  5971.010  0.500  1409.5  102.264  1.903078  0.227576  35608.9  37533.2  35904.2  35094.6
  5974.078  5974.090  0.500  1404.11  101.855  1.912372  0.229252  35430  36942.4  35684.1  34958.3
  5977.182  5977.190  0.500  1404.43  101.415  1.918507  0.231010  35391.3  36595.5  35596.9  34847.1
  5980.322  5980.310  0.500  1403.09  100.91  1.923169  0.232165  34902.9  36958.6  35426.6  34297.6
  5983.443  5983.450  0.500  1398.28  100.234  1.922457  0.232881  34749  36310.7  34894.1  34201.4
  5986.594  5986.600  0.500  1407.06  98.8939  1.907122  0.231907  34476.3  36202.8  34726.1  33745
  5989.770  5989.780  0.500  1555.36  83.1266  1.612780  0.197018  29170.9  36202.8  34726.1  29191.9
  5992.966  5992.970  0.500  1415.86  101.146  1.965335  0.240337  35206.4  37049.7  36023.4  34929.4
  5996.179  5996.190  0.500  1423.17  100.432  1.956910  0.239958  35434.3  37049.7  35466.1  34981.5
  5999.415  5999.420  0.500  1439.78  99.788  1.949252  0.239932  35450.3  37278.8  35897.2  35046.3
  6002.667  6002.670  0.500  1441.38  99.2443  1.945151  0.240263  35459.5  37338.8  35701  34549
  6005.957  6005.950  0.500  1451.83  98.7215  1.943170  0.240467  35453  37178.1  35923.7  34772.3
  6009.229  6009.240  0.500  1441.15  98.2988  1.946491  0.241936  35071.8  36602.2  35286.5  34702.9
  6012.567  6012.550  0.500  1451.58  97.849  1.952003  0.243366  35061.5  36908.5  35473.7  34591.9
  6015.870  6015.870  0.500  1448.74  97.4042  1.961048  0.245506  34962.9  36433  35039.4  34677.8
  6019.209  6019.220  0.500  1446.25  96.9496  1.971989  0.247677  34659.9  36253.6  34992.1  34307.3
  6022.605  6022.590  0.500  1450.31  96.5213  1.984162  0.249966  34526.4  36387.9  34614.8  34456.6
  6025.956  6025.970  0.500  1450.83  96.0976  1.995927  0.252348  34526.4  36387.9  34614.8  33891.9
  6029.390  6029.380  0.500  1439.38  95.626  2.003738  0.254501  34065.1  35594.8  34339.2  33642.6
  6032.822  6032.800  0.500  1444.1  95.1997  2.012085  0.256258  34265.7  35742.9  34077  33392.3
  6036.243  6036.250  0.500  1443.28  94.7244  2.017771  0.258115  33795.2  35162.3  34172.7  33583.4
  6039.697  6039.710  0.500  1446.76  94.2713  2.022205  0.259507  33846  35493.5  33939.7  33108.9
  6043.186  6043.190  0.500  1441.1  93.8221  2.025966  0.260853  33520  35112.1  33455.3  33119.9
  6046.681  6046.690  0.500  1457.82  93.354  2.027560  0.262019  33766.5  35327.5  33950.5  33048.8
  6050.201  6050.210  0.500  1457.69  92.9068  2.028955  0.263197  33656.4  34885.3  33838.8  33049
  6053.738  6053.750  0.500  1472.02  92.4159  2.025688  0.263468  33496.6  35526.6  33792.6  33222
  6057.285  6057.300  0.500  1473.8  91.81  2.018738  0.263638  33555.8  35163.2  33733.6  32856.6
  6060.869  6060.880  0.500  1487.03  91.2028  2.012582  0.263759  33807.7  34920.1  34030.5  32863.5
  6064.485  6064.480  0.500  1492.23  90.771  2.012343  0.264394  33807.7  35293.3  33407.9  32942.6
  6068.084  6068.090  0.500  1493.01  90.3441  2.016074  0.265791  33372.1  35004  33674.3  32834.5
  6071.707  6071.720  0.500  1498.39  89.8857  2.020850  0.267302  33372.1  34966.9  33509.9  32834.5
  6075.369  6075.380  0.500  1500.16  89.5489  2.029107  0.269471  33486  34519.7  33443.1  32888.6
  6079.061  6079.050  0.500  1495.89  89.0594  2.034656  0.271390  33143.5  34422.7  33186  32471.2
  6082.727  6082.740  0.500  1503.18  88.5484  2.039137  0.272793  32799.1  34762.6  33192.8  32349.9
  6086.431  6086.450  0.500  1499.69  88.0477  2.044915  0.274450  32859  34043.9  32811.4  32329.7
  6090.159  6090.180  0.500  1504.09  87.5527  2.052291  0.276719  32360.4  34463  32796.5  32067.5
  6093.905  6093.920  0.500  1501.88  87.0445  2.059888  0.278729  32301.3  33903.7  32572.9  31952.4
  6097.671  6097.690  0.500  1496.56  86.5356  2.067249  0.280610  32020.1  33734.4  31954.4  31797.2
  6101.462  6101.480  0.500  1506.78  86.0305  2.073684  0.282698  32054.5  33720.5  31979.5  31874.2
  6105.288  6105.280  0.500  1504.78  85.479  2.078678  0.284344  32107.8  33257.1  31953.2  31308.6
  6109.093  6109.110  0.500  1509.25  84.9623  2.076962  0.285109  31702.1  33257.1  31870.2  31399.7
  6112.937  6112.950  0.500  1516.2  84.4357  2.072821  0.285473  31744.7  33332.1  32031.4  30913.3
  6116.788  6116.810  0.500  1528.17  83.8875  2.065666  0.285572  31386.4  33411.1  31988.2  31408.6
  6120.677  6120.690  0.500  1538.89  83.3221  2.058948  0.285544  31882.2  32895.8  31848.1  31597.8
  6124.575  6124.590  0.500  1543.07  82.7449  2.055010  0.286158  31690.6  33119.9  31684  31186.5
  6128.487  6128.510  0.500  1536.77  82.1762  2.053619  0.286958  31110  32803.4  31500.5  30872
  6132.430  6132.450  0.500  1541.03  81.6077  2.056030  0.288165  31030.7  32803.4  30946.1  30980
  6136.396  6136.410  0.500  1547.78  80.9792  2.058582  0.289674  30830.1  32848.3  30948.2  30711.8
  6140.365  6140.380  0.500  1551.79  80.3484  2.061030  0.290971  30830.1  32848.3  30611.8  30393.5
  6144.358  6144.380  0.500  1539.87  79.6758  2.060530  0.292286  30551.6  31540.3  30596.7  30002.2
  6148.368  6148.390  0.500  1533.97  78.9835  2.059300  0.293199  29751  31578.1  30275.2  29553.6
  6152.412  6152.430  0.500  1530.18  78.2074  2.052865  0.293028  29504.3  31564.3  29364.7  29238.5