File: xdidata/Ce/Ce-L1-CeriumDioxide.xdi
# XDI/1.0 BlueSky/1.10.0 BMM/2023-1.0-py310-tiled
# Beamline.name: BMM (06BM) -- Beamline for Materials Measurement (NIST)
# Beamline.xray_source: NSLS-II three-pole wiggler
# Beamline.collimation: paraboloid mirror, 5 nm Rh on 30 nm Pt
# Beamline.focusing: not in use
# Beamline.harmonic_rejection: flat mirror, Si stripe, pitch = 7.0 mrad relative to beam
# Beamline.software: Bluesky 1.10.0, Ophyd 1.7.0, DataBroker 2.0.0b13, Python 3.10.8, 2023-1.0-py310-tiled
# Detector.I0: 10 cm N2
# Detector.I1: 25 cm N2
# Detector.I2: 25 cm N2
# Element.symbol: Ce
# Element.edge: L1
# Element.reference: Ce
# Element.reference_material: CeO2
# Facility.name: NSLS-II
# Facility.energy: 3.0
# Facility.current: 400.5
# Facility.mode: top-off
# Facility.GUP: 301027
# Facility.SAF: 310583
# Facility.cycle: 2023-2
# Mono.name: Si(111)
# Mono.d_spacing: 3.13519
# Mono.encoder_resolution: 0.0000050 deg/ct
# Mono.angle_offset: 16.0754 deg
# Mono.scan_mode: pseudo channel cut
# Mono.scan_type: step
# Mono.direction: forward in energy
# Sample.name: CeO2
# Sample.prep: PEG pellet
# Sample.x: 109.138 mm
# Sample.y: 153.150 mm
# Sample.SDD_position: 205.000 mm
# Scan.experimenters: Bruce Ravel
# Scan.edge_energy: 6548.8
# Scan.start_time: 2023-05-28T12:36:40
# Scan.end_time: 2023-05-28T12:44:48
# Scan.transient_id: 78686
# Scan.uid: 7bb79308-2729-412a-b13a-0e3c914248a4
# Scan.plot_hint: ln(It/Ir)  --  ln($6/$7)
# Column.1: energy eV
# Column.2: requested_energy eV
# Column.3: measurement_time seconds
# Column.4: xmu
# Column.5: I0 nA
# Column.6: It nA
# Column.7: Ir nA
# ///////////
# sample courtesy Martin Stennett, University of Sheffield
# -----------
# energy  requested_energy  measurement_time  xmu  I0  It  Ir
  6348.798  6348.800  0.500  2.257862  152.954  113.956  11.9168
  6358.810  6358.800  0.500  2.247375  153.233  114.693  12.1204
  6368.815  6368.800  0.500  2.236596  153.562  115.45  12.3325
  6378.814  6378.800  0.500  2.226178  153.849  116.124  12.5344
  6388.846  6388.800  0.500  2.216376  154.096  116.845  12.7366
  6398.801  6398.800  0.500  2.206541  154.336  117.549  12.9399
  6408.826  6408.800  0.500  2.196327  154.525  118.21  13.1463
  6418.814  6418.800  0.500  2.186262  154.733  118.971  13.3648
  6428.816  6428.800  0.500  2.176418  154.867  119.565  13.5644
  6438.814  6438.800  0.500  2.166874  155  120.185  13.7654
  6448.817  6448.800  0.500  2.157503  152.843  119.005  13.7585
  6458.819  6458.800  0.500  2.147618  153.157  119.744  13.9815
  6468.810  6468.800  0.500  2.137718  155.351  122.007  14.3876
  6478.812  6478.800  0.500  2.127916  155.416  122.596  14.5994
  6488.812  6488.800  0.500  2.118272  155.612  123.211  14.8148
  6498.815  6498.800  0.500  2.109100  155.733  123.854  15.0293
  6509.646  6508.800  0.500  2.099359  156.185  124.752  15.2864
  6518.781  6518.800  0.500  2.090272  156.433  125.455  15.513
  6520.777  6520.800  0.500  2.088314  156.464  125.578  15.5586
  6522.786  6522.800  0.500  2.086462  156.477  125.698  15.6024
  6524.786  6524.800  0.500  2.084649  156.491  125.826  15.6466
  6526.783  6526.800  0.500  2.082755  156.508  125.937  15.6901
  6528.788  6528.800  0.500  2.080819  156.518  126.04  15.7333
  6530.786  6530.800  0.500  2.079014  156.543  126.177  15.7789
  6532.791  6532.800  0.500  2.077157  156.558  126.355  15.8305
  6534.788  6534.800  0.500  2.075352  156.563  126.371  15.8611
  6536.795  6536.800  0.500  2.073509  156.574  126.461  15.9016
  6538.798  6538.800  0.500  2.071624  156.593  126.586  15.9475
  6539.084  6539.100  0.500  2.071382  156.573  126.575  15.95
  6539.388  6539.400  0.500  2.071074  156.558  126.632  15.962
  6539.685  6539.700  0.500  2.070841  156.569  126.619  15.964
  6539.985  6540.000  0.500  2.070604  156.559  126.689  15.9767
  6540.284  6540.300  0.500  2.070239  156.568  126.685  15.982
  6540.586  6540.600  0.500  2.069967  156.554  126.699  15.9881
  6540.889  6540.900  0.500  2.069717  156.54  126.685  15.9904
  6541.182  6541.200  0.500  2.069440  156.577  126.753  16.0033
  6541.486  6541.500  0.500  2.069202  156.555  126.741  16.0057
  6541.783  6541.800  0.500  2.068886  156.548  126.739  16.0105
  6542.088  6542.100  0.500  2.068624  156.555  126.789  16.0211
  6542.388  6542.400  0.500  2.068388  156.553  126.786  16.0244
  6542.693  6542.700  0.500  2.068147  156.552  126.801  16.0301
  6542.988  6543.000  0.500  2.067801  156.562  126.825  16.0387
  6543.296  6543.300  0.500  2.067679  156.564  126.837  16.0422
  6543.593  6543.600  0.500  2.067426  156.551  126.854  16.0484
  6543.896  6543.900  0.500  2.067087  156.558  126.888  16.0581
  6544.189  6544.200  0.500  2.066930  156.561  126.907  16.0631
  6544.496  6544.500  0.500  2.066666  156.557  126.925  16.0697
  6544.789  6544.800  0.500  2.066439  156.555  126.94  16.0752
  6545.090  6545.100  0.500  2.066276  156.558  126.951  16.0791
  6545.388  6545.400  0.500  2.066053  156.567  126.967  16.0848
  6545.692  6545.700  0.500  2.065740  156.572  126.982  16.0917
  6545.995  6546.000  0.500  2.065613  156.578  127.008  16.0971
  6546.296  6546.300  0.500  2.065288  156.569  127.02  16.1039
  6546.596  6546.600  0.500  2.065212  156.563  127.036  16.1071
  6546.897  6546.900  0.500  2.064811  156.564  127.067  16.1175
  6547.196  6547.200  0.500  2.064559  156.571  127.085  16.1238
  6547.494  6547.500  0.500  2.064357  156.566  127.054  16.1231
  6547.795  6547.800  0.500  2.064088  156.562  127.083  16.1312
  6548.091  6548.100  0.500  2.063709  156.553  127.066  16.1352
  6548.396  6548.400  0.500  2.063568  156.544  127.098  16.1415
  6548.694  6548.700  0.500  2.063280  156.552  127.097  16.146
  6548.998  6549.000  0.500  2.063022  156.552  127.146  16.1564
  6549.298  6549.300  0.500  2.062852  156.548  127.149  16.1595
  6549.601  6549.600  0.500  2.062578  156.543  127.115  16.1596
  6549.899  6549.900  0.500  2.062289  156.543  127.142  16.1677
  6550.197  6550.200  0.500  2.062088  156.545  127.171  16.1746
  6550.500  6550.500  0.500  2.061898  156.535  127.155  16.1757
  6550.798  6550.800  0.500  2.061550  156.531  127.199  16.1869
  6551.094  6551.100  0.500  2.061330  156.529  127.214  16.1924
  6551.396  6551.400  0.500  2.061091  156.514  127.215  16.1964
  6551.696  6551.700  0.500  2.061027  156.518  127.231  16.1995
  6551.994  6552.000  0.500  2.060848  156.517  127.27  16.2073
  6552.301  6552.300  0.500  2.060639  156.526  127.234  16.2061
  6552.597  6552.600  0.500  2.060485  156.512  127.217  16.2064
  6552.899  6552.900  0.500  2.060419  156.518  127.243  16.2109
  6553.197  6553.200  0.500  2.060043  156.5  127.241  16.2167
  6553.502  6553.500  0.500  2.059941  156.499  127.244  16.2187
  6553.800  6553.800  0.500  2.059899  156.501  127.292  16.2255
  6554.104  6554.100  0.500  2.059734  156.493  127.323  16.2322
  6554.402  6554.400  0.500  2.059542  156.503  127.358  16.2398
  6554.699  6554.700  0.500  2.059369  156.495  127.33  16.239
  6555.001  6555.000  0.500  2.059354  156.496  127.353  16.2421
  6555.299  6555.300  0.500  2.059128  156.496  127.395  16.2512
  6555.594  6555.600  0.500  2.058981  156.484  127.389  16.2528
  6555.899  6555.900  0.500  2.058918  156.5  127.403  16.2557
  6556.200  6556.200  0.500  2.058609  156.497  127.411  16.2616
  6556.500  6556.500  0.500  2.058443  156.496  127.431  16.2669
  6556.798  6556.800  0.500  2.058193  156.491  127.444  16.2727
  6557.099  6557.100  0.500  2.058019  156.48  127.437  16.2745
  6557.399  6557.400  0.500  2.057864  156.476  127.461  16.2801
  6557.699  6557.700  0.500  2.057667  156.472  127.498  16.2881
  6557.998  6558.000  0.500  2.057463  156.48  127.48  16.2891
  6558.295  6558.300  0.500  2.057228  156.483  127.519  16.2979
  6558.597  6558.600  0.500  2.057124  156.466  127.547  16.3032
  6558.896  6558.900  0.500  2.056885  156.474  127.568  16.3097
  6559.196  6559.200  0.500  2.056904  156.477  127.59  16.3122
  6559.497  6559.500  0.500  2.056795  156.472  127.554  16.3095
  6559.803  6559.800  0.500  2.056658  156.478  127.56  16.3125
  6560.105  6560.100  0.500  2.056612  156.494  127.623  16.3212
  6560.406  6560.400  0.500  2.056586  156.474  127.616  16.3208
  6560.705  6560.700  0.500  2.056516  156.479  127.624  16.323
  6561.002  6561.000  0.500  2.056521  156.481  127.665  16.328
  6561.301  6561.300  0.500  2.056487  156.479  127.658  16.3278
  6561.600  6561.600  0.500  2.056484  156.407  127.646  16.3263
  6561.897  6561.900  0.500  2.056665  156.273  127.549  16.3109
  6562.198  6562.200  0.500  2.056750  156.177  127.493  16.3024
  6562.495  6562.500  0.500  2.056648  156.106  127.407  16.2931
  6562.796  6562.800  0.500  2.056603  156.746  127.921  16.3595
  6563.097  6563.100  0.500  2.056540  156.928  128.107  16.3843
  6563.401  6563.400  0.500  2.056456  156.99  128.16  16.3925
  6563.700  6563.700  0.500  2.056453  157.001  128.198  16.3974
  6563.998  6564.000  0.500  2.056315  156.999  128.204  16.4004
  6564.304  6564.300  0.500  2.056253  157.011  128.248  16.4071
  6564.600  6564.600  0.500  2.056085  157.012  128.254  16.4106
  6564.897  6564.900  0.500  2.055866  157.023  128.262  16.4152
  6565.200  6565.200  0.500  2.055783  157.023  128.267  16.4172
  6565.494  6565.500  0.500  2.055719  157.019  128.292  16.4215
  6565.793  6565.800  0.500  2.055597  157.025  128.358  16.4319
  6566.100  6566.100  0.500  2.055475  157.021  128.39  16.438
  6566.398  6566.400  0.500  2.055329  157.015  128.379  16.4391
  6566.699  6566.700  0.500  2.055262  157.027  128.361  16.4378
  6567.004  6567.000  0.500  2.055122  157.009  128.367  16.4408
  6567.296  6567.300  0.500  2.055091  157.001  128.392  16.4446
  6567.599  6567.600  0.500  2.055041  156.998  128.408  16.4474
  6567.895  6567.900  0.500  2.054948  157.001  128.389  16.4466
  6568.196  6568.200  0.500  2.054896  157.008  128.413  16.4505
  6568.500  6568.500  0.500  2.054784  156.99  128.457  16.4579
  6568.803  6568.800  0.500  2.054696  157.01  128.482  16.4627
  6569.103  6569.100  0.500  2.054717  157.003  128.489  16.4631
  6569.402  6569.400  0.500  2.054532  157.004  128.539  16.4726
  6569.704  6569.700  0.500  2.054460  156.996  128.549  16.4751
  6570.000  6570.000  0.500  2.054381  156.993  128.559  16.4777
  6570.300  6570.300  0.500  2.054194  156.994  128.591  16.4849
  6570.599  6570.600  0.500  2.054159  156.993  128.599  16.4864
  6570.897  6570.900  0.500  2.054058  156.99  128.607  16.4892
  6571.199  6571.200  0.500  2.053919  157.006  128.655  16.4976
  6571.501  6571.500  0.500  2.053893  156.997  128.656  16.4982
  6571.804  6571.800  0.500  2.053725  157.002  128.667  16.5024
  6572.106  6572.100  0.500  2.053573  156.99  128.7  16.5091
  6572.406  6572.400  0.500  2.053512  156.99  128.684  16.508
  6572.704  6572.700  0.500  2.053420  156.996  128.702  16.5119
  6573.006  6573.000  0.500  2.053446  156.987  128.726  16.5145
  6573.303  6573.300  0.500  2.053247  156.982  128.735  16.519
  6573.603  6573.600  0.500  2.053132  156.984  128.756  16.5235
  6573.799  6573.800  0.500  2.053079  156.988  128.766  16.5257
  6574.796  6574.790  0.500  2.052940  156.99  128.834  16.5368
  6575.806  6575.790  0.500  2.052675  157.007  128.89  16.5483
  6576.822  6576.810  0.500  2.052100  157.018  128.915  16.5611
  6577.882  6577.860  0.500  2.051189  157.022  128.954  16.5811
  6578.920  6578.920  0.500  2.050157  156.987  129.033  16.6084
  6579.990  6580.000  0.500  2.048903  156.997  129.1  16.6379
  6581.094  6581.100  0.500  2.047654  156.992  129.127  16.6622
  6582.219  6582.220  0.500  2.046330  157.004  129.222  16.6966
  6583.358  6583.360  0.500  2.045089  156.971  129.257  16.7218
  6584.515  6584.510  0.500  2.043700  156.995  129.333  16.7548
  6585.692  6585.690  0.500  2.042175  156.935  129.332  16.7804
  6586.879  6586.880  0.500  2.040734  156.77  129.276  16.7973
  6588.101  6588.100  0.500  2.039246  156.964  129.496  16.8509
  6589.331  6589.330  0.500  2.037953  156.96  129.519  16.8757
  6590.582  6590.580  0.500  2.036391  156.959  129.62  16.9152
  6591.853  6591.850  0.500  2.034988  156.968  129.685  16.9475
  6593.137  6593.140  0.500  2.033408  156.975  129.744  16.9821
  6594.450  6594.450  0.500  2.031793  156.975  129.803  17.0172
  6595.787  6595.780  0.500  2.030395  156.974  129.833  17.045
  6597.132  6597.130  0.500  2.029032  156.984  129.896  17.0765
  6598.504  6598.500  0.500  2.027626  156.984  129.973  17.1107
  6599.883  6599.880  0.500  2.026389  156.983  130.049  17.1418
  6601.290  6601.290  0.500  2.025159  156.983  130.137  17.1746
  6602.715  6602.710  0.500  2.023860  156.947  130.219  17.2077
  6604.154  6604.150  0.500  2.022573  156.866  130.255  17.2347
  6605.615  6605.610  0.500  2.021377  156.979  130.387  17.2728
  6607.098  6607.090  0.500  2.020081  156.986  130.448  17.3033
  6608.598  6608.590  0.500  2.018698  157.017  130.521  17.3369
  6610.118  6610.110  0.500  2.017661  157.042  130.649  17.3718
  6611.657  6611.650  0.500  2.016407  157.036  130.742  17.4061
  6613.216  6613.210  0.500  2.015088  157.015  130.78  17.4341
  6614.788  6614.780  0.500  2.013694  157.022  130.818  17.4634
  6616.388  6616.380  0.500  2.012438  157.035  130.907  17.4973
  6618.000  6617.990  0.500  2.011132  157.002  130.981  17.5301
  6619.644  6619.630  0.500  2.009840  156.989  131.07  17.5647
  6621.285  6621.280  0.500  2.008615  156.993  131.178  17.6007
  6622.960  6622.950  0.500  2.007401  157.007  131.292  17.6374
  6624.646  6624.640  0.500  2.006037  157.025  131.391  17.6749
  6626.358  6626.350  0.500  2.004740  157.025  131.488  17.7108
  6628.082  6628.080  0.500  2.003260  156.806  131.397  17.7248
  6629.841  6629.830  0.500  2.001932  156.998  131.656  17.7833
  6631.595  6631.590  0.500  2.000415  157.019  131.759  17.8242
  6633.392  6633.380  0.500  1.998911  157.032  131.795  17.8559
  6635.189  6635.180  0.500  1.997375  157.054  131.921  17.9005
  6637.016  6637.010  0.500  1.995592  157.031  131.994  17.9424
  6638.858  6638.850  0.500  1.993978  157.04  132.083  17.9834
  6640.723  6640.710  0.500  1.992271  157.01  132.173  18.0264
  6642.602  6642.590  0.500  1.990493  157.015  132.279  18.073
  6644.501  6644.490  0.500  1.988794  157.008  132.351  18.1136
  6646.417  6646.410  0.500  1.987032  157.025  132.462  18.1608
  6648.363  6648.350  0.500  1.985256  156.996  132.574  18.2084
  6650.315  6650.310  0.500  1.983409  157.011  132.632  18.2501
  6652.286  6652.280  0.500  1.981509  157.005  132.722  18.2972
  6654.295  6654.280  0.500  1.979594  156.988  132.85  18.35
  6656.296  6656.290  0.500  1.977717  157.008  132.978  18.4022
  6658.328  6658.320  0.500  1.975870  156.99  133.08  18.4503
  6660.393  6660.380  0.500  1.974068  156.996  133.197  18.4998
  6662.460  6662.450  0.500  1.972228  156.985  133.264  18.5432
  6664.546  6664.540  0.500  1.970282  157.003  133.394  18.5975
  6666.662  6666.650  0.500  1.968488  157.008  133.507  18.6467
  6668.787  6668.780  0.500  1.966636  157.007  133.627  18.698
  6670.925  6670.920  0.500  1.964670  156.983  133.709  18.7463
  6673.102  6673.090  0.500  1.962916  156.978  133.833  18.7966
  6675.295  6675.280  0.500  1.961131  156.958  133.908  18.8407
  6677.491  6677.480  0.500  1.959354  156.967  134.01  18.8886
  6679.708  6679.700  0.500  1.957602  156.956  134.112  18.9361
  6681.960  6681.950  0.500  1.955792  156.936  134.19  18.9814
  6684.220  6684.210  0.500  1.954019  156.945  134.316  19.0331
  6686.498  6686.490  0.500  1.952136  156.927  134.43  19.0851
  6688.798  6688.790  0.500  1.950183  156.918  134.527  19.1362
  6691.116  6691.110  0.500  1.948172  156.908  134.652  19.1926
  6693.465  6693.450  0.500  1.946156  156.885  134.75  19.2453
  6695.814  6695.800  0.500  1.944139  156.87  134.837  19.2966
  6698.189  6698.180  0.500  1.942072  156.837  134.976  19.3564
  6700.579  6700.570  0.500  1.940069  156.839  135.099  19.4129
  6703.004  6702.990  0.500  1.937975  156.824  135.112  19.4555
  6705.426  6705.420  0.500  1.935909  156.789  135.218  19.511
  6707.879  6707.870  0.500  1.933899  156.782  135.356  19.5702
  6710.362  6710.350  0.500  1.931928  156.787  135.495  19.629
  6712.845  6712.840  0.500  1.929894  156.776  135.597  19.6838
  6715.355  6715.350  0.500  1.928068  156.775  135.731  19.7393
  6717.874  6717.870  0.500  1.925940  156.729  135.838  19.7969
  6720.435  6720.420  0.500  1.923891  156.717  135.903  19.8469
  6723.004  6722.990  0.500  1.921765  156.725  136.039  19.909
  6725.577  6725.570  0.500  1.919668  156.727  136.165  19.9694
  6728.192  6728.180  0.500  1.917353  156.729  136.288  20.0337
  6730.812  6730.800  0.500  1.914960  156.709  136.418  20.1009
  6733.462  6733.450  0.500  1.912648  156.708  136.532  20.1643
  6736.123  6736.110  0.500  1.910393  156.68  136.64  20.2258
  6738.797  6738.790  0.500  1.908070  156.666  136.806  20.2974
  6741.496  6741.490  0.500  1.905745  156.644  136.89  20.3571
  6744.224  6744.210  0.500  1.903575  156.616  137.01  20.4193
  6746.958  6746.950  0.500  1.901318  156.611  137.175  20.4901
  6749.710  6749.700  0.500  1.899033  156.585  137.257  20.5492
  6752.483  6752.480  0.500  1.896851  156.564  137.38  20.6125
  6755.286  6755.270  0.500  1.894605  156.551  137.481  20.6741
  6758.103  6758.090  0.500  1.892322  156.562  137.642  20.7455
  6760.933  6760.920  0.500  1.890039  156.525  137.755  20.8101
  6763.784  6763.770  0.500  1.887861  156.512  137.854  20.8705
  6766.658  6766.650  0.500  1.885506  156.513  138.018  20.9445
  6769.551  6769.540  0.500  1.883249  156.467  138.104  21.0049
  6772.460  6772.450  0.500  1.880858  156.451  138.21  21.0715
  6775.382  6775.370  0.500  1.878587  156.429  138.316  21.1356
  6778.335  6778.320  0.500  1.876210  156.451  138.546  21.2211
  6781.306  6781.290  0.500  1.873790  156.414  138.674  21.2921
  6784.287  6784.270  0.500  1.871329  156.382  138.782  21.3612
  6787.293  6787.280  0.500  1.868913  156.382  138.955  21.4395
  6790.315  6790.300  0.500  1.866515  156.373  139.108  21.5147
  6793.378  6793.350  0.500  1.864089  156.106  139.005  21.5509
  6796.437  6796.410  0.500  1.861644  154.661  137.848  21.4239
  6799.503  6799.490  0.500  1.859183  155.97  139.182  21.6845
  6802.616  6802.590  0.500  1.856664  156.079  139.426  21.7773
  6805.735  6805.710  0.500  1.854275  156.121  139.592  21.8554
  6808.868  6808.850  0.500  1.851891  156.07  139.696  21.9239
  6812.023  6812.000  0.500  1.849279  145.03  129.991  20.4542
  6815.202  6815.180  0.500  1.846917  155.609  139.625  22.0221
  6818.387  6818.370  0.500  1.844501  156.314  140.411  22.1995
  6821.599  6821.590  0.500  1.841951  156.246  140.48  22.2672
  6824.844  6824.820  0.500  1.839370  154.076  138.701  22.042
  6828.086  6828.070  0.500  1.836820  155.887  140.504  22.3855
  6831.367  6831.350  0.500  1.834147  155.995  140.804  22.4934
  6834.649  6834.640  0.500  1.831580  155.976  140.892  22.5653
  6837.970  6837.950  0.500  1.828821  155.774  140.845  22.6201
  6841.285  6841.270  0.500  1.826061  146.198  132.341  21.3131
  6844.638  6844.620  0.500  1.823484  155.379  140.809  22.7354
  6848.011  6847.990  0.500  1.821026  155.523  141.094  22.8375
  6851.391  6851.370  0.500  1.818288  155.539  141.301  22.9336
  6854.803  6854.780  0.500  1.815556  155.518  141.427  23.0168
  6858.216  6858.200  0.500  1.813019  155.496  141.548  23.095
  6861.665  6861.650  0.500  1.810399  155.022  141.294  23.1141
  6865.127  6865.110  0.500  1.807889  155.452  141.867  23.2661
  6868.612  6868.590  0.500  1.805173  155.441  142.031  23.3564
  6872.108  6872.090  0.500  1.802635  155.41  142.166  23.4381
  6875.629  6875.610  0.500  1.800012  155.362  142.296  23.5211
  6879.172  6879.150  0.500  1.797318  155.32  142.417  23.6045
  6882.718  6882.700  0.500  1.794666  155.261  142.496  23.6804
  6886.297  6886.280  0.500  1.792104  155.211  142.607  23.7597
  6889.899  6889.880  0.500  1.789342  155.16  142.779  23.8541
  6893.508  6893.490  0.500  1.786598  155.078  142.88  23.9366
  6897.110  6897.120  0.500  1.783765  155.04  143.009  24.0261
  6900.797  6900.780  0.500  1.780900  154.95  143.073  24.1058
  6904.466  6904.450  0.500  1.778175  154.882  143.185  24.1905
  6908.157  6908.140  0.500  1.775390  154.776  143.281  24.2743
  6911.832  6911.850  0.500  1.772603  154.635  143.345  24.353
  6915.563  6915.580  0.500  1.769800  154.52  143.403  24.4311
  6919.309  6919.320  0.500  1.766949  154.378  143.439  24.507
  6923.116  6923.090  0.500  1.764187  154.276  143.494  24.5842
  6926.889  6926.880  0.500  1.761355  154.147  143.58  24.6687
  6930.670  6930.680  0.500  1.758528  154.048  143.674  24.7549
  6934.535  6934.510  0.500  1.755835  153.964  143.766  24.8374
  6938.341  6938.350  0.500  1.752973  153.886  143.841  24.9217
  6942.229  6942.210  0.500  1.750187  153.789  143.95  25.0101
  6946.097  6946.090  0.500  1.747382  153.714  144.086  25.1041
  6949.978  6949.990  0.500  1.744321  153.579  144.135  25.1895
  6953.898  6953.910  0.500  1.741573  153.521  144.243  25.2778
  6957.867  6957.850  0.500  1.738716  153.387  144.25  25.3513
  6961.813  6961.810  0.500  1.735852  153.286  144.401  25.4507
  6965.766  6965.780  0.500  1.732873  153.177  144.471  25.539
  6969.789  6969.780  0.500  1.729873  153.104  144.591  25.6369
  6973.781  6973.790  0.500  1.727001  152.999  144.655  25.7221
  6977.841  6977.830  0.500  1.724089  152.889  144.728  25.8101
  6981.893  6981.880  0.500  1.721247  152.763  144.804  25.8971
  6985.958  6985.950  0.500  1.718314  152.688  144.911  25.9924
  6990.045  6990.040  0.500  1.715410  152.573  144.972  26.079
  6994.155  6994.150  0.500  1.712553  152.491  145.048  26.1673
  6998.285  6998.280  0.500  1.709580  152.359  145.135  26.261
  7002.436  7002.430  0.500  1.706654  152.263  145.249  26.3586
  7006.599  7006.590  0.500  1.703654  152.146  145.337  26.4539
  7010.794  7010.780  0.500  1.700686  152.031  145.413  26.5463
  7014.999  7014.980  0.500  1.697835  151.916  145.492  26.6366
  7019.217  7019.210  0.500  1.694865  151.793  145.507  26.7186
  7023.463  7023.450  0.500  1.691953  151.694  145.619  26.8172
  7027.728  7027.710  0.500  1.688897  151.585  145.711  26.9162
  7032.006  7031.990  0.500  1.685832  151.491  145.792  27.0139
  7036.314  7036.290  0.500  1.682797  151.325  145.872  27.1108
  7040.629  7040.610  0.500  1.679713  151.236  145.954  27.2098
  7044.940  7044.950  0.500  1.676658  151.089  146.019  27.3053
  7049.337  7049.310  0.500  1.673520  150.945  146.053  27.3974
  7053.708  7053.690  0.500  1.670578  150.797  146.126  27.4919
  7058.074  7058.080  0.500  1.667582  150.71  146.217  27.5916
  7062.538  7062.500  0.500  1.664631  149.862  145.622  27.5604
  7066.918  7066.930  0.500  1.661453  150.441  146.379  27.7919
  7071.380  7071.380  0.500  1.658433  150.092  146.186  27.8393
  7075.830  7075.850  0.500  1.655485  148.734  145.047  27.704
  7080.358  7080.340  0.500  1.652374  149.894  146.397  28.0488
  7084.831  7084.850  0.500  1.649361  149.683  146.408  28.1357
  7089.365  7089.380  0.500  1.646452  149.614  146.555  28.246
  7093.912  7093.930  0.500  1.643328  149.432  146.489  28.3215
  7098.484  7098.500  0.500  1.640219  149.284  146.538  28.4193
  7103.118  7103.080  0.500  1.637118  149.144  146.636  28.5265
  7107.668  7107.690  0.500  1.634004  148.985  146.694  28.6269
  7112.294  7112.310  0.500  1.630862  148.656  146.58  28.6946
  7116.949  7116.960  0.500  1.627817  148.389  146.513  28.7689
  7121.601  7121.620  0.500  1.624599  148.093  146.402  28.8398
  7126.320  7126.300  0.500  1.621667  147.76  146.293  28.903
  7130.992  7131.000  0.500  1.618692  147.363  146.088  28.9485
  7135.696  7135.720  0.500  1.615508  147.123  146.037  29.0308
  7140.469  7140.460  0.500  1.612245  146.997  146.105  29.139
  7145.194  7145.210  0.500  1.609189  146.874  146.182  29.2437
  7149.974  7149.990  0.500  1.606006  146.772  146.26  29.3526
  7154.772  7154.790  0.500  1.602865  146.604  146.272  29.4473
  7159.580  7159.600  0.500  1.599803  146.437  146.316  29.5465
  7164.406  7164.430  0.500  1.596680  146.227  146.314  29.6386
  7169.274  7169.290  0.500  1.593580  145.999  146.304  29.7285
  7174.144  7174.160  0.500  1.590445  145.797  146.27  29.8148
  7179.041  7179.050  0.500  1.587233  145.57  146.275  29.9119
  7183.971  7183.960  0.500  1.584125  145.367  146.277  30.0054
  7188.873  7188.890  0.500  1.580987  145.162  146.295  30.1033
  7193.810  7193.830  0.500  1.577806  144.76  146.094  30.1578
  7198.785  7198.800  0.500  1.574561  144.718  146.245  30.2871
  7203.770  7203.790  0.500  1.571335  144.521  146.181  30.3716
  7208.762  7208.790  0.500  1.568212  144.288  146.189  30.4684
  7213.794  7213.820  0.500  1.564972  144.049  146.185  30.5665
  7218.843  7218.860  0.500  1.561753  143.811  146.092  30.6454
  7223.905  7223.920  0.500  1.558550  143.567  146.089  30.7431
  7228.975  7229.000  0.500  1.555330  142.427  145.106  30.6348
  7234.083  7234.100  0.500  1.552127  143.286  146.18  30.9604
  7239.194  7239.220  0.500  1.548949  143.085  146.138  31.0502
  7244.329  7244.360  0.500  1.545754  142.583  145.903  31.0994
  7249.538  7249.520  0.500  1.542581  142.597  146.072  31.2343
  7254.679  7254.700  0.500  1.539313  140.073  143.717  30.8314
  7259.861  7259.890  0.500  1.536081  142.128  146.015  31.4259
  7265.102  7265.110  0.500  1.532801  117.879  121.251  26.1818
  7270.311  7270.340  0.500  1.529805  142.305  146.539  31.7372
  7275.570  7275.590  0.500  1.526517  142.041  146.484  31.8297
  7280.830  7280.860  0.500  1.523330  141.982  146.66  31.9697
  7286.126  7286.150  0.500  1.520086  141.283  146.183  31.9691
  7291.459  7291.460  0.500  1.516772  141.466  146.606  32.1681
  7296.768  7296.790  0.500  1.513558  141.25  146.548  32.2589
  7302.117  7302.140  0.500  1.510328  139.147  144.569  31.9263
  7307.490  7307.510  0.500  1.507130  140.97  146.68  32.4961
  7312.869  7312.890  0.500  1.503749  140.749  146.673  32.6047
  7318.281  7318.300  0.500  1.500511  140.545  146.676  32.711
  7323.701  7323.720  0.500  1.497290  140.333  146.651  32.811
  7329.210  7329.170  0.500  1.494114  140.115  146.609  32.9059
  7334.650  7334.630  0.500  1.490874  139.9  146.611  33.0132
  7340.119  7340.110  0.500  1.487541  138.749  145.605  32.8961
  7345.619  7345.610  0.500  1.484330  139.469  146.545  33.2151
  7351.146  7351.130  0.500  1.481082  139.27  146.541  33.3221
  7356.691  7356.670  0.500  1.477892  139.102  146.545  33.4296
  7362.242  7362.220  0.500  1.474666  138.9  146.521  33.5321
  7367.820  7367.800  0.500  1.471321  138.665  146.483  33.6357
  7373.421  7373.400  0.500  1.468066  138.472  146.469  33.7421
  7379.008  7379.010  0.500  1.464775  138.22  146.414  33.8407
  7384.669  7384.650  0.500  1.461516  138.021  146.432  33.9552
  7390.283  7390.300  0.500  1.458227  137.789  146.431  34.067
  7395.957  7395.970  0.500  1.455021  137.622  146.489  34.1898
  7401.640  7401.660  0.500  1.451729  137.394  146.433  34.2894