File: xdidata/Ce/Ce-L3-CaCe2Ti4O12.xdi
# XDI/1.0 BlueSky/1.10.0 BMM/2023-1.0-py310-tiled
# Beamline.name: BMM (06BM) -- Beamline for Materials Measurement (NIST)
# Beamline.xray_source: NSLS-II three-pole wiggler
# Beamline.collimation: paraboloid mirror, 5 nm Rh on 30 nm Pt
# Beamline.focusing: not in use
# Beamline.harmonic_rejection: flat mirror, Si stripe, pitch = 7.0 mrad relative to beam
# Beamline.software: Bluesky 1.10.0, Ophyd 1.7.0, DataBroker 2.0.0b13, Python 3.10.8, 2023-1.0-py310-tiled
# Detector.I0: 10 cm N2
# Detector.I1: 25 cm N2
# Detector.I2: 25 cm N2
# Detector.fluorescence: SII Vortex ME4 (4-element silicon drift)
# Detector.deadtime_correction: Xspress3
# Element.symbol: Ce
# Element.edge: L3
# Element.reference: Ce
# Element.reference_material: CeO2
# Facility.name: NSLS-II
# Facility.energy: 3.0
# Facility.current: 400.2
# Facility.mode: top-off
# Facility.GUP: 123456
# Facility.SAF: 301027
# Facility.cycle: 2023-2
# Mono.name: Si(111)
# Mono.d_spacing: 3.13519
# Mono.encoder_resolution: 0.0000050 deg/ct
# Mono.angle_offset: 16.0754 deg
# Mono.scan_mode: pseudo channel cut
# Mono.scan_type: step
# Mono.direction: forward in energy
# Sample.name: CaCe2Ti4O12
# Sample.prep: Powder in PEG pellet
# Sample.x: 142.329 mm
# Sample.y: 114.126 mm
# Sample.SDD_position: 45.000 mm
# Scan.experimenters: Bruce Ravel
# Scan.edge_energy: 5723.4
# Scan.start_time: 2023-05-06T10:53:50
# Scan.end_time: 2023-05-06T10:59:29
# Scan.transient_id: 74743
# Scan.uid: b79e1f41-982a-4859-b714-89174d3c2845
# Scan.plot_hint: (Ce1+Ce2+Ce3+Ce4)/I0  --  ($8+$9+$10+$11)/$5
# Column.1: energy eV
# Column.2: requested_energy eV
# Column.3: measurement_time seconds
# Column.4: xmu
# Column.5: I0 nA
# Column.6: It nA
# Column.7: Ir nA
# Column.8: Ce1
# Column.9: Ce2
# Column.10: Ce3
# Column.11: Ce4
# ///////////
# sample courtesy Martin Stennett, University of Sheffield
# -----------
# energy  requested_energy  measurement_time  xmu  I0  It  Ir  Ce1  Ce2  Ce3  Ce4
  5523.404  5523.400  0.500  159.487  109.103  1.293650  0.096101  4317.13  4473.76  4319.81  4289.78
  5533.410  5533.400  0.500  161.321  109.48  1.330789  0.100063  4361.92  4554.83  4363.87  4380.85
  5543.420  5543.400  0.500  159.597  109.803  1.369601  0.104632  4353.72  4582.86  4364.87  4222.78
  5553.415  5553.400  0.500  160.49  110.134  1.411712  0.109067  4306.76  4563.84  4377.9  4426.9
  5563.412  5563.400  0.500  163.796  110.462  1.451602  0.113846  4425.38  4688.94  4534.02  4444.95
  5573.416  5573.400  0.500  163.041  110.726  1.491908  0.118414  4382.94  4741.95  4506  4421.92
  5583.408  5583.400  0.500  162.516  110.97  1.533169  0.123394  4504.64  4635.9  4488.98  4404.93
  5593.411  5593.400  0.500  167.046  111.143  1.573868  0.128255  4610.77  4944.1  4430  4581.03
  5603.410  5603.400  0.500  166.41  111.329  1.617164  0.133390  4541.09  4927.1  4517.04  4541.05
  5613.407  5613.400  0.500  168.357  111.503  1.660441  0.139010  4604.96  4910.11  4719.18  4538.05
  5623.388  5623.400  0.500  171.213  111.683  1.702920  0.144337  4589.99  5050.19  4771.22  4710.17
  5633.390  5633.400  0.500  168.954  111.751  1.744927  0.149935  4704.38  4893.13  4651.15  4632.12
  5643.388  5643.400  0.500  169.229  111.83  1.789683  0.155822  4675.32  4915.16  4731.24  4603.12
  5653.395  5653.400  0.500  174.31  111.917  1.834782  0.161650  4721.46  5075.2  4895.31  4816.22
  5663.400  5663.400  0.500  176.803  111.95  1.879357  0.167775  4922.15  5153.29  5038.41  4679.2
  5673.395  5673.400  0.500  177.914  112.026  1.925481  0.173975  4891  5132.3  4936.39  4971.34
  5683.403  5683.400  0.500  180.116  112.026  1.968385  0.180307  4986.65  5265.37  5063.44  4862.3
  5693.394  5693.400  0.500  186.926  111.993  2.011653  0.186228  5205.92  5426.48  5202.52  5099.46
  5695.395  5695.400  0.500  188.266  111.995  2.019078  0.187334  5196.28  5448.5  5316.6  5123.46
  5697.390  5697.400  0.500  188.805  112.023  2.026993  0.188543  5309.87  5448.5  5238.57  5153.49
  5699.389  5699.400  0.500  191.591  111.997  2.033575  0.189598  5308.71  5610.59  5349.65  5188.53
  5701.389  5701.400  0.500  195.739  112.016  2.042065  0.190818  5382.84  5698.65  5404.68  5439.65
  5703.404  5703.400  0.500  195.97  112.011  2.048421  0.191832  5305.61  5698.65  5495.77  5450.71
  5705.385  5705.400  0.500  202.168  111.97  2.052830  0.192629  5488.42  5989.77  5667.81  5490.65
  5707.401  5707.400  0.500  208.292  111.998  2.057333  0.193490  5706.78  6019.82  5782.9  5818.88
  5709.398  5709.400  0.500  212.799  111.991  2.059937  0.194245  5860.85  6140.85  5904.9  5924.91
  5711.399  5711.400  0.500  219.634  111.978  2.058561  0.194529  5952.95  6550.09  6049.05  6041.99
  5713.397  5713.400  0.500  234.778  111.968  2.050804  0.194185  6473.66  6838.3  6502.35  6473.28
  5713.892  5713.900  0.500  240.358  111.954  2.048391  0.193899  6547.84  6978.35  6644.38  6738.39
  5714.389  5714.400  0.500  246.726  111.97  2.045062  0.193701  6761.56  7284.52  6858.53  6721.42
  5714.887  5714.900  0.500  250.63  111.995  2.040384  0.193319  6885.54  7204.53  7037.66  6941.58
  5715.389  5715.400  0.500  256.711  112.004  2.035673  0.192883  7151.61  7464.68  7181.75  6954.58
  5715.889  5715.900  0.500  265.24  111.889  2.026502  0.192143  7287.99  7703.82  7413.93  7271.77
  5716.389  5716.400  0.500  277.272  111.796  2.016951  0.191277  7650.86  7980.94  7595.98  7770.02
  5716.891  5716.900  0.500  285.027  111.764  2.003319  0.189893  7835.3  8286.12  8009.25  7725.01
  5717.390  5717.400  0.500  296.321  111.703  1.987920  0.188640  8199.05  8286.12  8328.47  8286.39
  5717.892  5717.900  0.500  315.017  111.672  1.970015  0.186827  8529.57  9317.72  8664.62  8666.57
  5718.391  5718.400  0.500  331.925  111.632  1.949457  0.184982  9121.7  9607.92  9224.03  9099.9
  5718.892  5718.900  0.500  353.204  111.559  1.926243  0.182705  9595.92  10265.3  9714.36  9827.36
  5719.394  5719.400  0.500  375.373  111.949  1.910640  0.181052  10247  10868.7  10548.9  10357.8
  5719.894  5719.900  0.500  395.249  111.976  1.887743  0.178749  10899.7  11370.1  11005.2  10983.1
  5720.393  5720.400  0.500  425.122  111.984  1.856993  0.175723  11667.2  12394.8  12002.1  11542.6
  5720.893  5720.900  0.500  461.358  111.943  1.815545  0.171749  12694.5  13465.5  12710.5  12775.5
  5721.395  5721.400  0.500  502.231  111.964  1.766349  0.167090  13766.3  14531.4  14036.5  13897.3
  5721.894  5721.900  0.500  563.087  111.969  1.702590  0.160912  15385  16329.8  15648.9  15684.8
  5722.394  5722.400  0.500  632.423  111.98  1.620550  0.153174  17390.6  18180.2  17809.6  17438.3
  5722.896  5722.900  0.500  726.42  111.968  1.521171  0.143707  19907.5  20700.4  20440.1  20287.7
  5723.395  5723.400  0.500  783.032  111.964  1.398842  0.131956  19907.5  20700.4  23771.6  23292
  5723.897  5723.900  0.500  973.299  111.95  1.261597  0.118572  26718.8  28298.7  27339.1  26604.3
  5724.398  5724.400  0.500  1128.15  111.954  1.120346  0.104947  31160.6  32275.7  31927.8  30936.6
  5724.896  5724.900  0.500  1280.6  111.942  0.986963  0.092057  35159.8  36734  36087.8  35372
  5725.394  5725.400  0.500  1380.07  111.928  0.882752  0.081846  35159.8  40779.7  39725.3  38803.2
  5725.899  5725.900  0.500  1503.3  111.934  0.809669  0.074580  41344.3  43192.6  42389.1  41344.6
  5726.396  5726.400  0.500  1537.29  111.937  0.778273  0.070879  42314.6  44172.7  43480.7  42111.2
  5726.893  5726.900  0.500  1536.57  111.938  0.783754  0.070890  42354.9  44047  43207.3  42391.3
  5727.397  5727.400  0.500  1479.86  111.928  0.820876  0.073841  40545.5  42930.4  41497.4  40665.5
  5727.899  5727.900  0.500  1401.51  111.945  0.878615  0.078661  38779.5  40206.3  39672.5  38234
  5728.402  5728.400  0.500  1306.47  111.956  0.950632  0.084806  35957.5  37490.7  36958.9  35860.7
  5728.895  5728.900  0.500  1217.72  111.951  1.026813  0.091213  33494.4  35047.6  34189.2  33594.6
  5729.397  5729.400  0.500  1132.75  111.952  1.101024  0.097505  31028.9  32971.3  31644.4  31169.6
  5729.899  5729.900  0.500  1055.11  111.946  1.173846  0.103709  29074.1  30429.1  29561.5  29050
  5730.401  5730.400  0.500  980.973  111.933  1.241877  0.109188  27017.3  28595.9  27329  26861.4
  5730.901  5730.900  0.500  923.13  111.941  1.304924  0.114632  25162.7  26784.3  26105.8  25283
  5731.398  5731.400  0.500  870.379  111.926  1.364369  0.119708  24035.5  24843.3  24353.8  24185.6
  5731.900  5731.900  0.500  814.706  111.9  1.418978  0.124805  22425.7  23636.9  22858.2  22244.7
  5732.405  5732.400  0.500  766.932  111.879  1.469318  0.129478  21445.2  21878.5  21493.2  20986.6
  5732.903  5732.900  0.500  732.531  111.879  1.513106  0.134004  20238.9  20958.7  20697.3  20059.7
  5733.400  5733.400  0.500  702.957  111.882  1.549273  0.137818  19622.1  20320  19636.3  19069.8
  5733.899  5733.900  0.500  679.514  111.894  1.578046  0.140860  18640.2  19529.2  19094.7  18769.3
  5734.399  5734.400  0.500  666.294  111.882  1.598831  0.143035  18342  19352.1  18690.3  18161.9
  5734.907  5734.900  0.500  658.802  111.88  1.612275  0.144263  17984.6  18942  18761.4  18018.8
  5735.407  5735.400  0.500  650.899  111.864  1.617107  0.144815  17782.9  18808.7  18210  18010.7
  5735.907  5735.900  0.500  652.883  111.869  1.617018  0.144583  18071.1  18953.8  18012.8  17999.7
  5736.403  5736.400  0.500  665.724  111.802  1.611955  0.144172  18312.7  19202.2  18505.4  18409.2
  5736.905  5736.900  0.500  667.095  111.836  1.605893  0.143138  18312.7  19120  18762.6  18410.2
  5737.404  5737.400  0.500  677.572  111.846  1.598037  0.142220  18441  19760.6  18956.7  18625.3
  5737.905  5737.900  0.500  694.039  111.853  1.591664  0.141707  19431.8  19721.6  19351.1  19125.8
  5738.405  5738.400  0.500  693.509  111.839  1.586871  0.141353  19097.1  20180.9  19394  18889.6
  5738.901  5738.900  0.500  693.453  111.848  1.583667  0.141182  19097.1  20180.9  19394  18889.6
  5739.403  5739.400  0.500  705.777  111.843  1.582342  0.141256  19491.7  20456.2  19660.5  19328.1
  5739.905  5739.900  0.500  704.021  111.832  1.581099  0.141484  19235.6  20287.1  19741.5  19468.2
  5740.405  5740.400  0.500  706.162  111.836  1.580762  0.142025  19409.3  20552.3  19705.4  19307
  5740.903  5740.900  0.500  706.57  111.835  1.581297  0.142827  19357.7  20552.3  19705.4  19404.1
  5741.400  5741.400  0.500  709.711  111.833  1.581708  0.143497  19524.2  20578.5  19748.6  19518.2
  5741.900  5741.900  0.500  709.094  111.824  1.581927  0.144263  19483.9  20681.4  19745.3  19383.1
  5742.400  5742.400  0.500  714.392  111.793  1.583437  0.145111  19699  20625.4  19989.6  19550.2
  5742.902  5742.900  0.500  711.451  111.804  1.586765  0.146107  19275.8  20760.4  19850.4  19656.3
  5743.402  5743.400  0.500  714.364  111.801  1.591110  0.146952  19589.1  20531.2  19983.7  19762.3
  5743.898  5743.900  0.500  711.16  111.808  1.594572  0.147693  19352  20415.2  19983.7  19762.3
  5744.399  5744.400  0.500  709.706  111.813  1.597488  0.148187  19398.2  20345.2  19986.7  19624.3
  5744.900  5744.900  0.500  708.69  111.792  1.600707  0.148952  19430.9  20463.3  19912.6  19419.1
  5745.404  5745.400  0.500  705.322  111.756  1.603636  0.149481  19655  20318  19547.3  19304
  5745.902  5745.900  0.500  707.02  111.769  1.605848  0.149855  19475.7  20332.2  19743.5  19471.1
  5746.400  5746.400  0.500  705.142  111.774  1.607506  0.150298  19247.6  20454.2  19837.6  19277
  5746.902  5746.900  0.500  705.199  111.778  1.608741  0.150666  19519.2  20454.2  19586.1  19265.9
  5747.404  5747.400  0.500  707.901  111.756  1.609510  0.150948  19488.3  20344.2  19929.5  19350.1
  5747.901  5747.900  0.500  709.851  111.767  1.609437  0.151055  19250.3  20497.2  19761.4  19829.3
  5748.401  5748.400  0.500  707.686  111.755  1.607714  0.151057  19250.3  20609.4  19761.4  19466.2
  5749.397  5749.390  0.500  717.893  111.758  1.603635  0.150899  19713.8  20513.4  20192.9  19810.5
  5750.402  5750.390  0.500  727.598  111.729  1.596092  0.150556  20077.3  20999.9  20216.9  19999.7
  5751.418  5751.410  0.500  745.653  111.735  1.586178  0.149844  20663.2  21622.2  20824.5  20205.8
  5752.477  5752.460  0.500  754.86  111.663  1.572477  0.148865  20596  21733.4  21239.9  20720.4
  5753.520  5753.520  0.500  771.464  111.681  1.560583  0.147867  21206.9  22392.2  21398.1  21160.8
  5754.610  5754.600  0.500  784.593  111.657  1.550096  0.146820  21790.5  22421.1  21884.6  21509.1
  5755.706  5755.700  0.500  796.599  111.659  1.543166  0.146132  21916.8  22774.4  22461.1  21795.4
  5756.825  5756.820  0.500  801.565  111.634  1.538737  0.145894  21809.5  23193.9  22422.1  22056.6
  5757.968  5757.960  0.500  806.586  111.628  1.539507  0.146266  22275.1  23113.8  22423  22225.8
  5759.117  5759.110  0.500  797.343  111.591  1.544837  0.146764  21903.2  22907.7  22230  21935.6
  5760.300  5760.290  0.500  795.535  111.599  1.555787  0.147761  21806.2  22726.5  22333.8  21914.5
  5761.486  5761.480  0.500  790.914  111.569  1.569094  0.148975  21511.3  22935.7  21917.7  21876.5
  5762.704  5762.700  0.500  775.53  111.567  1.585123  0.150679  21088.9  22178  21706.3  21550.1
  5763.942  5763.930  0.500  773.166  111.54  1.600987  0.152389  21070.7  22127  21491.1  21550.1
  5765.186  5765.180  0.500  760.287  111.539  1.617455  0.153795  21070.7  22003.8  21125.9  20601.4
  5766.462  5766.450  0.500  753.245  111.522  1.631798  0.155288  20787.2  21865.5  20707.5  20643.3
  5767.744  5767.740  0.500  748.021  111.515  1.644848  0.156421  20501.1  21375.2  21033.8  20505.2
  5769.062  5769.050  0.500  741.169  111.504  1.655479  0.157777  20196.7  21338.2  20894.6  20214.1
  5770.390  5770.380  0.500  733.932  111.494  1.665401  0.158733  19973.8  21355.1  20481.3  20018.8
  5771.737  5771.730  0.500  733.374  111.479  1.674200  0.160087  19879.3  21237.1  20551.3  20087.9
  5773.106  5773.100  0.500  723.814  111.447  1.681908  0.161073  19828.6  20809.8  20256.1  19772.6
  5774.489  5774.480  0.500  729.53  111.425  1.689478  0.162288  20128.4  20863.7  20407.2  19888.6
  5775.902  5775.890  0.500  726.96  111.419  1.696971  0.163077  19627.1  21007.9  20343.2  20018.8
  5777.322  5777.310  0.500  727.645  111.427  1.705764  0.164320  20014.8  20901.7  20152  20010.7
  5778.759  5778.750  0.500  726.446  111.37  1.712173  0.165378  20014.8  20726.6  20152  20010.7
  5780.222  5780.210  0.500  724.985  111.366  1.720715  0.166579  19922.9  20805.9  20082.9  19926.8
  5781.698  5781.690  0.500  720.866  111.332  1.727521  0.167488  19763.5  20695.7  20180  19616.4
  5783.197  5783.190  0.500  721.381  111.314  1.735171  0.168843  19655.4  20796.6  20106.9  19740.5
  5784.718  5784.710  0.500  727.855  111.309  1.741572  0.169743  19949.9  20890.8  20307.2  19868.6
  5786.259  5786.250  0.500  728.723  111.26  1.745092  0.170755  20080.8  20970.9  20342.2  19683.6
  5787.816  5787.810  0.500  730.283  111.278  1.747090  0.171402  20085.6  20949  20432.4  19797.7
  5789.391  5789.380  0.500  736.364  111.252  1.744413  0.171339  20099.1  20994.1  20756.6  20071.9
  5790.990  5790.980  0.500  742.704  111.247  1.739799  0.171381  20347.3  21324.3  20706.6  20245.1
  5792.597  5792.590  0.500  761.629  111.217  1.733107  0.170909  20856.1  21796.7  21036.9  21016.8
  5794.243  5794.230  0.500  767.554  111.167  1.724603  0.170431  21054.7  22059  21437.4  20775.7
  5795.891  5795.880  0.500  784.208  111.15  1.718354  0.169907  21301.9  22483.3  21829.6  21550.3
  5797.557  5797.550  0.500  790.629  111.141  1.715221  0.170329  21901  22604.4  22024  21342.2
  5799.249  5799.240  0.500  790.061  111.082  1.715992  0.170879  21695.2  22511.4  21743.7  21811.6
  5800.960  5800.950  0.500  790.476  111.037  1.721610  0.171645  21644.4  22944.7  21638.6  21544.4
  5802.692  5802.680  0.500  794.441  111.028  1.731776  0.173127  21708.1  22944.7  21993  21559.5
  5804.435  5804.430  0.500  788.671  110.994  1.744488  0.174654  21491.3  22575.3  21957.7  21513.3
  5806.197  5806.190  0.500  782.071  110.959  1.758075  0.176295  21436.9  22300.3  21804.8  21236.1
  5807.988  5807.980  0.500  780.887  110.94  1.770834  0.177745  21268.2  22618.6  21529.6  21215.2
  5809.792  5809.780  0.500  774.932  110.91  1.783659  0.179191  21169.6  22074.1  21577.5  21126
  5811.623  5811.610  0.500  769.967  110.861  1.794028  0.180761  21103.1  22000.1  21441.5  20814.8
  5813.460  5813.450  0.500  771.859  110.818  1.805111  0.182011  20937.6  22166.1  21437.4  20994.9
  5815.313  5815.310  0.500  766.436  110.765  1.815639  0.183421  20866.6  21926.8  21117.1  20983.9
  5817.198  5817.190  0.500  768.896  110.752  1.826291  0.185028  20844  21982.1  21388.5  20942
  5819.099  5819.090  0.500  768.534  110.674  1.834543  0.185931  20977  21737.7  21337.2  21004.9
  5821.018  5821.010  0.500  763.19  110.647  1.843790  0.187206  20888.1  21695.8  21032.2  20828.8
  5822.958  5822.950  0.500  764.847  110.605  1.851889  0.188432  20865.4  21637.8  21226.4  20865.9
  5824.921  5824.910  0.500  764.412  110.54  1.858301  0.189343  20810.4  21756.6  21177.1  20753.6
  5826.891  5826.880  0.500  771.421  110.522  1.864115  0.190316  20846.2  22237.1  21211.1  20964.9
  5828.888  5828.880  0.500  768.728  110.456  1.869373  0.191524  20894.5  21945.9  21317.4  20752.8
  5830.896  5830.890  0.500  773.923  110.398  1.873769  0.192158  21039.7  22164.1  21352.1  20883.7
  5832.929  5832.920  0.500  773.851  110.318  1.876740  0.193066  21073.5  21999  21476.4  20820.8
  5834.987  5834.980  0.500  781.053  110.271  1.879873  0.193728  21298.6  22409.4  21517.6  20901.9
  5837.053  5837.050  0.500  785.881  110.178  1.882437  0.194591  21115.6  22652.6  21667.5  21151.1
  5839.146  5839.140  0.500  791.589  110.11  1.885925  0.195202  21364.7  22652.6  21667.5  21477.3
  5841.254  5841.250  0.500  795.255  110.011  1.889096  0.196203  21574.4  22799.9  21862  21250.4
  5843.383  5843.380  0.500  798.653  109.905  1.892768  0.197057  21508.9  22481.6  21929.9  21855.8
  5845.525  5845.520  0.500  805.115  109.84  1.896238  0.197839  21577.2  22990.1  22127.2  21739.8
  5847.696  5847.690  0.500  810.581  109.748  1.900278  0.198938  21912.5  22909  22404.4  21733.8
  5849.881  5849.880  0.500  810.06  109.658  1.907315  0.200417  22008.5  22909  22180.3  21731.7
  5852.088  5852.080  0.500  807.239  109.526  1.914761  0.201334  22008.5  22762.9  21998  21644.7
  5854.307  5854.300  0.500  806.956  109.424  1.922141  0.202944  21689.5  23005.1  22096.1  21509.6
  5856.557  5856.550  0.500  808.425  109.269  1.931219  0.204415  21822.8  22860.9  22316.3  21335.4
  5858.817  5858.810  0.500  808.351  109.11  1.942266  0.205959  21734.6  22779.9  21903  21781.8
  5861.098  5861.090  0.500  800.991  108.911  1.954801  0.207764  21211.8  22604.4  22057.8  21362.3
  5863.398  5863.390  0.500  800.78  108.72  1.970290  0.210165  21251.8  22314.4  21987.9  21506.5
  5865.717  5865.710  0.500  793.761  108.407  1.980564  0.211720  21379.8  21962.1  21498.5  21209.2
  5868.054  5868.050  0.500  794.866  107.874  1.982544  0.212423  21274.4  22073  21334.2  21063.9
  5870.406  5870.400  0.500  793.061  106.368  1.964151  0.210862  20815.5  21663.6  21083.9  20793.6
  5872.786  5872.780  0.500  854.626  87.1709  1.617127  0.174305  20815.5  18331.2  17945.6  17406.2
  5875.176  5875.170  0.500  794.117  109.318  2.033650  0.219441  21330.8  22523.9  21523.8  21432.7
  5877.594  5877.590  0.500  802.365  109.443  2.040674  0.220691  21522.3  22815  21974.2  21501.7
  5880.023  5880.020  0.500  810.849  109.088  2.039533  0.221241  21969  22832  22264.3  21388.6
  5882.475  5882.470  0.500  813.413  108.808  2.038789  0.221841  21755.1  22729  22022.3  21999.1
  5884.954  5884.950  0.500  821.019  108.566  2.041335  0.222699  22159.2  22790  22314.5  21871
  5887.446  5887.440  0.500  821.08  108.4  2.046873  0.223900  22069.4  22916.1  22405.7  21613.9
  5889.956  5889.950  0.500  820.742  108.49  2.058670  0.226180  21978.9  22918  22386.4  21758.9
  5892.478  5892.470  0.500  823.07  108.265  2.065544  0.227177  21978.9  23272.4  22033.2  21824.9
  5895.025  5895.020  0.500  825.635  108.026  2.073154  0.228642  21837.8  23000.1  22425.5  21926.1
  5897.595  5897.590  0.500  824.541  107.825  2.081736  0.230169  21998.1  22545.7  22296.5  22066.1
  5900.178  5900.170  0.500  822.226  107.563  2.089901  0.231696  21967.1  22798.9  21985.1  21689.8
  5902.789  5902.780  0.500  819.098  107.297  2.096681  0.233089  21669.3  22586.8  22075.3  21555.7
  5905.420  5905.400  0.500  820.737  107.017  2.104113  0.234526  21579.3  22700.8  22002.1  21550.6
  5908.061  5908.050  0.500  826.706  106.618  2.110812  0.235690  21771.4  22682.7  22192.2  21495.6
  5910.733  5910.710  0.500  819.119  106.116  2.115769  0.237007  21405.1  22458.5  21652.7  21405.4
  5913.411  5913.390  0.500  818.98  104.952  2.107742  0.236896  21235.6  22228.2  21391.4  21098
  5916.102  5916.090  0.500  884.301  91.8476  1.859169  0.210088  21235.6  22228.2  18995.2  18761.9
  5918.823  5918.810  0.500  815.751  106.034  2.160983  0.244260  21170.3  22354.3  21618.6  21354.4
  5921.558  5921.550  0.500  817.887  106.892  2.191782  0.248396  21502  22423.7  21842.2  21657.8
  5924.314  5924.300  0.500  823.846  106.249  2.189282  0.249220  21650.9  22603.5  21715.8  21562.5
  5927.101  5927.080  0.500  824.854  105.425  2.181670  0.249109  21399.9  22531.6  21787.8  21241.2
  5929.893  5929.870  0.500  832.985  104.608  2.175376  0.249246  21485.4  22416.6  21874.9  21360.4
  5932.712  5932.690  0.500  830.86  105.853  2.209973  0.253756  21485.4  22703.7  22050.1  21709.7
  5935.541  5935.520  0.500  836.251  105.463  2.209582  0.254854  21619.8  22672.8  22169.2  21731.8
  5938.391  5938.370  0.500  843.822  104.75  2.202740  0.254747  21889.6  22714.9  22125.3  21660.8
  5941.274  5941.250  0.500  847.427  103.568  2.185386  0.253546  21463.7  22772.7  22123.1  21406.4
  5944.131  5944.140  0.500  853.637  98.058  2.079093  0.242031  20688.7  21564.9  20999.5  20452.9
  5947.044  5947.050  0.500  853.072  104.749  2.233830  0.260646  21829.1  23130.4  22400.5  21998.1
  5949.969  5949.970  0.500  852.741  104.847  2.250128  0.262998  22078.6  23046.3  22295.5  21987.2
  5952.914  5952.920  0.500  856.389  104.334  2.254090  0.264474  21961.2  23007  22391.5  21991.1
  5955.882  5955.890  0.500  850.228  103.905  2.259447  0.265941  21577.8  23007.2  22195.4  21562.7
  5958.856  5958.870  0.500  851.938  103.515  2.266245  0.267340  21784.7  22886  21809.9  21707.7
  5961.883  5961.880  0.500  854.442  103.095  2.272237  0.269026  21665.3  22933  22054.2  21436.6
  5964.893  5964.900  0.500  853.088  102.692  2.278700  0.270784  21534  22657.6  21831  21582.5
  5967.949  5967.950  0.500  859.367  102.301  2.285898  0.272436  21583.2  22775.6  21949.7  21605.5
  5971.002  5971.010  0.500  856.603  101.9  2.294784  0.274553  21364.3  22763.6  21949.7  21210.1
  5974.081  5974.090  0.500  858.479  101.478  2.300168  0.276126  21470.2  22606.6  21518.6  21521.4
  5977.179  5977.190  0.500  854.274  101.035  2.303844  0.277425  21203  22147.1  21777.7  21184.1
  5980.298  5980.310  0.500  860.981  100.535  2.307956  0.278739  21111.7  22374.4  21733.6  21339.2
  5983.445  5983.450  0.500  859.874  99.8565  2.306664  0.279684  21349.7  21972.8  21391.4  21150
  5986.596  5986.600  0.500  864.427  98.5063  2.289737  0.278520  21102.4  21902.6  21385  20761.4
  5989.791  5989.780  0.500  872.175  82.8606  1.937711  0.237096  17887.7  18713.8  17982.8  17684.6
  5992.957  5992.970  0.500  864.418  100.727  2.369377  0.290002  21436.6  22418.4  21895.8  21319.3
  5996.206  5996.190  0.500  863.888  99.9646  2.364761  0.290443  21386.2  22418.4  21471.5  21082.1
  5999.418  5999.420  0.500  870.253  99.3703  2.363372  0.291132  21351.5  22473.3  21713.6  20938.9
  6002.673  6002.670  0.500  877.73  98.8077  2.363575  0.292124  21182.4  22318.2  21618.5  21607.3
  6005.942  6005.950  0.500  873.532  98.3223  2.366824  0.293451  21182.4  22318.2  21357.2  21029.8
  6009.230  6009.240  0.500  880.264  97.8877  2.371211  0.294861  21223.7  22159  21577.3  21207
  6012.542  6012.550  0.500  880.738  97.4486  2.375090  0.296346  21137.9  22267  21238  21183.9
  6015.861  6015.870  0.500  883.624  96.9749  2.378850  0.297905  21141.8  22181.9  21477.1  20888.6
  6019.211  6019.220  0.500  884.725  96.5403  2.383670  0.299539  21030.3  22050.7  21503.1  20827.5
  6022.581  6022.590  0.500  884.541  96.0704  2.388250  0.301218  21142.1  21755.6  21309.9  20770.5
  6025.959  6025.970  0.500  886.917  95.6491  2.393141  0.303174  20882.5  21866.7  21284.1  20799.5
  6029.370  6029.380  0.500  885.421  95.2168  2.399132  0.304977  20794.4  21802.5  20997.7  20712.5
  6032.792  6032.800  0.500  891.503  94.7754  2.405737  0.306818  20900.8  21851.6  21105.8  20634.4
  6036.243  6036.250  0.500  893.339  94.3286  2.410777  0.308617  20934.4  21800.3  21265.7  20267
  6039.696  6039.710  0.500  891.511  93.8391  2.415682  0.310344  20686.9  21546.3  20902.4  20523
  6043.178  6043.190  0.500  895.452  93.4229  2.422282  0.312267  20673.9  21608.2  20935.5  20438
  6046.681  6046.690  0.500  894.638  92.9578  2.426618  0.314097  20572.4  21497.1  20795.3  20298.9
  6050.221  6050.210  0.500  901.309  92.5056  2.430286  0.315359  20554.8  21648.1  20767.3  20405.9
  6053.742  6053.750  0.500  899.067  92.0199  2.433553  0.317061  20480.1  21470  20584.1  20197.8
  6057.288  6057.300  0.500  899.324  91.425  2.433648  0.317992  20275.3  21322.9  20515  20107.6
  6060.869  6060.880  0.500  907.042  90.8626  2.435268  0.319284  20362.7  21322.8  20360.9  20369.8
  6064.463  6064.480  0.500  906.589  90.3407  2.437029  0.320711  20283.3  21108.4  20579.9  19930.3
  6068.084  6068.090  0.500  902.446  89.8886  2.441461  0.322403  19989.4  20868.3  20351.7  19910.2
  6071.703  6071.720  0.500  910.948  89.4351  2.444928  0.323924  20184.4  21076.4  20348.6  19861.2
  6075.366  6075.380  0.500  913.003  88.9619  2.448798  0.326055  20000.1  20704.3  20387.7  20130.5
  6079.038  6079.050  0.500  914.566  88.4758  2.455062  0.327679  19916  21070.5  20217.5  19713
  6082.727  6082.740  0.500  910.841  87.9922  2.459132  0.329734  19758.5  20649.1  19954.3  19785
  6086.430  6086.450  0.500  917.177  87.4755  2.461517  0.331412  19851.6  20738  20068.1  19572.9
  6090.162  6090.180  0.500  919.357  87.0034  2.464047  0.332805  19791.9  20957.3  20004.3  19233.7
  6093.906  6093.920  0.500  924.01  86.5173  2.466449  0.334442  19822.8  20832.1  19750  19537.8
  6097.678  6097.690  0.500  925.003  86.0366  2.470918  0.336134  19802.6  20230.6  19943.1  19607.8
  6101.465  6101.480  0.500  925.773  85.5204  2.473980  0.338016  19488.2  20421.7  19837  19425.6
  6105.261  6105.280  0.500  922.831  85.0079  2.476423  0.339491  19518.6  20235.4  19595.6  19098.3
  6109.096  6109.110  0.500  930.196  84.4851  2.480207  0.341397  19142.5  20416.7  19755.9  19272.5
  6112.934  6112.950  0.500  929.738  83.9525  2.482845  0.342825  19190.6  20257.5  19469.5  19136.3
  6116.791  6116.810  0.500  931.394  83.4273  2.486163  0.344236  19243.9  20115.3  19493.4  18851
  6120.672  6120.690  0.500  934.026  82.8784  2.487984  0.345929  19267.1  20065.2  19113.3  18965
  6124.575  6124.590  0.500  930.18  82.3064  2.489636  0.347499  18774.7  19905  19153.3  18726.8
  6128.492  6128.510  0.500  940.136  81.7395  2.490434  0.348824  18894  20187.3  19383.4  18381.6
  6132.434  6132.450  0.500  939.124  81.1686  2.490654  0.350197  18795.8  19492.7  19228.2  18710.7
  6136.396  6136.410  0.500  932.803  80.5678  2.490426  0.351482  18683.1  19231.5  18654.7  18584.6
  6140.368  6140.380  0.500  938.003  79.9396  2.488094  0.352429  18637  19338.5  18797.8  18210.3
  6144.360  6144.380  0.500  935.905  79.2703  2.483670  0.353116  18200.4  19128.3  18570.5  18290.3
  6148.376  6148.390  0.500  941.613  78.5885  2.476712  0.353401  18189.9  19170.4  18347.3  18292.3
  6152.415  6152.430  0.500  935.22  77.8058  2.462560  0.352639  18089.2  18732  18192.3  17751.9