File: xdidata/Ce/Ce-L3-Ce2Ti2O6.xdi
# XDI/1.0 BlueSky/1.10.0 BMM/2023-1.0-py310-tiled
# Beamline.name: BMM (06BM) -- Beamline for Materials Measurement (NIST)
# Beamline.xray_source: NSLS-II three-pole wiggler
# Beamline.collimation: paraboloid mirror, 5 nm Rh on 30 nm Pt
# Beamline.focusing: not in use
# Beamline.harmonic_rejection: flat mirror, Si stripe, pitch = 7.0 mrad relative to beam
# Beamline.software: Bluesky 1.10.0, Ophyd 1.7.0, DataBroker 2.0.0b13, Python 3.10.8, 2023-1.0-py310-tiled
# Detector.I0: 10 cm N2
# Detector.I1: 25 cm N2
# Detector.I2: 25 cm N2
# Detector.fluorescence: SII Vortex ME4 (4-element silicon drift)
# Detector.deadtime_correction: Xspress3
# Element.symbol: Ce
# Element.edge: L3
# Element.reference: Ce
# Element.reference_material: CeO2
# Facility.name: NSLS-II
# Facility.energy: 3.0
# Facility.current: 399.5
# Facility.mode: top-off
# Facility.GUP: 123456
# Facility.SAF: 301027
# Facility.cycle: 2023-2
# Mono.name: Si(111)
# Mono.d_spacing: 3.13519
# Mono.encoder_resolution: 0.0000050 deg/ct
# Mono.angle_offset: 16.0754 deg
# Mono.scan_mode: pseudo channel cut
# Mono.scan_type: step
# Mono.direction: forward in energy
# Sample.name: Ce2Ti2O6
# Sample.prep: Powder in PEG pellet
# Sample.x: 142.329 mm
# Sample.y: 114.126 mm
# Sample.SDD_position: 45.000 mm
# Scan.experimenters: Bruce Ravel
# Scan.edge_energy: 5723.4
# Scan.start_time: 2023-05-06T10:41:00
# Scan.end_time: 2023-05-06T10:46:39
# Scan.transient_id: 74731
# Scan.uid: cc88a37e-e65a-4420-a81e-01732a121c20
# Scan.plot_hint: (Ce1+Ce2+Ce3+Ce4)/I0  --  ($8+$9+$10+$11)/$5
# Column.1: energy eV
# Column.2: requested_energy eV
# Column.3: measurement_time seconds
# Column.4: xmu
# Column.5: I0 nA
# Column.6: It nA
# Column.7: Ir nA
# Column.8: Ce1
# Column.9: Ce2
# Column.10: Ce3
# Column.11: Ce4
# ///////////
# sample courtesy Martin Stennett, University of Sheffield
# -----------
# energy  requested_energy  measurement_time  xmu  I0  It  Ir  Ce1  Ce2  Ce3  Ce4
  5523.402  5523.400  0.500  209.301  108.632  1.268570  0.093352  5589.21  5912.82  5617.88  5616.83
  5533.408  5533.400  0.500  208.732  108.949  1.306355  0.097393  5549.61  5847.83  5689.91  5653.83
  5543.412  5543.400  0.500  212.724  109.269  1.345070  0.101777  5720.31  6008.94  5710.95  5803.97
  5553.414  5553.400  0.500  215.007  109.592  1.382883  0.105881  5892.93  6090.01  5817.07  5762.99
  5563.410  5563.400  0.500  216.852  109.899  1.423505  0.110495  5900.73  6187.02  5945.13  5798.98
  5573.411  5573.400  0.500  216.745  110.103  1.463046  0.115110  5905.94  6323.17  5814.1  5821.07
  5583.410  5583.400  0.500  219.622  110.317  1.501880  0.119651  5941.4  6215.16  6033.27  6038.22
  5593.407  5593.400  0.500  219.357  110.46  1.541601  0.124508  5957.43  6337.25  5950.24  5985.22
  5603.410  5603.400  0.500  220.501  110.633  1.584272  0.129731  6131.02  6238.15  6115.31  5910.14
  5613.405  5613.400  0.500  223.367  110.773  1.624976  0.135030  6150.87  6472.39  6122.37  5997.28
  5623.461  5623.400  0.500  225.132  110.857  1.665733  0.140082  6090.31  6511.39  6259.45  6096.31
  5633.388  5633.400  0.500  227.265  111.325  1.714171  0.145801  6245.73  6547.45  6174.46  6332.51
  5643.388  5643.400  0.500  229.603  111.408  1.757648  0.151837  6164.98  6789.63  6251.5  6373.57
  5653.394  5653.400  0.500  229.657  111.462  1.800825  0.157595  6277.38  6727.63  6279.57  6313.56
  5663.399  5663.400  0.500  231.992  111.484  1.844287  0.163213  6289.58  6866.68  6347.61  6359.57
  5673.397  5673.400  0.500  236.126  111.534  1.888513  0.169233  6362.92  6806.66  6565.8  6600.75
  5683.400  5683.400  0.500  240.245  111.528  1.932238  0.175443  6709.65  6895.79  6658.87  6529.77
  5693.394  5693.400  0.500  243.243  111.488  1.975124  0.181491  6649.03  6962.85  6763.98  6742.9
  5695.396  5695.400  0.500  245.693  111.463  1.984886  0.182732  6697.96  7148.93  6737.95  6800.92
  5697.392  5697.400  0.500  249.205  111.484  1.992689  0.183915  6680.96  7307.13  6946.13  6848.03
  5699.388  5699.400  0.500  250.858  111.436  1.999268  0.185007  6753.33  7334.09  6939.1  6928.05
  5701.391  5701.400  0.500  248.299  111.448  2.006080  0.186066  6752.3  7129.96  6951.11  6838.99
  5703.399  5703.400  0.500  252.74  111.432  2.012688  0.187051  6967.19  7315.08  6904.07  6977.1
  5705.399  5705.400  0.500  258.287  111.425  2.020445  0.188261  7103.17  7471.18  7128.21  7077.14
  5707.395  5707.400  0.500  261.17  111.421  2.025938  0.189359  7187.04  7562.25  7243.33  7107.19
  5709.399  5709.400  0.500  265.194  111.327  2.028392  0.189793  7293.3  7712.34  7147.29  7370.36
  5711.400  5711.400  0.500  270.757  111.348  2.030957  0.190484  7418.07  7775.41  7499.48  7455.41
  5713.403  5713.400  0.500  280.676  111.379  2.031111  0.190938  7719.5  8017.55  7723.69  7800.67
  5713.891  5713.900  0.500  282.542  111.355  2.029762  0.190818  7536.29  8142.67  7963.86  7819.68
  5714.389  5714.400  0.500  285.866  111.352  2.028564  0.190998  7862.45  8246.71  8044.88  7677.61
  5714.891  5714.900  0.500  286.747  111.327  2.026881  0.190661  7755.39  8359.84  8019.89  7787.7
  5715.390  5715.400  0.500  292.57  111.285  2.024884  0.190526  7940.06  8496.91  8133.98  7987.81
  5715.889  5715.900  0.500  296.502  111.312  2.022997  0.190359  8267.5  8625.01  8191.02  7920.77
  5716.389  5716.400  0.500  302.018  111.295  2.019110  0.189881  8214.85  8786.12  8454.17  8157.93
  5716.891  5716.900  0.500  308.682  111.3  2.014937  0.189675  8536.77  8802.09  8487.19  8530.17
  5717.390  5717.400  0.500  314.501  111.282  2.010242  0.189355  8493.29  9106.33  8798.38  8600.24
  5717.890  5717.900  0.500  320.021  111.264  2.003274  0.188389  8790.74  9269.39  8853.42  8693.29
  5718.391  5718.400  0.500  330.864  111.223  1.993036  0.187859  9014.79  9595.62  9194.68  8994.52
  5718.895  5718.900  0.500  338.302  111.255  1.982661  0.186620  9303.5  9845.82  9267.73  9220.69
  5719.394  5719.400  0.500  357.276  111.25  1.968135  0.185158  9720.26  10241.1  9937.34  9848.13
  5719.893  5719.900  0.500  373.092  111.262  1.950916  0.183253  10263.4  10700.5  10365.7  10181.5
  5720.389  5720.400  0.500  391.331  111.245  1.931604  0.181483  10637.1  11295.8  10901  10699.7
  5720.893  5720.900  0.500  405.087  111.211  1.914626  0.179750  11070.7  11771.3  11264.3  10944.1
  5721.395  5721.400  0.500  415.566  111.211  1.903620  0.178817  11189.1  12099.5  11642.6  11284.3
  5721.896  5721.900  0.500  425.403  111.215  1.893104  0.177619  11568.9  12153.6  11872.8  11715.6
  5722.393  5722.400  0.500  442.677  111.191  1.876909  0.175873  12121.7  12684.9  12358.1  12056.9
  5722.893  5722.900  0.500  462.696  111.2  1.851464  0.173224  12984.6  12684.9  12971.7  12810.5
  5723.395  5723.400  0.500  499.952  111.218  1.814619  0.169503  13685.9  14430.3  13830.4  13657.1
  5723.897  5723.900  0.500  541.618  111.199  1.765924  0.164562  14858.7  15562.2  15095.5  14711.1
  5724.395  5724.400  0.500  598.712  111.192  1.703412  0.158102  16397.8  17198.7  16609.8  16365.5
  5724.893  5724.900  0.500  670.987  111.175  1.627337  0.150143  18424.4  19130.5  18852  18190.4
  5725.394  5725.400  0.500  729.441  111.191  1.540882  0.141321  18424.4  21444.5  20897.9  20340.3
  5725.898  5725.900  0.500  847.252  111.18  1.436287  0.130678  23385.8  23934.2  23473.6  23403.5
  5726.396  5726.400  0.500  951.693  111.143  1.327863  0.119888  26035.6  27420.7  26460.2  25857.3
  5726.898  5726.900  0.500  1060.77  111.149  1.226004  0.109883  28802.5  30393.1  29446.7  29261.2
  5727.395  5727.400  0.500  1147.36  111.145  1.143958  0.101864  31312.6  32821.4  32033  31356.2
  5727.900  5727.900  0.500  1199.77  111.152  1.092203  0.096949  32860.4  34476.3  33508.5  32511.7
  5728.398  5728.400  0.500  1230.11  111.148  1.068123  0.094411  33664.1  35128.3  34287.9  33644.2
  5728.897  5728.900  0.500  1237.12  111.177  1.061410  0.093406  33664.1  35128.3  35039.2  33707.5
  5729.398  5729.400  0.500  1242.21  111.182  1.060388  0.093056  34143.3  35527.7  34698.5  33742.2
  5729.897  5729.900  0.500  1246.95  111.176  1.055828  0.092478  34337.7  35581.7  34995.2  33716.4
  5730.402  5730.400  0.500  1260.62  111.148  1.042932  0.091037  34337.7  36014.6  35353.4  34410.3
  5730.898  5730.900  0.500  1290.46  111.149  1.022408  0.089191  35293.8  36957.6  36161.2  35021
  5731.399  5731.400  0.500  1305.96  111.136  0.996849  0.086727  35293.8  36957.6  36898.2  35989.3
  5731.897  5731.900  0.500  1347.43  111.115  0.976724  0.085148  37003  38234.6  37806.9  36675.4
  5732.404  5732.400  0.500  1356.37  111.09  0.967349  0.084538  36756.5  39067.4  37699.6  37155.9
  5732.901  5732.900  0.500  1351.16  111.118  0.970928  0.085182  36756.5  38688.1  37770.6  36922.6
  5733.402  5733.400  0.500  1344.92  111.111  0.981651  0.086432  36489.3  38706.9  37544.3  36695.3
  5733.903  5733.900  0.500  1329.12  111.097  0.994157  0.087788  36501  37943.7  37000.2  36216.3
  5734.405  5734.400  0.500  1317.03  111.088  1.004525  0.089039  36025  37715.4  36706.1  35858.9
  5734.903  5734.900  0.500  1312.99  111.079  1.010353  0.089494  35713.2  37238.3  37032.3  35861.9
  5735.401  5735.400  0.500  1310.88  111.051  1.011013  0.089649  35906.3  37005.8  36635.1  36027.3
  5735.904  5735.900  0.500  1319.8  111.023  1.006191  0.089147  35870  37757.8  36845.5  36055.4
  5736.401  5736.400  0.500  1324.24  111.033  0.997771  0.088208  36298  37953  36826.5  35957.4
  5736.902  5736.900  0.500  1343.5  110.979  0.986217  0.087066  36703.8  38205.6  37896.9  36294
  5737.405  5737.400  0.500  1349.65  110.999  0.977367  0.086279  36550.7  38781.5  37643  36834.6
  5737.906  5737.900  0.500  1356.45  111.016  0.976242  0.085967  36550.7  38781.5  38030  37226
  5738.403  5738.400  0.500  1342.16  111.02  0.984682  0.086803  36550.3  38413.5  37591.5  36451.1
  5738.901  5738.900  0.500  1335.65  111.011  1.001254  0.088264  36550.3  38413.5  37198.1  36110.6
  5739.403  5739.400  0.500  1298.7  111.014  1.025124  0.090553  35307  37093  36340.7  35432.7
  5739.904  5739.900  0.500  1279.8  111.003  1.053602  0.093424  35307  35863.5  35458.4  35432.7
  5740.405  5740.400  0.500  1226.66  111.015  1.083514  0.096389  33385.3  35174.2  34111.6  33506.9
  5740.903  5740.900  0.500  1191.95  110.975  1.115205  0.099659  32288.6  33878.6  33371.9  32737.9
  5741.399  5741.400  0.500  1163.22  110.986  1.148316  0.103071  31274.4  33263  32480.4  32083.9
  5741.903  5741.900  0.500  1121.44  110.97  1.183575  0.106958  30341.6  32079.4  31445.1  30580.2
  5742.402  5742.400  0.500  1090.14  110.966  1.220900  0.110913  29808.2  31128.1  30293.5  29739
  5742.904  5742.900  0.500  1043.53  110.963  1.257654  0.114439  28386.8  29617.3  29384.3  28405.3
  5743.403  5743.400  0.500  1008.81  110.941  1.293984  0.118326  27576.5  28838.4  28003.8  27499.2
  5743.897  5743.900  0.500  985.313  110.946  1.328081  0.121969  26865.5  28339.8  27338.1  26773.3
  5744.396  5744.400  0.500  954.449  110.952  1.356943  0.125024  25959.6  27226.9  26718.5  25992.7
  5744.900  5744.900  0.500  937.5  110.933  1.382671  0.127668  25350.1  26853  26215.8  25581
  5745.401  5745.400  0.500  914.931  110.931  1.402734  0.129620  24929.8  26217.4  25613.9  24733
  5745.904  5745.900  0.500  900.728  110.906  1.418459  0.131433  24516.1  25563.9  25184.5  24632
  5746.404  5746.400  0.500  896.778  110.894  1.430906  0.132677  24188.8  25758  24949.2  24550.8
  5746.902  5746.900  0.500  892.605  110.87  1.440721  0.133898  24186.6  25467.8  24835.3  24473.8
  5747.399  5747.400  0.500  879.847  110.869  1.448714  0.134702  24056.4  25246.5  24350.7  23894.2
  5747.901  5747.900  0.500  879.08  110.881  1.455098  0.135566  23826.3  25110.5  24545.9  23990.3
  5748.405  5748.400  0.500  869.893  110.868  1.460738  0.136035  23816.3  24898.2  23837.1  23892.1
  5749.398  5749.390  0.500  867.053  110.855  1.468298  0.137120  23720.4  24707  24125.4  23564.8
  5750.405  5750.390  0.500  873.208  110.852  1.474752  0.138220  23673.3  24696.9  24600.7  23825.9
  5751.410  5751.410  0.500  861.073  110.817  1.480406  0.138786  23655.8  24550  23848.3  23367.8
  5752.468  5752.460  0.500  867.699  110.795  1.486539  0.139500  23364.9  24720.9  24405.7  23644.8
  5753.531  5753.520  0.500  870.844  110.793  1.492793  0.140108  23667.7  24765.1  24405.7  23644.8
  5754.605  5754.600  0.500  860.724  110.746  1.496022  0.140670  23615.9  24446.8  23817.1  23441.7
  5755.706  5755.700  0.500  867.96  110.733  1.497700  0.140709  23601.9  24835.2  24150.6  23523.9
  5756.830  5756.820  0.500  872.428  110.732  1.496924  0.140732  23601.9  25151.3  24122.5  23729.9
  5757.972  5757.960  0.500  883.722  110.717  1.493338  0.140506  23914.4  25312.7  24379.1  24236.7
  5759.119  5759.110  0.500  881.569  110.693  1.490557  0.140147  24077.9  25161.7  24279.7  24064.5
  5760.301  5760.290  0.500  889.37  110.684  1.487712  0.140141  24272.9  25077.5  24723.1  24365.8
  5761.487  5761.480  0.500  895.78  110.673  1.484379  0.139922  24575  25419.9  24646  24497.9
  5762.705  5762.700  0.500  910.822  110.668  1.479066  0.139508  24832.6  25923.3  25319.8  24723.1
  5763.939  5763.930  0.500  921.608  110.611  1.470030  0.138558  25312.4  26256.9  25470.1  24900.5
  5765.187  5765.180  0.500  940.978  110.598  1.460008  0.137831  25534.6  26836.5  26111.8  25587.1
  5766.455  5766.450  0.500  949.213  110.593  1.450625  0.136818  25788.2  26989.7  26529.2  25669.3
  5767.746  5767.740  0.500  963.043  110.6  1.443919  0.136048  26146.2  27467  26736.5  26162.8
  5769.060  5769.050  0.500  975.543  110.556  1.439071  0.135989  26427.7  27770.5  27140.9  26513.3
  5770.388  5770.380  0.500  978.523  110.56  1.436372  0.135925  26492.8  28066.7  26958.9  26667.3
  5771.736  5771.730  0.500  978.65  110.543  1.437074  0.136184  26654.2  28042.8  26958.9  26527.4
  5773.111  5773.100  0.500  982.896  110.516  1.438623  0.136481  26812.4  27746.5  27157.3  26909.7
  5774.489  5774.480  0.500  984.465  110.498  1.441619  0.136970  26641.3  28038.9  27398.3  26702.6
  5775.902  5775.890  0.500  990.768  110.492  1.446118  0.137748  26641.3  28333.3  27468.5  27029
  5777.318  5777.310  0.500  986.744  110.453  1.450557  0.138566  26811.1  28181  27252.3  26744.7
  5778.756  5778.750  0.500  987.387  110.426  1.457498  0.139482  26962.9  28003  27489.5  26577.5
  5780.221  5780.210  0.500  990.057  110.431  1.467535  0.140918  26962.9  28098.9  27489.5  26781.7
  5781.699  5781.690  0.500  970.102  110.398  1.479623  0.142558  26104.4  27865.5  26773.7  26354.1
  5783.197  5783.190  0.500  966.553  110.379  1.494085  0.144184  26549  27348.3  26754.8  26035
  5784.718  5784.710  0.500  956.463  110.362  1.508013  0.146040  25837.6  27417.1  26439.2  25863.6
  5786.260  5786.250  0.500  953.577  110.317  1.520442  0.147399  25617.7  27208.8  26416.4  25952.7
  5787.819  5787.810  0.500  950.403  110.349  1.532855  0.148941  25778.3  27033.8  26162.2  25901.7
  5789.391  5789.380  0.500  947.843  110.299  1.541887  0.150151  25701.5  26735.5  26404.5  25704.6
  5790.994  5790.980  0.500  947.221  110.321  1.551435  0.151416  25457.5  27116.8  26386.5  25537.4
  5792.600  5792.590  0.500  948.1  110.228  1.555974  0.152158  25555.7  27219.9  26266.2  25465.2
  5794.240  5794.230  0.500  939.092  110.21  1.563386  0.153081  25613.7  26516.3  26220.2  25147
  5795.891  5795.880  0.500  942.114  110.167  1.571602  0.154340  25386.7  26639.5  26061  25702.6
  5797.560  5797.550  0.500  938.473  110.109  1.579744  0.155409  25386.7  26639.5  25995.8  25312.1
  5799.249  5799.240  0.500  939.437  110.119  1.588444  0.156724  25561.5  26690.3  25798.8  25399.2
  5800.960  5800.950  0.500  938.633  110.093  1.596547  0.157765  25372.4  26735.7  25813.9  25415.3
  5802.692  5802.680  0.500  938.426  110.09  1.604540  0.158946  25162  26520.3  26128.7  25500.3
  5804.440  5804.430  0.500  934.385  110.019  1.611780  0.159985  25302.1  26424.3  25845.8  25228.1
  5806.196  5806.190  0.500  935.297  109.967  1.618500  0.160859  25203.5  26479  25839.6  25330
  5807.987  5807.980  0.500  934.837  110.312  1.630079  0.162233  25367.4  26585.3  25815.7  25355.2
  5809.790  5809.780  0.500  935.906  110.273  1.635965  0.163149  25334.2  26629.5  25767.6  25474.2
  5811.620  5811.610  0.500  940.431  110.214  1.640748  0.163909  25557.1  26600.4  26078  25413.2
  5813.461  5813.450  0.500  940.52  110.166  1.644468  0.164534  25401.8  26738.5  26088.1  25385.3
  5815.316  5815.310  0.500  946.207  110.133  1.646946  0.164839  25457.7  27071  25920.1  25759.9
  5817.196  5817.190  0.500  952.825  110.09  1.649457  0.165576  25931.5  26859.7  26158.1  25946.9
  5819.097  5819.090  0.500  956.546  110.055  1.649834  0.165856  25931.5  26859.7  26514.8  25967
  5821.018  5821.010  0.500  968.495  110.009  1.649787  0.166310  26365.9  27465.4  26553.7  26158.2
  5822.961  5822.950  0.500  971.896  109.912  1.648246  0.166299  26213.2  27649.8  26804  26156.3
  5824.920  5824.910  0.500  979.144  109.926  1.647717  0.166639  26599.1  27883  27041.3  26110.4
  5826.887  5826.880  0.500  991.43  109.877  1.646948  0.166720  26610.5  28055  27409.5  26859.8
  5828.890  5828.880  0.500  992.912  109.796  1.645719  0.167057  26610.5  28164.3  27547  26696.1
  5830.898  5830.890  0.500  997.961  109.723  1.645333  0.167371  26976.3  28422.7  27203.6  26896.2
  5832.928  5832.920  0.500  1007.55  109.667  1.647842  0.168096  27141.4  28695.1  27530  27128.7
  5834.985  5834.980  0.500  1005.9  109.61  1.652692  0.168903  27136.7  28291.6  27839.4  26989.3
  5837.056  5837.050  0.500  1013.55  109.552  1.660457  0.170143  27236.1  28702.8  27745  27352.6
  5839.146  5839.140  0.500  1007.75  109.478  1.668560  0.171488  26970.8  28324.7  27748.1  27283.6
  5841.255  5841.250  0.500  1005.47  109.405  1.677544  0.172787  26840  28486.7  27464.1  27212.6
  5843.383  5843.380  0.500  1008.74  109.308  1.687539  0.174449  27105  28420.6  27789.4  26948.3
  5845.524  5845.520  0.500  1004.43  109.192  1.698015  0.175892  26921.9  28251.5  27484  27018.4
  5847.694  5847.690  0.500  1000.28  109.136  1.708127  0.177417  26774.2  28263.3  27378.6  26750
  5849.884  5849.880  0.500  1003.36  109.042  1.715907  0.178890  26820.4  28263.3  27490.9  26833.1
  5852.088  5852.080  0.500  1004.81  108.934  1.723990  0.179974  26835.5  28163.2  27578  26881.2
  5854.304  5854.300  0.500  1005.31  108.812  1.731166  0.181386  27035  28181.7  27478.2  26695.2
  5856.557  5856.550  0.500  1006.53  108.58  1.735610  0.182146  26891.8  28000.1  27279.7  27117.4
  5858.821  5858.810  0.500  1007.41  108.583  1.742266  0.183258  27225.2  28142.3  27387.5  26631.9
  5861.095  5861.090  0.500  1006.85  108.403  1.751144  0.184806  26899.1  28348.5  27108.6  26790.1
  5863.399  5863.390  0.500  1004.02  108.188  1.763047  0.186748  26547.5  28078.2  27071.4  26926.2
  5865.720  5865.710  0.500  997.762  107.87  1.771020  0.187944  26454.2  27672.7  26912  26589.7
  5868.056  5868.050  0.500  997.296  107.359  1.774209  0.188680  25989.9  27791.9  26840  26446.5
  5870.409  5870.400  0.500  998.825  105.88  1.760306  0.187579  25835.3  27370.1  26337.2  26213.1
  5872.787  5872.780  0.500  1009.83  86.8174  1.450814  0.155226  21421.2  22670.2  22066.4  21512.9
  5875.178  5875.170  0.500  997.156  108.874  1.830733  0.196082  26728.9  27971.3  27245.7  26618.1
  5877.597  5877.590  0.500  1002.47  109.012  1.841020  0.197798  26847.7  28159.6  27363.1  26911.5
  5880.028  5880.020  0.500  999.211  108.678  1.845752  0.198836  26938.5  27706.2  27136.8  26810.4
  5882.476  5882.470  0.500  998.945  108.4  1.852183  0.200155  26404.8  28159.6  27050.6  26670.2
  5884.957  5884.950  0.500  1002.53  108.158  1.856487  0.201090  26583.5  28110.5  27229.8  26508
  5887.449  5887.440  0.500  1007.78  107.943  1.860669  0.202054  26607.1  28183.4  27294  26699.1
  5889.956  5889.950  0.500  1011.8  107.786  1.865358  0.203290  26690.6  28262.8  27368.2  26736.3
  5892.479  5892.470  0.500  1013.61  107.547  1.869467  0.204281  26876.3  28193.6  27485.1  26455.9
  5895.025  5895.020  0.500  1017.83  107.387  1.873328  0.205294  26727.3  28264.6  27305.8  27004.3
  5897.597  5897.590  0.500  1022.05  107.199  1.877304  0.206354  26648.3  28232.6  27586.3  27095.6
  5900.184  5900.170  0.500  1027.57  106.977  1.882049  0.207135  26951.4  28524.6  27558  26892.2
  5902.792  5902.780  0.500  1030.67  106.733  1.887351  0.208115  26830.5  28264.9  27823.6  27086.7
  5905.422  5905.400  0.500  1025.84  106.454  1.891388  0.209281  26627.9  28589.7  27297.8  26689.1
  5908.071  5908.050  0.500  1031.65  106.12  1.895192  0.210258  26853.7  28285.7  27498.1  26842.3
  5910.732  5910.710  0.500  1030.6  105.595  1.895487  0.210835  26823.4  28054.2  27308.7  26639.9
  5913.411  5913.390  0.500  1042.07  104.455  1.884588  0.210249  26623.4  28132.3  27487.1  26606.8
  5916.099  5916.090  0.500  1051.42  91.4549  1.658269  0.185966  23696.1  24684.1  24312.7  23464.8
  5918.830  5918.810  0.500  1040.47  105.529  1.925285  0.216135  27284.7  28289.6  27382.9  26843.3
  5921.562  5921.550  0.500  1047.61  106.41  1.951296  0.219707  27445.1  28595.1  28111.8  27324.9
  5924.321  5924.300  0.500  1053.46  105.792  1.950112  0.220505  27445.1  28595.1  27797.4  27609.1
  5927.078  5927.080  0.500  1054.64  104.967  1.945222  0.220675  27307.7  28464.9  27839.2  27091.5
  5929.884  5929.870  0.500  1051.43  104.17  1.943043  0.221045  26985.1  28351.5  27321.7  26869.2
  5932.690  5932.690  0.500  1050.82  105.437  1.980517  0.225931  27295.6  28761.2  27483.1  27254.8
  5935.541  5935.520  0.500  1051.09  105.092  1.986765  0.227421  27295.6  28471.1  27348.1  27347
  5938.364  5938.370  0.500  1050.33  104.375  1.986946  0.228156  26765.7  28378.6  27348.1  27136.3
  5941.241  5941.250  0.500  1053.32  103.227  1.977464  0.227800  26793.1  27999.1  27102.3  26836.1
  5944.133  5944.140  0.500  1060.21  97.7493  1.885531  0.217779  25521.5  26553.7  26215.3  25344.6
  5947.038  5947.050  0.500  1058.22  104.422  2.027104  0.234921  27216.9  28579.2  27655.4  27049.6
  5949.965  5949.970  0.500  1053.65  104.537  2.042753  0.237390  26774.3  28755  27482.9  27133.5
  5952.929  5952.920  0.500  1049.91  104.036  2.045307  0.238258  26803.5  27968.5  27451.1  27005.6
  5955.888  5955.890  0.500  1057.88  103.61  2.049373  0.239483  26803.5  28043.3  27755.4  27005.6
  5958.864  5958.870  0.500  1057.8  103.207  2.053652  0.240882  26726.8  28079.6  27662.2  26704.1
  5961.869  5961.880  0.500  1062.84  102.81  2.058474  0.242142  26934.9  28165.4  27176.6  26994.3
  5964.894  5964.900  0.500  1063.1  102.447  2.063843  0.243392  26773.8  28306.4  27310.7  26519.9
  5967.940  5967.950  0.500  1065.8  102.066  2.068450  0.244807  26773.8  28026.2  27286.7  26694.9
  5971.006  5971.010  0.500  1065.59  101.671  2.072559  0.246380  26677.2  27874.2  27318.7  26469.7
  5974.080  5974.090  0.500  1072.03  101.237  2.076095  0.247449  26677.2  27874.2  27318.7  26658.8
  5977.184  5977.190  0.500  1061.89  100.801  2.078673  0.248518  26198.9  27895.9  26865.1  26080.1
  5980.300  5980.310  0.500  1075.1  100.317  2.082196  0.250026  26759.2  27800.8  26945.9  26344.3
  5983.440  5983.450  0.500  1077.87  99.6478  2.081036  0.250786  26340.9  27773.6  26926.1  26366.3
  5986.594  5986.600  0.500  1082.27  98.3212  2.066465  0.249540  26229.7  27493.2  26523.4  26164
  5989.770  5989.780  0.500  1191.77  82.7385  1.747748  0.212242  22475.9  27493.2  26523.4  22112.7
  5992.971  5992.970  0.500  1083.41  100.522  2.137732  0.260011  26700.5  28031.3  27328.6  26846
  5996.181  5996.190  0.500  1085.47  99.8221  2.135785  0.260660  26757.7  27778.8  27326.6  26490.7
  5999.408  5999.420  0.500  1089.14  99.192  2.134950  0.261308  26786.7  27919.9  26836  26491.6
  6002.666  6002.670  0.500  1096.59  98.6543  2.135153  0.262081  26786.7  27919.9  27133.2  26343.4
  6005.941  6005.950  0.500  1092.51  98.1839  2.137563  0.263110  26092.3  27645.5  27286.2  26243.2
  6009.223  6009.240  0.500  1094.26  97.7314  2.140146  0.264715  26292.2  27623.6  26676.8  26351.3
  6012.542  6012.550  0.500  1098.72  97.2452  2.143864  0.265712  26434.3  27330.1  26695.7  26385.3
  6015.860  6015.870  0.500  1107.95  96.7949  2.147639  0.267474  26624.7  27554.2  26720.6  26344.1
  6019.214  6019.220  0.500  1111.86  96.3398  2.152572  0.268971  26624.7  27460.2  26687.7  26344.1
  6022.581  6022.590  0.500  1111.5  95.9288  2.159599  0.270803  26509.3  27189.8  26854.6  26070.8
  6025.950  6025.970  0.500  1109.25  95.5033  2.165159  0.272365  25965.5  27433  26690.3  25848.6
  6029.367  6029.380  0.500  1109.08  95.0418  2.170212  0.274086  25636.9  27346  26375.2  26050.7
  6032.792  6032.800  0.500  1112.76  94.5981  2.175737  0.275885  26053.2  27159.7  26291.9  25760.4
  6036.242  6036.250  0.500  1109.41  94.1612  2.180246  0.277582  25530.3  27009.5  26219.7  25704.2
  6039.708  6039.710  0.500  1116.45  93.6751  2.184530  0.278781  25657.8  26985.5  26201.8  25738.3
  6043.177  6043.190  0.500  1115.55  93.2171  2.189282  0.280559  25662.4  26886.3  25926.4  25513
  6046.679  6046.690  0.500  1121.12  92.7662  2.194892  0.282500  25409  26958.5  26072.6  25562
  6050.207  6050.210  0.500  1120.08  92.3186  2.200174  0.284064  25401.6  26779.2  25921.4  25301.7
  6053.738  6053.750  0.500  1126.55  91.8022  2.205385  0.285535  25507.4  26803  25895.2  25214.5
  6057.285  6057.300  0.500  1125.96  91.2225  2.206594  0.286756  25622.3  26777.8  25105.4  25207.3
  6060.872  6060.880  0.500  1134.67  90.6398  2.208360  0.287926  25469.6  26417.2  25583.7  25375.4
  6064.471  6064.480  0.500  1127.65  90.1588  2.211423  0.289363  24924.3  26476.6  25341.4  24925
  6068.090  6068.090  0.500  1132.99  89.66  2.214663  0.290969  25129.2  26310.3  25450.5  24693.7
  6071.707  6071.720  0.500  1132.99  89.2211  2.218357  0.292228  24766.5  26167  25251.2  24901.9
  6075.362  6075.380  0.500  1132.54  88.7402  2.221769  0.294095  24785  25700.7  25189.1  24826.7
  6079.034  6079.050  0.500  1137.13  88.269  2.223642  0.295337  24761.2  25882.7  24938.9  24790.7
  6082.726  6082.740  0.500  1141.2  87.769  2.227360  0.296830  24762.2  25872.7  25236.1  24291.2
  6086.436  6086.450  0.500  1138.89  87.2389  2.229936  0.298285  24461.3  25840.5  24683.4  24370.1
  6090.165  6090.180  0.500  1151.77  86.7075  2.233193  0.300148  24816.8  25840.5  25015.9  24194
  6093.900  6093.920  0.500  1152.4  86.2948  2.238548  0.301828  24354.2  25828.4  24890.5  24373
  6097.675  6097.690  0.500  1148.87  85.7883  2.242637  0.303523  24195.8  25443.8  24828.4  24091.7
  6101.465  6101.480  0.500  1151.9  85.284  2.246098  0.305149  24144.5  25514.9  24666.4  23912.5
  6105.261  6105.280  0.500  1159.69  84.7652  2.247935  0.306624  24449.7  25438  24451.9  23961.4
  6109.100  6109.110  0.500  1155.27  84.2391  2.251770  0.308209  24023.4  25358.8  24372  23565.1
  6112.943  6112.950  0.500  1159.83  83.7182  2.254057  0.309612  24094.2  24992.6  24117.8  23894.3
  6116.795  6116.810  0.500  1161.31  83.1672  2.256090  0.310970  23715.2  24981.2  24255.5  23630.9
  6120.675  6120.690  0.500  1161.07  82.6095  2.255620  0.312173  23682.2  24913.2  23738.9  23580.8
  6124.577  6124.590  0.500  1174.43  82.0674  2.257004  0.313294  23613  25141.4  23982.2  23646
  6128.495  6128.510  0.500  1169.17  81.462  2.257056  0.314346  23613  24603.9  23874.3  23151.4
  6132.428  6132.450  0.500  1171.2  80.9083  2.257141  0.315473  23366.2  24676.9  23762.9  22954.1
  6136.395  6136.410  0.500  1168.76  80.2843  2.254414  0.316645  23072.6  24237.4  23403.5  23119.3
  6140.367  6140.380  0.500  1175.08  79.6642  2.253837  0.317738  23363.1  24055.4  23364.5  22829.1
  6144.360  6144.380  0.500  1178.22  79.0289  2.251626  0.318437  22851.6  24207  23472.4  22582.5
  6148.379  6148.390  0.500  1173.78  78.3443  2.247598  0.319067  22596.5  23865.9  22857.9  22638.6
  6152.417  6152.430  0.500  1185.87  77.5623  2.238346  0.319117  22819  23547.5  22978.9  22633.5