File: xdidata/Ce/Ce-L3-SrCe2Ti4O12.xdi
# XDI/1.0 BlueSky/1.10.0 BMM/2023-1.0-py310-tiled
# Beamline.name: BMM (06BM) -- Beamline for Materials Measurement (NIST)
# Beamline.xray_source: NSLS-II three-pole wiggler
# Beamline.collimation: paraboloid mirror, 5 nm Rh on 30 nm Pt
# Beamline.focusing: not in use
# Beamline.harmonic_rejection: flat mirror, Si stripe, pitch = 7.0 mrad relative to beam
# Beamline.software: Bluesky 1.10.0, Ophyd 1.7.0, DataBroker 2.0.0b13, Python 3.10.8, 2023-1.0-py310-tiled
# Detector.I0: 10 cm N2
# Detector.I1: 25 cm N2
# Detector.I2: 25 cm N2
# Detector.fluorescence: SII Vortex ME4 (4-element silicon drift)
# Detector.deadtime_correction: Xspress3
# Element.symbol: Ce
# Element.edge: L3
# Element.reference: Ce
# Element.reference_material: CeO2
# Facility.name: NSLS-II
# Facility.energy: 3.0
# Facility.current: 400.4
# Facility.mode: top-off
# Facility.GUP: 123456
# Facility.SAF: 301027
# Facility.cycle: 2023-2
# Mono.name: Si(111)
# Mono.d_spacing: 3.13519
# Mono.encoder_resolution: 0.0000050 deg/ct
# Mono.angle_offset: 16.0754 deg
# Mono.scan_mode: pseudo channel cut
# Mono.scan_type: step
# Mono.direction: forward in energy
# Sample.name: SrCe2Ti4O12
# Sample.prep: Powder in PEG pellet
# Sample.x: 142.329 mm
# Sample.y: 114.126 mm
# Sample.SDD_position: 45.000 mm
# Scan.experimenters: Bruce Ravel
# Scan.edge_energy: 5723.4
# Scan.start_time: 2023-05-06T11:06:37
# Scan.end_time: 2023-05-06T11:12:15
# Scan.transient_id: 74755
# Scan.uid: 5ad255b9-ee68-43a6-98ff-f800ea1d894c
# Scan.plot_hint: (Ce1+Ce2+Ce3+Ce4)/I0  --  ($8+$9+$10+$11)/$5
# Column.1: energy eV
# Column.2: requested_energy eV
# Column.3: measurement_time seconds
# Column.4: xmu
# Column.5: I0 nA
# Column.6: It nA
# Column.7: Ir nA
# Column.8: Ce1
# Column.9: Ce2
# Column.10: Ce3
# Column.11: Ce4
# ///////////
# sample courtesy Martin Stennett, University of Sheffield
# -----------
# energy  requested_energy  measurement_time  xmu  I0  It  Ir  Ce1  Ce2  Ce3  Ce4
  5523.399  5523.400  0.500  180.252  109.232  0.915321  0.068068  4773.65  5250.22  4982.27  4683.09
  5533.408  5533.400  0.500  181.559  109.552  0.943102  0.071081  4860.46  5156.18  4979.28  4894.2
  5543.420  5543.400  0.500  178.985  109.926  0.972315  0.074315  4860.46  5156.18  4876.25  4782.17
  5553.410  5553.400  0.500  180.019  110.254  1.002980  0.077689  4880.13  5309.29  4876.25  4782.17
  5563.412  5563.400  0.500  186.701  110.597  1.033682  0.081062  5091.36  5359.36  5141.42  5056.35
  5573.413  5573.400  0.500  186.994  110.859  1.066010  0.084809  5153.87  5517.42  5102.39  4956.29
  5583.408  5583.400  0.500  185.779  111.105  1.096278  0.088420  5159.71  5316.36  5122.46  5042.39
  5593.408  5593.400  0.500  187.35  111.254  1.127592  0.092136  5208.09  5390.44  5202.48  5042.39
  5603.410  5603.400  0.500  188.367  111.467  1.159437  0.095923  5134.25  5512.49  5209.52  5140.44
  5613.407  5613.400  0.500  190.193  111.597  1.191803  0.099886  5261.53  5512.49  5239.54  5211.51
  5623.388  5623.400  0.500  191.953  111.775  1.223566  0.103935  5210.67  5684.63  5290.61  5269.57
  5633.387  5633.400  0.500  194.69  111.822  1.256460  0.108044  5362.76  5663.63  5349.64  5394.63
  5643.388  5643.400  0.500  195.775  111.942  1.291778  0.112575  5311.24  5743.75  5416.77  5443.72
  5653.391  5653.400  0.500  200.875  112.002  1.326455  0.117099  5561.93  5747.74  5631.88  5556.79
  5663.398  5663.400  0.500  200.153  112.036  1.359853  0.121508  5511.93  5760.76  5567.84  5583.81
  5673.397  5673.400  0.500  200.812  112.074  1.394470  0.126089  5530.27  5815.76  5638.89  5520.78
  5683.396  5683.400  0.500  205.025  112.127  1.430285  0.130974  5621.03  5877.85  5725.96  5763.92
  5693.394  5693.400  0.500  212.969  112.08  1.460705  0.135396  5779.51  6200.04  5911.06  5979.07
  5695.395  5695.400  0.500  214.256  112.088  1.466452  0.136258  5934.3  6271.04  5997.11  5812.97
  5697.390  5697.400  0.500  217.616  112.062  1.472699  0.137182  6024.07  6369.14  6098.2  5895.05
  5699.389  5699.400  0.500  216.919  112.071  1.478113  0.137919  5897.95  6407.17  6001.13  6004.11
  5701.389  5701.400  0.500  222.5  112.051  1.482626  0.138723  6144.56  6401.17  6300.35  6085.15
  5703.389  5703.400  0.500  224.425  112.019  1.486990  0.139380  6149.16  6525.23  6223.29  6242.25
  5705.391  5705.400  0.500  232.034  112.033  1.490700  0.140136  6382.31  6821.44  6322.38  6469.4
  5707.389  5707.400  0.500  236.244  112.021  1.492331  0.140697  6459.97  7040.55  6378.43  6585.48
  5709.398  5709.400  0.500  243.576  111.995  1.492235  0.140783  6639.29  6997.55  6843.72  6798.61
  5711.397  5711.400  0.500  255.283  111.965  1.489688  0.140834  7099.37  7332.76  7137.89  7012.76
  5713.400  5713.400  0.500  269.475  111.984  1.481550  0.140491  7258.47  7906.12  7417.1  7595.14
  5713.893  5713.900  0.500  274.619  111.939  1.477507  0.140081  7549.12  7913.09  7796.3  7482.05
  5714.391  5714.400  0.500  277.955  111.946  1.473386  0.139671  7669.36  8163.21  7652.18  7631.12
  5714.890  5714.900  0.500  289.477  111.949  1.470464  0.139354  7962.44  8354.42  8110.5  7979.41
  5715.388  5715.400  0.500  294.893  111.899  1.463501  0.138797  8100.59  8552.55  8217.64  8127.51
  5715.888  5715.900  0.500  304.329  111.91  1.456865  0.138287  8192.26  8830.63  8565.82  8468.69
  5716.389  5716.400  0.500  313.943  111.882  1.447053  0.137485  8681.86  9054.84  8741.99  8645.86
  5716.889  5716.900  0.500  324.637  111.889  1.436007  0.136274  8821.25  9395  9038.14  9069.08
  5717.389  5717.400  0.500  341.51  111.87  1.422476  0.135034  9351.6  9846.37  9647.49  9359.29
  5717.888  5717.900  0.500  355.099  111.861  1.405232  0.133596  9671.42  10296.6  9918.82  9834.68
  5718.391  5718.400  0.500  372.426  111.851  1.385218  0.131567  10291.1  10885  9918.82  10561.1
  5718.892  5718.900  0.500  402.455  111.84  1.365714  0.129584  11125.8  11527.6  11316.8  11040.5
  5719.390  5719.400  0.500  423.115  111.832  1.344472  0.127591  11602.6  12194  11852.2  11669
  5719.892  5719.900  0.500  448.507  111.836  1.321331  0.125381  12293.3  13139.6  12379.6  12346.5
  5720.390  5720.400  0.500  479.411  111.871  1.293434  0.122487  12998.5  13843.1  13584.5  13206.1
  5720.894  5720.900  0.500  522.952  111.837  1.255496  0.118861  14212.7  15097.1  14722.4  14453.1
  5721.393  5721.400  0.500  575.583  111.835  1.209299  0.114628  15839  16589.4  16269.8  15672.2
  5721.898  5721.900  0.500  635.774  111.83  1.149415  0.108952  17450.2  18246.7  17981.2  17420.7
  5722.391  5722.400  0.500  720.103  111.809  1.075695  0.101906  19774.5  20802.2  20214.4  19723
  5722.896  5722.900  0.500  821.568  111.803  0.985595  0.093270  22627.2  23517.7  23275.5  22433.7
  5723.395  5723.400  0.500  959.353  111.788  0.877824  0.083029  26450.9  27411.9  26915.7  26466.1
  5723.896  5723.900  0.500  994.343  111.767  0.764234  0.072186  26450.9  27411.9  26915.7  30355.9
  5724.395  5724.400  0.500  1283.84  111.79  0.646330  0.060887  35151  36781.3  36193.5  35394.4
  5724.895  5724.900  0.500  1467.13  111.771  0.539725  0.050611  40136.3  42165.7  41328.3  40352.6
  5725.394  5725.400  0.500  1613.59  111.789  0.458110  0.042679  44196.9  46241.4  45500.9  44441.5
  5725.898  5725.900  0.500  1726.02  111.748  0.402505  0.037238  47388.4  49565.8  48348.7  47575.5
  5726.395  5726.400  0.500  1777.31  111.743  0.378175  0.034502  48849.6  50855.2  50153.6  48744.5
  5726.895  5726.900  0.500  1770.42  111.742  0.381141  0.034558  48218.4  50617.4  50291.8  48703.5
  5727.396  5727.400  0.500  1702.82  111.765  0.407979  0.036688  46640.8  48855.8  48212.3  46606.9
  5727.903  5727.900  0.500  1661.47  111.749  0.450253  0.040381  46640.8  48855.8  45799.1  44372
  5728.400  5728.400  0.500  1512.5  111.747  0.502752  0.045045  41453.7  43641.2  42558.7  41363.2
  5728.895  5728.900  0.500  1418.09  111.741  0.560204  0.050059  38934.1  40810  40050.7  38663.3
  5729.400  5729.400  0.500  1313.85  111.756  0.618299  0.054853  35816  37595.6  36996.3  36422.6
  5729.899  5729.900  0.500  1221.59  111.722  0.676821  0.059818  33642.5  34819.7  34565  33451.6
  5730.403  5730.400  0.500  1164.59  111.693  0.734197  0.064811  33642.5  32826  32140.9  31467.1
  5730.898  5730.900  0.500  1069.09  111.7  0.788553  0.069502  29167.1  30900.7  30083.2  29266.2
  5731.401  5731.400  0.500  989.045  111.704  0.842487  0.074174  26891.4  28507.9  27847.4  27233.8
  5731.899  5731.900  0.500  923.372  111.699  0.890935  0.078450  25154.4  26602.9  26001.4  25380.6
  5732.402  5732.400  0.500  899.427  111.673  0.936062  0.082739  25154.4  25314.4  26001.4  23971.2
  5732.902  5732.900  0.500  831.926  111.642  0.975634  0.086690  22598  24260.4  23313.5  22705.9
  5733.398  5733.400  0.500  795.783  111.689  1.008111  0.089718  21818.6  23030.1  22425.7  21605.8
  5733.903  5733.900  0.500  773.613  111.698  1.033690  0.092365  21112.6  22427.7  21836.8  21034.2
  5734.403  5734.400  0.500  747.975  111.706  1.052846  0.094297  20411.8  21704.9  20976.2  20460.6
  5734.903  5734.900  0.500  745.265  111.687  1.064667  0.095555  20290.2  21704.9  20816  20425.6
  5735.404  5735.400  0.500  740.792  111.656  1.070009  0.096004  20290.2  21484.7  20471.7  20467.6
  5735.903  5735.900  0.500  739.569  111.652  1.071006  0.095983  20243.9  21389.7  20555.9  20384.6
  5736.402  5736.400  0.500  749.276  111.629  1.068235  0.095735  20375.3  21582.9  20934.1  20748.9
  5736.902  5736.900  0.500  751.02  111.634  1.062813  0.094893  20365.2  21582.9  21231.4  20659.8
  5737.403  5737.400  0.500  764.316  111.632  1.057063  0.094313  20963.7  22211.6  21238.5  20908.1
  5737.907  5737.900  0.500  770.62  111.617  1.051223  0.093732  21159.8  22401.6  21487.7  20965.2
  5738.403  5738.400  0.500  775.031  111.61  1.046365  0.093337  21193.2  22483.8  21698  21126.4
  5738.902  5738.900  0.500  776.348  111.6  1.041994  0.093207  21332.4  22483.8  21698  21126.4
  5739.403  5739.400  0.500  788.559  111.587  1.038965  0.092996  21601.5  22641  22139.3  21610.9
  5739.904  5739.900  0.500  794.648  111.559  1.035981  0.093057  21688.4  22584.9  22427.6  21949.1
  5740.405  5740.400  0.500  801.169  111.83  1.036560  0.093247  22205.9  23202.4  22387.4  21799
  5740.904  5740.900  0.500  800.225  111.831  1.035138  0.093712  21908.7  23111.4  22605  21865.1
  5741.398  5741.400  0.500  803.82  111.846  1.034733  0.094168  22025  23177.4  22490.8  22210.5
  5741.902  5741.900  0.500  803.186  111.852  1.034363  0.094531  22143.2  23264.6  22625.9  21804.1
  5742.404  5742.400  0.500  809.68  111.835  1.035082  0.095002  22378.1  23470.8  22552  22149.4
  5742.903  5742.900  0.500  805.902  111.824  1.036118  0.095604  21994.9  23276.6  22468.9  22378.6
  5743.401  5743.400  0.500  811.422  111.786  1.037016  0.096015  22226.4  23493.7  22747.1  22238.5
  5743.899  5743.900  0.500  808.426  111.809  1.038347  0.096359  22175.2  23187.5  22686.9  22339.6
  5744.399  5744.400  0.500  806.498  111.812  1.040190  0.096758  22106.6  23154.4  22635.9  22279.5
  5744.902  5744.900  0.500  806.61  111.783  1.041669  0.097278  22106.6  23154.4  22797.2  22107.4
  5745.406  5745.400  0.500  813.995  111.807  1.043009  0.097470  22422.2  23271.6  22828.1  22488.7
  5745.904  5745.900  0.500  816.037  111.749  1.042918  0.097675  22391.3  23392.7  22892.2  22514.8
  5746.398  5746.400  0.500  812.987  111.756  1.043365  0.097725  22307.3  23393.6  22649.9  22505.7
  5746.899  5746.900  0.500  818.456  111.753  1.043279  0.097974  22305.2  23772  22984.2  22403.7
  5747.403  5747.400  0.500  819.65  111.739  1.042619  0.097921  22520  23645.9  22940.2  22480.7
  5747.901  5747.900  0.500  818.523  111.681  1.040389  0.098050  22415  23657.1  22916.4  22424.8
  5748.402  5748.400  0.500  825.051  111.728  1.038207  0.097872  22578.5  23820.1  23102.7  22680
  5749.399  5749.390  0.500  834.443  111.738  1.032681  0.097527  23039.8  24113.4  23129.7  22956.3
  5750.400  5750.390  0.500  847.275  111.703  1.024163  0.097044  23294  24432.8  23698.1  23218.6
  5751.418  5751.410  0.500  867.536  111.677  1.013996  0.096078  23950.2  24999.2  24255.5  23678.9
  5752.473  5752.460  0.500  881.038  111.657  1.002961  0.095148  23950.2  25323.7  24741.3  24358.7
  5753.530  5753.520  0.500  892.231  111.66  0.993168  0.094209  24629.3  25697  24960.4  24339.8
  5754.613  5754.600  0.500  907.89  111.667  0.985478  0.093487  24807  26209.6  25529.1  24835.3
  5755.706  5755.700  0.500  908.688  111.569  0.979960  0.093174  24807  26209.6  25529.1  24835.3
  5756.832  5756.820  0.500  917.074  111.623  0.979703  0.093091  24986.6  26543  25877.6  24959.6
  5757.971  5757.960  0.500  918.133  111.555  0.981183  0.093334  25240.8  26504.2  25585.3  25091.8
  5759.121  5759.110  0.500  919.407  111.55  0.988312  0.094095  25240.8  26504.2  25660.2  25154.6
  5760.301  5760.290  0.500  905.511  111.571  0.999589  0.095204  24813.7  25815.4  25435  24964.5
  5761.491  5761.480  0.500  897.289  111.549  1.013337  0.096531  24813.7  25572.8  25336.9  24367.9
  5762.708  5762.700  0.500  881.723  111.521  1.027953  0.097960  23943.2  25496  24648.1  24243.7
  5763.940  5763.930  0.500  872.639  111.495  1.042387  0.099302  23943.2  25023.4  24445.7  23882.2
  5765.187  5765.180  0.500  864.188  111.492  1.055222  0.100731  23301.7  25023.4  24445.7  23578.9
  5766.460  5766.450  0.500  852.062  111.451  1.066980  0.101648  23214.9  24535.9  23910.4  23301.7
  5767.747  5767.740  0.500  847.186  111.468  1.076466  0.102602  23293.9  24535.9  23637.1  22967.3
  5769.062  5769.050  0.500  840.285  111.467  1.083614  0.103467  22950.3  24153.5  23444  23116.5
  5770.388  5770.380  0.500  837.987  111.422  1.088740  0.104141  22781.4  23983.4  23537.9  23067.4
  5771.739  5771.730  0.500  838.229  111.389  1.093734  0.104885  22917.7  24159.6  23285.9  23006.5
  5773.115  5773.100  0.500  836.955  111.446  1.099529  0.105607  23054.8  23826.3  23544  22850.3
  5774.478  5774.480  0.500  836.502  111.346  1.103438  0.106024  23054.8  24024.5  23272.6  22789.1
  5775.895  5775.890  0.500  834.551  111.317  1.109158  0.107032  22676.1  23929.5  23579  22715.2
  5777.316  5777.310  0.500  832.379  111.339  1.116115  0.107771  22766.4  24119.5  23130.5  22660.1
  5778.752  5778.750  0.500  831.674  111.308  1.122739  0.108584  22501.6  24118.7  23120.7  22831.3
  5780.221  5780.210  0.500  821.558  111.281  1.129980  0.109635  22561.1  23693.2  22796.4  22372.9
  5781.699  5781.690  0.500  824.326  111.279  1.136867  0.110594  22712.7  23678.1  22952.5  22386.8
  5783.194  5783.190  0.500  819.274  111.28  1.141411  0.111434  22634.6  23202.9  22980.6  22350.9
  5784.721  5784.710  0.500  826.285  111.248  1.144644  0.112081  22438.4  24023.5  23049.5  22410.9
  5786.257  5786.250  0.500  831.934  111.209  1.144946  0.112228  22735.2  23834.5  23313  22636.2
  5787.816  5787.810  0.500  841.348  111.205  1.141920  0.112195  22986.1  24117.6  23327.8  23130.5
  5789.388  5789.380  0.500  851.596  111.15  1.136570  0.111976  23320  24762.2  23602.3  22970.5
  5790.990  5790.980  0.500  851.705  111.136  1.129421  0.111371  23320  24762.2  23602.3  22970.5
  5792.596  5792.590  0.500  881.99  111.12  1.121978  0.110969  24010.7  25427.1  24474.1  24094.7
  5794.239  5794.230  0.500  887.649  111.109  1.113229  0.110277  24010.7  25427.1  24474.1  24713.4
  5795.888  5795.880  0.500  902.862  111.083  1.107501  0.109783  24439.6  26082.7  25257  24513.2
  5797.554  5797.550  0.500  906.483  111.069  1.103833  0.109848  24692  25933.7  25570.5  24486.3
  5799.248  5799.240  0.500  920.323  111.005  1.105427  0.110262  24950.9  26168.9  25668.5  25372.1
  5800.959  5800.950  0.500  918.838  110.958  1.111339  0.111074  24950.9  26239.8  25631.4  25130.8
  5802.691  5802.680  0.500  907.762  110.967  1.121883  0.112249  24611.6  25989.7  25445.2  24685.4
  5804.435  5804.430  0.500  903.876  110.95  1.135535  0.113935  24785.8  25780.4  25206.9  24512.3
  5806.196  5806.190  0.500  891.406  110.915  1.149342  0.115398  24288.1  25516.2  24832.5  24233.9
  5807.988  5807.980  0.500  880.589  110.857  1.160902  0.116959  23945.5  25277.9  24532.2  23863.5
  5809.792  5809.780  0.500  877.466  110.806  1.172036  0.118011  23896.8  25372  24375.2  23584.4
  5811.620  5811.610  0.500  875.2  110.808  1.180369  0.119054  23836.3  25318.8  24001.8  23822.4
  5813.459  5813.450  0.500  868.864  110.757  1.188035  0.120113  23419.5  25007.6  23966.8  23838.5
  5815.313  5815.310  0.500  875.249  110.728  1.195705  0.121156  23853.2  24871.7  24200.1  23989.8
  5817.195  5817.190  0.500  875.539  110.662  1.202352  0.121668  23885.2  25080.8  24200.1  23722.3
  5819.097  5819.090  0.500  865.907  110.638  1.209208  0.122720  23534.3  24792.5  24187.8  23288
  5821.021  5821.010  0.500  868.956  110.591  1.214580  0.123557  23452  24668.4  24192  23786.4
  5822.957  5822.950  0.500  868.014  110.524  1.220204  0.124441  23239.7  24894.5  24112.9  23689.3
  5824.921  5824.910  0.500  872.813  110.467  1.224698  0.125140  23646.4  24968.6  24285.9  23516.2
  5826.888  5826.880  0.500  871.085  110.423  1.228035  0.125638  23504.1  24995  23837.8  23850.7
  5828.888  5828.880  0.500  880.604  110.36  1.230113  0.126052  23850.2  24961.8  24357.2  24014.7
  5830.897  5830.890  0.500  885.736  110.307  1.231501  0.126611  23911  25128.9  24567.3  24095.9
  5832.926  5832.920  0.500  889.112  110.233  1.232306  0.127107  24336.6  25398.2  24394.3  23880.8
  5834.987  5834.980  0.500  892.884  110.185  1.234266  0.127442  24187.6  25304.1  24864.7  24025.8
  5837.056  5837.050  0.500  900.626  110.12  1.235325  0.128012  24666.1  25547.3  24655.5  24308.1
  5839.143  5839.140  0.500  907.51  110.016  1.235864  0.128365  24354.6  25683.6  25084.1  24718.6
  5841.251  5841.250  0.500  909.926  109.948  1.238432  0.129014  24645.3  25789.6  24980.8  24628.4
  5843.382  5843.380  0.500  913.677  109.891  1.241508  0.129662  24769.7  25936.6  25223.4  24475.4
  5845.522  5845.520  0.500  913.661  109.811  1.243906  0.130125  24633.1  25847.7  25058  24790.7
  5847.690  5847.690  0.500  919.973  109.721  1.246438  0.130883  24683.7  25847.7  25408.3  25000.8
  5849.883  5849.880  0.500  919.527  109.613  1.250886  0.131655  24649.4  26380.3  25094.1  24668.6
  5852.088  5852.080  0.500  921.85  109.508  1.255850  0.132495  24786.8  26210.1  25297.2  24655.6
  5854.305  5854.300  0.500  919.362  109.38  1.262276  0.133514  24455.3  25883.6  25410.2  24810.7
  5856.556  5856.550  0.500  918.418  109.245  1.269694  0.134660  24573.7  25851.9  25279.3  24627.5
  5858.817  5858.810  0.500  922.424  109.124  1.279022  0.135880  24762.2  25983.9  25250.3  24662.7
  5861.099  5861.090  0.500  919.196  108.944  1.290516  0.137378  24591.4  25698.6  25191.2  24659.5
  5863.398  5863.390  0.500  909.823  108.721  1.302256  0.139038  24174.5  25554.4  24901.8  24286.2
  5865.716  5865.710  0.500  901.961  108.437  1.310448  0.140470  24211.6  25190.9  24452.1  23951.7
  5868.057  5868.050  0.500  902.88  107.921  1.313560  0.141000  24211.6  25190.9  24085.9  23951.7
  5870.408  5870.400  0.500  907.104  106.422  1.303015  0.140310  23789.9  25058.4  23807.4  23880.3
  5872.786  5872.780  0.500  918.991  87.4302  1.074129  0.116057  19940.6  20773.7  19968.8  19664.5
  5875.178  5875.170  0.500  774.079  109.357  1.348031  0.145776  24244.2  20773.7  19968.8  19664.5
  5877.594  5877.590  0.500  914.317  109.436  1.351626  0.146560  24754.5  26095  24927.1  24282.3
  5880.023  5880.020  0.500  921.866  109.134  1.350742  0.146931  24726.6  26038.2  25238.4  24603.7
  5882.475  5882.470  0.500  929.693  108.836  1.349579  0.147234  24795.8  26130.1  25381.6  24877
  5884.957  5884.950  0.500  936.714  108.667  1.350501  0.147812  25051.9  26256.3  25507.9  24974.1
  5887.447  5887.440  0.500  942.199  108.447  1.353725  0.148472  25230.6  26239.3  25516.6  25192.2
  5889.956  5889.950  0.500  937.52  108.263  1.359889  0.149532  24837.6  26354.2  25399.4  24907.8
  5892.475  5892.470  0.500  936.826  108.063  1.367042  0.150850  24812.1  26162.1  25441.5  24820.8
  5895.025  5895.020  0.500  933.272  107.841  1.374495  0.151961  24757.8  25778.6  25467.4  24641.5
  5897.598  5897.590  0.500  940.891  107.632  1.381194  0.153034  24924.3  26247.1  25347.4  24750.7
  5900.177  5900.170  0.500  934.978  107.411  1.388933  0.154331  24610  26001.8  25048.1  24766.8
  5902.786  5902.780  0.500  936.678  107.162  1.394424  0.155286  24436  26113.2  25178.4  24648.8
  5905.410  5905.400  0.500  931.056  106.869  1.401133  0.156288  24589.8  25765.8  24887.9  24257.2
  5908.061  5908.050  0.500  932.77  106.502  1.405923  0.157545  24589.8  25711.7  24887.9  24152.1
  5910.732  5910.710  0.500  937.142  105.99  1.410168  0.158290  24344.9  25589.5  24969.9  24423.4
  5913.401  5913.390  0.500  933.603  104.827  1.404886  0.157951  24126.6  25095.9  24535.5  24108.9
  5916.103  5916.090  0.500  945.408  91.7593  1.236965  0.140027  21344.8  22344.1  21760.3  21300.8
  5918.818  5918.810  0.500  934.665  105.87  1.439688  0.163139  24415  25404.2  24813.9  24320.3
  5921.557  5921.550  0.500  936.724  106.772  1.460086  0.165998  24608.7  25809.6  24917.1  24680.6
  5924.306  5924.300  0.500  937.863  106.15  1.459502  0.166345  24510.7  25619.8  24906  24517.5
  5927.092  5927.080  0.500  945.09  105.3  1.454845  0.166668  24737.9  25652.6  24635.7  24491.5
  5929.881  5929.870  0.500  947.743  104.492  1.450009  0.166590  24445.3  25560.2  24635.7  24390.1
  5932.712  5932.690  0.500  946.052  105.722  1.472942  0.169766  24491.8  25905.7  25067.1  24553.5
  5935.533  5935.520  0.500  956.906  105.307  1.472118  0.170080  24859.4  25950.8  25370.5  24588.6
  5938.390  5938.370  0.500  955.994  104.596  1.467778  0.170049  24675.1  25914.8  24760.7  24642.6
  5941.275  5941.250  0.500  963.168  103.466  1.458087  0.169541  24663.7  25869.4  24782.6  24339.1
  5944.133  5944.140  0.500  969.046  97.9928  1.388356  0.161974  23509.9  24353.3  23608.7  23487.5
  5947.047  5947.050  0.500  969.879  104.659  1.492989  0.174420  25014  26130.1  25558.7  24803.9
  5949.966  5949.970  0.500  970.549  104.777  1.505703  0.176631  24794.2  26262.4  25608.6  25026
  5952.912  5952.920  0.500  974.14  104.252  1.508918  0.177397  24794.2  26434.2  25253.3  25074
  5955.882  5955.890  0.500  973.071  103.839  1.513792  0.178485  25111  25877.7  25181.2  24872.8
  5958.859  5958.870  0.500  973.301  103.437  1.517706  0.179710  24815  26076.9  25086  24697.6
  5961.889  5961.880  0.500  970.847  103.039  1.522682  0.180895  24564  25965.8  24918.8  24586.5
  5964.893  5964.900  0.500  975.457  102.63  1.527941  0.181962  24603.4  25867.5  25003.7  24636.3
  5967.960  5967.950  0.500  969.494  102.248  1.534126  0.183184  24452.9  25641.3  24717.4  24317
  5971.005  5971.010  0.500  971.976  101.859  1.540372  0.184726  24466.9  25503.1  24717.4  24317
  5974.084  5974.090  0.500  978.752  101.45  1.546425  0.185971  24449.4  25730.3  24855.5  24258.9
  5977.181  5977.190  0.500  973.413  100.996  1.550807  0.187276  24150.1  25548.1  24768.5  23844.5
  5980.300  5980.310  0.500  973.627  100.496  1.554091  0.188202  23942.5  25385.9  24668.3  23848.5
  5983.442  5983.450  0.500  977.191  99.8254  1.553767  0.188826  24089.8  25138.9  24349.1  23970.7
  5986.606  5986.600  0.500  982.82  98.4777  1.542838  0.187965  23908.6  25015.4  24111.6  23750.2
  5989.772  5989.780  0.500  993.219  82.9518  1.307138  0.160135  20358  21109.3  20679.7  20242.2
  5992.968  5992.970  0.500  985.613  100.685  1.597576  0.196132  24522.8  25954.6  24625.5  24133.9
  5996.194  5996.190  0.500  989.118  99.9348  1.594638  0.196374  24447.7  25273.9  24679.6  24446.1
  5999.411  5999.420  0.500  985.648  99.3502  1.594414  0.196569  23967.5  25316.9  24648.3  23991.6
  6002.693  6002.670  0.500  993.62  98.7691  1.593919  0.197439  23800.9  25316.9  24820.4  24200.8
  6005.939  6005.950  0.500  999.688  98.6134  1.602357  0.198979  24120.2  25291.9  24758.5  24412
  6009.226  6009.240  0.500  994.744  98.1816  1.606013  0.200237  23971.4  25067.6  24630.1  23996.5
  6012.540  6012.550  0.500  1006.71  97.7138  1.610050  0.201454  24099  25476.9  24630.2  24163.7
  6015.858  6015.870  0.500  1009.91  97.2417  1.613548  0.202669  24276.1  25349.7  24470.8  24108.5
  6019.217  6019.220  0.500  1006.61  96.8234  1.617216  0.203879  24019  24900.1  24328.8  24215.5
  6022.585  6022.590  0.500  1000.71  96.3953  1.621140  0.205214  23593.5  24985.5  23820.3  24064.4
  6025.961  6025.970  0.500  1012.59  95.9425  1.624985  0.206227  23894.3  25110.5  24405.7  23740.2
  6029.369  6029.380  0.500  1015.51  95.4875  1.629408  0.207557  23823.7  25098.3  24259.6  23787
  6032.795  6032.800  0.500  1007.36  95.0372  1.634439  0.209070  23604.6  24704.9  23824.1  23602.8
  6036.242  6036.250  0.500  1008.94  94.6001  1.639766  0.210439  23493.8  24636.9  23876.3  23438.7
  6039.696  6039.710  0.500  1010.72  94.1152  1.644814  0.211884  23515.1  24708  23729  23172.4
  6043.178  6043.190  0.500  1014.91  93.6756  1.650310  0.213284  23397.9  24592.7  23755.1  23326.5
  6046.681  6046.690  0.500  1012.37  93.2318  1.655604  0.214810  23267.4  24349.5  23643.9  23124.3
  6050.201  6050.210  0.500  1019.28  92.7722  1.659977  0.216069  23190.9  24309.4  23992  23068.2
  6053.738  6053.750  0.500  1020.86  92.2381  1.662745  0.217073  23093.1  24369.4  23613.6  23086.1
  6057.288  6057.300  0.500  1027.61  91.6551  1.664992  0.218169  23060.8  24403.4  23552.4  23169.1
  6060.872  6060.880  0.500  1029.86  91.0746  1.666599  0.218874  22938.4  24310.2  23622.5  22922.9
  6064.472  6064.480  0.500  1026.74  90.572  1.668374  0.219849  22870.2  24123.1  23297.4  22703.7
  6068.079  6068.090  0.500  1028.92  90.1013  1.670938  0.221327  22882.2  24266.2  23103  22455.4
  6071.706  6071.720  0.500  1037.14  89.6272  1.674710  0.222549  23003.7  23671.6  23372.1  22908.7
  6075.366  6075.380  0.500  1035  89.164  1.677803  0.223790  22685.8  23816.6  23254.1  22528.3
  6079.036  6079.050  0.500  1035.73  88.6384  1.680409  0.224794  22622.1  23458.3  23213.9  22511.3
  6082.726  6082.740  0.500  1041.33  88.1367  1.683057  0.226390  22823.1  23746.5  22971.6  22238
  6086.436  6086.450  0.500  1045.77  87.6609  1.687347  0.227456  22299.9  23747.4  22992.7  22633.3
  6090.163  6090.180  0.500  1049.78  87.1974  1.691998  0.228956  22477.1  23473.2  23220.8  22367.1
  6093.905  6093.920  0.500  1044.77  86.7091  1.695050  0.230496  22310.9  23463.1  22586.3  22230.9
  6097.671  6097.690  0.500  1046.54  86.1764  1.699075  0.231889  22124.7  23185.8  22732.2  22143.8
  6101.469  6101.480  0.500  1046.83  85.7126  1.703071  0.233177  22031.6  23117.8  22407.1  22169.8
  6105.271  6105.280  0.500  1055.98  85.1796  1.706283  0.234618  22302.2  23353.9  22548  21744.3
  6109.096  6109.110  0.500  1057.25  84.6294  1.708616  0.235776  22182.7  22982.5  22265.8  22043.5
  6112.937  6112.950  0.500  1056.71  84.0975  1.712181  0.236994  21564.5  23231.6  22130.5  21940.4
  6116.792  6116.810  0.500  1056.95  83.5423  1.714963  0.238292  22038.3  22809.3  22103.7  21348.9
  6120.673  6120.690  0.500  1056.13  82.9802  1.717269  0.239378  21707.2  22800.3  21667.2  21462.9
  6124.580  6124.590  0.500  1055.55  82.4263  1.719886  0.240662  21503.9  22538  21579.1  21383.8
  6128.498  6128.510  0.500  1055.08  81.8515  1.721465  0.241687  21041  22327.6  21720  21271.6
  6132.433  6132.450  0.500  1058.69  81.2835  1.722816  0.242769  21229.9  22381.7  21452.9  20989.4
  6136.393  6136.410  0.500  1058.43  80.6913  1.723692  0.243820  20897  21922  21452.9  21134.2
  6140.359  6140.380  0.500  1062.33  80.0453  1.722699  0.244807  20897  21922  21128.4  21087.3
  6144.361  6144.380  0.500  1064.39  79.378  1.720364  0.245303  20942.2  21704  21017.3  20826.1
  6148.374  6148.390  0.500  1062.01  78.6718  1.717130  0.245835  20833.5  21482.8  20932.2  20301.6
  6152.417  6152.430  0.500  1067.84  77.9145  1.705992  0.244988  20578.1  21482.8  20769  20370.7