File: xdidata/Ce/Ce-L3-Ce2SiO7.xdi
# XDI/1.0 BlueSky/1.10.0 BMM/2023-1.0-py310-tiled
# Beamline.name: BMM (06BM) -- Beamline for Materials Measurement (NIST)
# Beamline.xray_source: NSLS-II three-pole wiggler
# Beamline.collimation: paraboloid mirror, 5 nm Rh on 30 nm Pt
# Beamline.focusing: not in use
# Beamline.harmonic_rejection: flat mirror, Si stripe, pitch = 7.0 mrad relative to beam
# Beamline.software: Bluesky 1.10.0, Ophyd 1.7.0, DataBroker 2.0.0b13, Python 3.10.8, 2023-1.0-py310-tiled
# Detector.I0: 10 cm N2
# Detector.I1: 25 cm N2
# Detector.I2: 25 cm N2
# Detector.fluorescence: SII Vortex ME4 (4-element silicon drift)
# Detector.deadtime_correction: Xspress3
# Element.symbol: Ce
# Element.edge: L3
# Element.reference: Ce
# Element.reference_material: CeO2
# Facility.name: NSLS-II
# Facility.energy: 3.0
# Facility.current: 399.7
# Facility.mode: top-off
# Facility.GUP: 123456
# Facility.SAF: 301027
# Facility.cycle: 2023-2
# Mono.name: Si(111)
# Mono.d_spacing: 3.13519
# Mono.encoder_resolution: 0.0000050 deg/ct
# Mono.angle_offset: 16.0754 deg
# Mono.scan_mode: pseudo channel cut
# Mono.scan_type: step
# Mono.direction: forward in energy
# Sample.name: Ce2SiO7
# Sample.prep: Powder in PEG pellet
# Sample.x: 142.329 mm
# Sample.y: 114.126 mm
# Sample.SDD_position: 45.000 mm
# Scan.experimenters: Bruce Ravel
# Scan.edge_energy: 5723.4
# Scan.start_time: 2023-05-06T11:00:13
# Scan.end_time: 2023-05-06T11:05:54
# Scan.transient_id: 74749
# Scan.uid: 6b3cb612-6d4e-4f77-87d1-a0faeda308f1
# Scan.plot_hint: (Ce1+Ce2+Ce3+Ce4)/I0  --  ($8+$9+$10+$11)/$5
# Column.1: energy eV
# Column.2: requested_energy eV
# Column.3: measurement_time seconds
# Column.4: xmu
# Column.5: I0 nA
# Column.6: It nA
# Column.7: Ir nA
# Column.8: Ce1
# Column.9: Ce2
# Column.10: Ce3
# Column.11: Ce4
# ///////////
# sample courtesy Martin Stennett, University of Sheffield
# -----------
# energy  requested_energy  measurement_time  xmu  I0  It  Ir  Ce1  Ce2  Ce3  Ce4
  5523.408  5523.400  0.500  3.137447  109.018  2.036670  0.150612  76.0074  94.0093  89.011  83.0094
  5533.408  5533.400  0.500  3.281531  109.412  2.094199  0.156799  76.0074  94.0093  92.0112  97.0111
  5543.411  5543.400  0.500  3.135020  109.74  2.150903  0.163674  75.0071  84.0079  90.0105  95.0106
  5553.412  5553.400  0.500  3.051095  110.136  2.210847  0.170164  96.0092  90.0085  77.0089  73.008
  5563.410  5563.400  0.500  3.549726  110.724  2.275980  0.177751  87.0083  106.01  95.0113  105.012
  5573.413  5573.400  0.500  3.541229  110.991  2.335697  0.184945  94.0096  89.0091  103.013  107.013
  5583.407  5583.400  0.500  3.587841  111.221  2.395381  0.192230  84.0085  107.011  110.014  98.0115
  5593.407  5593.400  0.500  3.751572  111.432  2.456083  0.199506  93.0095  110.011  115.014  100.012
  5603.407  5603.400  0.500  3.773439  111.582  2.516030  0.207345  111.011  113.011  88.011  109.013
  5613.405  5613.400  0.500  3.659716  111.77  2.579913  0.215242  107.011  89.0093  120.015  93.0113
  5623.424  5623.400  0.500  4.668189  111.833  2.638326  0.223037  108.011  132.013  137.017  145.017
  5633.388  5633.400  0.500  4.948598  111.965  2.700858  0.231300  131.015  138.015  145.019  140.018
  5643.388  5643.400  0.500  6.227114  112.104  2.765708  0.239890  160.017  198.022  165.021  175.022
  5653.394  5653.400  0.500  6.251265  112.151  2.827093  0.248518  178.02  176.019  186.025  161.02
  5663.399  5663.400  0.500  8.691429  112.193  2.890980  0.257129  253.028  221.024  247.032  254.032
  5673.397  5673.400  0.500  11.8315  112.257  2.953844  0.266319  325.038  339.039  328.045  336.044
  5683.402  5683.400  0.500  16.4172  112.275  3.013874  0.274966  452.054  480.057  431.061  480.066
  5693.395  5693.400  0.500  25.9824  112.245  3.068050  0.283296  718.088  711.086  732.107  755.107
  5695.396  5695.400  0.500  29.0814  112.217  3.074996  0.284846  809.099  847.103  823.12  784.11
  5697.393  5697.400  0.500  31.7999  112.248  3.085400  0.286192  892.111  910.112  950.138  817.115
  5699.390  5699.400  0.500  31.8026  112.238  3.092739  0.287861  892.111  910.112  950.138  817.115
  5701.400  5701.400  0.500  41.0182  112.234  3.096039  0.288660  1111.14  1159.15  1166.18  1167.17
  5703.392  5703.400  0.500  46.143  112.238  3.099827  0.289585  1269.45  1339.18  1293.2  1277.19
  5705.401  5705.400  0.500  54.0892  112.22  3.101281  0.290531  1482.2  1542.21  1566.25  1479.22
  5707.399  5707.400  0.500  65.4692  112.207  3.097653  0.290791  1881.26  1923.26  1742.28  1799.28
  5709.397  5709.400  0.500  77.4526  112.202  3.088618  0.290196  2135.3  2311.33  2156.35  2087.34
  5711.400  5711.400  0.500  95.8458  112.227  3.070117  0.289448  2612.13  2777.42  2745.49  2621.45
  5713.397  5713.400  0.500  125.264  112.199  3.037746  0.286828  3384.56  3584.59  3600.69  3484.64
  5713.892  5713.900  0.500  134.133  112.171  3.024281  0.285823  3763.72  3872.65  3758.72  3650.67
  5714.391  5714.400  0.500  142.853  112.227  3.011372  0.284486  3949.67  4141.72  3966.78  3973.76
  5714.888  5714.900  0.500  154.519  112.255  2.994703  0.283143  4344.99  4510.8  4276.86  4212.8
  5715.388  5715.400  0.500  167.399  112.215  2.973152  0.280995  4639.84  4944.9  4543.94  4655.94
  5715.891  5715.900  0.500  177.883  112.231  2.951385  0.279114  4639.84  5314.01  4954.06  5056.04
  5716.387  5716.400  0.500  200.677  112.218  2.923387  0.276453  5559.86  5921.17  5552.23  5486.17
  5716.889  5716.900  0.500  223.123  112.219  2.889959  0.273552  6180.67  6465.31  6231.42  6161.36
  5717.387  5717.400  0.500  246.225  112.13  2.847272  0.269516  6776.57  7173.53  6786.63  6872.6
  5717.891  5717.900  0.500  273.157  112.216  2.801815  0.265078  7651.22  8035.81  7464.88  7500.83
  5718.392  5718.400  0.500  309.317  112.221  2.746401  0.260035  8620.26  8947.17  8581.29  8563.23
  5718.895  5718.900  0.500  339.971  112.206  2.688185  0.254325  9282.89  9957.51  9523.67  9382.56
  5719.393  5719.400  0.500  375.696  112.207  2.631917  0.248977  10234.8  10871.9  10619.1  10430
  5719.894  5719.900  0.500  415.247  112.197  2.574046  0.243292  11416.8  12108.4  11620.6  11443.5
  5720.393  5720.400  0.500  460.958  112.202  2.502597  0.236412  12632.9  13560.1  12913.2  12614
  5720.893  5720.900  0.500  515.825  112.198  2.415704  0.228020  14279.4  15135.1  14355.2  14105
  5721.393  5721.400  0.500  582.505  112.185  2.310988  0.218139  16148.9  16843  16333.3  16023.1
  5721.895  5721.900  0.500  650.532  112.187  2.182445  0.205919  16148.9  19803.7  18751.9  18276.6
  5722.393  5722.400  0.500  775.726  112.186  2.028740  0.191349  21331.2  22702.1  21632.3  21359.9
  5722.896  5722.900  0.500  912.153  112.185  1.841810  0.173675  25374.6  26566.4  25484.8  24904.2
  5723.395  5723.400  0.500  1073.92  112.183  1.626244  0.153016  29965.7  30954.7  30205.4  29350.6
  5723.898  5723.900  0.500  1257.89  112.176  1.410154  0.132267  34644.4  36791.1  34824  34844.8
  5724.395  5724.400  0.500  1435.97  112.182  1.214433  0.113627  39892.3  41396.6  40429.5  39372.4
  5724.893  5724.900  0.500  1589.17  112.157  1.060237  0.098432  44165.1  46340.4  44536.7  43194.1
  5725.391  5725.400  0.500  1700.18  112.17  0.954206  0.088121  46733.4  49620.8  47719.9  46635.6
  5725.901  5725.900  0.500  1741.88  112.189  0.879031  0.080372  46733.4  51891.8  47719.9  49074.7
  5726.398  5726.400  0.500  1844.93  112.185  0.837228  0.075867  50975.2  53510.5  52006  50481.2
  5726.895  5726.900  0.500  1847.24  112.193  0.825724  0.074311  50975.2  53673.7  51949.2  50650.3
  5727.395  5727.400  0.500  1816.09  112.241  0.845725  0.075670  50062.6  52776.8  51086.3  49915
  5727.899  5727.900  0.500  1757.29  112.214  0.891207  0.079414  48688.7  50932  49412.6  48159.1
  5728.400  5728.400  0.500  1677.4  112.234  0.958687  0.085053  46425.5  48788.2  47054.8  45992.4
  5728.899  5728.900  0.500  1583.83  112.189  1.040634  0.092123  43863.4  46365.2  44212.1  43248
  5729.398  5729.400  0.500  1492.98  112.23  1.129355  0.099540  41490.5  43262.9  41935.2  40869.3
  5729.899  5729.900  0.500  1404.57  112.228  1.220865  0.107263  38937  40882.3  39313.7  38499.7
  5730.401  5730.400  0.500  1311.98  112.238  1.308468  0.114666  36263.8  38097.6  36841.1  36052.3
  5730.898  5730.900  0.500  1238.62  112.237  1.388883  0.121444  34547  35960.4  34525.6  33985.9
  5731.399  5731.400  0.500  1185.4  112.223  1.465567  0.128170  32947.1  34320.1  33299.6  32461.8
  5731.897  5731.900  0.500  1127.54  112.19  1.533493  0.134249  31459  32525.4  31664.1  30850.2
  5732.404  5732.400  0.500  1081.73  112.199  1.595744  0.140107  30102.5  31628.2  30343.3  29295.5
  5732.901  5732.900  0.500  1031.3  112.224  1.653342  0.145796  28897.6  29650.3  29040.9  28148.2
  5733.400  5733.400  0.500  996.797  112.25  1.703590  0.150905  27685.9  29036.5  27873.8  27294.2
  5733.903  5733.900  0.500  964.357  112.226  1.747384  0.155331  26743.8  28014.5  27103.1  26364.4
  5734.404  5734.400  0.500  943.564  112.22  1.786001  0.159109  26304.7  27427.2  26221.4  25933
  5734.903  5734.900  0.500  922.199  112.198  1.815800  0.162058  25671.3  26982.4  25621.8  25193.3
  5735.404  5735.400  0.500  922.213  112.196  1.839920  0.164238  25671.3  26982.4  25621.8  25193.3
  5735.904  5735.900  0.500  897.612  112.206  1.857905  0.165463  24904.2  26160  24987.3  24665.9
  5736.405  5736.400  0.500  891.344  112.193  1.868060  0.166042  24577  25875.6  25065  24484.6
  5736.902  5736.900  0.500  886.14  112.185  1.875227  0.166679  24750.9  25775.6  24785.9  24099.4
  5737.405  5737.400  0.500  887.089  112.171  1.879113  0.166714  24494.3  25789.7  24818  24403.6
  5737.905  5737.900  0.500  881.694  112.193  1.883592  0.166978  24230.3  25719.6  24799  24171.4
  5738.404  5738.400  0.500  885.734  112.211  1.887031  0.167419  24435.5  25790.6  24903  24260.5
  5738.899  5738.900  0.500  881.921  112.208  1.890229  0.167930  24188.2  25791.6  24647.8  24331.4
  5739.403  5739.400  0.500  879.453  112.202  1.892157  0.168536  24535.6  25471.4  24551.8  24117.4
  5739.908  5739.900  0.500  887.242  112.174  1.894422  0.169137  24535.6  25958.7  24652.8  24378.5
  5740.406  5740.400  0.500  886.649  112.198  1.897922  0.170165  24603.8  25889.6  24652.8  24334.5
  5740.904  5740.900  0.500  881.98  112.185  1.901009  0.170946  24457.1  25704.6  24718.9  24064.3
  5741.400  5741.400  0.500  885.158  112.239  1.905629  0.172438  24465.6  25829.7  24718.9  24334.6
  5741.900  5741.900  0.500  888.301  112.229  1.910158  0.173359  24782.7  25995.8  24653.9  24260.5
  5742.400  5742.400  0.500  875.821  112.228  1.914208  0.174915  24186  25829.5  24320.6  23955.2
  5742.903  5742.900  0.500  888.399  112.212  1.918893  0.175968  24516.7  26020.7  24838  24313.5
  5743.403  5743.400  0.500  876.127  112.197  1.921975  0.177061  24414.7  25579.5  24362.6  23942.3
  5743.897  5743.900  0.500  878.043  112.2  1.926332  0.177806  24229.2  25239.1  24782.7  24265.4
  5744.399  5744.400  0.500  880.69  112.158  1.929257  0.178551  24554  25465.3  24555.7  24201.3
  5744.898  5744.900  0.500  878.812  112.185  1.932421  0.179501  24428.8  25503.3  24514.6  24143.2
  5745.402  5745.400  0.500  881.133  112.178  1.933244  0.179850  24384.4  25712.5  24508.6  24238.4
  5745.906  5745.900  0.500  878.707  112.136  1.934948  0.180412  24261.8  25684.6  24347.6  24240.4
  5746.401  5746.400  0.500  882.993  112.137  1.933765  0.180361  24401.1  25653.4  24797.9  24164.2
  5746.898  5746.900  0.500  883.017  112.131  1.933248  0.180376  24459  25686.7  24750.9  24117.4
  5747.399  5747.400  0.500  886.754  112.118  1.930378  0.180548  24616.1  25918.7  24753.9  24132.4
  5747.901  5747.900  0.500  895.033  112.136  1.925174  0.180183  24605.8  26060.9  25060.3  24638.8
  5748.404  5748.400  0.500  901.395  112.093  1.918092  0.179746  25026.5  26088  25199.2  24726.8
  5749.397  5749.390  0.500  913.744  112.07  1.901387  0.178487  25313.7  26439.2  25584.8  25065.2
  5750.402  5750.390  0.500  939.488  112.041  1.879879  0.176952  26242.2  27516.1  26063.2  25439.6
  5751.417  5751.410  0.500  954.919  112.026  1.855085  0.175059  26441.4  27910.5  26668.6  25955.1
  5752.473  5752.460  0.500  958.614  112.011  1.830207  0.172636  26441.4  28309.9  26668.6  25955.1
  5753.527  5753.520  0.500  1002.26  111.973  1.806763  0.170572  27516  29254.9  28217.3  27238.5
  5754.611  5754.600  0.500  1018.07  111.952  1.786359  0.168632  28279.3  29594.2  28292.6  27809
  5755.707  5755.700  0.500  1036.26  111.919  1.769693  0.167350  28728.6  30226.8  29066.1  27956.2
  5756.832  5756.820  0.500  1046.16  111.884  1.758833  0.166252  29090.5  30248.7  29139.1  28570.5
  5757.969  5757.960  0.500  1053.35  111.814  1.752788  0.165752  29125.6  30588.2  29271.4  28794.8
  5759.121  5759.110  0.500  1054.13  111.809  1.753811  0.166250  28947.2  30793.1  29294.4  28825.9
  5760.298  5760.290  0.500  1048.1  111.776  1.762913  0.166802  29088.5  30197.9  29215.3  28649.8
  5761.488  5761.480  0.500  1041.07  111.75  1.777864  0.168290  28833.6  30208.6  28911.8  28385.3
  5762.709  5762.700  0.500  1024.3  111.736  1.801111  0.170780  28629.7  29477.1  28521.6  27823
  5763.944  5763.930  0.500  1017.77  111.695  1.827629  0.173293  28629.7  29477.1  28196.4  27375.6
  5765.173  5765.180  0.500  994.776  111.563  1.852859  0.175588  27525.3  28617.4  27481.7  27355.4
  5766.451  5766.450  0.500  975.771  111.543  1.879477  0.178311  26793.2  28510  27105.3  26431.6
  5767.740  5767.740  0.500  967.316  111.523  1.903635  0.180639  26752.4  27697.5  27155.2  26272.4
  5769.056  5769.050  0.500  955.852  111.505  1.922080  0.182493  26122  27785.3  26744.7  25930.1
  5770.388  5770.380  0.500  950.439  111.474  1.935641  0.184132  26154.5  27559.4  26262.5  25973.1
  5771.737  5771.730  0.500  951.478  111.432  1.944517  0.185320  26306.3  27620.1  26278.3  25820.9
  5773.109  5773.100  0.500  950.4  111.406  1.951654  0.186449  26115.8  27630.4  26454.6  25679.9
  5774.489  5774.480  0.500  955.878  111.386  1.958645  0.187265  26448.4  27630.4  26651.6  25740.9
  5775.894  5775.890  0.500  954.529  111.336  1.963830  0.188054  26448.4  27411  26651.6  25761.9
  5777.322  5777.310  0.500  950.988  111.319  1.970266  0.189273  26456.9  27387.1  26204.3  25815
  5778.756  5778.750  0.500  957.345  111.263  1.974828  0.190267  26456.9  27547.5  26681.9  25831.2
  5780.218  5780.210  0.500  949.535  111.233  1.979926  0.191252  26063.1  27444.3  26274.5  25838
  5781.697  5781.690  0.500  952.579  111.231  1.985984  0.192233  26202.8  27503.4  26409.7  25840.1
  5783.194  5783.190  0.500  961.434  111.176  1.991427  0.193199  26289.2  28029.6  26505.6  26064.2
  5784.715  5784.710  0.500  964.255  111.142  1.994614  0.194085  26447.5  28029.6  26654.9  26037.3
  5786.256  5786.250  0.500  965.378  111.105  1.994596  0.194605  26754.1  27882.6  26622.8  25999.2
  5787.817  5787.810  0.500  965.721  111.434  1.999952  0.195516  26524.2  27766.6  27178.3  26145.4
  5789.388  5789.380  0.500  975.265  111.428  2.000088  0.195894  26753  28239.8  27156.2  26522.6
  5790.986  5790.980  0.500  976.301  111.376  1.998685  0.196090  26753  28185  27197.4  26600.7
  5792.597  5792.590  0.500  981.74  111.334  1.999883  0.196630  26871.1  28393  27479.5  26557.7
  5794.236  5794.230  0.500  984.795  111.316  2.001744  0.197416  26864.1  28617.4  27532.8  26609
  5795.887  5795.880  0.500  995.273  111.266  2.004448  0.197908  27265.3  28887.6  27439.6  27147.2
  5797.557  5797.550  0.500  987.757  111.225  2.006660  0.198549  27169.1  28521.1  27268.4  26905.1
  5799.245  5799.240  0.500  989.213  111.178  2.008481  0.199270  27169.1  28521.1  27268.4  27020.3
  5800.959  5800.950  0.500  1002.56  111.141  2.010772  0.199940  27764.9  28576.5  27825.9  27258.5
  5802.688  5802.680  0.500  999.247  111.057  2.013074  0.200515  27492.6  28633.3  27536.7  27310.4
  5804.440  5804.430  0.500  1007.06  111.102  2.018962  0.201559  27840  28912.7  27670  27462.7
  5806.194  5806.190  0.500  1005.87  111.065  2.025697  0.202575  27840  28912.7  27894.1  27069.3
  5807.987  5807.980  0.500  1007.5  110.997  2.032382  0.203318  27241.4  29184.9  27784  27618.8
  5809.788  5809.780  0.500  1013.44  110.937  2.039526  0.204441  27772.9  29121.8  28367.5  27165.4
  5811.619  5811.610  0.500  1012.39  110.895  2.046410  0.205633  27616.2  29040.5  28078.3  27534.6
  5813.456  5813.450  0.500  1010.4  110.869  2.052875  0.206554  27598  29263.8  27747  27412.5
  5815.316  5815.310  0.500  1014.55  110.824  2.061053  0.207563  27625.9  29599.2  27865.1  27346.4
  5817.196  5817.190  0.500  1008.7  110.762  2.068734  0.208719  27378.9  28794.8  28070.6  27481.7
  5819.096  5819.090  0.500  1002.63  110.706  2.079614  0.209932  27306.2  28794.8  27603.7  27292.4
  5821.018  5821.010  0.500  1019.97  110.634  2.089430  0.211562  27885.9  29546.3  28017.3  27393.8
  5822.957  5822.950  0.500  1015.95  110.591  2.097685  0.212670  28054.4  29022.9  28057.2  27219.5
  5824.918  5824.910  0.500  1011.18  110.531  2.105297  0.213975  27498.9  29241.8  27805  27220.5
  5826.890  5826.880  0.500  1013.05  110.47  2.111685  0.214788  27539.9  29115.8  27822  27434.6
  5828.889  5828.880  0.500  1018.4  110.405  2.116917  0.216073  27539.9  29155.8  28232.3  27507.7
  5830.894  5830.890  0.500  1017.27  110.352  2.124458  0.217355  27916.9  29120.8  27789.1  27431.7
  5832.931  5832.920  0.500  1014.27  110.288  2.132634  0.218626  27982.3  29087.7  27667.9  27123.4
  5834.987  5834.980  0.500  1018.47  110.213  2.138565  0.219841  28016.6  28901.6  27898.2  27432.6
  5837.054  5837.050  0.500  1021.05  110.147  2.147874  0.221308  27787.4  29170  28006.2  27501.8
  5839.145  5839.140  0.500  1021.26  110.053  2.155422  0.222742  27787.4  29164.1  28152.4  27289.7
  5841.255  5841.250  0.500  1030.34  109.995  2.163033  0.224040  28154.6  29529.5  27981.4  27666.1
  5843.384  5843.380  0.500  1024.49  109.888  2.168382  0.224861  28103.5  29078  27953.4  27443.8
  5845.522  5845.520  0.500  1025.12  109.82  2.171535  0.226229  28103.5  29078  27953.4  27443.8
  5847.693  5847.690  0.500  1034.9  109.716  2.173787  0.227294  27932.6  29519.3  28215.6  27878.2
  5849.881  5849.880  0.500  1035.17  109.646  2.180120  0.228511  28351.9  29233.2  28345.6  27572
  5852.082  5852.080  0.500  1041.92  109.525  2.186038  0.229373  28024.9  29868.6  28461.6  27761
  5854.308  5854.300  0.500  1037.49  109.403  2.193522  0.230910  28046.3  29320.2  28436.6  27701
  5856.557  5856.550  0.500  1039.36  109.246  2.200414  0.232243  27988.9  29395.2  28376.6  27785
  5858.818  5858.810  0.500  1037.94  109.109  2.208453  0.233577  27952.7  29554.2  28112.7  27628
  5861.101  5861.090  0.500  1043.79  108.944  2.215995  0.234975  28054  29564.3  28188.5  27908.1
  5863.395  5863.390  0.500  1045.78  108.724  2.223710  0.236580  28101.1  29379.2  28193.5  28027.3
  5865.717  5865.710  0.500  1049.82  108.41  2.226959  0.237583  27985.7  29436.2  28464.6  27924.1
  5868.060  5868.050  0.500  1047.19  107.814  2.224654  0.237755  27973.4  29575.3  27931.3  27421.8
  5870.409  5870.400  0.500  1056.74  106.38  2.204522  0.236229  27705.2  29400.1  27950.1  27360.6
  5872.784  5872.780  0.500  1062.89  87.2943  1.818552  0.195673  22994.1  24182.8  23049  22558.6
  5875.175  5875.170  0.500  1055.48  109.338  2.286588  0.246212  28396.3  30219.2  28447.1  28341.8
  5877.594  5877.590  0.500  1058.38  109.487  2.297043  0.248046  28722.8  30045  28866.1  28244.6
  5880.028  5880.020  0.500  1056.01  109.141  2.300944  0.249297  28719.4  29733.6  28791  28010.3
  5882.476  5882.470  0.500  1062.35  108.873  2.305307  0.250348  28417.6  30133  29097.4  28012.5
  5884.957  5884.950  0.500  1057.29  108.633  2.310704  0.251623  28417.6  30133  28563.9  27742.2
  5887.446  5887.440  0.500  1061.13  108.404  2.318695  0.253292  28409.1  29784.5  28867.3  27970.3
  5889.956  5889.950  0.500  1056.24  108.193  2.325790  0.254755  28510.8  29611.4  28339.9  27816.3
  5892.473  5892.470  0.500  1065.05  108.005  2.332720  0.256165  28510.8  29809.7  28659  28050.4
  5895.025  5895.020  0.500  1061.74  107.806  2.340800  0.257794  28354.8  29718.6  28463  27925.3
  5897.595  5897.590  0.500  1060.62  107.583  2.348837  0.259384  28245.4  29718.6  28504.7  27635
  5900.177  5900.170  0.500  1062.17  107.303  2.355910  0.260735  28236.9  29588.6  28357.8  27790.3
  5902.789  5902.780  0.500  1066.55  107.099  2.365335  0.262443  28182  29964.7  28366.6  27713
  5905.410  5905.400  0.500  1074.31  106.821  2.371786  0.263751  28424.1  29852.6  28416.6  28065.3
  5908.068  5908.050  0.500  1077.05  106.453  2.376138  0.265003  28390.1  29561.4  28749.2  27954.3
  5910.723  5910.710  0.500  1071.05  105.932  2.377202  0.265908  28264.3  29256.2  28212.7  27725.1
  5913.400  5913.390  0.500  1077.36  104.792  2.363337  0.265288  27939.4  29369.2  28205.5  27384.7
  5916.102  5916.090  0.500  1088.79  91.7271  2.078107  0.234309  24828.1  25947.7  25005  24091.3
  5918.817  5918.810  0.500  1044.4  105.899  2.410267  0.271970  28261.7  25947.7  28382.6  28008.3
  5921.571  5921.550  0.500  1078.97  106.736  2.441560  0.276364  28426.7  29988.5  28781.9  27968.2
  5924.314  5924.300  0.500  1079.43  106.099  2.439413  0.277171  28537.8  29652.5  28556.9  27779.2
  5927.102  5927.080  0.500  1081.5  105.276  2.432042  0.277261  28075.1  29637.6  28423  27720.3
  5929.895  5929.870  0.500  1083.7  104.455  2.425191  0.277495  28075.1  29302.1  28213.4  27607.9
  5932.703  5932.690  0.500  1084.07  105.726  2.466958  0.283108  28536.4  29681.5  28370.7  28026.4
  5935.541  5935.520  0.500  1086.94  105.339  2.470761  0.284270  28274.1  29735.5  28482.7  28005.3
  5938.384  5938.370  0.500  1089.18  104.622  2.465836  0.284703  28240.8  29581.4  28379.9  27750.1
  5941.272  5941.250  0.500  1100.98  103.456  2.449660  0.283803  28204.6  29535.2  28313.4  27850
  5944.138  5944.140  0.500  1100.46  97.9445  2.331536  0.270783  26773.9  28257.9  26745  26007.4
  5947.043  5947.050  0.500  1104.54  104.641  2.502238  0.291534  28148.9  30025.9  28917.3  28487.8
  5949.962  5949.970  0.500  1093.66  104.768  2.518125  0.294232  28607.3  29876.8  28279.8  27816.4
  5952.926  5952.920  0.500  1108.71  104.27  2.518857  0.295402  28778.6  30104  28736.2  27986.4
  5955.882  5955.890  0.500  1111.51  103.822  2.523259  0.296753  28363.7  29936.7  28676.8  28421.6
  5958.859  5958.870  0.500  1109.36  103.446  2.529191  0.298243  28232.9  29899.6  28660  27966.3
  5961.872  5961.880  0.500  1114.37  103.058  2.534121  0.299716  28232.9  30081  28573.9  27956.4
  5964.893  5964.900  0.500  1112.64  102.658  2.539106  0.301149  28221.7  29531.4  28622  27846.2
  5967.943  5967.950  0.500  1117.37  102.311  2.545278  0.302835  28214.2  30048.8  28269.6  27787.2
  5971.002  5971.010  0.500  1116.02  101.916  2.550203  0.304529  28266  29575.3  28275.6  27623
  5974.075  5974.090  0.500  1116.47  101.502  2.555116  0.306241  28006.7  29459.3  28214.5  27642.9
  5977.181  5977.190  0.500  1123.62  101.028  2.558268  0.307651  27804.8  29577.3  28209.5  27925.2
  5980.304  5980.310  0.500  1127.37  100.5  2.559618  0.308967  27914.3  29474.1  28243.4  27668.9
  5983.446  5983.450  0.500  1125.53  99.847  2.557204  0.309690  27725.2  29212.9  28143.3  27299.6
  5986.606  5986.600  0.500  1117.83  98.5393  2.535767  0.308175  27383  28778.5  27376.7  26611.9
  5989.773  5989.780  0.500  1286.99  82.8818  2.146122  0.262194  27383  28778.5  27376.7  23130.1
  5992.960  5992.970  0.500  1132.99  100.774  2.624777  0.320891  28482.8  29721.4  28195.5  27777
  5996.203  5996.190  0.500  1134.64  100.076  2.620837  0.321479  27969.1  29578.3  28189.4  27813.1
  5999.432  5999.420  0.500  1138.77  99.4513  2.619613  0.322045  27969.1  29578.3  28242.6  27461.9
  6002.663  6002.670  0.500  1136.72  98.9175  2.620492  0.323442  27693.8  29443.3  27770.4  27534
  6005.938  6005.950  0.500  1138.25  98.4295  2.624167  0.324999  27694.8  29028.7  28019.1  27294.5
  6009.227  6009.240  0.500  1141.16  97.9406  2.626784  0.326451  27485.8  29208.1  27831.9  27240.5
  6012.542  6012.550  0.500  1141.15  97.4871  2.629949  0.327934  27457  28917.6  27529.6  27343.5
  6015.861  6015.870  0.500  1150.08  97.0532  2.634317  0.329650  27392.9  29291.8  27580.7  27353.4
  6019.226  6019.220  0.500  1149.55  96.625  2.639770  0.331446  27287.8  28533.2  27667.7  27586.5
  6022.573  6022.590  0.500  1150.63  96.1633  2.642699  0.332899  27456  28617.2  27586.7  26988.2
  6025.961  6025.970  0.500  1155.99  95.734  2.644752  0.334639  27413.3  28909.6  27433.5  26911.1
  6029.393  6029.380  0.500  1162.18  95.3067  2.647685  0.336007  27413.3  28909.6  27604.7  26836
  6032.795  6032.800  0.500  1159.19  94.8641  2.650921  0.337792  27406.8  28550.2  27401.7  26606.9
  6036.239  6036.250  0.500  1161.7  94.4071  2.653585  0.339632  27000.1  28379  27510.4  26782.9
  6039.696  6039.710  0.500  1170.54  93.9229  2.657982  0.341057  27019.2  28453.1  27412.4  27056
  6043.189  6043.190  0.500  1161.76  93.4966  2.662481  0.342989  26678.5  28157.9  27151.1  26632.7
  6046.679  6046.690  0.500  1162.38  93.0669  2.668641  0.344956  26792.4  28198  26863.1  26325.6
  6050.204  6050.210  0.500  1174.51  92.5919  2.670995  0.346641  27157.7  28057.8  27029  26505.5
  6053.734  6053.750  0.500  1178.78  92.0966  2.674471  0.348063  27157.7  27869.6  27029  26505.5
  6057.292  6057.300  0.500  1172.15  91.5085  2.674187  0.349452  26501.8  27839.4  26645.7  26274.4
  6060.869  6060.880  0.500  1177.41  90.9379  2.674955  0.350618  26556.9  27927.4  26556.7  26030.2
  6064.469  6064.480  0.500  1181.02  90.4226  2.678324  0.352024  26392.9  27684.5  26478.6  26235.3
  6068.076  6068.090  0.500  1184.74  89.9479  2.682176  0.354012  26392.9  27705.2  26431.5  26035.1
  6071.715  6071.720  0.500  1184.3  89.499  2.686127  0.355815  25928.6  27746.4  26385.3  25933
  6075.379  6075.380  0.500  1188.89  89.0267  2.691202  0.357842  26022.5  27587.1  26197.2  26035.9
  6079.044  6079.050  0.500  1185.31  88.5465  2.693918  0.359386  25763.1  27470  26215.2  25506.7
  6082.723  6082.740  0.500  1193.68  88.0437  2.692982  0.360787  25816.8  27464.1  26206.2  25608.7
  6086.445  6086.450  0.500  1195.69  87.5507  2.694888  0.362288  26336.2  27233.8  25566.7  25546.6
  6090.167  6090.180  0.500  1193.91  87.0847  2.698034  0.364166  25553.3  27353.8  25776.8  25287.3
  6093.917  6093.920  0.500  1192.38  86.5976  2.700116  0.365915  25449.8  26768.6  25812.8  25226.3
  6097.673  6097.690  0.500  1200.67  86.0839  2.701762  0.367458  25647.6  26921.4  25583.6  25206.1
  6101.465  6101.480  0.500  1202.91  85.5854  2.703604  0.369208  25481.3  26797.5  25664.5  25008
  6105.269  6105.280  0.500  1204.56  85.0554  2.705174  0.370916  25138.9  26794.4  25363.5  25157.2
  6109.096  6109.110  0.500  1198.74  84.5028  2.706423  0.372561  25020.8  26483.2  25140.2  24652.9
  6112.940  6112.950  0.500  1207.45  83.9893  2.708314  0.373922  25211.9  26391.1  25285.3  24524.7
  6116.799  6116.810  0.500  1213.33  83.4505  2.709637  0.375341  25055.3  26235.9  25225.2  24736.8
  6120.677  6120.690  0.500  1209.75  82.9074  2.710960  0.376716  24905.9  26035.7  24826.8  24528.5
  6124.578  6124.590  0.500  1207.85  82.3416  2.711443  0.378356  24625.6  25825.7  24671.8  24333.5
  6128.494  6128.510  0.500  1215.18  81.7687  2.710896  0.379540  24625.6  25825.7  24807.9  24104.3
  6132.430  6132.450  0.500  1213.07  81.1935  2.709878  0.380935  24237  25576.4  24886.9  23793
  6136.398  6136.410  0.500  1218.82  80.6147  2.709305  0.382358  24176.7  25426.3  24685.7  23966.1
  6140.363  6140.380  0.500  1221.2  79.9738  2.705499  0.383051  24013.1  25426.3  24685.7  23538.8
  6144.361  6144.380  0.500  1214.24  79.3113  2.698518  0.383693  23859.7  25034  23791  23617.9
  6148.376  6148.390  0.500  1216.63  78.6326  2.688489  0.383478  23859.7  25032.8  23503.8  23270.6
  6152.413  6152.430  0.500  1210.08  77.8381  2.667045  0.382146  23338.2  24546.9  23230.8  23074.6