File: xdidata/Ce/Ce-L3-CePO4.xdi
# XDI/1.0 BlueSky/1.10.0 BMM/2023-1.0-py310-tiled
# Beamline.name: BMM (06BM) -- Beamline for Materials Measurement (NIST)
# Beamline.xray_source: NSLS-II three-pole wiggler
# Beamline.collimation: paraboloid mirror, 5 nm Rh on 30 nm Pt
# Beamline.focusing: not in use
# Beamline.harmonic_rejection: flat mirror, Si stripe, pitch = 7.0 mrad relative to beam
# Beamline.software: Bluesky 1.10.0, Ophyd 1.7.0, DataBroker 2.0.0b13, Python 3.10.8, 2023-1.0-py310-tiled
# Detector.I0: 10 cm N2
# Detector.I1: 25 cm N2
# Detector.I2: 25 cm N2
# Detector.fluorescence: SII Vortex ME4 (4-element silicon drift)
# Detector.deadtime_correction: Xspress3
# Element.symbol: Ce
# Element.edge: L3
# Element.reference: Ce
# Element.reference_material: CeO2
# Facility.name: NSLS-II
# Facility.energy: 3.0
# Facility.current: 399.7
# Facility.mode: top-off
# Facility.GUP: 123456
# Facility.SAF: 301027
# Facility.cycle: 2023-2
# Mono.name: Si(111)
# Mono.d_spacing: 3.13519
# Mono.encoder_resolution: 0.0000050 deg/ct
# Mono.angle_offset: 16.0754 deg
# Mono.scan_mode: pseudo channel cut
# Mono.scan_type: step
# Mono.direction: forward in energy
# Sample.name: CePO4
# Sample.prep: Powder in PEG pellet
# Sample.x: 142.329 mm
# Sample.y: 114.126 mm
# Sample.SDD_position: 45.000 mm
# Scan.experimenters: Bruce Ravel
# Scan.edge_energy: 5723.4
# Scan.start_time: 2023-05-06T10:21:46
# Scan.end_time: 2023-05-06T10:27:21
# Scan.transient_id: 74713
# Scan.uid: 49e11b13-9b92-45fb-bd7d-4114cf49d392
# Scan.plot_hint: (Ce1+Ce2+Ce3+Ce4)/I0  --  ($8+$9+$10+$11)/$5
# Column.1: energy eV
# Column.2: requested_energy eV
# Column.3: measurement_time seconds
# Column.4: xmu
# Column.5: I0 nA
# Column.6: It nA
# Column.7: Ir nA
# Column.8: Ce1
# Column.9: Ce2
# Column.10: Ce3
# Column.11: Ce4
# ///////////
# sample courtesy Martin Stennett, University of Sheffield
# -----------
# energy  requested_energy  measurement_time  xmu  I0  It  Ir  Ce1  Ce2  Ce3  Ce4
  5523.433  5523.400  0.500  1.611536  109.224  1.043833  0.077932  31.0029  49.0047  47.0056  49.0054
  5533.404  5533.400  0.500  1.880005  109.585  1.075887  0.081419  57.0051  39.0036  49.0056  61.0065
  5543.412  5543.400  0.500  1.710556  109.917  1.108960  0.084824  57.0051  39.0036  49.0058  43.0048
  5553.410  5553.400  0.500  1.668821  110.269  1.143744  0.088923  49.0047  39.0039  54.0066  42.0048
  5563.412  5563.400  0.500  1.763099  110.613  1.178218  0.092821  49.0047  39.0039  63.0074  44.0049
  5573.409  5573.400  0.500  1.993296  110.884  1.213428  0.096655  53.0051  59.0058  52.0064  57.0065
  5583.404  5583.400  0.500  2.123507  111.149  1.248004  0.100901  55.0054  57.0058  55.007  69.0081
  5593.407  5593.400  0.500  2.029755  111.356  1.283922  0.105369  50.005  53.0054  58.0073  65.0077
  5603.613  5603.400  0.500  2.420991  111.537  1.320758  0.109740  66.0066  64.0065  70.0087  70.0082
  5613.386  5613.400  0.500  2.497230  111.736  1.357566  0.114413  53.0053  69.0071  71.009  86.0102
  5623.385  5623.400  0.500  3.200493  111.87  1.395458  0.118869  88.0088  95.0096  89.0111  86.0101
  5633.398  5633.400  0.500  3.454515  112.04  1.434246  0.123902  88.0088  84.0088  116.015  99.012
  5643.398  5643.400  0.500  4.922405  112.154  1.471488  0.128605  107.011  142.015  144.019  159.02
  5653.396  5653.400  0.500  6.308350  112.245  1.509304  0.133749  180.019  167.018  178.023  183.022
  5663.398  5663.400  0.500  8.334707  112.315  1.547474  0.138689  233.025  229.025  226.029  248.031
  5673.395  5673.400  0.500  11.9701  112.377  1.585728  0.144084  318.034  336.035  337.044  354.044
  5683.392  5683.400  0.500  17.7177  112.388  1.620320  0.149023  486.055  521.058  494.068  490.064
  5693.392  5693.400  0.500  28.1741  112.352  1.649701  0.153538  796.094  804.095  781.113  784.108
  5695.395  5695.400  0.500  33.6757  112.35  1.654526  0.154257  883.103  1020.12  972.137  908.122
  5697.392  5697.400  0.500  36.228  112.359  1.659349  0.155181  986.121  1020.12  1085.16  979.138
  5699.394  5699.400  0.500  41.754  112.34  1.662037  0.155713  1124.14  1207.15  1204.18  1155.16
  5701.393  5701.400  0.500  46.5129  112.307  1.663727  0.156307  1309.17  1207.15  1373.2  1334.19
  5703.389  5703.400  0.500  55.9541  112.286  1.663012  0.156495  1512.2  1638.21  1552.24  1580.23
  5705.403  5705.400  0.500  65.4004  112.676  1.666230  0.157262  1778.24  1945.26  1802.28  1843.28
  5707.400  5707.400  0.500  78.6055  112.655  1.659316  0.156907  2211.31  2275.32  2165.36  2203.35
  5709.402  5709.400  0.500  95.6349  112.655  1.648099  0.156288  2688.39  2735.4  2741.48  2608.44
  5711.400  5711.400  0.500  119.644  112.648  1.628750  0.154827  3377.85  3518.56  3257.59  3323.58
  5713.397  5713.400  0.500  153.332  112.639  1.596859  0.152004  4164.7  4412.75  4334.84  4358.83
  5713.887  5713.900  0.500  165.595  112.633  1.586919  0.151251  4554.79  4915.86  4622.91  4557.88
  5714.389  5714.400  0.500  173.67  112.603  1.574716  0.150143  4554.79  5154.95  4973.04  4872.99
  5714.890  5714.900  0.500  191.435  112.604  1.559738  0.148885  5339.14  5638.07  5344.15  5235.07
  5715.390  5715.400  0.500  198.653  112.596  1.542751  0.146993  5339.14  5638.07  5724.26  5666.21
  5715.891  5715.900  0.500  222.343  112.565  1.521863  0.145203  6159.97  6492.32  6257.43  6118.35
  5716.387  5716.400  0.500  243.236  112.571  1.498038  0.143038  6701.66  7075.49  6835.61  6768.57
  5716.889  5716.900  0.500  271.659  112.564  1.469896  0.140346  7480.52  7804.71  7665.89  7627.83
  5717.393  5717.400  0.500  293.446  112.565  1.436120  0.137240  7480.52  8795.02  8282.13  8474.14
  5717.891  5717.900  0.500  336.976  112.568  1.395554  0.133406  9352.22  9763.45  9492.64  9324.54
  5718.392  5718.400  0.500  381.039  112.545  1.351845  0.129038  10565.8  11128  10581.2  10609.1
  5718.892  5718.900  0.500  415.526  112.493  1.306993  0.124938  11483  12091.5  11547.7  11621.6
  5719.393  5719.400  0.500  459.953  112.525  1.265224  0.120663  12780.6  13446.1  12842.3  12687.1
  5719.894  5719.900  0.500  505.311  112.529  1.221973  0.116653  14054.7  14693.7  14014.9  14098.8
  5720.393  5720.400  0.500  552.336  112.518  1.171308  0.111779  15310.8  16091.5  15422.8  15322.6
  5720.890  5720.900  0.500  619.604  112.52  1.109955  0.105903  17307.8  18199.7  17396  16814.6
  5721.393  5721.400  0.500  692.036  112.487  1.038363  0.099174  19215.7  20367.2  19240.3  19022.1
  5721.894  5721.900  0.500  786.536  112.511  0.951545  0.091031  21547.5  22872  22209.6  21865.1
  5722.395  5722.400  0.500  900.675  112.487  0.851045  0.081432  24802.4  26317  25237.4  24957
  5722.896  5722.900  0.500  1051.06  112.475  0.734473  0.070191  28903.6  30767.4  29440.7  29105.3
  5723.395  5723.400  0.500  1247.44  112.471  0.602834  0.057653  34699.3  35984.4  35021  34595.5
  5723.896  5723.900  0.500  1462.48  112.476  0.469676  0.044831  40708.8  42423.6  41094.4  40266.5
  5724.395  5724.400  0.500  1662.68  112.498  0.342357  0.032737  47396  42423.6  49190  48038.5
  5724.899  5724.900  0.500  2007.18  112.467  0.238241  0.022818  55538.2  57832.8  56799.2  55571.7
  5725.398  5725.400  0.500  2125.74  112.439  0.168560  0.016034  55538.2  57832.8  63624.9  62019.2
  5725.894  5725.900  0.500  2328.98  112.455  0.126312  0.012157  61412.3  64523.4  69185.6  66784.9
  5726.399  5726.400  0.500  2519.7  112.43  0.105787  0.009792  69384.6  72573.6  71855.8  69476.6
  5726.898  5726.900  0.500  2539.83  112.433  0.101411  0.009338  70042.5  73264.6  71847.9  70406.1
  5727.402  5727.400  0.500  2478.03  112.444  0.110996  0.010255  68724.4  71650.1  70378.2  67887.2
  5727.895  5727.900  0.500  2374.27  112.442  0.132745  0.012052  65968.5  68054.6  67181.8  65762.3
  5728.398  5728.400  0.500  2223.66  112.414  0.165971  0.015107  60966.9  64422.4  63122.6  61457.6
  5728.899  5728.900  0.500  2047.41  112.452  0.208871  0.018848  56324.1  58970.5  58203.8  56737.4
  5729.402  5729.400  0.500  1903.72  112.439  0.256919  0.023161  52917.9  55265.5  53498.8  52371.3
  5729.899  5729.900  0.500  1764.28  112.433  0.308180  0.027554  48802.7  51616.7  49475.5  48469.2
  5730.399  5730.400  0.500  1640.89  112.427  0.360330  0.032081  45308.6  47357.8  46560.3  45253.7
  5730.898  5730.900  0.500  1592.24  112.411  0.410284  0.036543  45308.6  44524.2  46560.3  42592.3
  5731.402  5731.400  0.500  1441.71  112.408  0.459822  0.040952  39865.7  41708.5  40893.4  39592.1
  5731.901  5731.900  0.500  1356.7  112.372  0.505158  0.045017  37078.7  39482.2  38581.3  37313.9
  5732.398  5732.400  0.500  1284.15  112.376  0.546776  0.048920  35782.8  37192.5  35781.9  35550.6
  5732.899  5732.900  0.500  1227.84  112.348  0.584671  0.052450  34067.4  35508.7  34785.5  33583.4
  5733.406  5733.400  0.500  1181.33  112.364  0.617090  0.055498  32564.3  34257.1  33352.9  32564.1
  5733.906  5733.900  0.500  1149.79  112.357  0.643769  0.058153  31455.2  33397.2  32586  31749.2
  5734.403  5734.400  0.500  1122.48  112.376  0.664531  0.060191  31105.5  32574.1  31392.5  31068.2
  5734.900  5734.900  0.500  1102  112.347  0.678767  0.061410  30153.5  31938.3  31236.2  30478.5
  5735.400  5735.400  0.500  1093.67  112.36  0.688588  0.062420  30153.5  31538.2  30864.9  30328.3
  5735.907  5735.900  0.500  1085.92  112.34  0.694659  0.062961  29992.8  31598  30288.1  30112.9
  5736.405  5736.400  0.500  1086.14  112.327  0.699160  0.063214  29932.6  31514  30459.5  30097.1
  5736.904  5736.900  0.500  1076.89  112.338  0.703016  0.063510  29810.2  31345.7  30225.3  29593.6
  5737.403  5737.400  0.500  1079.75  112.303  0.706123  0.063733  29688.5  31434.8  30332.4  29802.8
  5737.903  5737.900  0.500  1078.31  112.299  0.708930  0.063875  29862.1  31140.6  30424.3  29666.6
  5738.405  5738.400  0.500  1077.07  112.315  0.711608  0.064208  29906.2  31239.6  30134.2  29691.7
  5738.905  5738.900  0.500  1075.39  112.331  0.715404  0.064475  29592.1  31174.6  30226.3  29806.8
  5739.406  5739.400  0.500  1071.47  112.314  0.719012  0.065085  29695.6  31267.8  29852.8  29524.5
  5739.902  5739.900  0.500  1066.55  112.313  0.723358  0.065522  29266.5  30978.5  30010.1  29532.5
  5740.399  5740.400  0.500  1059.93  112.286  0.726629  0.066148  29149  31025.4  29587.6  29253.2
  5740.900  5740.900  0.500  1059.44  112.291  0.730630  0.066777  29573.5  30795.2  29360.3  29237.1
  5741.403  5741.400  0.500  1056.96  112.289  0.734441  0.067539  29102.7  30564  29923.9  29094.1
  5741.906  5741.900  0.500  1056.28  112.295  0.737480  0.067943  29102.7  30489.8  29725.7  29297.1
  5742.403  5742.400  0.500  1055.74  112.278  0.739055  0.068647  29184.8  30514  29618.6  29218.1
  5742.900  5742.900  0.500  1056.93  112.268  0.739588  0.068932  29311.5  30580  29811.6  28955.9
  5743.399  5743.400  0.500  1061.22  112.275  0.738832  0.069045  29560.2  30743.1  29314.3  29531.3
  5743.899  5743.900  0.500  1061.21  112.28  0.736217  0.069223  29560.2  30598  29862.9  29131.1
  5744.404  5744.400  0.500  1074.1  112.248  0.732149  0.068861  29288.7  31325.7  30486.5  29464.5
  5744.902  5744.900  0.500  1082.02  112.219  0.727140  0.068637  29756.7  31381.8  30634.5  29650.6
  5745.401  5745.400  0.500  1087.38  112.201  0.721058  0.068039  30248.9  31373.9  30518.5  29862.9
  5745.896  5745.900  0.500  1098.2  112.196  0.714392  0.067560  30335.2  31896.5  30615.8  30365.5
  5746.402  5746.400  0.500  1114.18  112.193  0.706960  0.066909  30762  32410  31277.6  30553.8
  5746.903  5746.900  0.500  1125.39  112.192  0.699984  0.066457  31033.3  32741.4  31552  30933.1
  5747.406  5747.400  0.500  1132.71  112.187  0.691842  0.065677  31144.1  33157.5  31552  31222.4
  5747.898  5747.900  0.500  1148.54  112.183  0.684127  0.065069  31728.1  33250.9  32110.3  31756.9
  5748.398  5748.400  0.500  1163.28  112.197  0.676310  0.064390  31904.6  33754.5  32751  32106.4
  5749.402  5749.390  0.500  1187.09  112.177  0.660794  0.063029  32724.1  34358.3  33181.8  32900.3
  5750.397  5750.390  0.500  1209.84  112.161  0.645453  0.061712  33180.8  35103.8  33962.5  33449.8
  5751.419  5751.410  0.500  1226.72  112.136  0.630302  0.060281  33180.8  35870.9  34946.9  33560.4
  5752.477  5752.460  0.500  1264.71  112.14  0.615912  0.058975  35176.2  36388.9  35460.4  34798.7
  5753.527  5753.520  0.500  1282.31  112.113  0.602386  0.057772  35513.6  36922.4  36035.9  35292.2
  5754.610  5754.600  0.500  1308.09  112.112  0.590351  0.056563  36296.3  37773.2  36491  36092.3
  5755.707  5755.700  0.500  1323.2  112.079  0.580976  0.055833  36457.3  37752.5  37589  36504.7
  5756.833  5756.820  0.500  1338.58  112.048  0.573824  0.055125  36806.2  38288  38060.6  36830.2
  5757.971  5757.960  0.500  1348.74  112.047  0.569960  0.054908  36991.1  39062.1  37816.4  37251.8
  5759.119  5759.110  0.500  1350.7  112.048  0.569764  0.054807  37329.4  39399.2  37641.5  36972.8
  5760.296  5760.290  0.500  1344.25  112.014  0.574329  0.055303  36944.5  39153.2  37322.1  37154.7
  5761.495  5761.480  0.500  1339.27  112.029  0.584214  0.056260  36944.5  39153.2  37585.2  36353.9
  5762.702  5762.700  0.500  1314.47  111.988  0.598813  0.057699  36014.7  37952.4  36932  36305.4
  5763.937  5763.930  0.500  1286.85  111.975  0.616129  0.059344  35667  36992.5  36241.2  35194.3
  5765.187  5765.180  0.500  1265.2  111.943  0.634848  0.061140  35134.9  36447.9  35272.5  34775.7
  5766.456  5766.450  0.500  1244.16  111.941  0.653046  0.062901  34537.9  35559.8  34985.8  34188.9
  5767.750  5767.740  0.500  1216.35  111.916  0.668182  0.064390  33199.6  34958.7  34207.6  33763.2
  5769.055  5769.050  0.500  1215.12  111.919  0.680314  0.065682  33504  34822.8  34016.8  33651.2
  5770.391  5770.380  0.500  1201.83  111.868  0.691332  0.066790  33238.8  34508.3  33424  33275.7
  5771.736  5771.730  0.500  1188.06  111.873  0.701651  0.067882  32778.5  34149.3  33231.9  32752.3
  5773.109  5773.100  0.500  1174.53  111.878  0.711446  0.068841  32456.7  34259  32730.3  31958.4
  5774.486  5774.480  0.500  1173.26  111.835  0.719501  0.069784  32363.7  33921.7  32928.4  31997.4
  5775.897  5775.890  0.500  1168.68  111.828  0.726697  0.070841  31997.8  33964.8  32798.2  31930.5
  5777.316  5777.310  0.500  1169.77  111.789  0.730511  0.071318  32423.7  33480.4  32663.3  32199.6
  5778.758  5778.750  0.500  1172.95  111.792  0.731705  0.071452  32081.6  33958.6  32706.1  32380.7
  5780.219  5780.210  0.500  1176.77  111.753  0.730682  0.071664  32149.1  34002.9  32852.4  32503.9
  5781.701  5781.690  0.500  1185.46  111.747  0.729111  0.071696  32455.7  34268.2  33312.7  32434.9
  5783.197  5783.190  0.500  1192.87  111.736  0.727091  0.071816  32802.3  34492.4  33567  32423.9
  5784.719  5784.710  0.500  1211.59  111.718  0.724679  0.071649  33598.5  34981  33783.4  32992.6
  5786.262  5786.250  0.500  1206.61  111.704  0.721762  0.071585  33061  34911.1  33694.6  33116.9
  5787.817  5787.810  0.500  1215.38  111.693  0.718483  0.071201  33498.5  35008.1  33919.7  33322.9
  5789.388  5789.380  0.500  1217.17  111.681  0.714896  0.071288  33498.5  35008.1  33919.7  33509.3
  5790.987  5790.980  0.500  1233.61  111.686  0.712967  0.070931  33911.2  35401.5  34692.7  33771.6
  5792.597  5792.590  0.500  1242.95  111.612  0.709980  0.070960  34151  35482.7  34869.6  34225
  5794.235  5794.230  0.500  1246.18  111.591  0.708463  0.070906  34414.5  35763.2  34864  34021.1
  5795.888  5795.880  0.500  1259.78  111.55  0.706892  0.070784  34660.3  36268.5  34850.7  34749.5
  5797.560  5797.550  0.500  1259.87  111.543  0.704775  0.070751  34660.3  36268.5  34850.7  34749.5
  5799.246  5799.240  0.500  1262.21  111.501  0.702440  0.070635  34683.4  36079.3  35273.3  34701.6
  5800.956  5800.950  0.500  1281.8  111.48  0.700200  0.070681  35044.3  36610.9  35779.1  35460.3
  5802.687  5802.680  0.500  1287.8  111.455  0.698792  0.070587  35317.2  36735.2  36067.4  35411.5
  5804.442  5804.430  0.500  1283.96  111.432  0.699274  0.070766  35278.8  36735.2  35978.3  35082.4
  5806.200  5806.190  0.500  1294.79  111.393  0.702265  0.071203  35623.8  37319.8  36335.5  34952.2
  5807.988  5807.980  0.500  1287.51  111.362  0.706920  0.071768  35464.5  36902.5  35726  35286.5
  5809.785  5809.780  0.500  1286.6  111.335  0.712192  0.072422  35188  36742.6  36037.6  35275.7
  5811.618  5811.610  0.500  1288.57  111.302  0.717744  0.073051  34949.2  36930.6  35976.4  35563.7
  5813.457  5813.450  0.500  1284.17  111.25  0.722878  0.073894  34848.2  36926.5  35950  35139.3
  5815.319  5815.310  0.500  1281.2  111.194  0.728104  0.074551  35384  36680.9  35420.6  34975.9
  5817.202  5817.190  0.500  1282.14  111.178  0.734067  0.075192  34736.7  36742.1  35938.2  35129.2
  5819.100  5819.090  0.500  1271.39  111.099  0.739293  0.075902  34869.6  36434.7  35387.4  34558.7
  5821.018  5821.010  0.500  1276.64  111.076  0.744485  0.076454  35178  36404  35217.4  35005
  5822.956  5822.950  0.500  1272.19  111.029  0.749907  0.077130  34826.4  36478.8  35380.3  34564.6
  5824.916  5824.910  0.500  1271.73  110.983  0.755434  0.077999  34675.8  36366.7  35652.6  34445.4
  5826.884  5826.880  0.500  1268.04  110.934  0.760517  0.078644  34549.1  36488  34999.3  34632.8
  5828.885  5828.880  0.500  1263.59  110.903  0.767100  0.079403  34481.8  36087.8  35009.3  34556.6
  5830.894  5830.890  0.500  1271.12  110.843  0.773192  0.080278  34477.4  36470.7  35479.5  34467.5
  5832.925  5832.920  0.500  1268.71  110.737  0.778011  0.080971  34356  36162.6  35388.3  34586.5
  5834.991  5834.980  0.500  1271.73  110.669  0.781082  0.081439  34794.1  36033.4  35147.3  34765.7
  5837.054  5837.050  0.500  1267.65  110.937  0.786842  0.082176  34527.4  36256.8  35053.1  34791.8
  5839.145  5839.140  0.500  1267.81  110.871  0.788298  0.082734  34665.3  36183.6  35155.5  34558.7
  5841.255  5841.250  0.500  1271.07  110.795  0.788602  0.082854  34647.2  36427.1  35128.5  34625.8
  5843.386  5843.380  0.500  1279.75  110.669  0.789100  0.083243  35216.5  36173.7  35566  34673
  5845.525  5845.520  0.500  1293.8  110.598  0.786603  0.083054  35371.6  36885.5  35814  35020.3
  5847.694  5847.690  0.500  1301.35  110.517  0.784415  0.083091  35245.8  37332.9  35926.3  35315.7
  5849.888  5849.880  0.500  1309.73  110.459  0.784821  0.083418  35753.6  37200.9  36243.7  35472.8
  5852.085  5852.080  0.500  1313.49  110.336  0.785865  0.083645  35818.2  37280  36245.9  35581
  5854.310  5854.300  0.500  1310.53  110.219  0.788547  0.084277  35634.6  37280  36149.7  35381.8
  5856.560  5856.550  0.500  1311.65  110.052  0.791344  0.084873  35713.4  37154.1  35928.4  35554
  5858.815  5858.810  0.500  1312.17  109.943  0.793254  0.085037  35731.7  37250  36061.6  35220.6
  5861.099  5861.090  0.500  1319.73  109.787  0.796645  0.085636  35871.4  37518.3  36175.8  35323.9
  5863.398  5863.390  0.500  1313.65  109.553  0.799967  0.086275  35602.5  36919.6  36004.5  35387.7
  5865.720  5865.710  0.500  1321.66  109.242  0.800171  0.086589  35490.7  37330.1  36167.7  35391.8
  5868.057  5868.050  0.500  1328.53  108.712  0.797404  0.086463  35462.4  37155.9  36080.4  35728
  5870.409  5870.400  0.500  1339.89  107.248  0.788489  0.085707  35179  37236.8  36041.4  35243.4
  5872.792  5872.780  0.500  1358.85  87.6408  0.645372  0.070516  29328.6  30672.9  29944.4  29144.8
  5875.176  5875.170  0.500  1338.86  110.186  0.818184  0.089378  36175.5  38368.4  36633.4  36346
  5877.594  5877.590  0.500  1341.08  110.181  0.824201  0.090372  36231.6  38204.3  37051.1  36275.2
  5880.025  5880.020  0.500  1336.54  109.939  0.829430  0.091094  36231.6  37661.7  37051.1  35992.7
  5882.475  5882.470  0.500  1335.59  109.646  0.835550  0.092008  35977.7  37898.1  36813.7  35751.7
  5884.953  5884.950  0.500  1333.31  109.446  0.841935  0.092963  35863.1  37669.6  36520.4  35872.5
  5887.447  5887.440  0.500  1322.64  109.24  0.847531  0.093978  35570.9  37178  36126.6  35610.1
  5889.957  5889.950  0.500  1327.63  109.046  0.853200  0.094679  35558.6  37496.3  36271.8  35446
  5892.473  5892.470  0.500  1328.21  108.846  0.857635  0.095522  36056.2  37244  35757.3  35513
  5895.027  5895.020  0.500  1334.36  108.651  0.862012  0.096247  35453.6  37531.6  36287  35708.2
  5897.598  5897.590  0.500  1335.06  108.429  0.866119  0.096906  35618.1  37396.1  36228.5  35515.8
  5900.180  5900.170  0.500  1333.96  108.159  0.869756  0.097488  35487.1  37396.1  36228.5  35168.7
  5902.792  5902.780  0.500  1329.19  107.891  0.872834  0.098176  35584  36903.8  35730.2  35189.7
  5905.422  5905.400  0.500  1337.03  107.641  0.875155  0.098569  35602.2  36903.8  35995.5  35417.8
  5908.061  5908.050  0.500  1339.98  107.219  0.876607  0.099080  35327.7  36995.8  35877.1  35470.8
  5910.723  5910.710  0.500  1348.11  106.718  0.877004  0.099396  35355.7  37174.9  36078.4  35259.6
  5913.413  5913.390  0.500  1344.51  105.501  0.870851  0.099038  34928.2  36353.1  35704.9  34861.1
  5916.112  5916.090  0.500  1364.94  92.0143  0.760935  0.086960  31045.5  32408.2  31301.6  30839
  5918.821  5918.810  0.500  1356.87  106.642  0.887885  0.101677  35926.7  37599.5  35783.3  35389.8
  5921.560  5921.550  0.500  1358.39  107.513  0.898871  0.103225  36030.2  37565.5  36564  35885.5
  5924.316  5924.300  0.500  1362.63  106.876  0.897070  0.103315  36063.1  37472.6  36481.3  35615.3
  5927.078  5927.080  0.500  1368.25  106.016  0.894227  0.103253  35748.1  37384.5  36504.2  35419.2
  5929.893  5929.870  0.500  1378.62  105.183  0.891843  0.103465  35953.8  37390.1  36223.6  35439.8
  5932.713  5932.690  0.500  1374.99  106.398  0.907789  0.105471  36232  37790.8  36399  35875.5
  5935.533  5935.520  0.500  1371.33  106.069  0.910406  0.106319  35694.5  37544.5  36499.1  35716.4
  5938.390  5938.370  0.500  1381.7  105.316  0.909172  0.106391  35728.6  37783.4  36305.8  35696.2
  5941.262  5941.250  0.500  1382.36  104.147  0.903694  0.106015  35381.8  37447.1  36138.4  35001.3
  5944.160  5944.140  0.500  1393.53  98.4959  0.859059  0.101056  33733.9  35515.5  34290  33717.5
  5947.046  5947.050  0.500  1383.62  105.384  0.926136  0.109286  36028.3  37594.6  36356.9  35832.4
  5949.993  5949.970  0.500  1386.98  105.462  0.933712  0.110529  36326.1  37781.8  36614.3  35551.2
  5952.914  5952.920  0.500  1389.19  104.932  0.935951  0.111110  35950.4  37448.6  36593.4  35778.4
  5955.885  5955.890  0.500  1394.83  104.499  0.938390  0.111689  35803.6  37539.6  36746.7  35668.5
  5958.870  5958.870  0.500  1395.12  104.094  0.940625  0.112285  36019.7  37529.3  36054.5  35620
  5961.869  5961.880  0.500  1397.52  103.697  0.943466  0.113004  35911.8  37437.5  35964.5  35604.3
  5964.893  5964.900  0.500  1396.87  103.311  0.946233  0.113719  35538.5  37093  36088.5  35591.9
  5967.940  5967.950  0.500  1397.36  102.925  0.948658  0.114269  35302.1  37214.9  35884.1  35422.8
  5971.005  5971.010  0.500  1400.88  102.526  0.951399  0.115023  35143.6  37367.1  35901.1  35214.6
  5974.084  5974.090  0.500  1408.53  102.099  0.954028  0.115795  35495.3  36863.6  36087.5  35362.8
  5977.182  5977.190  0.500  1411.5  101.647  0.956893  0.116595  35342.7  36866.7  36168.5  35096.5
  5980.321  5980.310  0.500  1410.74  101.137  0.958547  0.117158  35254.2  37004.7  35219.5  35200.5
  5983.464  5983.450  0.500  1411.57  100.466  0.959655  0.117677  34868.5  36482.2  35718.2  34746
  5986.617  5986.600  0.500  1427.81  99.1245  0.953813  0.117335  34985.3  36373.9  35718.2  34453.8
  5989.799  5989.780  0.500  1430.96  83.2122  0.804233  0.099342  29498  30928.1  29766.5  28880.6
  5992.984  5992.970  0.500  1416.95  101.32  0.990628  0.122626  35473.6  37142  35815.2  35135.6
  5996.209  5996.190  0.500  1420.84  100.588  0.991027  0.123128  35407.4  36887.6  35831  34793.1
  5999.436  5999.420  0.500  1423.84  99.9458  0.991787  0.123502  34901.3  36909.4  35752.9  34742.9
  6002.694  6002.670  0.500  1421.64  99.3942  0.992835  0.123929  34623.9  36909.4  35233.4  34536.5
  6005.939  6005.950  0.500  1425.6  98.8131  0.993679  0.124376  34876  36554  35072.2  34365.4
  6009.229  6009.240  0.500  1433.95  98.456  0.996837  0.125456  34929.8  36594.1  34997.4  34659.8
  6012.563  6012.550  0.500  1433.07  98.0179  0.998715  0.126019  34677.1  36117.4  35185.1  34486.5
  6015.884  6015.870  0.500  1440  97.5535  1.000633  0.126581  34526  36126.1  34906.7  34918.7
  6019.205  6019.220  0.500  1443.86  97.1113  1.002719  0.127363  34797.6  36295.4  35160.1  33962
  6022.578  6022.590  0.500  1453.63  96.6778  1.005599  0.128286  34465.2  36375.9  35134  34558.5
  6025.995  6025.970  0.500  1451.29  96.2437  1.007697  0.128923  34476  36162.4  35011  34028.1
  6029.390  6029.380  0.500  1458.94  95.7939  1.009953  0.129721  34551.3  36147.5  34877.8  34181.1
  6032.818  6032.800  0.500  1459.94  95.3379  1.012010  0.130599  34384.9  35816.4  34987.2  33999.1
  6036.245  6036.250  0.500  1461.77  94.884  1.014668  0.131456  34112.3  35780  34802.8  34003.8
  6039.728  6039.710  0.500  1465.48  94.4092  1.017138  0.131968  33948.6  35659.9  34780.6  33965.8
  6043.212  6043.190  0.500  1461.74  94.0008  1.020395  0.132932  33825.6  35397.6  34267.4  33913.7
  6046.700  6046.690  0.500  1460.5  93.5296  1.023582  0.133971  33628.1  35508.5  34071.2  33392.2
  6050.192  6050.210  0.500  1478.59  93.0797  1.027339  0.134947  33985.2  35826.8  34367.2  33447.2
  6053.728  6053.750  0.500  1474.58  92.5518  1.030096  0.135646  33344.5  35468.6  33939.7  33722.4
  6057.295  6057.300  0.500  1467.99  91.9837  1.031625  0.136323  33314.4  34729.8  33775.4  33211.8
  6060.870  6060.880  0.500  1472.98  91.3884  1.033389  0.137101  33252.5  34806.8  33548  33005.6
  6064.463  6064.480  0.500  1479.45  90.8788  1.034924  0.137533  33002.1  34703.7  33494.1  33250.7
  6068.078  6068.090  0.500  1481.23  90.4254  1.037421  0.138487  33103.9  34575.6  33356.9  32904.4
  6071.709  6071.720  0.500  1490.75  89.9859  1.040423  0.139572  33104.5  34547.5  33520.1  32974.5
  6075.368  6075.380  0.500  1487.65  89.512  1.043019  0.140161  32528.9  34418.4  33383.9  32831.3
  6079.042  6079.050  0.500  1500.83  88.9966  1.044569  0.140770  32799.9  34519.5  33489.1  32760.1
  6082.718  6082.740  0.500  1496.64  88.509  1.047016  0.141916  32522.9  34485.5  33007.8  32450
  6086.436  6086.450  0.500  1491.48  88.0237  1.049016  0.142590  32540.4  33806.7  32630  32308.6
  6090.165  6090.180  0.500  1499.16  87.5686  1.051678  0.143533  32267.6  34209  32623  32179.5
  6093.902  6093.920  0.500  1504.67  87.0574  1.054451  0.144436  32612.5  33885.5  32702.8  31792.1
  6097.675  6097.690  0.500  1509.53  86.5567  1.057332  0.145357  32250.9  33926.5  32612.9  31870.1
  6101.463  6101.480  0.500  1519.96  86.055  1.061128  0.146534  32250.9  33926.5  32670.9  31952.1
  6105.260  6105.280  0.500  1514.94  85.5147  1.064969  0.147307  32008.6  33678.3  32017.4  31845.2
  6109.097  6109.110  0.500  1515.94  84.983  1.068091  0.148421  31515.8  33495.1  32098.5  31719.9
  6112.937  6112.950  0.500  1520  84.4639  1.070895  0.149282  31515.8  33495.1  32098.5  31275.6
  6116.800  6116.810  0.500  1520.75  83.9204  1.072787  0.150117  31849.5  32949.5  31848.9  30974.1
  6120.694  6120.690  0.500  1524.6  83.3533  1.073980  0.150739  31298.5  33017.7  31726.8  31037.2
  6124.575  6124.590  0.500  1520.63  82.7969  1.074692  0.151399  30792  32346.2  31534.6  31230.4
  6128.498  6128.510  0.500  1530.63  82.2263  1.075328  0.152093  30792  32560.1  31275.2  31230.4
  6132.433  6132.450  0.500  1522.55  81.6555  1.075671  0.152539  30696.1  32372.9  30990.1  30265.4
  6136.393  6136.410  0.500  1531.8  81.0508  1.075124  0.153306  30696.1  32372.9  30906  30178.3
  6140.365  6140.380  0.500  1534.28  80.4092  1.076053  0.153774  30507.1  31833.7  30848.1  30181.4
  6144.357  6144.380  0.500  1544.66  79.7609  1.074047  0.154258  30507.1  31833.7  30848.1  30014.3
  6148.368  6148.390  0.500  1533.28  79.0633  1.069178  0.154052  29980.2  31400.3  30175.4  29670
  6152.410  6152.430  0.500  1521.09  78.279  1.058704  0.153238  29158.1  30795.7  29866.2  29249.6