File: xdidata/Ce/Ce-L3-Bi2Ce2Ti4O12.xdi
# XDI/1.0 BlueSky/1.10.0 BMM/2023-1.0-py310-tiled
# Beamline.name: BMM (06BM) -- Beamline for Materials Measurement (NIST)
# Beamline.xray_source: NSLS-II three-pole wiggler
# Beamline.collimation: paraboloid mirror, 5 nm Rh on 30 nm Pt
# Beamline.focusing: not in use
# Beamline.harmonic_rejection: flat mirror, Si stripe, pitch = 7.0 mrad relative to beam
# Beamline.software: Bluesky 1.10.0, Ophyd 1.7.0, DataBroker 2.0.0b13, Python 3.10.8, 2023-1.0-py310-tiled
# Detector.I0: 10 cm N2
# Detector.I1: 25 cm N2
# Detector.I2: 25 cm N2
# Detector.fluorescence: SII Vortex ME4 (4-element silicon drift)
# Detector.deadtime_correction: Xspress3
# Element.symbol: Ce
# Element.edge: L3
# Element.reference: Ce
# Element.reference_material: CeO2
# Facility.name: NSLS-II
# Facility.energy: 3.0
# Facility.current: 399.4
# Facility.mode: top-off
# Facility.GUP: 123456
# Facility.SAF: 301027
# Facility.cycle: 2023-2
# Mono.name: Si(111)
# Mono.d_spacing: 3.13519
# Mono.encoder_resolution: 0.0000050 deg/ct
# Mono.angle_offset: 16.0754 deg
# Mono.scan_mode: pseudo channel cut
# Mono.scan_type: step
# Mono.direction: forward in energy
# Sample.name: Bi2Ce2Ti4O12
# Sample.prep: Powder in PEG pellet
# Sample.x: 142.329 mm
# Sample.y: 114.126 mm
# Sample.SDD_position: 45.000 mm
# Scan.experimenters: Bruce Ravel
# Scan.edge_energy: 5723.4
# Scan.start_time: 2023-05-06T11:12:59
# Scan.end_time: 2023-05-06T11:18:45
# Scan.transient_id: 74761
# Scan.uid: 30886691-e489-4bc7-ab65-233edb2d2198
# Scan.plot_hint: (Ce1+Ce2+Ce3+Ce4)/I0  --  ($8+$9+$10+$11)/$5
# Column.1: energy eV
# Column.2: requested_energy eV
# Column.3: measurement_time seconds
# Column.4: xmu
# Column.5: I0 nA
# Column.6: It nA
# Column.7: Ir nA
# Column.8: Ce1
# Column.9: Ce2
# Column.10: Ce3
# Column.11: Ce4
# ///////////
# sample courtesy Martin Stennett, University of Sheffield
# -----------
# energy  requested_energy  measurement_time  xmu  I0  It  Ir  Ce1  Ce2  Ce3  Ce4
  5523.404  5523.400  0.500  54.6496  108.878  0.676673  0.050511  1513.28  1542.29  1429.3  1465.3
  5533.410  5533.400  0.500  55.4625  109.199  0.697427  0.052729  1516.56  1584.3  1439.3  1516.31
  5543.412  5543.400  0.500  54.7028  109.543  0.719399  0.055222  1513.43  1659.31  1407.3  1412.29
  5553.415  5553.400  0.500  56.9977  109.857  0.740748  0.057600  1533.63  1616.31  1588.33  1523.31
  5563.414  5563.400  0.500  56.5284  110.197  0.763167  0.060004  1530.29  1619.31  1569.33  1510.31
  5573.416  5573.400  0.500  54.8296  110.417  0.785389  0.062707  1565.18  1511.29  1497.33  1480.32
  5583.410  5583.400  0.500  56.6391  110.654  0.808263  0.065423  1595.38  1579.31  1545.34  1547.33
  5593.408  5593.400  0.500  57.7356  110.816  0.830901  0.068025  1503.97  1693.34  1612.35  1588.34
  5603.410  5603.400  0.500  57.497  111.012  0.854537  0.071074  1571.84  1656.33  1589.35  1565.34
  5613.411  5613.400  0.500  57.938  111.151  0.878413  0.073929  1571.84  1682.34  1581.36  1604.35
  5623.388  5623.400  0.500  59.2893  111.376  0.903085  0.076976  1606.33  1709.35  1630.38  1657.37
  5633.388  5633.400  0.500  58.8874  111.423  0.928003  0.080063  1606.33  1740.36  1630.38  1584.35
  5643.390  5643.400  0.500  59.6201  111.521  0.952593  0.083087  1709.82  1735.36  1559.36  1644.37
  5653.392  5653.400  0.500  60.5068  111.584  0.976638  0.086500  1648.46  1784.37  1659.38  1659.37
  5663.400  5663.400  0.500  63.7145  111.626  1.002587  0.089875  1756.02  1926.4  1736.41  1693.39
  5673.397  5673.400  0.500  63.3225  111.676  1.029144  0.093321  1738.41  1859.4  1703.39  1770.4
  5683.398  5683.400  0.500  62.5214  111.679  1.053581  0.096699  1790.19  1780.37  1665.38  1746.39
  5693.395  5693.400  0.500  65.988  111.643  1.078813  0.100257  1815.85  1998.42  1825.44  1727.4
  5695.397  5695.400  0.500  66.2652  111.636  1.084256  0.101078  1849.32  1982.42  1742.41  1823.42
  5697.393  5697.400  0.500  67.9103  111.629  1.089575  0.101914  1881.44  1954.43  1866.46  1878.44
  5699.390  5699.400  0.500  69.2667  111.627  1.094196  0.102376  1854.63  2098.46  1916.46  1862.44
  5701.391  5701.400  0.500  69.3122  111.612  1.099044  0.103104  1987.72  1964.43  1897.46  1886.44
  5703.395  5703.400  0.500  70.8938  111.596  1.103278  0.103760  1979.09  2091.46  1935.47  1905.45
  5705.399  5705.400  0.500  73.6804  111.578  1.107542  0.104398  2004.65  2157.47  2040.5  2018.48
  5707.400  5707.400  0.500  73.2746  111.595  1.111008  0.104967  2087.67  2130.48  1954.48  2004.48
  5709.398  5709.400  0.500  76.9351  111.601  1.114179  0.105462  2107.54  2284.51  2142.53  2051.49
  5711.403  5711.400  0.500  79.5503  111.531  1.116465  0.106089  2307.8  2370.52  2142.53  2051.49
  5713.396  5713.400  0.500  84.6158  111.527  1.117292  0.106252  2318.2  2441.56  2314.59  2362.59
  5713.892  5713.900  0.500  87.248  111.542  1.117130  0.106218  2430.05  2470.56  2409.6  2421.6
  5714.391  5714.400  0.500  88.1169  111.518  1.116659  0.106153  2519.83  2573.59  2349.59  2383.58
  5714.887  5714.900  0.500  90.7662  111.518  1.116537  0.106138  2517.27  2648.6  2474.62  2481.6
  5715.390  5715.400  0.500  92.0987  111.488  1.115260  0.106298  2428.06  2799.63  2496.62  2543.62
  5715.888  5715.900  0.500  97.297  111.474  1.114201  0.105920  2748.08  2801.64  2691.69  2604.64
  5716.389  5716.400  0.500  100.79  111.53  1.113119  0.106115  2757.06  2903.68  2733.71  2846.72
  5716.891  5716.900  0.500  104.768  111.881  1.114763  0.106114  2844.29  3090.72  2950.77  2835.71
  5717.389  5717.400  0.500  110.958  111.863  1.111407  0.105873  3094.8  3196.75  3031.79  3088.78
  5717.891  5717.900  0.500  114.381  111.871  1.107509  0.105546  3143.44  3326.79  3198.84  3126.79
  5718.393  5718.400  0.500  122.232  111.878  1.103047  0.105056  3316.51  3682.87  3381.88  3293.84
  5718.893  5718.900  0.500  130.253  111.87  1.097178  0.104680  3626.53  3893.94  3636.99  3413.89
  5719.396  5719.400  0.500  138.979  111.847  1.091457  0.103911  3782.4  4052.99  3830.03  3879.02
  5719.894  5719.900  0.500  147.803  111.834  1.085301  0.103194  4037.08  4292.06  4130.12  4070.08
  5720.390  5720.400  0.500  158.848  111.848  1.077768  0.102372  4412.19  4720.21  4361.24  4273.16
  5720.893  5720.900  0.500  170.175  111.87  1.067645  0.101428  4788.61  5028.31  4698.35  4522.27
  5721.395  5721.400  0.500  187.472  111.832  1.055736  0.100228  5123.97  5419.43  5192.51  5229.49
  5721.895  5721.900  0.500  210.165  111.82  1.038671  0.098565  5891.54  6079.65  5684.71  5844.71
  5722.394  5722.400  0.500  236.82  111.811  1.017117  0.096393  6565.05  6925.99  6532.08  6456
  5722.893  5722.900  0.500  275.686  111.783  0.988702  0.093636  7733.89  8003.38  7661.48  7418.34
  5723.396  5723.400  0.500  322.289  111.796  0.951762  0.090148  8866.73  9469.97  8994.1  8699.91
  5723.900  5723.900  0.500  376.51  111.767  0.909291  0.085920  10539.5  10908.6  10279.7  10353.7
  5724.394  5724.400  0.500  444.346  111.761  0.861042  0.080892  12225.4  12862.7  12279.8  12292.7
  5724.896  5724.900  0.500  514.078  111.787  0.812327  0.076034  14503  14901.8  14115.9  13946.7
  5725.393  5725.400  0.500  574.784  111.759  0.769735  0.071648  16014.6  16680.9  15861.9  15679.8
  5725.898  5725.900  0.500  623.007  111.79  0.735672  0.068105  17514.5  18238.7  17127.9  16764.6
  5726.399  5726.400  0.500  653.666  111.791  0.715899  0.065488  18058.7  18895.3  18386.7  17733.2
  5726.893  5726.900  0.500  653.716  111.782  0.711259  0.064674  18058.7  18895.3  18386.7  17733.2
  5727.399  5727.400  0.500  656.687  111.794  0.721245  0.065186  18003.1  19043.4  18135.6  18231.6
  5727.900  5727.900  0.500  614.515  111.761  0.740284  0.066616  17086.1  17845.6  16994.8  16752.6
  5728.398  5728.400  0.500  575.684  111.774  0.764087  0.068495  15951.5  16717.9  16158.1  15518.7
  5728.898  5728.900  0.500  554.788  111.777  0.787449  0.070349  15951.5  16055.4  15133.5  14872.2
  5729.398  5729.400  0.500  536.546  111.737  0.807208  0.071899  14542.3  16055.4  15133.5  14220.8
  5729.901  5729.900  0.500  520.156  111.712  0.824603  0.073160  14542.3  15060.8  14284  14220.8
  5730.401  5730.400  0.500  474.252  111.746  0.839542  0.074395  13111.9  13757.1  13214.4  12912.1
  5730.900  5730.900  0.500  456.566  111.717  0.853281  0.075274  12516.7  13757.1  12518.9  12213.7
  5731.401  5731.400  0.500  439.191  111.696  0.867361  0.076440  12299.2  12639.5  12042.6  12074.5
  5731.904  5731.900  0.500  418.126  111.682  0.881920  0.078030  11638.4  12078.2  11637.4  11343.2
  5732.402  5732.400  0.500  404.255  111.694  0.897011  0.079579  11031.7  11765  11234.2  11122.1
  5732.903  5732.900  0.500  383.84  111.694  0.912365  0.081122  10912.9  11095.8  10481.9  10381.8
  5733.400  5733.400  0.500  371.107  111.663  0.924740  0.082647  10363.4  10767.5  10196.6  10111.5
  5733.899  5733.900  0.500  357.169  111.636  0.934028  0.083889  9803.49  10471.4  9868.52  9729.36
  5734.405  5734.400  0.500  353.496  111.646  0.940745  0.084568  9849.32  10193.3  9766.47  9657.34
  5734.908  5734.900  0.500  354.216  111.669  0.944923  0.085037  9811.82  10349.4  9725.46  9668.36
  5735.401  5735.400  0.500  348.406  111.652  0.945280  0.085040  9644.41  10113.2  9633.39  9509.25
  5735.898  5735.900  0.500  353.033  111.648  0.943428  0.084937  9743.15  10249.3  9728.47  9694.35
  5736.403  5736.400  0.500  358.911  111.626  0.940410  0.084365  9873.28  10471.5  9923.58  9795.47
  5736.904  5736.900  0.500  364.911  111.59  0.936782  0.083925  10099.7  10581.5  10248.7  9790.43
  5737.401  5737.400  0.500  374.949  111.621  0.933951  0.083666  10183.8  10968.7  10212.7  10486.8
  5737.906  5737.900  0.500  373.73  111.597  0.933755  0.083490  10334.1  10834.6  10429.8  10108.6
  5738.398  5738.400  0.500  373.066  111.613  0.934157  0.083582  10332.1  10861.6  10260.7  10184.6
  5738.901  5738.900  0.500  373.987  111.587  0.935647  0.083969  10332.1  10731.6  10456.8  10211.6
  5739.399  5739.400  0.500  368.017  111.564  0.938467  0.084393  10239.5  10705.6  10205.7  9906.49
  5739.905  5739.900  0.500  368.97  111.547  0.942366  0.084897  10040.5  10810.6  10309.8  9996.55
  5740.405  5740.400  0.500  363.003  111.57  0.947765  0.085523  10141.8  10327.5  10039.6  9991.55
  5740.903  5740.900  0.500  354.649  111.589  0.954461  0.086589  9773.57  10347.4  9785.52  9668.4
  5741.399  5741.400  0.500  346.402  111.549  0.961251  0.087665  9635.59  9971.28  9669.46  9364.3
  5741.899  5741.900  0.500  340.522  111.576  0.968695  0.088702  9535.35  9879.2  9380.31  9199.15
  5742.400  5742.400  0.500  334.462  111.547  0.975574  0.089623  9267.68  9612.05  9340.26  9088.11
  5742.903  5742.900  0.500  329.523  111.559  0.982164  0.090841  9153.11  9502.01  9207.19  8899.01
  5743.406  5743.400  0.500  324.042  111.543  0.987617  0.091508  8923.55  9258.91  9156.15  8805.95
  5743.904  5743.900  0.500  321.48  111.526  0.992262  0.092206  8939.42  9232.9  8855.09  8825.99
  5744.403  5744.400  0.500  315.755  111.511  0.996079  0.092865  8685.43  9253.89  8781  8489.82
  5744.906  5744.900  0.500  316.486  111.518  0.999444  0.093370  8664.26  9150.83  8764.96  8713.88
  5745.402  5745.400  0.500  310.024  111.494  1.002447  0.093810  8482.29  9037.78  8613.93  8431.79
  5745.902  5745.900  0.500  310.107  111.43  1.004239  0.094039  8463.6  9030.82  8598.92  8461.79
  5746.398  5746.400  0.500  310.003  111.451  1.006360  0.094581  8659.7  9059.81  8452.85  8377.78
  5746.902  5746.900  0.500  309.038  111.435  1.008042  0.094651  8419.94  8974.83  8606.96  8435.85
  5747.400  5747.400  0.500  309.432  111.414  1.009134  0.095149  8513.48  9140.87  8551.95  8268.78
  5747.904  5747.900  0.500  311.902  111.423  1.010885  0.095374  8526.44  9140.87  8817  8268.78
  5748.405  5748.400  0.500  311.047  111.409  1.011091  0.095299  8446.81  9040.79  8529.88  8635.84
  5749.397  5749.390  0.500  311.499  111.414  1.011413  0.095525  8446.81  9141.85  8612.94  8503.83
  5750.401  5750.390  0.500  317.068  111.381  1.010935  0.095736  8894.61  9162.86  8612.94  8644.9
  5751.417  5751.410  0.500  321.876  111.368  1.009342  0.095980  8836.93  9367.9  8757.99  8883.98
  5752.467  5752.460  0.500  327.515  111.286  1.007175  0.095676  9083.53  9479.04  9012.16  8873.02
  5753.530  5753.520  0.500  331.243  111.36  1.005581  0.095721  9128.76  9526.02  9181.2  9051.1
  5754.613  5754.600  0.500  339.004  111.345  1.004324  0.095508  9378.82  9872.22  9155.22  9340.23
  5755.710  5755.700  0.500  340.727  111.304  1.002805  0.095484  9249.32  10004.3  9329.3  9341.23
  5756.830  5756.820  0.500  343.666  111.286  1.002466  0.095498  9480.45  10064.3  9431.33  9269.24
  5757.968  5757.960  0.500  347.307  111.284  1.003028  0.095770  9542.59  10240.4  9575.43  9291.25
  5759.125  5759.110  0.500  345.829  111.263  1.004458  0.095675  9618.12  10072.3  9383.32  9404.27
  5760.285  5760.290  0.500  352.299  111.234  1.007953  0.096113  9620.35  10324.4  9777.5  9465.3
  5761.477  5761.480  0.500  350.168  111.211  1.011027  0.096613  9743.64  10023.3  9619.45  9556.34
  5762.695  5762.700  0.500  345.871  111.188  1.015064  0.096997  9444.51  10079.3  9637.44  9295.24
  5763.932  5763.930  0.500  345.518  111.183  1.020046  0.097636  9440.6  10112.3  9449.36  9413.26
  5765.183  5765.180  0.500  345.659  111.143  1.025004  0.097922  9506.68  10029.3  9604.44  9277.22
  5766.454  5766.450  0.500  343.431  111.136  1.029421  0.098379  9506.68  9837.17  9418.32  9405.26
  5767.750  5767.740  0.500  340.167  111.148  1.033256  0.098831  9333.09  9923.2  9271.27  9281.19
  5769.056  5769.050  0.500  341.342  111.106  1.037487  0.099237  9495.44  9770.14  9479.37  9180.16
  5770.385  5770.380  0.500  339.115  111.121  1.042175  0.099976  9314.02  9777.15  9335.3  9256.22
  5771.736  5771.730  0.500  337.542  111.083  1.045729  0.100523  9430.67  9697.12  9151.22  9216.18
  5773.108  5773.100  0.500  334.67  111.059  1.049842  0.100810  9090.55  9629.09  9360.29  9088.09
  5774.490  5774.480  0.500  336.322  111.032  1.054092  0.101455  9285.86  9625.11  9285.27  9146.14
  5775.898  5775.890  0.500  333.81  111.056  1.059463  0.102371  9334.18  9648.14  8980.18  9109.14
  5777.319  5777.310  0.500  330.92  111.042  1.064657  0.102882  9163.83  9584.08  9016.15  8982.05
  5778.756  5778.750  0.500  330.186  111.02  1.069860  0.103653  9246.98  9583.09  8876.1  8951.07
  5780.219  5780.210  0.500  329.846  111.007  1.075043  0.104525  8991.69  9462.04  9218.26  8943.07
  5781.699  5781.690  0.500  326.311  110.996  1.080373  0.105402  9061.22  9205.9  9140.16  8811.99
  5783.197  5783.190  0.500  327.771  110.987  1.085708  0.106117  8902.23  9591.07  9008.13  8877.03
  5784.716  5784.710  0.500  324.123  110.953  1.089862  0.106838  8902.23  9277.99  8879.12  8903.06
  5786.256  5786.250  0.500  323.297  110.888  1.092577  0.107372  8925.74  9310.91  8926.08  8686.92
  5787.817  5787.810  0.500  328.458  110.91  1.095715  0.107940  9048.15  9583.05  9019.16  8778.98
  5789.384  5789.380  0.500  328.182  110.872  1.097017  0.108145  9048.15  9583.05  8976.16  8778.98
  5790.989  5790.980  0.500  333.953  110.858  1.097775  0.108541  9029.85  9660.15  9207.28  9124.15
  5792.596  5792.590  0.500  339.137  110.834  1.098482  0.108941  9438.39  9738.17  9244.27  9167.18
  5794.236  5794.230  0.500  341.003  110.787  1.099304  0.108967  9350.65  9798.21  9353.36  9276.27
  5795.887  5795.880  0.500  343.277  110.814  1.101772  0.109515  9519.12  9798.21  9446.42  9276.27
  5797.558  5797.550  0.500  347.44  110.774  1.103663  0.110010  9496.4  10196.3  9378.36  9416.33
  5799.246  5799.240  0.500  347.903  110.743  1.107041  0.110559  9513.72  10127.3  9460.39  9426.31
  5800.957  5800.950  0.500  351.517  110.723  1.111490  0.111283  9568.64  10312.5  9647.47  9392.32
  5802.692  5802.680  0.500  349.684  110.682  1.116234  0.111953  9568.64  10140.3  9647.47  9347.29
  5804.438  5804.430  0.500  348.558  110.665  1.121885  0.112711  9511.23  10238.4  9481.44  9342.27
  5806.197  5806.190  0.500  345.69  110.654  1.128136  0.113550  9417.06  10000.3  9486.4  9348.28
  5807.990  5807.980  0.500  342.141  110.612  1.133484  0.114071  9421.33  9972.23  9219.26  9232.19
  5809.788  5809.780  0.500  342.717  110.49  1.137309  0.114965  9433.86  9776.24  9291.35  9365.31
  5811.619  5811.610  0.500  342.101  110.59  1.144125  0.115556  9426.23  9752.22  9437.38  9217.21
  5813.460  5813.450  0.500  342.867  110.557  1.149947  0.116420  9421.78  9872.22  9362.32  9250.22
  5815.313  5815.310  0.500  343.598  110.522  1.154509  0.117128  9368.19  9962.27  9432.38  9212.2
  5817.196  5817.190  0.500  342.407  110.482  1.160253  0.117941  9189.88  9833.25  9439.44  9367.32
  5819.097  5819.090  0.500  342.52  110.451  1.165393  0.118604  9450.9  9872.27  9301.38  9207.25
  5821.019  5821.010  0.500  341.522  110.396  1.170280  0.119040  9444.96  9800.21  9323.34  9134.2
  5822.961  5822.950  0.500  345.921  110.374  1.174086  0.119682  9596.73  9946.29  9373.39  9264.27
  5824.921  5824.910  0.500  345.763  110.326  1.177351  0.120274  9596.73  9912.31  9373.39  9264.27
  5826.888  5826.880  0.500  351.389  110.216  1.178807  0.120730  9501.43  10188.4  9514.46  9524.4
  5828.888  5828.880  0.500  351.811  110.232  1.181260  0.121246  9501.43  10188.4  9514.46  9576.42
  5830.897  5830.890  0.500  356.374  110.162  1.184237  0.121982  9718.46  10199.4  9653.55  9687.5
  5832.926  5832.920  0.500  354.146  110.122  1.188787  0.122656  9677.03  10254.4  9653.51  9414.34
  5834.987  5834.980  0.500  355.704  110.051  1.193157  0.123370  9779.27  10105.4  9711.55  9549.43
  5837.057  5837.050  0.500  358.311  110.004  1.198531  0.124343  9779.27  10134.5  9715.56  9786.54
  5839.145  5839.140  0.500  355.68  109.901  1.203270  0.125154  9619.08  10107.4  9625.52  9737.51
  5841.254  5841.250  0.500  352.477  109.871  1.209353  0.126109  9690.52  10048.4  9583.5  9404.38
  5843.386  5843.380  0.500  357.512  109.778  1.215439  0.126982  9856.35  10224.5  9663.52  9502.41
  5845.521  5845.520  0.500  357.593  109.687  1.220222  0.127841  9625.6  10356.5  9673.56  9567.46
  5847.693  5847.690  0.500  356.454  109.632  1.224830  0.128803  9546.39  10247.5  9688.54  9596.43
  5849.887  5849.880  0.500  359.868  109.532  1.230251  0.129589  9834.61  10167.4  9724.57  9690.47
  5852.085  5852.080  0.500  359.548  109.446  1.235659  0.130576  9834.61  10167.4  9764.57  9584.44
  5854.307  5854.300  0.500  355.129  109.326  1.241056  0.131462  9684.54  10151.4  9494.46  9494.4
  5856.554  5856.550  0.500  356.33  109.184  1.245786  0.132232  9589.98  10249.5  9599.55  9466.43
  5858.815  5858.810  0.500  358.961  109.046  1.251053  0.133228  9595.82  10249.5  9599.55  9698.48
  5861.098  5861.090  0.500  359.469  108.902  1.256778  0.134101  9607.38  10246.5  9748.59  9544.42
  5863.398  5863.390  0.500  354.875  109.061  1.266765  0.135614  9490.79  10186.4  9746.57  9279.33
  5865.714  5865.710  0.500  356.42  108.785  1.270356  0.136314  9643.77  10092.4  9573.51  9463.37
  5868.056  5868.050  0.500  359.66  108.285  1.270801  0.136764  9480.4  10166.4  9814.59  9484.39
  5870.408  5870.400  0.500  360.873  106.821  1.260009  0.135698  9532.84  9925.27  9612.48  9478.35
  5872.784  5872.780  0.500  363.3  87.7525  1.038956  0.112400  7915.38  8295.36  7839.4  7830.37
  5875.175  5875.170  0.500  363.093  109.681  1.305199  0.141301  9780.54  10387.6  9834.73  9821.64
  5877.594  5877.590  0.500  363.213  109.865  1.311975  0.142561  9943.57  10340.6  9988.76  9631.56
  5880.026  5880.020  0.500  362.991  109.55  1.314281  0.143068  9826.7  10339.6  9930.8  9668.6
  5882.475  5882.470  0.500  367.498  109.303  1.318267  0.144119  9913.9  10600.6  9820.67  9833.57
  5884.951  5884.950  0.500  364.903  109.051  1.322573  0.144818  9853.31  10458.6  9821.68  9659.54
  5887.443  5887.440  0.500  366.38  108.797  1.326017  0.145607  9753.17  10360.5  10015.8  9731.59
  5889.954  5889.950  0.500  369.136  108.672  1.332812  0.146736  9932.82  10471.6  9875.72  9834.62
  5892.475  5892.470  0.500  369.803  108.477  1.336795  0.147664  10115.2  10378.6  9827.71  9793.59
  5895.024  5895.020  0.500  365.927  108.235  1.342067  0.148414  9842.36  10364.6  9708.63  9690.58
  5897.597  5897.590  0.500  367.578  107.984  1.346287  0.149186  9831.64  10313.5  9697.63  9849.59
  5900.180  5900.170  0.500  368.944  107.798  1.351722  0.150148  9831.64  10379.5  9859.66  9700.54
  5902.788  5902.780  0.500  368.851  107.556  1.356726  0.151239  9786.34  10488.6  9790.62  9606.49
  5905.410  5905.400  0.500  366.926  107.309  1.361182  0.152086  9755.88  10243.5  9873.72  9501.47
  5908.070  5908.050  0.500  370.713  106.958  1.365620  0.153033  9755.88  10315.6  9838.69  9740.58
  5910.719  5910.710  0.500  369.388  106.432  1.367977  0.153651  9888.12  10201.5  9656.58  9568.47
  5913.401  5913.390  0.500  368.869  105.259  1.360725  0.153395  9555.52  10166.4  9669.56  9435.38
  5916.100  5916.090  0.500  371.266  92.1829  1.198519  0.135888  8449.04  9063.8  8527.89  8183.67
  5918.821  5918.810  0.500  369.921  106.394  1.392768  0.157940  9920.82  10187.4  9750.62  9498.43
  5921.564  5921.550  0.500  367.143  107.265  1.412965  0.160734  9818.81  10348.6  9711.63  9502.49
  5924.322  5924.300  0.500  370.831  106.566  1.412025  0.161228  9676.33  10404.5  9802.62  9634.49
  5927.094  5927.080  0.500  370.915  105.775  1.409071  0.161289  9621.04  10314.5  9604.57  9693.5
  5929.881  5929.870  0.500  374.265  104.986  1.406394  0.161488  9621.04  10314.5  9778.58  9578.41
  5932.713  5932.690  0.500  375.498  106.228  1.430935  0.164901  9799.59  10359.5  9984.7  9744.52
  5935.531  5935.520  0.500  375.175  105.911  1.434171  0.165880  9841.29  10375.6  9972.73  9545.49
  5938.383  5938.370  0.500  374.061  105.163  1.431575  0.165971  9639.89  10338.5  9754.58  9604.46
  5941.269  5941.250  0.500  375.193  104.002  1.424345  0.165825  9680.41  10308.5  9560.5  9471.41
  5944.138  5944.140  0.500  382.179  98.4472  1.356216  0.158260  9399.97  9852.14  9222.23  9150.13
  5947.050  5947.050  0.500  378.583  105.226  1.458303  0.170514  10016  10148.5  9743.67  9928.65
  5949.968  5949.970  0.500  380.338  105.343  1.469145  0.172314  9846.17  10434.6  9861.66  9923.62
  5952.912  5952.920  0.500  380.602  104.827  1.470637  0.173147  9947.46  10288.5  9836.66  9824.58
  5955.886  5955.890  0.500  380.391  104.393  1.473490  0.173880  9947.46  10239.5  9880.7  9642.53
  5958.862  5958.870  0.500  385.537  103.994  1.477164  0.174923  10172.8  10397.6  9880.7  9642.53
  5961.875  5961.880  0.500  383.943  103.61  1.481864  0.175998  9872.63  10339.6  9777.63  9790.57
  5964.896  5964.900  0.500  384.283  103.258  1.487069  0.177138  9973.88  10334.6  9868.62  9503.44
  5967.948  5967.950  0.500  380.575  102.875  1.492321  0.178274  9771.2  10336.5  9632.53  9411.38
  5971.005  5971.010  0.500  380.543  102.451  1.496813  0.179383  9673.46  10215.4  9725.6  9372.38
  5974.080  5974.090  0.500  384.196  102.016  1.500207  0.180709  9673.46  10125.4  9751.6  9643.47
  5977.178  5977.190  0.500  381.224  101.577  1.504016  0.181547  9605.37  10140.4  9570.5  9407.33
  5980.303  5980.310  0.500  380.577  101.099  1.506397  0.182547  9465.61  10131.4  9565.52  9313.33
  5983.445  5983.450  0.500  384.265  100.438  1.506508  0.182947  9550.6  9948.33  9666.51  9429.34
  5986.627  5986.600  0.500  388.8  99.0966  1.495967  0.182379  9550.6  10092.4  9451.41  9434.35
  5989.784  5989.780  0.500  392.208  83.3904  1.264846  0.155048  7973.86  8603.49  8155.58  7973.46
  5992.993  5992.970  0.500  388.915  101.322  1.548680  0.190008  9713.17  10445.5  9779.58  9467.39
  5996.200  5996.190  0.500  392.003  100.566  1.546945  0.190455  9836.8  10349.4  9657.51  9578.39
  5999.414  5999.420  0.500  392.746  99.9386  1.546849  0.190802  9836.14  10227.4  9621.51  9565.38
  6002.667  6002.670  0.500  392.451  99.3898  1.547977  0.191678  9808.35  10227.4  9564.48  9405.35
  6005.941  6005.950  0.500  395.833  98.9017  1.550694  0.192625  9643.28  10322.4  9615.48  9567.38
  6009.227  6009.240  0.500  397.064  98.4156  1.553265  0.193540  9749  10319.5  9604.47  9404.33
  6012.575  6012.550  0.500  394.038  97.9666  1.557404  0.194934  9682.57  10081.3  9443.37  9395.29
  6015.893  6015.870  0.500  398.417  97.4977  1.561667  0.196080  9652.56  10153.4  9688.49  9350.3
  6019.212  6019.220  0.500  397.626  97.0971  1.566668  0.197394  9686.33  10199.4  9375.33  9347.27
  6022.612  6022.590  0.500  399.315  96.6476  1.570022  0.198786  9674.91  10100.3  9563.39  9254.24
  6025.956  6025.970  0.500  394.173  96.1892  1.575374  0.199870  9454.32  9956.29  9254.31  9250.25
  6029.379  6029.380  0.500  393.353  95.735  1.578608  0.200998  9422.99  9833.21  9205.28  9196.19
  6032.815  6032.800  0.500  397.654  95.297  1.582884  0.202451  9426.42  9829.22  9311.35  9328.24
  6036.243  6036.250  0.500  395.534  94.7934  1.586153  0.203471  9248.5  9788.13  9290.27  9167.13
  6039.722  6039.710  0.500  399.707  94.3386  1.589924  0.204775  9224.09  9773.18  9484.39  9226.19
  6043.180  6043.190  0.500  401.028  93.8667  1.594248  0.205963  9212.47  9773.18  9484.39  9173.12
  6046.679  6046.690  0.500  399.689  93.403  1.597407  0.206964  9278.67  9701.11  9232.23  9120.1
  6050.199  6050.210  0.500  400.729  92.9459  1.600143  0.208144  9298.66  9748.13  9132.21  9067.1
  6053.734  6053.750  0.500  404.668  92.4034  1.601483  0.209105  9385.27  9692.12  9329.28  8986.05
  6057.288  6057.300  0.500  400.544  91.7905  1.601281  0.210038  9066.86  9386.97  9261.22  9051.05
  6060.869  6060.880  0.500  404.96  91.2182  1.602087  0.210749  9256.49  9603.01  9128.17  8952
  6064.480  6064.480  0.500  402.413  90.7028  1.604313  0.211729  9034.85  9602.06  8938.07  8925
  6068.074  6068.090  0.500  404.534  90.2223  1.607379  0.212888  9034.85  9479.97  9058.11  8925
  6071.706  6071.720  0.500  409.406  89.7705  1.611344  0.214171  9259.46  9482  8991.08  9020.03
  6075.374  6075.380  0.500  411.375  89.2877  1.614787  0.215359  9087.52  9730.09  9127.13  8785.95
  6079.058  6079.050  0.500  411.446  88.7604  1.617677  0.216479  9096.06  9532  9040.08  8851.96
  6082.723  6082.740  0.500  407.553  88.2601  1.619967  0.217732  8846.82  9469.97  8865  8788.91
  6086.433  6086.450  0.500  408.139  87.7924  1.623548  0.218882  8846.82  9426.92  8811.91  8745.86
  6090.162  6090.180  0.500  411.372  87.3131  1.626950  0.220043  9003.53  9432.9  8727.91  8753.85
  6093.905  6093.920  0.500  408.716  86.8095  1.630374  0.221330  8957.83  9165.83  8664.91  8691.85
  6097.670  6097.690  0.500  411.666  86.2822  1.632625  0.222553  8939.93  9150.81  8852.94  8575.79
  6101.458  6101.480  0.500  413.633  85.6751  1.633844  0.223724  8812.56  9134.79  8750.91  8739.85
  6105.268  6105.280  0.500  415.285  85.2394  1.637057  0.225091  8802.17  9131.77  8781.91  8682.82
  6109.099  6109.110  0.500  413.641  84.6905  1.638829  0.225844  8802.17  9131.77  8563.79  8533.71
  6112.938  6112.950  0.500  412.78  84.1837  1.641603  0.227121  8781.05  9164.8  8382.77  8420.74
  6116.792  6116.810  0.500  418.417  83.6253  1.642670  0.228001  8633.88  9126.74  8603.81  8625.77
  6120.675  6120.690  0.500  414.58  83.0606  1.643222  0.228845  8566.16  8893.66  8471.77  8503.69
  6124.575  6124.590  0.500  416.102  82.4791  1.643683  0.229866  8553.65  9104.74  8300.69  8360.65
  6128.498  6128.510  0.500  422.608  81.9171  1.645052  0.230795  8553.65  9104.74  8599.8  8360.65
  6132.433  6132.450  0.500  420.261  81.3377  1.645604  0.231854  8571.15  9048.66  8334.68  8228.57
  6136.421  6136.410  0.500  420.331  80.7519  1.646406  0.232871  8532.73  8830.59  8242.62  8336.63
  6140.367  6140.380  0.500  417.143  80.0774  1.645779  0.233626  8346.08  8734.53  8216.61  8106.51
  6144.360  6144.380  0.500  422.975  79.4599  1.644764  0.234262  8309.76  8782.58  8253.63  8263.56
  6148.378  6148.390  0.500  421.576  78.7728  1.640992  0.234511  8264.14  8735.54  8230.61  7978.46
  6152.417  6152.430  0.500  416.943  77.9783  1.634428  0.234488  7994.08  8560.45  7996.52  7961.44