File: xdidata/Ce/Ce-L3-Ce2Ti2O7.xdi
# XDI/1.0 BlueSky/1.10.0 BMM/2023-1.0-py310-tiled
# Beamline.name: BMM (06BM) -- Beamline for Materials Measurement (NIST)
# Beamline.xray_source: NSLS-II three-pole wiggler
# Beamline.collimation: paraboloid mirror, 5 nm Rh on 30 nm Pt
# Beamline.focusing: not in use
# Beamline.harmonic_rejection: flat mirror, Si stripe, pitch = 7.0 mrad relative to beam
# Beamline.software: Bluesky 1.10.0, Ophyd 1.7.0, DataBroker 2.0.0b13, Python 3.10.8, 2023-1.0-py310-tiled
# Detector.I0: 10 cm N2
# Detector.I1: 25 cm N2
# Detector.I2: 25 cm N2
# Detector.fluorescence: SII Vortex ME4 (4-element silicon drift)
# Detector.deadtime_correction: Xspress3
# Element.symbol: Ce
# Element.edge: L3
# Element.reference: Ce
# Element.reference_material: CeO2
# Facility.name: NSLS-II
# Facility.energy: 3.0
# Facility.current: 399.9
# Facility.mode: top-off
# Facility.GUP: 123456
# Facility.SAF: 301027
# Facility.cycle: 2023-2
# Mono.name: Si(111)
# Mono.d_spacing: 3.13519
# Mono.encoder_resolution: 0.0000050 deg/ct
# Mono.angle_offset: 16.0754 deg
# Mono.scan_mode: pseudo channel cut
# Mono.scan_type: step
# Mono.direction: forward in energy
# Sample.name: Ce2Ti2O7
# Sample.prep: Powder in PEG pellet
# Sample.x: 142.329 mm
# Sample.y: 114.126 mm
# Sample.SDD_position: 45.000 mm
# Scan.experimenters: Bruce Ravel
# Scan.edge_energy: 5723.4
# Scan.start_time: 2023-05-06T10:34:35
# Scan.end_time: 2023-05-06T10:40:17
# Scan.transient_id: 74725
# Scan.uid: ffa7c10f-6ee4-4c2e-aaa3-b1590b842e49
# Scan.plot_hint: (Ce1+Ce2+Ce3+Ce4)/I0  --  ($8+$9+$10+$11)/$5
# Column.1: energy eV
# Column.2: requested_energy eV
# Column.3: measurement_time seconds
# Column.4: xmu
# Column.5: I0 nA
# Column.6: It nA
# Column.7: Ir nA
# Column.8: Ce1
# Column.9: Ce2
# Column.10: Ce3
# Column.11: Ce4
# ///////////
# sample courtesy Martin Stennett, University of Sheffield
# -----------
# energy  requested_energy  measurement_time  xmu  I0  It  Ir  Ce1  Ce2  Ce3  Ce4
  5523.402  5523.400  0.500  105.727  109.451  1.337065  0.098803  2906.34  3055.85  2849.88  2759.83
  5533.407  5533.400  0.500  107.518  109.769  1.376962  0.103325  3034.58  3053.87  2961.92  2751.84
  5543.418  5543.400  0.500  107.701  110.103  1.418176  0.107642  3034.58  3069.9  2915.93  2837.88
  5553.414  5553.400  0.500  108.75  110.429  1.459999  0.112384  2902.32  3211.94  2917.92  2976.93
  5563.410  5563.400  0.500  108.851  110.761  1.503094  0.117320  3040.64  3172.94  2903.94  2938.92
  5573.412  5573.400  0.500  109.625  111.021  1.544751  0.122067  2989.81  3201.96  2963.96  3014.96
  5583.408  5583.400  0.500  112.59  111.26  1.587503  0.127257  3052.78  3324  3105  3044.97
  5593.404  5593.400  0.500  112.503  111.477  1.629345  0.132312  3055.36  3302.01  3109.04  3074.99
  5603.409  5603.400  0.500  111.217  111.625  1.672441  0.137648  3047.52  3224.98  3128.04  3013.98
  5613.405  5613.400  0.500  113.914  111.784  1.715423  0.143274  3165.67  3330.03  3169.07  3069.01
  5623.693  5623.400  0.500  114.115  111.853  1.759959  0.148729  3133.97  3350.03  3140.06  3140.04
  5633.388  5633.400  0.500  116.076  112.019  1.805324  0.154502  3304.44  3447.08  3118.08  3133.05
  5643.389  5643.400  0.500  116.461  112.108  1.852828  0.160714  3253.92  3426.1  3200.11  3176.08
  5653.396  5653.400  0.500  118.186  112.185  1.898448  0.166655  3346.48  3410.09  3284.14  3218.09
  5663.399  5663.400  0.500  122.273  112.219  1.945989  0.173009  3327.82  3669.17  3454.2  3270.12
  5673.398  5673.400  0.500  123.621  112.27  1.990617  0.179074  3480.38  3630.2  3415.21  3353.17
  5683.399  5683.400  0.500  127.851  112.305  2.035205  0.185629  3544.55  3745.22  3572.29  3496.22
  5693.392  5693.400  0.500  132.744  112.261  2.077316  0.191680  3698.02  3965.31  3664.32  3574.25
  5695.391  5695.400  0.500  135.084  112.244  2.085458  0.192866  3780.24  3899.31  3782.39  3700.32
  5697.389  5697.400  0.500  137.362  112.238  2.092606  0.193918  3838.12  4084.39  3818.42  3676.31
  5699.389  5699.400  0.500  141.056  112.227  2.101468  0.195277  3953.11  4016.34  3953.45  3907.4
  5701.389  5701.400  0.500  143.224  112.187  2.107791  0.196373  3986.61  4346.49  3886.45  3848.4
  5703.398  5703.400  0.500  149.318  112.199  2.111710  0.197185  4186.87  4280.48  4190.56  4095.49
  5705.399  5705.400  0.500  154.25  112.183  2.115733  0.198128  4151.53  4581.57  4346.62  4224.54
  5707.386  5707.400  0.500  160.139  112.179  2.118651  0.198650  4506.4  4719.63  4382.63  4355.6
  5709.399  5709.400  0.500  168.521  112.147  2.117930  0.198831  4677.75  5015.78  4595.75  4609.72
  5711.392  5711.400  0.500  181.53  112.145  2.113002  0.198880  5073.91  5225.88  5141.99  4915.86
  5713.403  5713.400  0.500  198.945  112.12  2.099642  0.198047  5535.43  5755.1  5579.19  5436.1
  5713.891  5713.900  0.500  207.89  112.115  2.091311  0.197427  5715.85  6106.22  5756.26  5729.19
  5714.388  5714.400  0.500  211.698  112.142  2.086421  0.196991  5820.42  6197.28  5864.32  5858.28
  5714.888  5714.900  0.500  221.292  112.111  2.078141  0.196214  6057.07  6342.35  6192.51  6217.44
  5715.390  5715.400  0.500  227.542  112.1  2.070472  0.195586  6361.83  6569.47  6405.57  6170.45
  5715.889  5715.900  0.500  238.677  112.088  2.059135  0.194524  6782.99  6980.61  6507.62  6481.55
  5716.389  5716.400  0.500  255.164  112.082  2.045736  0.193304  7011.59  7453.84  7132.94  7000.82
  5716.892  5716.900  0.500  266.891  112.05  2.029363  0.191795  7452.05  7804.01  7375.07  7273.96
  5717.389  5717.400  0.500  281.651  112.058  2.010704  0.189986  7819.61  8270.24  7761.25  7710.18
  5717.891  5717.900  0.500  307.597  112.053  1.986183  0.187822  8453.3  8945.57  8733.78  8334.52
  5718.392  5718.400  0.500  328.319  112.056  1.958157  0.185142  9037.38  9671.88  9021.94  9058.85
  5718.895  5718.900  0.500  355.739  112.045  1.929226  0.182221  9915.9  10288.2  9966.41  9688.22
  5719.393  5719.400  0.500  383.646  112.042  1.898873  0.179135  10617  11163.8  10771.9  10431.7
  5719.894  5719.900  0.500  408.769  112.025  1.864827  0.176019  11415.9  11983.2  11245.2  11148.1
  5720.390  5720.400  0.500  448.473  112.035  1.823836  0.172142  12401.9  13220  12392  12230.8
  5720.894  5720.900  0.500  491.243  112.015  1.771001  0.166953  13793  14228.6  13539.7  13465.6
  5721.395  5721.400  0.500  518.525  112.008  1.705555  0.160748  15238.1  14228.6  13539.7  15072.7
  5721.894  5721.900  0.500  625.941  112.001  1.621352  0.152913  17194.5  18098.3  17573.6  17239.3
  5722.393  5722.400  0.500  713.142  111.996  1.520404  0.143269  19875.1  20643.3  19883.5  19467.2
  5722.894  5722.900  0.500  825.827  111.984  1.400831  0.131718  22570.6  23933.1  23254.5  22721
  5723.396  5723.400  0.500  930.769  111.991  1.264569  0.118784  26825.6  23933.1  27049.4  26429.8
  5723.897  5723.900  0.500  1111.75  111.982  1.129078  0.105779  30991.6  32141.4  31131  30231.9
  5724.396  5724.400  0.500  1245.6  111.983  1.003445  0.093671  34413.8  36002.9  34860.4  34208.7
  5724.895  5724.900  0.500  1378.24  111.953  0.899996  0.083620  37961.8  39732.2  39093.3  37511.4
  5725.395  5725.400  0.500  1469.98  112.21  0.828640  0.076465  40602.4  42669  41530.4  40144.9
  5725.899  5725.900  0.500  1534.84  112.199  0.777715  0.071174  42180.3  44768.8  43405.5  41853.5
  5726.396  5726.400  0.500  1579.67  112.214  0.750852  0.068018  43665.8  45731  44488.7  43375.4
  5726.898  5726.900  0.500  1587.4  112.212  0.744468  0.067107  44048.7  45970.4  44585.1  43520.9
  5727.397  5727.400  0.500  1560.02  112.187  0.760254  0.068007  42909.3  45375.2  43745.2  42984.2
  5727.902  5727.900  0.500  1549.78  112.209  0.796595  0.071068  42909.3  45375.2  42630.9  42984.2
  5728.400  5728.400  0.500  1463.21  112.181  0.849107  0.075660  41394.1  43606.2  39983  39160.2
  5728.897  5728.900  0.500  1347.87  112.186  0.912598  0.080768  37122.1  39188.5  37789.2  37111.3
  5729.394  5729.400  0.500  1273.18  112.192  0.977307  0.086146  34968.9  37105  35571.9  35194.6
  5729.900  5729.900  0.500  1190.2  112.19  1.044005  0.091711  32900.2  34578  33293.2  32757.7
  5730.403  5730.400  0.500  1120.86  112.176  1.107207  0.096972  31098.6  32394.6  31320.7  30919.6
  5730.896  5730.900  0.500  1106.21  112.161  1.164385  0.101670  29438.4  32394.6  31320.7  30919.6
  5731.398  5731.400  0.500  1002.6  112.149  1.220381  0.106616  27984.5  29283.2  27612.9  27559.8
  5731.897  5731.900  0.500  955.597  112.099  1.271633  0.111425  26527.3  27827.7  26712  26054.2
  5732.402  5732.400  0.500  904.342  112.131  1.320544  0.115938  24901.8  26019  25659.8  24824
  5732.902  5732.900  0.500  867.611  112.155  1.362554  0.120128  23823.7  25267.1  24372.6  23844
  5733.400  5733.400  0.500  830.969  112.119  1.397481  0.123911  22995.7  24323.4  23007.3  22841
  5733.904  5733.900  0.500  805.813  112.107  1.426718  0.126901  22477.5  23455.8  22510.9  21893.3
  5734.405  5734.400  0.500  793.407  112.107  1.450102  0.129221  21908.5  23084.3  22275.6  21678.2
  5734.901  5734.900  0.500  773.591  112.138  1.466166  0.130709  21404.8  22447.9  21668  21228.7
  5735.406  5735.400  0.500  765.868  112.112  1.474524  0.131548  21404.8  22209.6  21401.9  20846.4
  5735.903  5735.900  0.500  769.151  112.09  1.478501  0.131832  21153.7  22386.7  21634  21039.5
  5736.399  5736.400  0.500  771.712  112.094  1.480050  0.131507  21411.4  22304.7  21644.2  21143.6
  5736.902  5736.900  0.500  781.072  112.096  1.479662  0.131298  21616.9  22765  21738.1  21434.8
  5737.408  5737.400  0.500  773.455  112.098  1.478849  0.131130  21317.1  22558.9  21544  21282.7
  5737.905  5737.900  0.500  784.742  112.093  1.478431  0.131105  21795  22720.1  21967.1  21481.9
  5738.404  5738.400  0.500  777.623  112.04  1.478077  0.131004  21581.1  22494.9  21814.2  21234.7
  5738.899  5738.900  0.500  786.76  112.063  1.479959  0.131521  21697.8  22905.3  21982.3  21581
  5739.401  5739.400  0.500  783.356  112.06  1.482412  0.132023  21479.1  22900.3  21905.4  21498
  5739.906  5739.900  0.500  780.931  112.05  1.485002  0.132582  21544.2  22745.1  21996.3  21217.7
  5740.405  5740.400  0.500  777.707  112.059  1.488228  0.133432  21638.4  22462.8  21788.1  21259.7
  5740.903  5740.900  0.500  778.728  112.052  1.491859  0.134154  21356.5  22769.9  21822  21309.7
  5741.399  5741.400  0.500  773.745  112.054  1.495705  0.135166  21117.8  22575.9  21461.9  21545.9
  5741.899  5741.900  0.500  778.483  112.026  1.498996  0.136238  21482.2  22575.9  21935.4  21216.7
  5742.402  5742.400  0.500  776.119  112.017  1.503000  0.137231  21567  22286.7  21806.1  21278.7
  5742.903  5742.900  0.500  775.076  112.027  1.507711  0.138286  21501.7  22561  21595.1  21171.6
  5743.403  5743.400  0.500  770.386  111.99  1.510628  0.138928  21314.8  22376.7  21375.8  21208.6
  5743.898  5743.900  0.500  771.179  112.001  1.514395  0.139868  21314.8  22319.6  21612  21126.5
  5744.397  5744.400  0.500  768.83  112.004  1.517634  0.140463  21130.9  22365.7  21340.9  21274.7
  5744.898  5744.900  0.500  772.662  112.003  1.520468  0.140939  21181  22402.9  21700.2  21256.7
  5745.400  5745.400  0.500  768.515  112.007  1.523370  0.141573  21403.2  22436.6  21272.7  20966.4
  5745.906  5745.900  0.500  771.504  111.979  1.525488  0.141934  21278.1  22391.7  21394.8  21327.6
  5746.402  5746.400  0.500  765.581  111.991  1.527296  0.142346  21108.2  22172.6  21394.8  21062.5
  5746.899  5746.900  0.500  765.504  111.962  1.527991  0.142520  21042.1  21914.5  21425  21325.8
  5747.400  5747.400  0.500  768.104  111.967  1.528950  0.143058  21270.1  22330.9  21454  20947.6
  5747.904  5747.900  0.500  771.11  111.929  1.529005  0.142946  21173.7  22352.8  21381  21401.9
  5748.401  5748.400  0.500  770.717  111.943  1.528138  0.143219  21173.7  22323.8  21523  21255.8
  5749.398  5749.390  0.500  779.389  111.917  1.524259  0.142928  21697  22481  21784.3  21264.8
  5750.401  5750.390  0.500  794.736  111.88  1.517363  0.142757  22015.3  22885.3  22123.4  21891.3
  5751.419  5751.410  0.500  803.787  111.863  1.509887  0.142208  22128.6  23373.5  22456.8  21955.3
  5752.473  5752.460  0.500  821.343  111.847  1.498987  0.141322  22668.9  23970  22799.1  22426.8
  5753.525  5753.520  0.500  831.889  111.822  1.487335  0.140343  22840.9  23864.2  23519  22799.2
  5754.609  5754.600  0.500  839.107  111.814  1.475459  0.139242  23236.6  24226.4  23513.9  22847.2
  5755.706  5755.700  0.500  855.351  111.784  1.465205  0.138404  23538.2  24677.8  23926.3  23471.7
  5756.830  5756.820  0.500  868.335  111.763  1.455748  0.137616  23818.4  25116.4  24412.7  23700.2
  5757.971  5757.960  0.500  878.957  111.731  1.447114  0.136862  24295.7  25368.5  24274.7  24267.5
  5759.121  5759.110  0.500  892.769  111.728  1.441577  0.136454  24735.2  25866.9  24585.8  24559.8
  5760.298  5760.290  0.500  890.322  111.712  1.439555  0.136196  24661  25866.9  24689.9  24241.7
  5761.491  5761.480  0.500  904.346  111.692  1.442616  0.136519  24859.6  26210.1  25219.2  24718.9
  5762.706  5762.700  0.500  893.658  111.663  1.451330  0.137554  24734.5  25737.9  25140.5  24175.6
  5763.937  5763.930  0.500  882.445  111.606  1.464160  0.138640  24420.5  25809.8  24379.6  23876.3
  5765.184  5765.180  0.500  868.213  111.574  1.481086  0.140321  23727  25151.4  24126.5  23865.3
  5766.466  5766.450  0.500  855.072  111.57  1.498836  0.142033  23461  24786.9  23715  23437.7
  5767.735  5767.740  0.500  852.998  111.443  1.515383  0.143719  23461  24786.9  23403.6  23408.6
  5769.049  5769.050  0.500  833.585  111.372  1.531342  0.145426  22862.5  24266.5  22980.5  22728.1
  5770.380  5770.380  0.500  827.89  111.388  1.547505  0.147051  22912.7  23796.1  22989.4  22518.9
  5771.730  5771.730  0.500  819.392  111.345  1.561333  0.148541  22912.7  23548.8  22580.1  22193.6
  5773.104  5773.100  0.500  816.11  111.286  1.573630  0.150104  22446.2  23651  22535  22189.7
  5774.489  5774.480  0.500  812.384  111.274  1.584490  0.151164  22355.1  23404.8  22543  22094.6
  5775.898  5775.890  0.500  802.969  111.211  1.592925  0.152317  22045.1  23109.7  22367  21777.4
  5777.321  5777.310  0.500  801.593  111.154  1.600545  0.153618  21929.2  23343.8  22275.9  21551.2
  5778.759  5778.750  0.500  805.185  111.112  1.606103  0.154685  21861  23206.6  22410.8  21987.4
  5780.215  5780.210  0.500  810.936  111.125  1.612908  0.155653  22119.2  23329.7  22486.9  22179.7
  5781.701  5781.690  0.500  797.422  111.088  1.617242  0.156410  21867.9  22822.2  21922.4  21971.4
  5783.196  5783.190  0.500  804.105  111.04  1.622324  0.157470  22123.6  23255.5  22260.5  21648.2
  5784.718  5784.710  0.500  802.105  111.01  1.627528  0.158275  22050.3  22917.3  22288.7  21785.2
  5786.259  5786.250  0.500  802.381  110.972  1.629706  0.158839  22050.3  22917.3  22288.7  21785.2
  5787.815  5787.810  0.500  813.75  110.933  1.630807  0.159274  22386.2  23551.8  22211.9  22121.6
  5789.389  5789.380  0.500  818.113  110.887  1.631606  0.159745  22116  23637  22603.1  22361.8
  5790.987  5790.980  0.500  828.187  110.85  1.630467  0.159943  22677.3  23723.1  22890.4  22514
  5792.594  5792.590  0.500  837.001  110.801  1.627679  0.160000  22970  24028.4  22951.5  22790.3
  5794.233  5794.230  0.500  838.297  110.769  1.623537  0.159612  23008.8  24084.4  22951.5  22812.3
  5795.890  5795.880  0.500  848.641  110.714  1.620172  0.159703  23080.6  24314.8  23744.3  22816.4
  5797.558  5797.550  0.500  856.016  110.671  1.617903  0.159971  23461.9  24719.1  23642.1  22913.5
  5799.248  5799.240  0.500  862.72  110.638  1.617966  0.160183  23477.7  24807.1  23785.2  23379.9
  5800.957  5800.950  0.500  866.79  110.596  1.619503  0.160931  23733.6  24752  23936.2  23441.7
  5802.688  5802.680  0.500  868.045  110.537  1.623503  0.161646  23718.2  24992.3  24067.5  23172.8
  5804.439  5804.430  0.500  868.428  110.506  1.628538  0.162355  23496  24888.4  23994.6  23587.2
  5806.197  5806.190  0.500  866.145  110.465  1.635730  0.163329  23673.6  24846  23893.3  23265.8
  5807.985  5807.980  0.500  871.183  110.433  1.643965  0.164370  23770.8  24877.2  23886.5  23673.1
  5809.788  5809.780  0.500  868.963  110.374  1.654311  0.165721  23758.3  24669.9  23917.4  23565
  5811.620  5811.610  0.500  865.202  110.32  1.662254  0.166970  23759.7  24804.1  23849.3  23035.6
  5813.459  5813.450  0.500  867.939  110.289  1.671712  0.168166  23634.5  24817.2  23710.2  23562
  5815.316  5815.310  0.500  854.464  110.246  1.680692  0.169023  23319.3  24319.7  23521.1  23041.6
  5817.198  5817.190  0.500  857.816  110.152  1.689438  0.170421  23397.6  24352.7  23612  23127.6
  5819.095  5819.090  0.500  859.11  110.074  1.697358  0.171527  23329.5  24489  23759.2  22987.7
  5821.015  5821.010  0.500  855.846  110.057  1.706385  0.172669  23024.7  24292.8  23518.1  23355.9
  5822.958  5822.950  0.500  855.967  109.961  1.712542  0.173538  23029.6  24158.6  23714.1  23220.7
  5824.921  5824.910  0.500  854.688  109.946  1.720337  0.174630  23268.7  24158.6  23547.1  22995.6
  5826.887  5826.880  0.500  863.06  109.918  1.727029  0.175713  23440.7  24469.9  23582.2  23372.9
  5828.888  5828.880  0.500  857.989  109.867  1.732328  0.176582  23322.4  24466.9  23494.1  22981.7
  5830.898  5830.890  0.500  866.959  109.786  1.737398  0.177389  23598.4  24370.7  23914.4  23296.8
  5832.928  5832.920  0.500  867.37  109.724  1.742446  0.178555  23475.3  24691.2  23812.4  23192.8
  5834.985  5834.980  0.500  873.867  109.643  1.746613  0.179469  23537.6  24744.3  23963.6  23568.2
  5837.057  5837.050  0.500  871.261  109.536  1.751607  0.180384  23779.3  24605  23683.4  23367
  5839.146  5839.140  0.500  872.384  109.485  1.756831  0.181444  23486.9  24961.2  23689.3  23376
  5841.254  5841.250  0.500  877.532  109.41  1.763153  0.182397  23802.5  24886.2  23632.1  23690.2
  5843.383  5843.380  0.500  881.253  109.31  1.767274  0.183390  23599.8  25062.4  24211.7  23456
  5845.524  5845.520  0.500  885.592  109.239  1.770556  0.184280  23834.1  25152.5  24145.8  23609.2
  5847.694  5847.690  0.500  885.822  109.138  1.773240  0.185174  23861.1  24907.3  24154.7  23753.3
  5849.883  5849.880  0.500  888.685  109.049  1.778909  0.185858  23935.7  25195.6  24168.7  23610.2
  5852.087  5852.080  0.500  891.168  108.913  1.784502  0.187097  23816.2  25036.3  24718.2  23489.1
  5854.305  5854.300  0.500  896.229  108.798  1.792614  0.188509  24111.1  25253.7  24357.8  23785.3
  5856.556  5856.550  0.500  888.348  108.696  1.802102  0.190054  24276  24880.4  23937.6  23466.2
  5858.815  5858.810  0.500  888.504  108.542  1.810195  0.191495  23874.6  24945.4  24067.6  23552.1
  5861.095  5861.090  0.500  888.956  108.382  1.820042  0.193079  23762.1  24770.1  23997.6  23817.3
  5863.397  5863.390  0.500  881.837  108.14  1.829636  0.194421  23403.6  24784.2  23751.4  23423
  5865.719  5865.710  0.500  880.765  107.847  1.835679  0.195546  23281.3  24724.2  23654.3  23327.9
  5868.057  5868.050  0.500  882.317  107.316  1.836292  0.196151  23304.6  24456.9  23616.2  23308.8
  5870.410  5870.400  0.500  885.734  105.846  1.820963  0.194788  23338.1  24298.5  23367.8  22747.2
  5872.786  5872.780  0.500  899.999  86.6931  1.497691  0.160927  19315.4  20098  19250.1  19360.2
  5875.175  5875.170  0.500  890.853  108.825  1.887428  0.202850  23799.1  25137.6  24178  23832.6
  5877.594  5877.590  0.500  894.137  108.912  1.893697  0.204142  24109.4  25419.9  24069.8  23783.5
  5880.023  5880.020  0.500  904.306  108.58  1.893452  0.204723  24210  25403.9  24411  24164.8
  5882.475  5882.470  0.500  905.184  108.287  1.896321  0.205539  24030.6  25515.9  24485.1  23987.7
  5884.958  5884.950  0.500  910.079  108.058  1.898672  0.206708  24184.2  25904.3  24318  23934.6
  5887.453  5887.440  0.500  916.451  107.838  1.902733  0.207685  24522.3  25432.9  24604.3  24268.9
  5889.958  5889.950  0.500  917.301  107.62  1.907960  0.208734  24522.3  25614  24533.1  24050.6
  5892.473  5892.470  0.500  914.263  107.439  1.915644  0.209995  24092  25553.9  24606.1  23975.7
  5895.027  5895.020  0.500  911.675  107.231  1.922400  0.211280  24227  25296.8  24458.2  23777.5
  5897.597  5897.590  0.500  917.706  107.019  1.928958  0.212556  24265.7  25324.9  24474  24147.8
  5900.177  5900.170  0.500  918.893  106.777  1.935670  0.213790  24265.7  25538  24364.1  23948.6
  5902.797  5902.780  0.500  917.768  106.547  1.944262  0.215236  23959  25215.7  24549.2  24061.7
  5905.420  5905.400  0.500  914.305  106.267  1.951720  0.216747  24033.7  25153.6  24210.9  23762.4
  5908.070  5908.050  0.500  917.026  105.894  1.959880  0.218308  23953.5  25326.8  24130.9  23696.4
  5910.723  5910.710  0.500  914.622  105.385  1.964401  0.219384  23953.5  24950.5  23984.7  23499.1
  5913.404  5913.390  0.500  904.653  104.72  1.965562  0.220269  23461.3  24731.1  23449.2  23093.8
  5916.105  5916.090  0.500  918.76  91.6234  1.731085  0.194979  20932.6  21716.7  21015  20515.6
  5918.813  5918.810  0.500  908.796  105.776  2.011225  0.226824  23710.2  25129.7  24113.9  23175.1
  5921.564  5921.550  0.500  911.411  106.659  2.039862  0.230431  24133.1  25110.8  24203  23763.6
  5924.311  5924.300  0.500  911.279  106.012  2.037022  0.231040  24031.6  25110.8  24034.8  23429.1
  5927.079  5927.080  0.500  919.082  105.2  2.030440  0.230992  23921.9  25094.6  23959.8  23711.4
  5929.865  5929.870  0.500  926.205  104.391  2.024338  0.231304  23921.9  25094.6  23959.8  23711.4
  5932.688  5932.690  0.500  925.365  105.622  2.056836  0.235453  23973.7  25162.7  24402.9  24199.8
  5935.514  5935.520  0.500  928.806  105.207  2.057441  0.236262  24373  25394.9  24220.9  23728.5
  5938.372  5938.370  0.500  934.912  104.506  2.052934  0.236463  24107.3  25428.9  24415.1  23752.5
  5941.249  5941.250  0.500  938.948  103.359  2.039803  0.235722  23894.6  25373.7  24073.7  23706.3
  5944.127  5944.140  0.500  955.179  97.8577  1.941399  0.225405  22964.8  24470.4  23177.3  22859.1
  5947.049  5947.050  0.500  941.394  104.55  2.084438  0.242395  24169.6  25646.2  24317.1  24290.1
  5949.974  5949.970  0.500  944.252  104.666  2.099289  0.244693  24333.7  25835.3  24841.5  23820.6
  5952.920  5952.920  0.500  947.048  104.159  2.102182  0.245903  24430  25509  24522.2  24182.8
  5955.885  5955.890  0.500  945.374  103.731  2.106172  0.247138  24248.3  25388  24390.1  24037.8
  5958.856  5958.870  0.500  944.512  103.252  2.109726  0.248363  24059.8  25335.8  24094.8  24032.6
  5961.868  5961.880  0.500  952.297  102.92  2.116204  0.249899  24142.7  25466.9  24620.3  23780.5
  5964.894  5964.900  0.500  950.946  102.543  2.122694  0.251517  24039.6  25687.1  24041.8  23744.5
  5967.943  5967.950  0.500  946.771  102.146  2.129353  0.253129  24039.6  25135.5  24041.8  23492.2
  5971.000  5971.010  0.500  953.352  101.739  2.134700  0.254494  23576.1  25325.7  24170.8  23920.4
  5974.078  5974.090  0.500  954.995  101.311  2.139069  0.255805  23807.9  25470.8  24006.7  23466.2
  5977.176  5977.190  0.500  954.409  100.887  2.143744  0.257302  23749.4  24900.6  24011.8  23625.3
  5980.307  5980.310  0.500  952.942  100.403  2.146326  0.258498  23755.6  24900.6  23832.4  23189.9
  5983.443  5983.450  0.500  957.238  99.6967  2.143192  0.259082  23606.3  24691.2  23749.1  23386.8
  5986.594  5986.600  0.500  966.454  98.373  2.127995  0.258266  23606.3  24820.1  23769.1  22877.4
  5989.769  5989.780  0.500  974.759  82.6862  1.797945  0.219253  20002.8  20803.7  19853.8  19938.7
  5992.959  5992.970  0.500  965.755  100.591  2.202071  0.268821  23981.4  25349.6  24234.5  23581.2
  5996.176  5996.190  0.500  964.146  99.8639  2.200714  0.269254  23783.5  24692.3  24057.4  23750.2
  5999.408  5999.420  0.500  970.236  99.265  2.201042  0.270536  23971.4  24850.4  24081.7  23407
  6002.666  6002.670  0.500  971.577  98.6947  2.203445  0.271351  23642.2  24755  23859.3  23633
  6005.938  6005.950  0.500  976.955  98.2009  2.206547  0.272666  23448.7  24963.1  23799.1  23727.1
  6009.223  6009.240  0.500  973.267  97.7511  2.211109  0.274154  23551.4  24654.9  23807  23124.6
  6012.537  6012.550  0.500  977.105  97.2864  2.214297  0.275576  23551.4  24654.9  23686.1  23166.6
  6015.858  6015.870  0.500  978.318  96.8315  2.218116  0.276998  23357.3  24831.1  23521  23022.5
  6019.214  6019.220  0.500  977.603  96.3757  2.222126  0.278588  23291  24734  23612.9  22579.2
  6022.579  6022.590  0.500  977.21  95.9533  2.226879  0.280211  23125.6  24281.6  23359.8  22999.4
  6025.952  6025.970  0.500  984.878  95.4444  2.230515  0.281688  23362.5  24175.5  23519.8  22943.3
  6029.376  6029.380  0.500  988.692  95.0192  2.235055  0.283266  23231  24445.7  23441.8  22826.3
  6032.801  6032.800  0.500  990.042  94.5921  2.239552  0.284742  23297.8  24298.5  23433.8  22620
  6036.242  6036.250  0.500  988.766  94.1973  2.246610  0.286781  23087.2  24181.4  23205.4  22665
  6039.696  6039.710  0.500  994.438  93.7202  2.249670  0.288152  23237.4  24287.4  23030.2  22643.9
  6043.178  6043.190  0.500  998.88  93.2884  2.253285  0.289915  22821.8  24204.4  23336.5  22821.2
  6046.676  6046.690  0.500  993.977  92.8371  2.257248  0.291223  22832.6  23848.1  23025.3  22572
  6050.199  6050.210  0.500  999.216  92.377  2.262134  0.292870  22890.2  23930.2  22866.2  22618
  6053.741  6053.750  0.500  999.562  91.8434  2.263942  0.293964  22822.7  23780.9  22697.9  22501.7
  6057.288  6057.300  0.500  1009.5  91.2713  2.265247  0.295453  23108.1  23836  22797.1  22396.7
  6060.869  6060.880  0.500  999.824  90.7046  2.266516  0.296520  22448.9  23673.7  22442.6  22123.4
  6064.472  6064.480  0.500  1003.61  90.1959  2.270577  0.298114  22370.9  23559.6  22619.8  21971.3
  6068.076  6068.090  0.500  1011.52  89.7206  2.275062  0.299621  22360.8  23457.5  22759.9  22176.4
  6071.706  6071.720  0.500  1006.18  89.2568  2.278575  0.301196  22453.8  23399.4  22132.3  21823
  6075.369  6075.380  0.500  1007.92  88.7833  2.281532  0.302875  22029.7  23260.4  22083.3  22113.3
  6079.036  6079.050  0.500  1017.85  88.2701  2.283205  0.304252  22153.1  23260.4  22318.5  22113.3
  6082.735  6082.740  0.500  1016.51  87.8001  2.287179  0.305669  22216.2  23087.2  22035.2  21911
  6086.448  6086.450  0.500  1017.1  87.326  2.290469  0.307433  21900.6  23070  21958.9  21889.8
  6090.160  6090.180  0.500  1023.1  86.8361  2.293768  0.308881  21900.6  23046.2  21958.9  21936
  6093.900  6093.920  0.500  1024.29  86.3235  2.296682  0.310704  21892.8  22966.1  22089.3  21471.8
  6097.676  6097.690  0.500  1025.86  85.8264  2.300060  0.312099  21775.5  22807.8  21949.1  21513.6
  6101.471  6101.480  0.500  1022.77  85.3398  2.303730  0.313870  21405.6  22669.7  21804.9  21402.5
  6105.264  6105.280  0.500  1031.22  84.8038  2.305966  0.315475  21575.1  22604.6  21868.8  21402.5
  6109.091  6109.110  0.500  1032.5  84.2726  2.308119  0.316496  21590  22531.5  21541.6  21348.4
  6112.935  6112.950  0.500  1033.45  83.7426  2.311080  0.318371  21349.7  22396.4  21595.6  21202.3
  6116.791  6116.810  0.500  1039.88  83.1931  2.314475  0.319800  21461.6  22401.4  21520.3  21127.1
  6120.667  6120.690  0.500  1038.92  82.6541  2.315698  0.320975  20958  22401.4  21520.3  20991.1
  6124.572  6124.590  0.500  1029.4  82.1147  2.317718  0.322405  20756.1  21890.9  21010  20871.9
  6128.490  6128.510  0.500  1034.62  81.5231  2.317701  0.323648  20978.7  21823.9  20965  20577.7
  6132.426  6132.450  0.500  1047.2  80.9323  2.318630  0.324952  20825.8  22047  21103.1  20776.8
  6136.390  6136.410  0.500  1035.88  80.3289  2.317273  0.326288  20732.1  21727.7  20561.7  20189.4
  6140.363  6140.380  0.500  1042.36  79.7126  2.315720  0.327189  20652.2  21666.6  20358.5  20412.4
  6144.365  6144.380  0.500  1042.11  79.0553  2.311563  0.327784  20652.2  21294.3  20358.5  20079.1
  6148.368  6148.390  0.500  1030.97  78.3528  2.305097  0.328035  19956  21167.2  19925.1  19730.9
  6152.413  6152.430  0.500  1039.55  77.5695  2.290515  0.327501  20031.8  21001.2  19987.2  19616.9