File: xdidata/Data/Cr/Cr-K-acetate.xdi
# XDI/1.0 BlueSky/1.5.3
# Beamline.name: 6BM
# Beamline.xray_source: NSLS-II three-pole wiggler
# Beamline.collimation: paraboloid mirror, 5 nm Rh on 30 nm Pt
# Beamline.focusing: not in use
# Beamline.harmonic_rejection: flat mirror, Si stripe, pitch = 7.0 mrad relative to beam
# Detector.i0: 10 cm N2
# Detector.i1: 25 cm N2
# Detector.i2: 25 cm N2
# Element.symbol: Cr
# Element.edge: K
# Facility.name: NSLS-II
# Facility.energy: 3.0
# Facility.current: 400.8
# Facility.mode: top-off
# Facility.gup: 305882
# Facility.saf: 305422
# Facility.cycle: 2020-1
# Mono.name: Si(111)
# Mono.d_spacing: 3.13532
# Mono.encoder_resolution: 0.0000050 deg/ct
# Mono.angle_offset: 16.0581 deg
# Mono.scan_mode: fixed exit
# Mono.scan_type: step
# Mono.direction: forward in energy
# Sample.name: Cr3(OH)2(OOCCH3)7
# Sample.prep: powder on tape 4x
# Sample.x_position: -74.438 mm
# Sample.y_position: 112.405 mm
# Scan.experimenters: Sarah Nicholas, Bruce Ravel
# Scan.edge_energy: 5989.0
# Scan.start_time: 2020-01-29T17:12:24
# Scan.end_time: 2020-01-30T02:14:17
# Scan.transient_id: 20501
# Scan.uid: 8a546d51-2c87-439f-bd7f-5d2bfd9dddeb
# Scan.plot_hint: ln(I0/It)  --  ln($5/$6)
# Scan.sequence: merge of 16 scans
# Column.1: energy eV
# Column.2: requested_energy eV
# Column.3: measurement_time seconds
# Column.4: mutrans
# Column.5: i0
# Column.6: itrans
# Column.7: irefer
# /////
#  Fisher, ground in AW M&P
# -----
# energy   requested_energy   measurement_time   mutrans   i0   itrans   irefer
5788.98 5789 0.500000 5.059197 47.7539 0.303292 0.052999
5799 5799 0.500000 5.032218 47.6952 0.311198 0.054869
5809.02 5809 0.500000 5.002544 47.6567 0.320322 0.057244
5819.01 5819 0.500000 4.974858 47.593 0.328867 0.059392
5829.02 5829 0.500000 4.946258 47.5249 0.337926 0.061305
5839.02 5839 0.500000 4.919123 47.4348 0.346562 0.063800
5849.01 5849 0.500000 4.891816 47.3144 0.355367 0.065736
5859.01 5859 0.500000 4.864078 47.1348 0.363859 0.068141
5869.01 5869 0.500000 4.837050 45.989 0.364734 0.068760
5879.01 5879 0.500000 4.809193 47.5241 0.387555 0.073706
5889.01 5889 0.500000 4.784576 47.2592 0.395000 0.075695
5899.01 5899 0.500000 4.757440 47.0757 0.404293 0.078127
5909.01 5909 0.500000 4.730837 46.8206 0.412938 0.080720
5919.01 5919 0.500000 4.706311 34.9124 0.315565 0.061860
5929.39 5929 0.500000 4.679404 45.2901 0.420934 0.083670
5938.99 5939 0.500000 4.651867 46.3468 0.442303 0.088634
5948.99 5949 0.500000 4.626626 46.8729 0.458799 0.092743
5959 5959 0.500000 4.601641 46.5242 0.466914 0.095180
5961 5961 0.500000 4.596283 46.4733 0.468909 0.095742
5962.99 5963 0.500000 4.591982 46.4168 0.470358 0.096067
5964.99 5965 0.500000 4.586343 46.3618 0.472457 0.096655
5966.99 5967 0.500000 4.580984 46.3008 0.474364 0.096880
5969 5969 0.500000 4.576193 46.2497 0.476120 0.097788
5971 5971 0.500000 4.571102 46.1875 0.477911 0.098047
5973 5973 0.500000 4.566345 46.1247 0.479536 0.098597
5975 5975 0.500000 4.561683 46.0441 0.480934 0.099435
5977 5977 0.500000 4.556601 45.9899 0.482816 0.099675
5979 5979 0.500000 4.551450 45.9117 0.484485 0.100245
5979.24 5979.25 0.500000 4.551212 45.8933 0.484400 0.100112
5979.49 5979.5 0.500000 4.549798 45.9055 0.485216 0.100172
5979.74 5979.75 0.500000 4.549311 45.8942 0.485334 0.100472
5979.99 5980 0.500000 4.548856 45.8951 0.485563 0.100494
5980.24 5980.25 0.500000 4.548206 45.8805 0.485723 0.100410
5980.49 5980.5 0.500000 4.548006 45.8799 0.485813 0.100744
5980.74 5980.75 0.500000 4.546985 45.8844 0.486357 0.100625
5980.99 5981 0.500000 4.545902 45.8799 0.486836 0.100735
5981.24 5981.25 0.500000 4.546557 45.8655 0.486368 0.100683
5981.49 5981.5 0.500000 4.544872 45.8518 0.487045 0.100744
5981.74 5981.75 0.500000 4.544686 45.8364 0.486970 0.100930
5981.99 5982 0.500000 4.543679 45.83 0.487386 0.100995
5982.24 5982.25 0.500000 4.543243 45.8058 0.487350 0.100973
5982.49 5982.5 0.500000 4.542120 45.7866 0.487690 0.101002
5982.74 5982.75 0.500000 4.542258 45.7705 0.487456 0.101151
5982.99 5983 0.500000 4.541182 45.7551 0.487813 0.101241
5983.24 5983.25 0.500000 4.540193 45.7443 0.488176 0.100932
5983.49 5983.5 0.500000 4.540439 45.7246 0.487849 0.101226
5983.74 5983.75 0.500000 4.539190 45.7012 0.488214 0.101078
5983.99 5984 0.500000 4.538699 45.6714 0.488126 0.100926
5984.24 5984.25 0.500000 4.538426 45.6446 0.487980 0.100932
5984.49 5984.5 0.500000 4.538003 45.6252 0.487970 0.101024
5984.74 5984.75 0.500000 4.537595 45.6024 0.487930 0.100871
5984.99 5985 0.500000 4.536537 45.5695 0.488096 0.100820
5985.24 5985.25 0.500000 4.536380 45.5378 0.487830 0.100885
5985.5 5985.5 0.500000 4.535477 45.4957 0.487825 0.100925
5985.74 5985.75 0.500000 4.534689 45.4587 0.487800 0.100827
5986 5986 0.500000 4.535342 45.4295 0.487183 0.100925
5986.24 5986.25 0.500000 4.533870 45.3885 0.487449 0.100518
5986.49 5986.5 0.500000 4.532972 45.3406 0.487378 0.100865
5986.74 5986.75 0.500000 4.532815 45.2866 0.486872 0.100383
5987 5987 0.500000 4.532459 45.2264 0.486406 0.100393
5987.24 5987.25 0.500000 4.531666 45.1608 0.486074 0.100253
5987.5 5987.5 0.500000 4.530942 45.0893 0.485657 0.099928
5987.75 5987.75 0.500000 4.529958 45.0049 0.485228 0.099645
5988 5988 0.500000 4.529420 44.9136 0.484506 0.099381
5988.25 5988.25 0.500000 4.528851 44.7897 0.483442 0.099189
5988.5 5988.5 0.500000 4.528577 44.6498 0.482061 0.098370
5988.74 5988.75 0.500000 4.528306 44.4786 0.480343 0.096915
5989 5989 0.500000 4.527897 44.2841 0.478443 0.095826
5989.25 5989.25 0.500000 4.527222 44.03 0.476016 0.094134
5989.5 5989.5 0.500000 4.527712 43.6903 0.472110 0.092277
5989.75 5989.75 0.500000 4.528424 43.2227 0.466730 0.090406
5990 5990 0.500000 4.528216 42.5619 0.459686 0.088007
5990.25 5990.25 0.500000 4.528843 41.6164 0.449195 0.085585
5990.5 5990.5 0.500000 4.529097 40.2286 0.434102 0.082055
5990.75 5990.75 0.500000 4.527645 38.2352 0.413187 0.077566
5991 5991 0.500000 4.527427 35.9214 0.388269 0.072351
5991.25 5991.25 0.500000 4.526498 34.0115 0.367969 0.067794
5991.5 5991.5 0.500000 4.525849 33.3247 0.360775 0.066004
5991.75 5991.75 0.500000 4.527792 34.3307 0.370966 0.067765
5992 5992 0.500000 4.530462 37.156 0.400423 0.072862
5992.25 5992.25 0.500000 4.529082 40.957 0.441991 0.080194
5992.5 5992.5 0.500000 4.526084 43.9651 0.475873 0.086112
5992.75 5992.75 0.500000 4.525157 45.5485 0.493460 0.089191
5993 5993 0.500000 4.523591 46.192 0.501206 0.090204
5993.25 5993.25 0.500000 4.522388 46.4304 0.504401 0.090539
5993.5 5993.5 0.500000 4.521208 46.5178 0.505944 0.090559
5993.75 5993.75 0.500000 4.521412 46.5547 0.506244 0.090164
5994 5994 0.500000 4.521139 46.5509 0.506339 0.090256
5994.25 5994.25 0.500000 4.521199 46.5375 0.506162 0.089889
5994.5 5994.5 0.500000 4.521562 46.5269 0.505867 0.090045
5994.75 5994.75 0.500000 4.521575 46.5125 0.505699 0.089955
5995 5995 0.500000 4.521641 46.4925 0.505449 0.089775
5995.25 5995.25 0.500000 4.522459 46.4596 0.504680 0.089608
5995.5 5995.5 0.500000 4.522227 46.4458 0.504656 0.090213
5995.75 5995.75 0.500000 4.522036 46.419 0.504458 0.089751
5996 5996 0.500000 4.521600 46.3896 0.504364 0.089986
5996.25 5996.25 0.500000 4.520344 46.3861 0.504948 0.090006
5996.5 5996.5 0.500000 4.520759 46.3609 0.504465 0.089834
5996.75 5996.75 0.500000 4.520971 46.3318 0.504047 0.089278
5997 5997 0.500000 4.520274 46.3129 0.504183 0.089140
5997.25 5997.25 0.500000 4.521565 46.2931 0.503328 0.088226
5997.5 5997.5 0.500000 4.521769 46.2706 0.502973 0.087860
5997.75 5997.75 0.500000 4.523197 46.2449 0.501986 0.086935
5998 5998 0.500000 4.524218 46.2158 0.501149 0.086236
5998.25 5998.25 0.500000 4.524844 46.2065 0.500736 0.085099
5998.5 5998.5 0.500000 4.526735 46.1836 0.499538 0.084555
5998.75 5998.75 0.500000 4.528583 46.1695 0.498458 0.083918
5999 5999 0.500000 4.531239 46.1528 0.496960 0.082784
5999.25 5999.25 0.500000 4.534650 46.1357 0.495092 0.081697
5999.5 5999.5 0.500000 4.537310 46.1212 0.493611 0.081221
5999.75 5999.75 0.500000 4.541646 46.1036 0.491293 0.080221
6000 6000 0.500000 4.546171 46.078 0.488795 0.079227
6000.25 6000.25 0.500000 4.550318 46.0657 0.486668 0.078345
6000.5 6000.5 0.500000 4.555703 46.0526 0.483889 0.077368
6000.75 6000.75 0.500000 4.560513 46.0414 0.481463 0.076757
6001 6001 0.500000 4.566174 46.0309 0.478618 0.075710
6001.25 6001.25 0.500000 4.572138 46.0148 0.475642 0.074852
6001.5 6001.5 0.500000 4.578259 46.0065 0.472631 0.074155
6001.75 6001.75 0.500000 4.585734 45.9938 0.469012 0.073231
6002 6002 0.500000 4.591866 45.9806 0.466005 0.072564
6002.25 6002.25 0.500000 4.600052 45.9627 0.462038 0.071555
6002.5 6002.5 0.500000 4.606997 45.9574 0.458773 0.070930
6002.75 6002.75 0.500000 4.615206 45.9442 0.454895 0.069876
6003 6003 0.500000 4.622856 45.9333 0.451272 0.069102
6003.25 6003.25 0.500000 4.629575 45.9182 0.448119 0.068319
6003.5 6003.5 0.500000 4.638020 45.904 0.444206 0.067470
6003.75 6003.75 0.500000 4.643441 45.8943 0.441697 0.066936
6004 6004 0.500000 4.650122 45.8821 0.438654 0.066272
6004.25 6004.25 0.500000 4.656503 45.8663 0.435732 0.065535
6004.5 6004.5 0.500000 4.661482 45.8553 0.433489 0.065224
6004.75 6004.75 0.500000 4.667027 45.8387 0.430931 0.064496
6005 6005 0.500000 4.671278 45.8274 0.428996 0.063977
6005.25 6005.25 0.500000 4.676105 45.8186 0.426837 0.063363
6005.5 6005.5 0.500000 4.680028 45.8034 0.425040 0.062891
6005.75 6005.75 0.500000 4.683186 45.7884 0.423541 0.062636
6006 6006 0.500000 4.685636 45.7817 0.422437 0.062111
6006.25 6006.25 0.500000 4.688180 45.7709 0.421269 0.061689
6006.5 6006.5 0.500000 4.689795 45.7538 0.420421 0.061597
6006.75 6006.75 0.500000 4.691129 45.7384 0.419734 0.061453
6007 6007 0.500000 4.693097 45.7331 0.418853 0.061003
6007.25 6007.25 0.500000 4.694756 45.7218 0.418063 0.060388
6007.5 6007.5 0.500000 4.697415 45.707 0.416819 0.060233
6007.75 6007.75 0.500000 4.698955 45.6971 0.416084 0.059782
6008 6008 0.500000 4.700058 45.6829 0.415494 0.059536
6008.26 6008.25 0.500000 4.701989 45.6746 0.414616 0.059332
6008.5 6008.5 0.500000 4.702607 45.6629 0.414256 0.058872
6008.75 6008.75 0.500000 4.703624 45.6497 0.413714 0.058804
6009 6009 0.500000 4.705453 45.644 0.412914 0.058513
6009.25 6009.25 0.500000 4.704207 45.6344 0.413339 0.058458
6009.5 6009.5 0.500000 4.705029 45.6247 0.412914 0.058143
6009.75 6009.75 0.500000 4.705162 45.6134 0.412757 0.058143
6010 6010 0.500000 4.703548 45.6077 0.413351 0.058405
6010.25 6010.25 0.500000 4.703698 45.6085 0.413320 0.058275
6010.5 6010.5 0.500000 4.703001 45.604 0.413558 0.059128
6010.75 6010.75 0.500000 4.702733 45.6058 0.413692 0.059018
6011 6011 0.500000 4.701977 45.5956 0.413905 0.059644
6011.26 6011.25 0.500000 4.701889 45.5811 0.413821 0.059805
6011.51 6011.5 0.500000 4.701031 45.5817 0.414172 0.060341
6011.76 6011.75 0.500000 4.700483 45.5913 0.414491 0.060594
6012 6012 0.500000 4.700257 45.5806 0.414479 0.061009
6012.25 6012.25 0.500000 4.701176 45.5672 0.413982 0.061209
6012.5 6012.5 0.500000 4.699852 45.5615 0.414473 0.061625
6012.75 6012.75 0.500000 4.698849 45.553 0.414813 0.061796
6013 6013 0.500000 4.698272 45.5585 0.415113 0.062040
6013.25 6013.25 0.500000 4.696829 45.5655 0.415769 0.062384
6013.5 6013.5 0.500000 4.696016 45.5579 0.416040 0.062602
6013.75 6013.75 0.500000 4.695251 45.5452 0.416242 0.062916
6014 6014 0.500000 4.694160 45.5349 0.416605 0.063177
6015 6014.99 0.500000 4.688849 45.5024 0.418517 0.063428
6016.02 6015.99 0.500000 4.682888 45.4688 0.420747 0.063096
6017.01 6017.01 0.500000 4.676516 45.4281 0.423020 0.063447
6018.06 6018.06 0.500000 4.671530 45.3937 0.424810 0.062986
6019.12 6019.12 0.500000 4.665939 45.373 0.427000 0.062754
6020.2 6020.2 0.500000 4.660266 45.3482 0.429181 0.063275
6021.31 6021.3 0.500000 4.653129 45.3179 0.431998 0.063931
6022.43 6022.42 0.500000 4.646564 45.2929 0.434583 0.064379
6023.57 6023.56 0.500000 4.637965 45.2573 0.438023 0.065683
6024.72 6024.71 0.500000 4.628674 45.2242 0.441765 0.066044
6025.9 6025.89 0.500000 4.619750 45.1872 0.445352 0.066024
6027.09 6027.08 0.500000 4.610696 45.1527 0.449077 0.066333
6028.3 6028.3 0.500000 4.600905 45.1233 0.453179 0.066227
6029.54 6029.53 0.500000 4.590690 45.0869 0.457485 0.066890
6030.79 6030.78 0.500000 4.580287 45.0561 0.461934 0.067253
6032.06 6032.05 0.500000 4.570898 45.0254 0.465980 0.067910
6033.35 6033.34 0.500000 4.560681 44.9827 0.470319 0.068681
6034.66 6034.65 0.500000 4.552755 44.9397 0.473602 0.068891
6035.99 6035.98 0.500000 4.546670 44.9032 0.476111 0.069151
6037.34 6037.33 0.500000 4.541500 44.8708 0.478227 0.069374
6038.71 6038.7 0.500000 4.538853 44.826 0.479021 0.069425
6040.09 6040.08 0.500000 4.538465 44.7871 0.478793 0.069554
6041.5 6041.49 0.500000 4.538855 44.7502 0.478207 0.069678
6042.92 6042.91 0.500000 4.540186 44.7071 0.477113 0.069925
6044.36 6044.35 0.500000 4.539130 44.6678 0.477196 0.069730
6045.82 6045.81 0.500000 4.538209 44.6197 0.477124 0.070389
6047.3 6047.29 0.500000 4.537170 44.5701 0.477085 0.070489
6048.8 6048.79 0.500000 4.535240 44.5188 0.477460 0.070915
6050.32 6050.31 0.500000 4.532484 44.4763 0.478314 0.071793
6051.86 6051.85 0.500000 4.530779 44.4344 0.478681 0.072458
6053.42 6053.41 0.500000 4.529258 44.3789 0.478816 0.073403
6054.99 6054.98 0.500000 4.527482 44.3052 0.478867 0.073815
6056.59 6056.58 0.500000 4.524689 44.2276 0.479369 0.074073
6058.2 6058.19 0.500000 4.521850 44.1602 0.479995 0.074893
6059.84 6059.83 0.500000 4.519170 44.084 0.480448 0.075017
6061.49 6061.48 0.500000 4.516236 44.0039 0.480989 0.075289
6063.16 6063.15 0.500000 4.513333 43.9417 0.481707 0.075402
6064.85 6064.84 0.500000 4.511172 43.8826 0.482098 0.074813
6066.56 6066.55 0.500000 4.508240 43.8306 0.482943 0.074491
6068.29 6068.28 0.500000 4.505792 43.7902 0.483677 0.074038
6070.03 6070.03 0.500000 4.502891 43.7308 0.484422 0.073361
6071.8 6071.79 0.500000 4.500805 43.6644 0.484706 0.073559
6073.59 6073.58 0.500000 4.497315 43.6134 0.485820 0.073667
6075.39 6075.38 0.500000 4.494550 43.5566 0.486535 0.074639
6077.22 6077.21 0.500000 4.490724 43.4953 0.487715 0.075682
6079.06 6079.05 0.500000 4.485565 43.4359 0.489564 0.076617
6080.91 6080.91 0.500000 4.480179 43.3896 0.491684 0.078301
6082.8 6082.79 0.500000 4.474200 43.3246 0.493903 0.079233
6084.7 6084.69 0.500000 4.468543 43.2679 0.496051 0.080201
6086.62 6086.61 0.500000 4.462275 43.1853 0.498209 0.080441
6088.56 6088.55 0.500000 4.454253 43.1295 0.501571 0.080034
6090.52 6090.51 0.500000 4.446554 43.0715 0.504780 0.079469
6092.49 6092.48 0.500000 4.440028 43.0037 0.507277 0.078438
6094.49 6094.48 0.500000 4.432318 42.9214 0.510219 0.077677
6096.49 6096.49 0.500000 4.426491 42.8327 0.512141 0.076885
6098.54 6098.52 0.500000 4.419014 42.7553 0.515069 0.076899
6100.59 6100.58 0.500000 4.413262 42.6675 0.516970 0.076846
6102.65 6102.65 0.500000 4.407057 42.5806 0.519111 0.078264
6104.75 6104.74 0.500000 4.401694 42.4907 0.520810 0.079526
6106.86 6106.85 0.500000 4.396351 42.407 0.522573 0.081135
6108.99 6108.98 0.500000 4.391373 42.3166 0.524064 0.083193
6111.13 6111.12 0.500000 4.386337 42.2132 0.525419 0.084662
6113.29 6113.29 0.500000 4.381117 42.117 0.526962 0.085824
6115.49 6115.48 0.500000 4.376476 42.0152 0.528142 0.086496
6117.69 6117.68 0.500000 4.371711 41.9122 0.529369 0.086598
6119.91 6119.9 0.500000 4.366392 41.8121 0.530912 0.086849
6122.16 6122.15 0.500000 4.361162 41.6864 0.532098 0.086902
6124.41 6124.41 0.500000 4.355674 41.582 0.533677 0.087196
6126.7 6126.69 0.500000 4.350407 41.4694 0.535045 0.087922
6129 6128.99 0.500000 4.345450 41.3532 0.536206 0.088806
6131.32 6131.31 0.500000 4.339739 41.2277 0.537641 0.089576
6133.66 6133.65 0.500000 4.334430 41.0878 0.538667 0.089770
6136 6136 0.500000 4.329417 40.9589 0.539671 0.090165
6138.38 6138.38 0.500000 4.323501 40.8143 0.540957 0.090360
6140.78 6140.77 0.500000 4.318869 40.6735 0.541601 0.090614
6143.2 6143.19 0.500000 4.313984 40.5367 0.542426 0.090243
6145.63 6145.62 0.500000 4.308357 40.3732 0.543289 0.090323
6148.08 6148.07 0.500000 4.303545 40.2102 0.543698 0.090138
6150.56 6150.55 0.500000 4.298482 40.0252 0.543948 0.090097
6153.05 6153.04 0.500000 4.293199 39.8122 0.543918 0.089806
6155.55 6155.55 0.500000 4.287111 39.5574 0.543737 0.089963
6158.07 6158.07 0.500000 4.282081 39.1602 0.540992 0.089220
6160.63 6160.62 0.500000 4.275877 38.3892 0.533647 0.087529
6163.2 6163.19 0.500000 4.269405 36.9323 0.516727 0.084199
6165.78 6165.77 0.500000 4.262899 36.4347 0.513095 0.083222
6168.39 6168.38 0.500000 4.258509 39.2564 0.555274 0.090579
6171.01 6171 0.500000 4.251703 39.0937 0.556741 0.091881
6173.67 6173.65 0.500000 4.243959 38.8487 0.557570 0.092899
6176.32 6176.31 0.500000 4.237678 38.6202 0.557765 0.094023
6179 6178.99 0.500000 4.230709 38.3859 0.558261 0.094862
6181.7 6181.69 0.500000 4.223429 38.1523 0.558925 0.095781
6184.42 6184.41 0.500000 4.216826 37.9221 0.559234 0.096514
6187.16 6187.15 0.500000 4.209282 37.6891 0.560010 0.096830
6189.91 6189.9 0.500000 4.202548 37.4583 0.560346 0.097120
6192.69 6192.68 0.500000 4.194957 37.2269 0.561118 0.097673
6195.48 6195.47 0.500000 4.188238 36.9852 0.561240 0.098063
6198.3 6198.29 0.500000 4.180760 36.7368 0.561656 0.098636
6201.13 6201.12 0.500000 4.173686 36.4896 0.561839 0.098930
6203.98 6203.97 0.500000 4.167421 36.2336 0.561412 0.099321
6206.86 6206.85 0.500000 4.159730 35.9712 0.561650 0.099753
6209.75 6209.74 0.500000 4.152729 35.7002 0.561327 0.100118
6212.66 6212.65 0.500000 4.146155 35.4322 0.560795 0.100482
6215.58 6215.57 0.500000 4.139767 35.1591 0.560038 0.100660
6218.53 6218.52 0.500000 4.132944 34.8802 0.559403 0.100677
6221.49 6221.49 0.500000 4.127008 34.6024 0.558250 0.100287
6224.48 6224.47 0.500000 4.120581 34.3148 0.557184 0.099944
6227.48 6227.48 0.500000 4.113621 34.0178 0.556213 0.099204
6230.5 6230.5 0.500000 4.107041 33.7283 0.555115 0.098667
6233.55 6233.55 0.500000 4.101006 33.4329 0.553596 0.098108
6236.62 6236.61 0.500000 4.093687 33.1377 0.552737 0.097454
6239.69 6239.69 0.500000 4.087352 32.8469 0.551370 0.097069
6242.79 6242.79 0.500000 4.080568 32.5329 0.549820 0.096834
6245.91 6245.91 0.500000 4.073765 32.2269 0.548370 0.096553
6249.05 6249.05 0.500000 4.066998 31.9017 0.546523 0.096743
6252.2 6252.2 0.500000 4.060177 31.591 0.544900 0.097497
6255.38 6255.38 0.500000 4.052269 31.2791 0.543807 0.098640
6258.57 6258.57 0.500000 4.044988 30.9568 0.542141 0.099403
6261.79 6261.79 0.500000 4.038216 30.6379 0.540209 0.099792
6265.02 6265.02 0.500000 4.031121 30.3085 0.538205 0.099968
6268.27 6268.27 0.500000 4.024026 29.9717 0.536014 0.099318
6271.55 6271.55 0.500000 4.016670 29.6399 0.534000 0.099345
6274.84 6274.84 0.500000 4.009686 29.3119 0.531796 0.099408
6278.15 6278.15 0.500000 4.002800 28.9855 0.529505 0.098893
6281.47 6281.47 0.500000 3.995584 28.6478 0.527133 0.098951
6284.82 6284.82 0.500000 3.988280 28.3077 0.524695 0.098831
6288.19 6288.19 0.500000 3.980844 27.9737 0.522368 0.098656
6291.57 6291.57 0.500000 3.973539 27.644 0.519992 0.098198
6294.98 6294.98 0.500000 3.966224 27.3142 0.517570 0.097720
6298.4 6298.4 0.500000 3.958591 26.9804 0.515157 0.098148
6301.85 6301.85 0.500000 3.951211 26.6457 0.512545 0.097881
6305.31 6305.31 0.500000 3.943021 26.3183 0.510410 0.097805
6308.79 6308.79 0.500000 3.936385 25.9868 0.507355 0.097142
6312.29 6312.29 0.500000 3.928749 25.6625 0.504860 0.097056
6315.81 6315.81 0.500000 3.921423 25.3379 0.502135 0.096726
6319.35 6319.35 0.500000 3.913079 25.0121 0.499819 0.096239
6322.91 6322.9 0.500000 3.905916 24.6917 0.496988 0.095544
6326.49 6326.48 0.500000 3.898109 24.3775 0.494495 0.095053
6330.09 6330.08 0.500000 3.890511 24.0664 0.491919 0.094655
6333.7 6333.69 0.500000 3.882594 23.7522 0.489357 0.094221
6337.33 6337.32 0.500000 3.874539 23.4394 0.486814 0.094030
6340.98 6340.98 0.500000 3.867156 23.1319 0.483981 0.093861
6344.66 6344.65 0.500000 3.859959 22.8283 0.481083 0.093769
6348.35 6348.34 0.500000 3.851938 22.5283 0.478587 0.093568
6352.06 6352.05 0.500000 3.844057 22.2332 0.476059 0.093437
6355.79 6355.78 0.500000 3.836538 21.9399 0.473326 0.093475
6359.53 6359.52 0.500000 3.829319 21.6458 0.470360 0.093150
6363.31 6363.29 0.500000 3.821001 21.3565 0.467952 0.093121
6367.1 6367.08 0.500000 3.814349 21.0708 0.464776 0.093169
6370.89 6370.88 0.500000 3.806577 20.7932 0.462231 0.093178
6374.73 6374.71 0.500000 3.798664 20.5144 0.459657 0.092603
6378.57 6378.55 0.500000 3.791835 20.2432 0.456700 0.092520
6382.42 6382.41 0.500000 3.783671 19.9736 0.454288 0.091983
6386.3 6386.29 0.500000 3.776778 19.7077 0.451351 0.091635
6390.21 6390.19 0.500000 3.768487 19.4388 0.448897 0.091385
6394.14 6394.11 0.500000 3.760899 19.1765 0.446223 0.091164
6398.06 6398.05 0.500000 3.753384 18.9238 0.443651 0.090667
6402.03 6402.01 0.500000 3.745655 18.6748 0.441206 0.090728
6405.96 6405.98 0.500000 3.737113 18.4294 0.439110 0.090434
6410.01 6409.98 0.500000 3.729544 18.1873 0.436681 0.089863
6414.02 6413.99 0.500000 3.720744 17.9557 0.434919 0.089900
6418.06 6418.03 0.500000 3.713189 17.7273 0.432648 0.089877
6422.1 6422.08 0.500000 3.706052 17.5003 0.430149 0.089398
6426.18 6426.15 0.500000 3.697993 17.2699 0.427933 0.089340
6430.27 6430.24 0.500000 3.689364 17.0427 0.425961 0.088759
6434.38 6434.35 0.500000 3.680912 16.8184 0.423914 0.088865
6438.49 6438.48 0.500000 3.672954 16.6098 0.421993 0.088511
6442.65 6442.63 0.500000 3.664141 16.4031 0.420432 0.088317
6446.81 6446.79 0.500000 3.656457 16.1984 0.418391 0.088211
6451.01 6450.98 0.500000 3.649000 16.0096 0.416609 0.088271
6455.19 6455.18 0.500000 3.641007 15.821 0.414993 0.088216
6459.4 6459.41 0.500000 3.632983 15.5702 0.411686 0.087949
6463.64 6463.65 0.500000 3.624336 15.317 0.408504 0.087418
6467.93 6467.91 0.500000 3.616310 15.2365 0.409649 0.087852
6472.17 6472.19 0.500000 3.608655 15.067 0.408188 0.087843
6476.51 6476.49 0.500000 3.600815 14.8939 0.406697 0.088196
6480.79 6480.81 0.500000 3.592210 14.7242 0.405504 0.087946
6485.14 6485.15 0.500000 3.583723 14.5626 0.404478 0.088212
6489.51 6489.51 0.500000 3.574970 14.3905 0.403211 0.088124
6493.88 6493.89 0.500000 3.566727 14.2414 0.402331 0.088184
6498.25 6498.28 0.500000 3.558694 14.0856 0.401117 0.088125
6502.67 6502.7 0.500000 3.548937 13.934 0.400682 0.088164
6507.1 6507.13 0.500000 3.542148 13.7818 0.399027 0.087924
6511.59 6511.58 0.500000 3.534271 13.631 0.397801 0.088039
6516.06 6516.05 0.500000 3.525810 13.4819 0.396786 0.088237
6520.52 6520.54 0.500000 3.516756 13.3447 0.396295 0.088323
6525.03 6525.05 0.500000 3.509274 13.2011 0.394973 0.088730
6529.56 6529.58 0.500000 3.500736 13.0605 0.394117 0.088657
6534.1 6534.13 0.500000 3.491933 12.9255 0.393476 0.088446
6538.68 6538.7 0.500000 3.484335 12.7886 0.392293 0.088617
6543.26 6543.28 0.500000 3.475758 12.6563 0.391574 0.088801
6547.9 6547.89 0.500000 3.467060 12.5248 0.390909 0.088554
6552.48 6552.51 0.500000 3.458420 12.3933 0.390139 0.088821
6557.14 6557.16 0.500000 3.450356 12.267 0.389287 0.088643
6561.8 6561.82 0.500000 3.442854 12.1384 0.388117 0.088808
6566.47 6566.5 0.500000 3.433085 12.02 0.388092 0.088899
6571.18 6571.2 0.500000 3.425375 11.9017 0.387246 0.089387
6575.9 6575.92 0.500000 3.416826 11.7852 0.386751 0.089540
6580.67 6580.66 0.500000 3.408407 11.672 0.386293 0.089726
6585.39 6585.41 0.500000 3.399094 11.5568 0.386032 0.089909
6590.17 6590.19 0.500000 3.391310 11.4393 0.385109 0.089665
6594.96 6594.99 0.500000 3.382446 11.334 0.384951 0.090138
6599.8 6599.8 0.500000 3.373644 11.2288 0.384767 0.090581
6604.63 6604.63 0.500000 3.364460 11.1184 0.384499 0.090499
6609.47 6609.49 0.500000 3.356618 11.0116 0.383793 0.090817
6614.33 6614.36 0.500000 3.348083 10.9043 0.383309 0.090963
6619.23 6619.25 0.500000 3.339158 10.8012 0.383093 0.090975
6624.14 6624.16 0.500000 3.330323 10.7004 0.382881 0.091232
6629.07 6629.09 0.500000 3.322440 10.5946 0.382096 0.091430
6634.01 6634.03 0.500000 3.312721 10.4979 0.382310 0.091676
6638.99 6639 0.500000 3.304505 10.3986 0.381819 0.091933
6643.97 6643.99 0.500000 3.296072 10.3001 0.381405 0.092077
6648.97 6648.99 0.500000 3.286839 10.2047 0.381381 0.092484
6654 6654.02 0.500000 3.277832 10.1117 0.381317 0.092744
6659.04 6659.06 0.500000 3.269939 10.0135 0.380610 0.093063
6664.1 6664.12 0.500000 3.261164 9.917280 0.380275 0.093172
6669.19 6669.2 0.500000 3.253148 9.823253 0.379704 0.093283
6674.28 6674.3 0.500000 3.243325 9.733153 0.379929 0.093459
6679.4 6679.42 0.500000 3.234677 9.640261 0.379579 0.093953
6684.53 6684.56 0.500000 3.226227 9.548155 0.379132 0.093830
6689.7 6689.72 0.500000 3.216796 9.458175 0.379122 0.094414
6694.88 6694.9 0.500000 3.207276 9.371189 0.379228 0.094563
6700.06 6700.09 0.500000 3.198100 9.281269 0.379041 0.094732
6705.28 6705.31 0.500000 3.190253 9.191696 0.378347 0.094760
6710.52 6710.54 0.500000 3.182235 9.101690 0.377662 0.094723
6715.76 6715.79 0.500000 3.172770 9.017477 0.377718 0.095090
6721.04 6721.06 0.500000 3.164593 8.931006 0.377178 0.095158
6726.33 6726.35 0.500000 3.154519 8.842721 0.377225 0.095594
6731.64 6731.66 0.500000 3.146333 8.758094 0.376687 0.096018
6736.96 6736.99 0.500000 3.137393 8.676824 0.376535 0.096330
6742.32 6742.34 0.500000 3.128165 8.592714 0.376341 0.096580
6747.68 6747.71 0.500000 3.119967 8.507242 0.375667 0.096650
6753.07 6753.09 0.500000 3.111275 8.424942 0.375279 0.096857
6758.48 6758.5 0.500000 3.102243 8.345035 0.375094 0.097265
6763.9 6763.92 0.500000 3.094187 8.261724 0.374353 0.096984
6769.34 6769.37 0.500000 3.084935 8.184919 0.374311 0.097598
6774.8 6774.83 0.500000 3.075672 8.105779 0.374157 0.097847
6780.29 6780.31 0.500000 3.067565 8.027308 0.373543 0.097895
6785.78 6785.81 0.500000 3.058404 7.947083 0.373211 0.098347
6791.31 6791.33 0.500000 3.048488 7.853596 0.372502 0.098410
6796.85 6796.87 0.500000 3.039862 7.798991 0.373119 0.098601
6802.39 6802.42 0.500000 3.031286 7.729412 0.372976 0.099282
6807.98 6808 0.500000 3.022482 7.664259 0.373094 0.099710
6813.58 6813.6 0.500000 3.013298 7.470331 0.367007 0.097984
6819.18 6819.21 0.500000 3.004067 7.479463 0.370861 0.099484
6824.85 6824.85 0.500000 2.996385 7.311907 0.365366 0.098314
6830.48 6830.5 0.500000 2.986803 7.185085 0.362476 0.097701
6836.14 6836.17 0.500000 2.977975 7.344008 0.373772 0.101117
6841.84 6841.86 0.500000 2.970158 7.134245 0.365958 0.099513