File: xdidata/Data/Cr/Cr-K-nitrate.xdi
# XDI/1.0 BlueSky/1.5.3
# Beamline.name: 6BM
# Beamline.xray_source: NSLS-II three-pole wiggler
# Beamline.collimation: paraboloid mirror, 5 nm Rh on 30 nm Pt
# Beamline.focusing: not in use
# Beamline.harmonic_rejection: flat mirror, Si stripe, pitch = 7.0 mrad relative to beam
# Detector.i0: 10 cm N2
# Detector.i1: 25 cm N2
# Detector.i2: 25 cm N2
# Element.symbol: Cr
# Element.edge: K
# Facility.name: NSLS-II
# Facility.energy: 3.0
# Facility.current: 399.7
# Facility.mode: top-off
# Facility.gup: 305882
# Facility.saf: 305422
# Facility.cycle: 2020-1
# Mono.name: Si(111)
# Mono.d_spacing: 3.13532
# Mono.encoder_resolution: 0.0000050 deg/ct
# Mono.angle_offset: 16.0581 deg
# Mono.scan_mode: fixed exit
# Mono.scan_type: step
# Mono.direction: forward in energy
# Sample.name: Cr(NO3)3.9H2O
# Sample.prep: powder on tape 2x
# Sample.x_position: -74.438 mm
# Sample.y_position: 112.405 mm
# Scan.experimenters: Sarah Nicholas, Bruce Ravel
# Scan.edge_energy: 5989.0
# Scan.start_time: 2020-01-29T17:38:26
# Scan.end_time: 2020-01-30T04:05:10
# Scan.transient_id: 20504
# Scan.uid: 5995548d-a23c-4200-a626-7663cf0b30c8
# Scan.plot_hint: ln(I0/It)  --  ln($5/$6)
# Scan.sequence: merge of 16 scans
# Column.1: energy eV
# Column.2: requested_energy eV
# Column.3: measurement_time seconds
# Column.4: mutrans
# Column.5: i0
# Column.6: itrans
# Column.7: irefer
# /////
#  Fisher, ground in AW M&P stored in N2 box
# -----
# energy   requested_energy   measurement_time   mutrans   i0   itrans   irefer
5789 5789 0.500000 2.987266 47.7404 2.407624 0.430112
5799.01 5799 0.500000 2.969454 47.73 2.450306 0.441490
5809.01 5809 0.500000 2.950960 47.6743 2.493126 0.453253
5819.01 5819 0.500000 2.932943 47.6286 2.536001 0.465040
5829.01 5829 0.500000 2.914848 47.5557 2.578371 0.477169
5839.01 5839 0.500000 2.896739 47.4719 2.620860 0.489050
5849.01 5849 0.500000 2.879036 47.3559 2.661151 0.500831
5859.01 5859 0.500000 2.861239 47.176 2.698620 0.512430
5869.01 5869 0.500000 2.843602 46.0446 2.680765 0.513441
5879.01 5879 0.500000 2.826063 47.5752 2.818893 0.544334
5889.01 5889 0.500000 2.808770 47.3259 2.853067 0.555746
5899.01 5899 0.500000 2.792020 47.145 2.890129 0.567442
5909.01 5909 0.500000 2.774523 46.8891 2.925168 0.579119
5919 5919 0.500000 2.756987 34.9369 2.218100 0.442253
5929 5929 0.500000 2.740461 45.1976 2.917200 0.587034
5939.47 5939 0.500000 2.723806 46.4138 3.048432 0.618508
5948.99 5949 0.500000 2.707172 46.9144 3.130615 0.640230
5958.99 5959 0.500000 2.690684 46.559 3.158508 0.650796
5960.99 5961 0.500000 2.687479 46.5104 3.165370 0.653394
5962.99 5963 0.500000 2.684207 46.4502 3.171624 0.655592
5964.99 5965 0.500000 2.680873 46.3915 3.178246 0.657864
5966.99 5967 0.500000 2.677528 46.3372 3.185144 0.660238
5968.99 5969 0.500000 2.674438 46.2781 3.190914 0.662524
5970.99 5971 0.500000 2.671211 46.2153 3.196881 0.664682
5973 5973 0.500000 2.668013 46.1476 3.202448 0.666885
5974.99 5975 0.500000 2.664867 46.0807 3.207850 0.668962
5976.99 5977 0.500000 2.661474 46.0155 3.214208 0.670849
5979 5979 0.500000 2.658379 45.9334 3.218457 0.672569
5979.24 5979.25 0.500000 2.658003 45.9239 3.218992 0.672983
5979.49 5979.5 0.500000 2.657655 45.9036 3.218695 0.672778
5979.74 5979.75 0.500000 2.657042 45.8934 3.219947 0.673092
5979.99 5980 0.500000 2.656696 45.8854 3.220498 0.673363
5980.24 5980.25 0.500000 2.656380 45.8597 3.219726 0.673039
5980.49 5980.5 0.500000 2.655957 45.8457 3.220106 0.673669
5980.74 5980.75 0.500000 2.655635 45.8329 3.220241 0.673252
5980.99 5981 0.500000 2.655113 45.8177 3.220854 0.673653
5981.24 5981.25 0.500000 2.654893 45.8023 3.220482 0.673831
5981.49 5981.5 0.500000 2.654349 45.793 3.221578 0.673815
5981.74 5981.75 0.500000 2.653956 45.7772 3.221735 0.673831
5981.99 5982 0.500000 2.653696 45.7589 3.221287 0.673838
5982.24 5982.25 0.500000 2.653199 45.7433 3.221784 0.673911
5982.49 5982.5 0.500000 2.652778 45.7293 3.222143 0.674351
5982.74 5982.75 0.500000 2.652530 45.7201 3.222298 0.674268
5982.99 5983 0.500000 2.652003 45.7089 3.223201 0.674550
5983.24 5983.25 0.500000 2.651657 45.6901 3.222977 0.674796
5983.49 5983.5 0.500000 2.651201 45.6689 3.222942 0.674776
5983.74 5983.75 0.500000 2.650896 45.645 3.222239 0.674506
5983.99 5984 0.500000 2.650256 45.6361 3.223672 0.674597
5984.24 5984.25 0.500000 2.650199 45.614 3.222314 0.674660
5984.49 5984.5 0.500000 2.649695 45.5825 3.221719 0.674064
5984.75 5984.75 0.500000 2.649228 45.5614 3.221727 0.674058
5985 5985 0.500000 2.649060 45.5334 3.220288 0.673928
5985.25 5985.25 0.500000 2.648515 45.5114 3.220484 0.673870
5985.5 5985.5 0.500000 2.648103 45.4752 3.219229 0.673428
5985.75 5985.75 0.500000 2.647859 45.4515 3.218351 0.673201
5986 5986 0.500000 2.647388 45.4126 3.217101 0.672755
5986.24 5986.25 0.500000 2.647056 45.381 3.215921 0.672332
5986.49 5986.5 0.500000 2.646754 45.336 3.213702 0.671748
5986.74 5986.75 0.500000 2.646303 45.2852 3.211533 0.670859
5987 5987 0.500000 2.645948 45.2245 3.208387 0.669553
5987.25 5987.25 0.500000 2.645556 45.1592 3.205004 0.668751
5987.5 5987.5 0.500000 2.645129 45.0866 3.201229 0.666605
5987.75 5987.75 0.500000 2.644850 45.0018 3.196096 0.664758
5988 5988 0.500000 2.644569 44.9025 3.189948 0.662083
5988.25 5988.25 0.500000 2.644260 44.7888 3.182843 0.658729
5988.5 5988.5 0.500000 2.643845 44.6474 3.174130 0.653568
5988.74 5988.75 0.500000 2.643535 44.4811 3.163268 0.647183
5989 5989 0.500000 2.643212 44.2913 3.150813 0.638009
5989.25 5989.25 0.500000 2.643012 44.0363 3.133301 0.627211
5989.5 5989.5 0.500000 2.642968 43.6994 3.109448 0.614631
5989.75 5989.75 0.500000 2.643080 43.2442 3.076711 0.601818
5990 5990 0.500000 2.643483 42.5919 3.029091 0.587657
5990.25 5990.25 0.500000 2.643821 41.6424 2.960550 0.570520
5990.5 5990.5 0.500000 2.644227 40.2402 2.859699 0.547451
5990.75 5990.75 0.500000 2.644422 38.2426 2.717223 0.516818
5991 5991 0.500000 2.643890 35.96 2.556374 0.483097
5991.25 5991.25 0.500000 2.643028 34.0429 2.422189 0.455373
5991.5 5991.5 0.500000 2.641667 33.3211 2.374094 0.443493
5991.75 5991.75 0.500000 2.640220 34.2949 2.447033 0.454829
5992 5992 0.500000 2.639515 37.0544 2.645841 0.489247
5992.25 5992.25 0.500000 2.639474 40.8586 2.917614 0.537518
5992.5 5992.5 0.500000 2.639274 43.9414 3.138320 0.575584
5992.75 5992.75 0.500000 2.639220 45.5143 3.250774 0.593816
5993 5993 0.500000 2.638806 46.1835 3.299928 0.600777
5993.25 5993.25 0.500000 2.638346 46.4344 3.319383 0.602449
5993.5 5993.5 0.500000 2.637914 46.5303 3.327677 0.602381
5993.75 5993.75 0.500000 2.637397 46.5509 3.330858 0.601744
5993.99 5994 0.500000 2.637002 46.5522 3.332250 0.601034
5994.25 5994.25 0.500000 2.636471 46.5335 3.332679 0.600178
5994.5 5994.5 0.500000 2.636394 46.508 3.331142 0.599754
5994.75 5994.75 0.500000 2.636059 46.4827 3.330447 0.599198
5995.01 5995 0.500000 2.635859 46.4495 3.328734 0.599230
5995.25 5995.25 0.500000 2.635726 46.4181 3.326930 0.599292
5995.5 5995.5 0.500000 2.635644 46.3927 3.325379 0.599020
5995.75 5995.75 0.500000 2.635497 46.3667 3.324001 0.599280
5996 5996 0.500000 2.635449 46.3345 3.321857 0.598952
5996.25 5996.25 0.500000 2.635397 46.3086 3.320170 0.598678
5996.5 5996.5 0.500000 2.635463 46.2852 3.318277 0.597864
5996.75 5996.75 0.500000 2.635728 46.2602 3.315606 0.595612
5997 5997 0.500000 2.636116 46.2315 3.312253 0.592630
5997.25 5997.25 0.500000 2.636484 46.2079 3.309383 0.588995
5997.5 5997.5 0.500000 2.637195 46.1746 3.304645 0.584460
5997.75 5997.75 0.500000 2.637850 46.1527 3.300922 0.579659
5998 5998 0.500000 2.638877 46.1316 3.296005 0.574668
5998.25 5998.25 0.500000 2.640339 46.104 3.289243 0.569101
5998.5 5998.5 0.500000 2.641886 46.0947 3.283468 0.563596
5998.75 5998.75 0.500000 2.643809 46.084 3.276389 0.557745
5999 5999 0.500000 2.645906 46.0663 3.268260 0.551892
5999.25 5999.25 0.500000 2.648132 46.0536 3.260121 0.546656
5999.5 5999.5 0.500000 2.650615 46.0401 3.251124 0.541048
5999.75 5999.75 0.500000 2.652975 46.0432 3.243635 0.535969
6000 6000 0.500000 2.655573 46.0213 3.233750 0.530637
6000.25 6000.25 0.500000 2.658532 46.0156 3.223702 0.525595
6000.5 6000.5 0.500000 2.661339 46.0191 3.214978 0.521168
6000.75 6000.75 0.500000 2.664211 46.008 3.204954 0.516877
6001 6001 0.500000 2.666876 45.9996 3.195898 0.513029
6001.25 6001.25 0.500000 2.669712 45.9829 3.185653 0.509137
6001.5 6001.5 0.500000 2.672439 45.963 3.175708 0.505173
6001.75 6001.75 0.500000 2.675242 45.9582 3.166395 0.501781
6002 6002 0.500000 2.678015 45.95 3.157031 0.498426
6002.25 6002.25 0.500000 2.680748 45.9389 3.147603 0.494708
6002.5 6002.5 0.500000 2.683612 45.9314 3.138108 0.491586
6002.75 6002.75 0.500000 2.686656 45.9381 3.129132 0.488330
6003 6003 0.500000 2.690113 45.9327 3.117876 0.484972
6003.25 6003.25 0.500000 2.693574 45.9226 3.106446 0.481413
6003.5 6003.5 0.500000 2.697656 45.9137 3.093295 0.477847
6003.75 6003.75 0.500000 2.701524 45.905 3.080802 0.474710
6004 6004 0.500000 2.705611 45.8927 3.067425 0.471148
6004.25 6004.25 0.500000 2.709923 45.885 3.053827 0.467637
6004.5 6004.5 0.500000 2.714442 45.8689 3.039016 0.464074
6004.75 6004.75 0.500000 2.718731 45.8678 3.025862 0.460418
6005 6005 0.500000 2.722994 45.8563 3.012163 0.456920
6005.25 6005.25 0.500000 2.727245 45.8593 2.999595 0.453714
6005.5 6005.5 0.500000 2.731481 45.8552 2.986568 0.450116
6005.75 6005.75 0.500000 2.735661 45.8418 2.973226 0.446549
6006 6006 0.500000 2.740276 45.8349 2.959195 0.442903
6006.25 6006.25 0.500000 2.745022 45.8279 2.944764 0.439385
6006.5 6006.5 0.500000 2.750141 45.8178 2.929281 0.435926
6006.75 6006.75 0.500000 2.755134 45.8102 2.914205 0.432178
6007 6007 0.500000 2.760128 45.7989 2.899016 0.428804
6007.25 6007.25 0.500000 2.765200 45.7846 2.883357 0.424997
6007.5 6007.5 0.500000 2.770240 45.7752 2.868256 0.421387
6007.75 6007.75 0.500000 2.774649 45.7637 2.854818 0.418093
6008 6008 0.500000 2.778638 45.7641 2.843373 0.414685
6008.25 6008.25 0.500000 2.781528 45.759 2.834912 0.412083
6008.5 6008.5 0.500000 2.783552 45.7495 2.828585 0.409323
6008.75 6008.75 0.500000 2.784602 45.7445 2.825313 0.407549
6009 6009 0.500000 2.785043 45.7366 2.823576 0.406361
6009.25 6009.25 0.500000 2.784842 45.7316 2.823855 0.406055
6009.5 6009.5 0.500000 2.783929 45.7192 2.825672 0.406014
6009.75 6009.75 0.500000 2.782685 45.7108 2.828615 0.406706
6010 6010 0.500000 2.780916 45.703 2.833179 0.408182
6010.25 6010.25 0.500000 2.778945 45.6947 2.838333 0.410360
6010.5 6010.5 0.500000 2.776420 45.6868 2.844952 0.412837
6010.75 6010.75 0.500000 2.773728 45.6766 2.851940 0.416055
6011 6011 0.500000 2.770873 45.6705 2.859740 0.419177
6011.25 6011.25 0.500000 2.767834 45.6621 2.867913 0.422581
6011.5 6011.5 0.500000 2.764930 45.6509 2.875616 0.425884
6011.75 6011.75 0.500000 2.761943 45.6439 2.883780 0.429633
6012 6012 0.500000 2.759227 45.6404 2.891342 0.432919
6012.25 6012.25 0.500000 2.756754 45.6356 2.898252 0.436210
6012.5 6012.5 0.500000 2.754724 45.6258 2.903478 0.438782
6012.75 6012.75 0.500000 2.752811 45.6191 2.908668 0.441468
6013 6013 0.500000 2.751242 45.6013 2.912087 0.443666
6013.26 6013.25 0.500000 2.750005 45.5966 2.915422 0.445677
6013.5 6013.5 0.500000 2.749098 45.5958 2.917989 0.447120
6013.75 6013.75 0.500000 2.748289 45.5866 2.919757 0.448253
6014 6014 0.500000 2.747728 45.5791 2.920869 0.448767
6015.01 6014.99 0.500000 2.747243 45.5481 2.920294 0.449431
6015.99 6015.99 0.500000 2.748076 45.5245 2.916323 0.446589
6017.01 6017.01 0.500000 2.747933 45.519 2.916376 0.442820
6018.07 6018.06 0.500000 2.747436 45.4913 2.916079 0.438604
6019.13 6019.12 0.500000 2.745582 45.461 2.919540 0.436990
6020.21 6020.2 0.500000 2.741200 45.4326 2.930515 0.438665
6021.31 6021.3 0.500000 2.734943 45.4047 2.947160 0.443780
6022.43 6022.42 0.500000 2.727868 45.3864 2.966815 0.449079
6023.57 6023.56 0.500000 2.721072 45.3499 2.984678 0.453351
6024.71 6024.71 0.500000 2.714723 45.3343 3.002569 0.455273
6025.9 6025.89 0.500000 2.709037 45.3065 3.017877 0.454788
6027.08 6027.08 0.500000 2.703531 45.2749 3.032355 0.453964
6028.31 6028.3 0.500000 2.697603 45.2485 3.048745 0.454185
6029.53 6029.53 0.500000 2.691448 45.2218 3.065604 0.455513
6030.79 6030.78 0.500000 2.684796 45.1886 3.083895 0.457046
6032.05 6032.05 0.500000 2.678375 45.153 3.101188 0.459609
6033.35 6033.34 0.500000 2.672316 45.1148 3.117476 0.462059
6034.65 6034.65 0.500000 2.666744 45.0812 3.132470 0.464399
6035.99 6035.98 0.500000 2.661975 45.0439 3.144896 0.465692
6037.34 6037.33 0.500000 2.658321 45.0073 3.153801 0.465447
6038.71 6038.7 0.500000 2.655771 44.9656 3.158946 0.464956
6040.09 6040.08 0.500000 2.653834 44.942 3.163423 0.465938
6041.5 6041.49 0.500000 2.652904 44.907 3.163910 0.467268
6042.92 6042.91 0.500000 2.652856 44.8649 3.161115 0.468673
6044.35 6044.35 0.500000 2.652316 44.8225 3.159820 0.470294
6045.82 6045.81 0.500000 2.652028 44.7763 3.157490 0.471704
6047.3 6047.29 0.500000 2.651520 44.7327 3.156012 0.473618
6048.8 6048.79 0.500000 2.651436 44.6867 3.153044 0.476183
6050.32 6050.31 0.500000 2.651063 44.6402 3.150938 0.480050
6051.86 6051.85 0.500000 2.650537 44.5894 3.149000 0.484489
6053.42 6053.41 0.500000 2.649907 44.5321 3.146945 0.488325
6054.99 6054.98 0.500000 2.649184 44.4582 3.143966 0.491867
6056.59 6056.58 0.500000 2.648035 44.3845 3.142364 0.494483
6058.2 6058.19 0.500000 2.646595 44.3208 3.142392 0.496943
6059.84 6059.83 0.500000 2.644951 44.2402 3.141834 0.498954
6061.49 6061.48 0.500000 2.643157 44.1638 3.142057 0.499377
6063.16 6063.15 0.500000 2.641452 44.1033 3.143107 0.498071
6064.85 6064.84 0.500000 2.639715 44.0477 3.144583 0.495581
6066.56 6066.55 0.500000 2.637938 43.9923 3.146217 0.492519
6068.29 6068.28 0.500000 2.636326 43.94 3.147533 0.487990
6070.04 6070.03 0.500000 2.634429 43.8837 3.149490 0.483854
6071.8 6071.79 0.500000 2.632616 43.8223 3.150776 0.482711
6073.59 6073.58 0.500000 2.630430 43.7647 3.153516 0.485942
6075.39 6075.38 0.500000 2.628300 43.6965 3.155307 0.490640
6077.22 6077.21 0.500000 2.625717 43.6406 3.159436 0.496927
6079.06 6079.05 0.500000 2.622732 43.5726 3.163940 0.503235
6080.92 6080.91 0.500000 2.619373 43.5192 3.170703 0.510167
6082.8 6082.79 0.500000 2.615915 43.446 3.176314 0.516480
6084.69 6084.69 0.500000 2.612116 43.3714 3.182914 0.520371
6086.62 6086.61 0.500000 2.607912 43.2969 3.190822 0.521255
6088.56 6088.55 0.500000 2.603565 43.2175 3.198868 0.517518
6090.52 6090.51 0.500000 2.599022 43.15 3.208423 0.511937
6092.49 6092.48 0.500000 2.594568 43.0793 3.217450 0.504873
6094.49 6094.48 0.500000 2.590012 43 3.226197 0.498616
6096.5 6096.49 0.500000 2.585584 42.9138 3.234020 0.493179
6098.53 6098.52 0.500000 2.581196 42.826 3.241596 0.490251
6100.59 6100.58 0.500000 2.577160 42.7387 3.248057 0.491042
6102.66 6102.65 0.500000 2.573402 42.6492 3.253469 0.496312
6104.75 6104.74 0.500000 2.569490 42.5562 3.259128 0.505358
6106.86 6106.85 0.500000 2.566024 42.4696 3.263761 0.514944
6108.99 6108.98 0.500000 2.562421 42.3839 3.268926 0.525233
6111.13 6111.12 0.500000 2.559143 42.2876 3.272217 0.533566
6113.3 6113.29 0.500000 2.555686 42.1961 3.276426 0.540050
6115.49 6115.48 0.500000 2.552342 42.0919 3.279291 0.543301
6117.69 6117.68 0.500000 2.548890 41.978 3.281731 0.544372
6119.91 6119.9 0.500000 2.545481 41.8818 3.285393 0.544063
6122.16 6122.15 0.500000 2.542253 41.7695 3.287189 0.543807
6124.42 6124.41 0.500000 2.539095 41.6531 3.288409 0.544316
6126.7 6126.69 0.500000 2.535988 41.5482 3.290318 0.546832
6129 6128.99 0.500000 2.532742 41.419 3.290750 0.550234
6131.31 6131.31 0.500000 2.529644 41.2919 3.290816 0.553165
6133.65 6133.65 0.500000 2.526502 41.1526 3.290050 0.555599
6136 6136 0.500000 2.523431 41.0266 3.290075 0.556639
6138.39 6138.38 0.500000 2.520564 40.8754 3.287402 0.556114
6140.78 6140.77 0.500000 2.517510 40.7337 3.286021 0.555806
6143.2 6143.19 0.500000 2.514266 40.5842 3.284592 0.555595
6145.63 6145.62 0.500000 2.511318 40.4222 3.281153 0.553744
6148.08 6148.07 0.500000 2.508111 40.2582 3.278331 0.551198
6150.56 6150.55 0.500000 2.504723 40.075 3.274515 0.548975
6153.05 6153.04 0.500000 2.501465 39.8587 3.267474 0.547973
6155.56 6155.55 0.500000 2.498051 39.6028 3.257619 0.545922
6158.08 6158.07 0.500000 2.494494 39.1993 3.235929 0.540714
6160.63 6160.62 0.500000 2.490695 38.4212 3.183779 0.528472
6163.19 6163.19 0.500000 2.487031 36.9885 3.076266 0.507136
6165.78 6165.77 0.500000 2.483262 36.4709 3.044708 0.500374
6168.39 6168.38 0.500000 2.479414 39.286 3.292404 0.543285
6171.01 6171 0.500000 2.475274 39.1245 3.292493 0.548371
6173.66 6173.65 0.500000 2.471059 38.8806 3.285833 0.553725
6176.32 6176.31 0.500000 2.466799 38.6422 3.279611 0.558689
6179 6178.99 0.500000 2.462402 38.4025 3.273646 0.563116
6181.7 6181.69 0.500000 2.457834 38.1749 3.269161 0.566445
6184.42 6184.41 0.500000 2.453339 37.9379 3.263549 0.568903
6187.16 6187.15 0.500000 2.448841 37.7005 3.257755 0.569713
6189.91 6189.9 0.500000 2.444357 37.4633 3.251803 0.570235
6192.69 6192.68 0.500000 2.440020 37.2158 3.244375 0.570525
6195.48 6195.47 0.500000 2.435628 36.9687 3.237063 0.571467
6198.3 6198.29 0.500000 2.431198 36.7238 3.229868 0.572075
6201.13 6201.12 0.500000 2.426833 36.4793 3.222451 0.572775
6203.98 6203.97 0.500000 2.422522 36.2128 3.212732 0.572778
6206.86 6206.85 0.500000 2.418199 35.953 3.203521 0.573654
6209.75 6209.74 0.500000 2.413843 35.6838 3.193422 0.575171
6212.66 6212.65 0.500000 2.409505 35.4113 3.182852 0.576307
6215.58 6215.57 0.500000 2.405320 35.1315 3.170926 0.576464
6218.53 6218.52 0.500000 2.400921 34.8472 3.159155 0.574766
6221.49 6221.49 0.500000 2.396699 34.5697 3.147270 0.571536
6224.48 6224.47 0.500000 2.392396 34.2778 3.134190 0.568080
6227.48 6227.48 0.500000 2.388162 33.9823 3.120357 0.563551
6230.51 6230.5 0.500000 2.383998 33.6783 3.105374 0.558622
6233.56 6233.55 0.500000 2.379763 33.3764 3.090602 0.553887
6236.62 6236.61 0.500000 2.375488 33.0723 3.075600 0.549237
6239.69 6239.69 0.500000 2.371317 32.7698 3.060187 0.544959
6242.79 6242.79 0.500000 2.367059 32.4579 3.044025 0.542010
6245.91 6245.91 0.500000 2.362964 32.1415 3.026738 0.539747
6249.06 6249.05 0.500000 2.358657 31.8215 3.009558 0.539429
6252.2 6252.2 0.500000 2.354522 31.4962 2.991148 0.541545
6255.38 6255.38 0.500000 2.350154 31.1689 2.973026 0.544780
6258.57 6258.57 0.500000 2.345826 30.8462 2.955032 0.547306
6261.79 6261.79 0.500000 2.341404 30.5198 2.936724 0.547557
6265.02 6265.02 0.500000 2.336935 30.188 2.917827 0.546164
6268.27 6268.27 0.500000 2.332564 29.8539 2.898193 0.543470
6271.55 6271.55 0.500000 2.327906 29.5221 2.879375 0.541304
6274.85 6274.84 0.500000 2.323364 29.1888 2.859862 0.539486
6278.15 6278.15 0.500000 2.318715 28.8596 2.840813 0.537656
6281.47 6281.47 0.500000 2.314063 28.5208 2.820535 0.534931
6284.82 6284.82 0.500000 2.309418 28.1863 2.800452 0.532420
6288.19 6288.19 0.500000 2.304599 27.8594 2.781340 0.529700
6291.57 6291.57 0.500000 2.299767 27.5329 2.762052 0.527340
6294.99 6294.98 0.500000 2.294977 27.1971 2.741492 0.525072
6298.4 6298.4 0.500000 2.290182 26.8653 2.721077 0.523724
6301.85 6301.85 0.500000 2.285169 26.539 2.701528 0.521928
6305.32 6305.31 0.500000 2.280374 26.2161 2.681506 0.519600
6308.79 6308.79 0.500000 2.275400 25.8841 2.660772 0.517042
6312.3 6312.29 0.500000 2.270502 25.5592 2.640289 0.513862
6315.82 6315.81 0.500000 2.265658 25.2366 2.619625 0.510235
6319.36 6319.35 0.500000 2.260716 24.9138 2.598926 0.505464
6322.9 6322.9 0.500000 2.255837 24.6017 2.578925 0.501285
6326.49 6326.48 0.500000 2.250904 24.2892 2.558757 0.497664
6330.09 6330.08 0.500000 2.246061 23.9825 2.538722 0.494544
6333.7 6333.69 0.500000 2.241083 23.6687 2.518023 0.491106
6337.32 6337.32 0.500000 2.236128 23.3572 2.497192 0.487664
6340.99 6340.98 0.500000 2.231201 23.0496 2.476500 0.485751
6344.66 6344.65 0.500000 2.226423 22.7533 2.456384 0.483675
6348.35 6348.34 0.500000 2.221426 22.4576 2.436581 0.482032
6352.07 6352.05 0.500000 2.216461 22.1595 2.416232 0.479913
6355.8 6355.78 0.500000 2.211572 21.8684 2.396170 0.477852
6359.53 6359.52 0.500000 2.206781 21.5785 2.375730 0.476311
6363.32 6363.29 0.500000 2.201770 21.2924 2.356064 0.474791
6367.09 6367.08 0.500000 2.196770 21.0122 2.336659 0.473717
6370.89 6370.88 0.500000 2.191867 20.7352 2.317180 0.471479
6374.73 6374.71 0.500000 2.186936 20.4593 2.297665 0.468572
6378.58 6378.55 0.500000 2.181989 20.1959 2.279347 0.466051
6382.42 6382.41 0.500000 2.177162 19.9298 2.260162 0.463149
6386.31 6386.29 0.500000 2.172225 19.6645 2.241105 0.460486
6390.19 6390.19 0.500000 2.167123 19.4017 2.222421 0.457881
6394.12 6394.11 0.500000 2.162248 19.1442 2.203672 0.455309
6398.06 6398.05 0.500000 2.156954 18.8933 2.186305 0.453119
6402.03 6402.01 0.500000 2.151940 18.6443 2.168325 0.450095
6405.99 6405.98 0.500000 2.147094 18.4021 2.150550 0.447565
6410.01 6409.98 0.500000 2.141651 18.1652 2.134492 0.445402
6414 6413.99 0.500000 2.136621 17.9347 2.117976 0.443093
6418.05 6418.03 0.500000 2.131477 17.7067 2.101817 0.441197
6422.06 6422.08 0.500000 2.126453 17.4825 2.085551 0.439236
6426.14 6426.15 0.500000 2.121023 17.26 2.070225 0.437264
6430.25 6430.24 0.500000 2.115694 17.038 2.054554 0.434382
6434.36 6434.35 0.500000 2.110441 16.8175 2.038649 0.431699
6438.46 6438.48 0.500000 2.105090 16.6063 2.023755 0.429136
6442.65 6442.63 0.500000 2.099900 16.4015 2.009264 0.427187
6446.82 6446.79 0.500000 2.094427 16.1967 1.995082 0.425747
6450.97 6450.98 0.500000 2.089203 16.0103 1.982341 0.424984
6455.17 6455.18 0.500000 2.083915 15.8258 1.969869 0.423703
6459.4 6459.41 0.500000 2.078421 15.5748 1.949287 0.420915
6463.63 6463.65 0.500000 2.073173 15.3249 1.928067 0.418039
6467.93 6467.91 0.500000 2.067690 15.2447 1.928599 0.419555
6472.17 6472.19 0.500000 2.062512 15.0735 1.916742 0.417943
6476.48 6476.49 0.500000 2.057001 14.9026 1.905474 0.416856
6480.79 6480.81 0.500000 2.051937 14.7339 1.893467 0.415858
6485.17 6485.15 0.500000 2.046467 14.5692 1.882609 0.414582
6489.49 6489.51 0.500000 2.041013 14.4027 1.871178 0.413536
6493.87 6493.89 0.500000 2.035486 14.2473 1.861234 0.412316
6498.28 6498.28 0.500000 2.030248 14.0911 1.850537 0.410712
6502.67 6502.7 0.500000 2.024776 13.939 1.840531 0.409833
6507.11 6507.13 0.500000 2.019458 13.7889 1.830413 0.408806
6511.56 6511.58 0.500000 2.014216 13.6408 1.820250 0.407906
6516.03 6516.05 0.500000 2.008762 13.4947 1.810581 0.407156
6520.52 6520.54 0.500000 2.003515 13.3566 1.801473 0.406696
6525.03 6525.05 0.500000 1.997645 13.2222 1.793835 0.405948
6529.55 6529.58 0.500000 1.992598 13.0847 1.784141 0.405307
6534.1 6534.13 0.500000 1.987156 12.9494 1.775301 0.404487
6538.68 6538.7 0.500000 1.981852 12.8136 1.766046 0.403443
6543.26 6543.28 0.500000 1.976098 12.6849 1.758383 0.402715
6547.87 6547.89 0.500000 1.970753 12.5544 1.749629 0.401705
6552.48 6552.51 0.500000 1.965619 12.4284 1.740950 0.400730
6557.14 6557.16 0.500000 1.960145 12.3068 1.733444 0.399960
6561.84 6561.82 0.500000 1.954619 12.1748 1.724388 0.399082
6566.48 6566.5 0.500000 1.949030 12.0576 1.717281 0.398703
6571.18 6571.2 0.500000 1.943783 11.9381 1.709160 0.398205
6575.91 6575.92 0.500000 1.938332 11.8248 1.702269 0.397626
6580.64 6580.66 0.500000 1.932791 11.7099 1.695031 0.397621
6585.39 6585.41 0.500000 1.927122 11.5979 1.688333 0.397195
6590.17 6590.19 0.500000 1.921749 11.4872 1.681259 0.396942
6594.97 6594.99 0.500000 1.916151 11.3783 1.674682 0.396470
6599.78 6599.8 0.500000 1.910713 11.2725 1.668124 0.396389
6604.62 6604.63 0.500000 1.905174 11.1601 1.660707 0.395851
6609.46 6609.49 0.500000 1.899679 11.0593 1.654748 0.395574
6614.34 6614.36 0.500000 1.894035 10.9537 1.648229 0.395319
6619.23 6619.25 0.500000 1.888411 10.8511 1.641983 0.395031
6624.14 6624.16 0.500000 1.883002 10.7479 1.635202 0.394490
6629.07 6629.09 0.500000 1.877387 10.6436 1.628442 0.394118
6634.02 6634.03 0.500000 1.871754 10.5464 1.622692 0.393610
6638.98 6639 0.500000 1.866122 10.4478 1.616591 0.393683
6643.98 6643.99 0.500000 1.860639 10.3484 1.610028 0.393149
6648.98 6648.99 0.500000 1.854969 10.2552 1.604618 0.393165
6654 6654.02 0.500000 1.849631 10.1592 1.598071 0.392937
6659.04 6659.06 0.500000 1.844084 10.0617 1.591539 0.392655
6664.1 6664.12 0.500000 1.838373 9.964930 1.585265 0.392476
6669.18 6669.2 0.500000 1.832577 9.870409 1.579347 0.392080
6674.28 6674.3 0.500000 1.826953 9.779528 1.573637 0.391926
6679.4 6679.42 0.500000 1.821604 9.688812 1.567389 0.391316
6684.54 6684.56 0.500000 1.816002 9.593389 1.560667 0.390977
6689.7 6689.72 0.500000 1.810553 9.504303 1.554633 0.390834
6694.88 6694.9 0.500000 1.804788 9.415567 1.549020 0.390448
6700.06 6700.09 0.500000 1.799472 9.326222 1.542489 0.389981
6705.29 6705.31 0.500000 1.793844 9.234269 1.535908 0.389417
6710.52 6710.54 0.500000 1.788390 9.145474 1.529457 0.389059
6715.77 6715.79 0.500000 1.782638 9.058403 1.523628 0.388627
6721.05 6721.06 0.500000 1.777093 8.972412 1.517581 0.388176
6726.33 6726.35 0.500000 1.771245 8.888392 1.512173 0.388008
6731.65 6731.66 0.500000 1.765884 8.801412 1.505425 0.387478
6736.97 6736.99 0.500000 1.760336 8.715997 1.499079 0.386995
6742.32 6742.34 0.500000 1.754812 8.630783 1.492653 0.386567
6747.69 6747.71 0.500000 1.749077 8.549056 1.487029 0.386323
6753.06 6753.09 0.500000 1.743372 8.465324 1.480879 0.386260
6758.47 6758.5 0.500000 1.737712 8.378238 1.473951 0.385478
6763.9 6763.92 0.500000 1.732171 8.296116 1.467615 0.385115
6769.35 6769.37 0.500000 1.726349 8.215653 1.461863 0.384937
6774.81 6774.83 0.500000 1.720878 8.135981 1.455658 0.384380
6780.28 6780.31 0.500000 1.715008 8.054905 1.449622 0.384109
6785.78 6785.81 0.500000 1.709577 7.973653 1.442810 0.383335
6791.31 6791.33 0.500000 1.703825 7.884100 1.434823 0.382451
6796.84 6796.87 0.500000 1.698267 7.827036 1.432374 0.383100
6802.4 6802.42 0.500000 1.692515 7.755295 1.427455 0.383213
6807.97 6808 0.500000 1.686895 7.686903 1.422820 0.383187
6813.58 6813.6 0.500000 1.681379 7.491155 1.394261 0.376465
6819.19 6819.21 0.500000 1.675759 7.501815 1.404115 0.380404
6824.84 6824.85 0.500000 1.669989 7.333911 1.380646 0.375270
6830.48 6830.5 0.500000 1.664318 7.206700 1.364415 0.372156
6836.14 6836.17 0.500000 1.658436 7.365057 1.402609 0.383578
6841.86 6841.86 0.500000 1.652908 7.155196 1.370220 0.375734