File: xdidata/Data/Nb/Nb-K-NiobiumPentoxide.xdi
# XDI/1.0 BlueSky/1.10.0 BMM/2023-1.0-py310-tiled
# Beamline.name: BMM (06BM) -- Beamline for Materials Measurement (NIST)
# Beamline.xray_source: NSLS-II three-pole wiggler
# Beamline.collimation: paraboloid mirror, 5 nm Rh on 30 nm Pt
# Beamline.focusing: not in use
# Beamline.harmonic_rejection: flat mirror, Pt stripe, pitch = 7.0 mrad relative to beam
# Beamline.software: Bluesky 1.10.0, Ophyd 1.7.0, DataBroker 2.0.0b13, Python 3.10.8, 2023-1.0-py310-tiled
# Detector.I0: 10 cm N2
# Detector.I1: 25 cm N2
# Detector.I2: 25 cm N2
# Element.symbol: Nb
# Element.edge: K
# Element.reference: Nb
# Element.reference_material: Nb foil
# Facility.name: NSLS-II
# Facility.energy: 3.0
# Facility.current: 399.3
# Facility.mode: top-off
# Facility.GUP: 301027
# Facility.SAF: 310583
# Facility.cycle: 2023-2
# Mono.name: Si(111)
# Mono.d_spacing: 3.13519
# Mono.encoder_resolution: 0.0000050 deg/ct
# Mono.angle_offset: 16.0754 deg
# Mono.scan_mode: pseudo channel cut
# Mono.scan_type: step
# Mono.direction: forward in energy
# Sample.name: Nb2O5
# Sample.prep: powder in PEG pellet
# Sample.x: 117.785 mm
# Sample.y: 114.695 mm
# Sample.SDD_position: 205.000 mm
# Scan.experimenters: Bruce Ravel
# Scan.edge_energy: 18985.6
# Scan.start_time: 2023-06-23T20:15:37
# Scan.end_time: 2023-06-23T20:23:08
# Scan.transient_id: 85001
# Scan.uid: 6f661fdc-5c7f-4198-b5db-7da75444c5d4
# Scan.plot_hint: ln(I0/It)  --  ln($5/$6)
# Column.1: energy eV
# Column.2: requested_energy eV
# Column.3: measurement_time seconds
# Column.4: xmu
# Column.5: I0 nA
# Column.6: It nA
# Column.7: Ir nA
# ///////////
# sample courtesy Martin Stennett, University of Sheffield
# -----------
# energy  requested_energy  measurement_time  xmu  I0  It  Ir
  18785.464  18785.600  0.500  -0.162050  10.0463  11.8137  10.2223
  18795.598  18795.600  0.500  -0.162533  10.0302  11.8004  10.2147
  18805.636  18805.600  0.500  -0.163139  10.0059  11.7789  10.1973
  18815.606  18815.600  0.500  -0.163748  9.988668  11.7658  10.1863
  18825.711  18825.600  0.500  -0.164011  9.959792  11.7349  10.1655
  18835.734  18835.600  0.500  -0.164596  9.935596  11.7132  10.1461
  18845.720  18845.600  0.500  -0.164919  9.912496  11.6898  10.1282
  18855.702  18855.600  0.500  -0.165372  9.878810  11.6553  10.0976
  18865.679  18865.600  0.500  -0.165527  9.861298  11.6365  10.0838
  18875.745  18875.600  0.500  -0.165571  9.832278  11.6027  10.0574
  18885.711  18885.600  0.500  -0.165455  9.807504  11.5722  10.0308
  18895.704  18895.600  0.500  -0.165332  9.781496  11.5401  10.003
  18905.661  18905.600  0.500  -0.164710  9.753686  11.5001  9.968129
  18915.691  18915.600  0.500  -0.164247  9.716991  11.4515  9.924632
  18925.716  18925.600  0.500  -0.162866  9.700276  11.4161  9.894230
  18935.642  18935.600  0.500  -0.160869  9.680549  11.3701  9.849891
  18945.672  18945.600  0.500  -0.157915  9.652218  11.3034  9.784893
  18955.619  18955.600  0.500  -0.152713  9.626977  11.2153  9.698704
  18957.654  18957.600  0.500  -0.151027  9.626065  11.1954  9.679941
  18959.626  18959.600  0.500  -0.149869  9.618423  11.1735  9.657678
  18961.661  18961.600  0.500  -0.147896  9.614065  11.1465  9.629965
  18963.587  18963.600  0.500  -0.146169  9.604855  11.1166  9.596887
  18965.544  18965.600  0.500  -0.143997  9.602582  11.0898  9.570767
  18968.055  18967.600  0.500  -0.140976  9.593722  11.0462  9.527292
  18969.713  18969.600  0.500  -0.137907  9.630076  11.0541  9.526953
  18971.546  18971.600  0.500  -0.135232  9.622427  11.0158  9.480747
  18973.552  18973.600  0.500  -0.131097  9.618074  10.9654  9.424163
  18975.559  18975.600  0.500  -0.125808  9.608250  10.8964  9.352350
  18975.765  18975.900  0.500  -0.125364  9.603744  10.8864  9.342067
  18976.081  18976.200  0.500  -0.124640  9.605356  10.8804  9.332057
  18976.444  18976.500  0.500  -0.123419  9.605485  10.8672  9.317659
  18976.729  18976.800  0.500  -0.122422  9.600844  10.8512  9.302310
  18977.013  18977.100  0.500  -0.121645  9.602502  10.8446  9.290768
  18977.314  18977.400  0.500  -0.120824  9.593662  10.8257  9.272867
  18977.598  18977.700  0.500  -0.119783  9.591837  10.8124  9.256721
  18977.883  18978.000  0.500  -0.118569  9.590822  10.7982  9.241682
  18978.199  18978.300  0.500  -0.117885  9.581919  10.7808  9.222078
  18978.515  18978.600  0.500  -0.116609  9.573277  10.7573  9.196522
  18978.800  18978.900  0.500  -0.115687  9.576681  10.7512  9.185866
  18979.084  18979.200  0.500  -0.114384  9.569006  10.7286  9.162232
  18979.432  18979.500  0.500  -0.113054  9.566994  10.7121  9.143776
  18979.733  18979.800  0.500  -0.111866  9.563963  10.696  9.123440
  18980.033  18980.100  0.500  -0.110559  9.555321  10.6724  9.097596
  18980.334  18980.400  0.500  -0.108861  9.555382  10.6543  9.076903
  18980.618  18980.700  0.500  -0.107850  9.551827  10.6396  9.057359
  18980.919  18981.000  0.500  -0.106416  9.559708  10.6331  9.043261
  18981.251  18981.300  0.500  -0.104829  9.551276  10.6069  9.010753
  18981.551  18981.600  0.500  -0.102723  9.557659  10.5917  8.989447
  18981.883  18981.900  0.500  -0.101290  9.563409  10.5828  8.969769
  18982.168  18982.200  0.500  -0.099497  9.556701  10.5565  8.937317
  18982.453  18982.500  0.500  -0.097693  9.564406  10.5459  8.917071
  18982.737  18982.800  0.500  -0.095584  9.561802  10.5209  8.883853
  18983.054  18983.100  0.500  -0.093606  9.568398  10.5073  8.856517
  18983.339  18983.400  0.500  -0.091562  9.569980  10.4876  8.821051
  18983.655  18983.700  0.500  -0.089130  9.578062  10.471  8.791055
  18983.955  18984.000  0.500  -0.086593  9.577657  10.444  8.747121
  18984.288  18984.300  0.500  -0.083996  9.582606  10.4223  8.702894
  18984.572  18984.600  0.500  -0.080779  9.584891  10.3913  8.650575
  18984.889  18984.900  0.500  -0.078025  9.578801  10.3561  8.591116
  18985.158  18985.200  0.500  -0.074903  9.583817  10.3292  8.537668
  18985.458  18985.500  0.500  -0.071529  9.579233  10.2895  8.474428
  18985.743  18985.800  0.500  -0.068181  9.577697  10.2535  8.402837
  18986.075  18986.100  0.500  -0.063825  9.575618  10.2067  8.322182
  18986.376  18986.400  0.500  -0.059050  9.581408  10.1642  8.243310
  18986.677  18986.700  0.500  -0.053970  9.578923  10.1101  8.145780
  18987.009  18987.000  0.500  -0.048769  9.587468  10.0666  8.060410
  18987.310  18987.300  0.500  -0.042369  9.575302  9.989719  7.947906
  18987.626  18987.600  0.500  -0.036329  9.575982  9.930263  7.853242
  18987.911  18987.900  0.500  -0.029307  9.582169  9.867149  7.752843
  18988.196  18988.200  0.500  -0.021685  9.574997  9.784898  7.642053
  18988.512  18988.500  0.500  -0.013113  9.570989  9.697317  7.532402
  18988.813  18988.800  0.500  -0.003284  9.572718  9.604205  7.414764
  18989.082  18989.100  0.500  0.007084  9.571961  9.504396  7.303592
  18989.399  18989.400  0.500  0.019352  9.570077  9.386658  7.178398
  18989.715  18989.700  0.500  0.032290  9.570404  9.266309  7.053850
  18990.032  18990.000  0.500  0.046513  9.567843  9.133009  6.922172
  18990.317  18990.300  0.500  0.061117  9.566317  8.999161  6.796809
  18990.586  18990.600  0.500  0.076855  9.573535  8.865324  6.676887
  18990.887  18990.900  0.500  0.094230  9.567997  8.707577  6.536003
  18991.188  18991.200  0.500  0.112971  9.570405  8.548058  6.400086
  18991.504  18991.500  0.500  0.131738  9.569486  8.388332  6.260630
  18991.821  18991.800  0.500  0.154302  9.566757  8.198835  6.099157
  18992.122  18992.100  0.500  0.175798  9.563324  8.021596  5.948932
  18992.422  18992.400  0.500  0.197689  9.566151  7.850225  5.805566
  18992.723  18992.700  0.500  0.219502  9.559056  7.675144  5.658055
  18993.008  18993.000  0.500  0.240216  9.562749  7.520703  5.526447
  18993.293  18993.300  0.500  0.261727  9.563388  7.361144  5.392116
  18993.578  18993.600  0.500  0.282986  9.569095  7.210600  5.261805
  18993.895  18993.900  0.500  0.304378  9.561427  7.052337  5.126984
  18994.180  18994.200  0.500  0.325352  9.570467  6.912491  5.002990
  18994.528  18994.500  0.500  0.346318  9.561539  6.762759  4.875286
  18994.798  18994.800  0.500  0.364203  9.553482  6.637284  4.763394
  18995.099  18995.100  0.500  0.381882  9.551616  6.519699  4.656269
  18995.431  18995.400  0.500  0.397785  9.557592  6.420849  4.563739
  18995.700  18995.700  0.500  0.411499  9.555147  6.331779  4.479386
  18995.970  18996.000  0.500  0.424158  9.556161  6.252792  4.401914
  18996.287  18996.300  0.500  0.435735  9.550236  6.176986  4.327420
  18996.603  18996.600  0.500  0.446265  9.560458  6.118828  4.262909
  18996.888  18996.900  0.500  0.456337  9.552231  6.052297  4.194827
  18997.205  18997.200  0.500  0.466004  9.549120  5.992118  4.128317
  18997.522  18997.500  0.500  0.476137  9.547569  5.930745  4.062235
  18997.823  18997.800  0.500  0.485607  9.545876  5.873802  3.999217
  18998.124  18998.100  0.500  0.495067  9.547996  5.819792  3.938015
  18998.425  18998.400  0.500  0.504860  9.546530  5.762188  3.876541
  18998.694  18998.700  0.500  0.515880  9.548442  5.700179  3.811665
  18998.980  18999.000  0.500  0.528135  9.551637  5.632639  3.743734
  18999.297  18999.300  0.500  0.541991  9.541722  5.549360  3.665211
  18999.582  18999.600  0.500  0.557387  9.542556  5.465056  3.587445
  18999.899  18999.900  0.500  0.575917  9.544526  5.365829  3.499291
  19000.231  19000.200  0.500  0.595409  9.543064  5.261447  3.407939
  19000.485  19000.500  0.500  0.617590  9.539071  5.143872  3.312086
  19000.834  19000.800  0.500  0.643017  9.535802  5.013008  3.207184
  19001.087  19001.100  0.500  0.669459  9.537724  4.883176  3.106104
  19001.388  19001.400  0.500  0.697681  9.539371  4.748112  3.004355
  19001.674  19001.700  0.500  0.728943  9.537053  4.600854  2.896984
  19001.975  19002.000  0.500  0.764499  9.538860  4.440981  2.781789
  19002.276  19002.300  0.500  0.803173  9.534801  4.270692  2.663649
  19002.561  19002.600  0.500  0.844581  9.540905  4.100085  2.546391
  19002.894  19002.900  0.500  0.892498  9.528588  3.903206  2.414589
  19003.195  19003.200  0.500  0.943558  9.534143  3.711073  2.287771
  19003.496  19003.500  0.500  0.993364  9.525081  3.527412  2.168754
  19003.797  19003.800  0.500  1.045386  9.537410  3.352936  2.057674
  19004.067  19004.100  0.500  1.101009  9.531538  3.169574  1.941524
  19004.384  19004.400  0.500  1.158512  9.530241  2.992048  1.830709
  19004.654  19004.700  0.500  1.214532  9.537884  2.831309  1.729405
  19004.971  19005.000  0.500  1.281287  9.527872  2.645698  1.617159
  19005.288  19005.300  0.500  1.346539  9.524923  2.477805  1.513893
  19005.573  19005.600  0.500  1.410928  9.524383  2.323157  1.419589
  19005.890  19005.900  0.500  1.476000  9.523775  2.176660  1.331308
  19006.191  19006.200  0.500  1.542320  9.525147  2.037280  1.247278
  19006.461  19006.500  0.500  1.603424  9.521658  1.915819  1.173253
  19006.762  19006.800  0.500  1.665592  9.522336  1.800471  1.105250
  19007.048  19007.100  0.500  1.721751  9.526323  1.702858  1.046514
  19007.333  19007.400  0.500  1.781379  9.520980  1.603389  0.986361
  19007.666  19007.700  0.500  1.837119  9.520848  1.516440  0.934339
  19007.968  19008.000  0.500  1.889936  9.528470  1.439576  0.888338
  19008.285  19008.300  0.500  1.938795  9.517038  1.369285  0.845873
  19008.634  19008.600  0.500  1.986134  9.514800  1.305668  0.807207
  19008.887  19008.900  0.500  2.022826  9.522625  1.259664  0.779506
  19009.205  19009.200  0.500  2.055981  9.519463  1.218179  0.753894
  19009.474  19009.500  0.500  2.085005  9.513581  1.182600  0.732746
  19009.776  19009.800  0.500  2.109131  9.514368  1.154505  0.714554
  19010.093  19010.100  0.500  2.131198  9.512501  1.129087  0.698834
  19010.394  19010.400  0.500  2.148836  9.515244  1.109666  0.686327
  19010.616  19010.600  0.500  2.160271  9.517214  1.097277  0.678565
  19011.632  19011.590  0.500  2.195624  9.515084  1.058925  0.653387
  19012.584  19012.590  0.500  2.215438  9.506667  1.037232  0.638658
  19013.663  19013.610  0.500  2.234203  9.505499  1.017824  0.625268
  19014.694  19014.660  0.500  2.252432  9.496938  0.998539  0.612475
  19015.710  19015.720  0.500  2.268343  9.499933  0.983086  0.602369
  19016.853  19016.800  0.500  2.279674  9.493921  0.971394  0.595582
  19017.948  19017.900  0.500  2.287475  9.495275  0.963984  0.590384
  19019.060  19019.020  0.500  2.297232  9.490047  0.954098  0.584370
  19020.219  19020.160  0.500  2.310495  9.488887  0.941413  0.574548
  19021.346  19021.310  0.500  2.327281  9.482066  0.925077  0.562818
  19022.553  19022.490  0.500  2.341412  9.476083  0.911521  0.552562
  19023.697  19023.680  0.500  2.342213  9.475374  0.910723  0.549602
  19024.968  19024.900  0.500  2.323717  9.480161  0.928193  0.558124
  19026.160  19026.130  0.500  2.285409  9.476383  0.964056  0.577448
  19027.431  19027.380  0.500  2.233476  9.471367  1.014907  0.606520
  19028.687  19028.650  0.500  2.177204  9.466578  1.073113  0.640437
  19029.974  19029.940  0.500  2.121117  9.458932  1.134104  0.677711
  19031.278  19031.250  0.500  2.068470  9.461201  1.195697  0.717314
  19032.581  19032.580  0.500  2.022097  9.448126  1.250720  0.754488
  19033.949  19033.930  0.500  1.978918  9.449444  1.306090  0.794243
  19035.285  19035.300  0.500  1.939578  9.442822  1.357544  0.830697
  19036.716  19036.680  0.500  1.905530  9.440795  1.404259  0.863722
  19038.069  19038.090  0.500  1.880441  9.437047  1.439365  0.890285
  19039.517  19039.510  0.500  1.860451  9.435432  1.468176  0.909172
  19040.965  19040.950  0.500  1.845630  9.424035  1.488298  0.921869
  19042.445  19042.410  0.500  1.834294  9.421345  1.504837  0.931167
  19043.909  19043.890  0.500  1.823377  9.421043  1.521305  0.940514
  19045.358  19045.390  0.500  1.812204  9.415104  1.537428  0.949084
  19046.966  19046.910  0.500  1.799192  9.410648  1.556826  0.959628
  19048.479  19048.450  0.500  1.786140  9.405800  1.576468  0.971777
  19050.072  19050.010  0.500  1.772948  9.403175  1.596956  0.985290
  19051.586  19051.580  0.500  1.761759  9.382797  1.611425  0.995169
  19053.211  19053.180  0.500  1.753798  9.379171  1.623676  1.004028
  19054.821  19054.790  0.500  1.750896  9.382547  1.628983  1.009380
  19056.446  19056.430  0.500  1.752336  9.391656  1.628217  1.009971
  19058.136  19058.080  0.500  1.757797  9.383364  1.617921  1.004359
  19059.779  19059.750  0.500  1.765310  9.377925  1.604880  0.995666
  19061.453  19061.440  0.500  1.774582  9.375381  1.589636  0.983594
  19063.192  19063.150  0.500  1.786745  9.376135  1.570546  0.969010
  19064.851  19064.880  0.500  1.800462  9.370691  1.548249  0.951412
  19066.606  19066.630  0.500  1.816742  9.364194  1.522191  0.931562
  19068.394  19068.390  0.500  1.835190  9.361559  1.493947  0.912411
  19070.181  19070.180  0.500  1.854973  9.356665  1.463917  0.894005
  19071.938  19071.980  0.500  1.875253  9.350521  1.433586  0.876795
  19073.822  19073.810  0.500  1.895989  9.347518  1.403715  0.862034
  19075.659  19075.650  0.500  1.916217  9.334943  1.373755  0.846269
  19077.544  19077.510  0.500  1.932816  9.332937  1.350850  0.835162
  19079.429  19079.390  0.500  1.944799  9.335421  1.335114  0.828018
  19081.331  19081.290  0.500  1.950413  9.331100  1.327026  0.823366
  19083.249  19083.210  0.500  1.950956  9.318771  1.324553  0.821648
  19085.167  19085.150  0.500  1.946687  9.312018  1.329255  0.823817
  19087.102  19087.110  0.500  1.940005  9.309431  1.337796  0.829957
  19089.085  19089.080  0.500  1.929967  9.301519  1.350143  0.836616
  19091.037  19091.080  0.500  1.919848  9.294168  1.362797  0.845675
  19093.085  19093.090  0.500  1.908931  9.289679  1.377090  0.854792
  19095.118  19095.120  0.500  1.896903  9.287484  1.393425  0.864156
  19097.183  19097.180  0.500  1.886407  9.284823  1.407724  0.872208
  19099.280  19099.250  0.500  1.877663  9.280570  1.419437  0.878127
  19101.362  19101.340  0.500  1.868872  9.272846  1.430778  0.882998
  19103.492  19103.450  0.500  1.862626  9.271774  1.439577  0.887238
  19105.623  19105.580  0.500  1.856466  9.289956  1.451312  0.893887
  19107.771  19107.720  0.500  1.850783  9.286865  1.459098  0.897988
  19109.919  19109.890  0.500  1.846143  9.285522  1.465671  0.902659
  19112.051  19112.080  0.500  1.841173  9.275972  1.471460  0.908262
  19114.312  19114.280  0.500  1.836379  9.276128  1.478555  0.915173
  19116.526  19116.500  0.500  1.831111  9.256865  1.483278  0.920844
  19118.788  19118.750  0.500  1.825663  9.252696  1.490709  0.928296
  19121.002  19121.010  0.500  1.820562  9.247414  1.497478  0.934729
  19123.330  19123.290  0.500  1.815219  9.250310  1.505971  0.942645
  19125.594  19125.590  0.500  1.810088  9.241360  1.512254  0.947738
  19127.938  19127.910  0.500  1.806224  9.236728  1.517347  0.950878
  19130.283  19130.250  0.500  1.804699  9.236170  1.519571  0.954108
  19132.613  19132.600  0.500  1.803680  9.214763  1.517594  0.952482
  19135.024  19134.980  0.500  1.804247  9.212267  1.516324  0.952084
  19137.371  19137.370  0.500  1.805212  9.212861  1.514959  0.950002
  19139.799  19139.790  0.500  1.806270  9.206804  1.512363  0.947461
  19142.211  19142.220  0.500  1.807232  9.197575  1.509393  0.944616
  19144.673  19144.670  0.500  1.806691  9.188963  1.508797  0.943435
  19147.199  19147.150  0.500  1.806740  9.185050  1.508080  0.943059
  19149.694  19149.640  0.500  1.805645  9.181387  1.509130  0.943383
  19152.205  19152.150  0.500  1.803788  9.172251  1.510430  0.944359
  19154.669  19154.670  0.500  1.801885  9.170731  1.513056  0.945225
  19157.198  19157.220  0.500  1.800715  9.162108  1.513404  0.943481
  19159.809  19159.790  0.500  1.799916  9.155128  1.513460  0.941199
  19162.404  19162.370  0.500  1.800046  9.150791  1.512546  0.937743
  19164.999  19164.980  0.500  1.799795  9.143081  1.511652  0.935368
  19167.644  19167.600  0.500  1.800651  9.133421  1.508761  0.933341
  19170.289  19170.250  0.500  1.800195  9.128489  1.508635  0.934301
  19172.968  19172.910  0.500  1.800365  9.120660  1.507085  0.936006
  19175.598  19175.590  0.500  1.799431  9.110817  1.506865  0.940622
  19178.311  19178.290  0.500  1.798061  9.098835  1.506946  0.945839
  19181.056  19181.010  0.500  1.795051  9.093421  1.510590  0.952170
  19183.737  19183.750  0.500  1.791981  9.073726  1.511953  0.956894
  19186.500  19186.500  0.500  1.789953  9.075234  1.515273  0.962280
  19189.345  19189.280  0.500  1.785982  9.083315  1.522658  0.967228
  19192.126  19192.070  0.500  1.782193  9.076733  1.527331  0.970054
  19194.923  19194.890  0.500  1.777828  9.065184  1.532060  0.972381
  19197.787  19197.720  0.500  1.773219  9.055569  1.537505  0.974794
  19200.586  19200.570  0.500  1.769170  9.045543  1.542033  0.977628
  19203.467  19203.450  0.500  1.764627  9.041422  1.548350  0.981307
  19206.382  19206.340  0.500  1.761658  9.035032  1.551855  0.981690
  19209.249  19209.250  0.500  1.758140  9.023893  1.555404  0.982550
  19212.213  19212.170  0.500  1.756430  9.019768  1.557355  0.981966
  19215.179  19215.120  0.500  1.754647  9.013176  1.558994  0.980511
  19218.130  19218.090  0.500  1.753466  8.999726  1.558507  0.978469
  19221.113  19221.070  0.500  1.753644  8.994639  1.557348  0.975692
  19224.114  19224.080  0.500  1.754589  8.983088  1.553880  0.973504
  19227.149  19227.100  0.500  1.755860  8.976536  1.550774  0.970427
  19230.119  19230.150  0.500  1.757763  8.965886  1.545989  0.968048
  19233.204  19233.210  0.500  1.759309  8.958383  1.542309  0.965274
  19236.339  19236.290  0.500  1.760659  8.958057  1.540173  0.964720
  19239.410  19239.390  0.500  1.761095  8.948888  1.537925  0.964247
  19242.546  19242.510  0.500  1.760946  8.944551  1.537408  0.965047
  19245.668  19245.650  0.500  1.760458  8.927429  1.535215  0.965979
  19248.823  19248.800  0.500  1.759038  8.920588  1.536219  0.968977
  19251.963  19251.980  0.500  1.756459  8.915517  1.539310  0.973860
  19255.218  19255.170  0.500  1.753255  8.905826  1.542572  0.978617
  19258.376  19258.390  0.500  1.750133  8.896339  1.545747  0.981790
  19261.682  19261.620  0.500  1.747576  8.889795  1.548564  0.984827
  19264.907  19264.870  0.500  1.745503  8.883607  1.550697  0.988039
  19268.183  19268.150  0.500  1.744272  8.882725  1.552453  0.989640
  19271.476  19271.440  0.500  1.742988  8.868637  1.551983  0.988468
  19274.753  19274.750  0.500  1.743029  8.853006  1.549184  0.986128
  19278.114  19278.070  0.500  1.743212  8.842695  1.547096  0.982870
  19281.427  19281.420  0.500  1.743788  8.834243  1.544728  0.980284
  19284.806  19284.790  0.500  1.744503  8.827831  1.542503  0.977615
  19288.235  19288.170  0.500  1.743959  8.823455  1.542577  0.976012
  19291.600  19291.580  0.500  1.743794  8.812441  1.540906  0.974647
  19295.032  19295.000  0.500  1.742837  8.804248  1.540947  0.973532
  19298.465  19298.450  0.500  1.740984  8.793964  1.542001  0.974357
  19301.899  19301.910  0.500  1.737557  8.787572  1.546170  0.976055
  19305.416  19305.390  0.500  1.734811  8.775222  1.548244  0.977897
  19308.935  19308.890  0.500  1.731383  8.769053  1.552467  0.981666
  19312.471  19312.410  0.500  1.727618  8.757096  1.556200  0.984674
  19315.992  19315.950  0.500  1.724098  8.749138  1.560267  0.988720
  19319.547  19319.500  0.500  1.720757  8.743845  1.564542  0.991012
  19323.120  19323.080  0.500  1.718030  8.729658  1.566269  0.993449
  19326.711  19326.680  0.500  1.715534  8.706673  1.566049  0.994194
  19330.319  19330.290  0.500  1.713062  8.713613  1.571176  0.998805
  19333.978  19333.920  0.500  1.711525  8.707787  1.572541  1.001540
  19337.606  19337.580  0.500  1.711272  8.698318  1.571228  1.001194
  19341.251  19341.250  0.500  1.711010  8.685869  1.569390  1.000780
  19344.963  19344.940  0.500  1.711962  8.678104  1.566496  0.999921
  19348.726  19348.650  0.500  1.711749  8.664147  1.564309  0.998540
  19352.442  19352.380  0.500  1.711987  8.652357  1.561809  0.996729
  19356.142  19356.120  0.500  1.711326  8.646921  1.561860  0.997835
  19359.909  19359.890  0.500  1.710231  8.641455  1.562582  0.998339
  19363.711  19363.680  0.500  1.708829  8.629764  1.562657  0.998107
  19367.498  19367.480  0.500  1.707404  8.619191  1.562968  0.998085
  19371.386  19371.310  0.500  1.705234  8.610846  1.564849  0.998651
  19375.209  19375.150  0.500  1.702837  8.599985  1.566625  0.999601
  19379.066  19379.010  0.500  1.700196  8.586480  1.568301  1.001229
  19382.925  19382.890  0.500  1.697363  8.579753  1.571519  1.003574
  19386.802  19386.790  0.500  1.694998  8.570337  1.573510  1.004419
  19390.730  19390.710  0.500  1.692776  8.558688  1.574867  1.006054
  19394.726  19394.650  0.500  1.691004  8.551837  1.576398  1.006225
  19398.674  19398.610  0.500  1.689723  8.540021  1.576237  1.006039
  19402.623  19402.580  0.500  1.688411  8.532215  1.576863  1.006044
  19406.541  19406.580  0.500  1.688313  8.520191  1.574797  1.005043
  19410.626  19410.590  0.500  1.688214  8.507495  1.572605  1.003984
  19414.663  19414.630  0.500  1.688133  8.500269  1.571397  1.003449
  19418.752  19418.680  0.500  1.687979  8.486465  1.569087  1.003066
  19422.792  19422.750  0.500  1.687157  8.480590  1.569290  1.003940
  19426.834  19426.840  0.500  1.686569  8.462016  1.566773  1.004212
  19430.928  19430.950  0.500  1.684459  8.455676  1.568907  1.004674
  19435.189  19435.080  0.500  1.683045  8.448121  1.569723  1.005817
  19439.303  19439.230  0.500  1.680909  8.444985  1.572495  1.008696
  19443.402  19443.390  0.500  1.678821  8.433939  1.573721  1.010145
  19447.585  19447.580  0.500  1.675779  8.417294  1.575401  1.011108
  19451.821  19451.780  0.500  1.673483  8.404039  1.576535  1.012208
  19456.041  19456.010  0.500  1.670690  8.394931  1.579231  1.014017
  19460.330  19460.250  0.500  1.668528  8.385036  1.580783  1.015647
  19464.538  19464.510  0.500  1.665930  8.368514  1.581773  1.016396
  19468.830  19468.790  0.500  1.663856  8.269527  1.566308  1.006569
  19473.108  19473.090  0.500  1.662196  8.340652  1.582404  1.017376
  19477.505  19477.410  0.500  1.662098  8.345190  1.583420  1.019219
  19481.820  19481.750  0.500  1.660098  8.329575  1.583621  1.018270
  19486.137  19486.110  0.500  1.660168  8.328520  1.583310  1.019018
  19490.489  19490.490  0.500  1.659510  8.314905  1.581763  1.017728
  19494.977  19494.880  0.500  1.658049  8.302051  1.581627  1.017321
  19499.366  19499.300  0.500  1.657293  8.284594  1.579493  1.016969
  19503.775  19503.730  0.500  1.656010  8.273990  1.579498  1.017011
  19508.202  19508.180  0.500  1.654429  8.263112  1.579917  1.017276
  19512.764  19512.650  0.500  1.652406  8.253421  1.581259  1.018680
  19517.196  19517.140  0.500  1.650610  8.240069  1.581539  1.018361
  19521.679  19521.650  0.500  1.648662  8.238863  1.584391  1.019638
  19526.215  19526.180  0.500  1.646448  8.224168  1.585070  1.020676
  19530.786  19530.730  0.500  1.644358  8.209441  1.585543  1.020709
  19535.359  19535.300  0.500  1.642026  8.199057  1.587235  1.022683
  19539.935  19539.880  0.500  1.640049  8.187149  1.588066  1.023411
  19544.496  19544.490  0.500  1.638810  8.177769  1.588213  1.025300
  19549.176  19549.110  0.500  1.637262  8.162986  1.587797  1.026331
  19553.809  19553.760  0.500  1.635867  8.154258  1.588315  1.026730
  19558.527  19558.420  0.500  1.635005  8.140924  1.587084  1.026661
  19563.131  19563.100  0.500  1.634681  8.128836  1.585241  1.025874
  19567.820  19567.800  0.500  1.633800  8.119223  1.584762  1.026124
  19572.613  19572.520  0.500  1.633095  8.107864  1.583661  1.025847
  19577.307  19577.260  0.500  1.631498  8.093001  1.583285  1.025827
  19582.037  19582.010  0.500  1.629739  8.080476  1.583617  1.025430
  19586.854  19586.790  0.500  1.628170  8.072311  1.584502  1.026338
  19591.673  19591.590  0.500  1.626668  8.059018  1.584271  1.026881
  19596.494  19596.400  0.500  1.624235  8.044651  1.585298  1.027331
  19601.250  19601.230  0.500  1.622595  8.032814  1.585564  1.028287
  19606.161  19606.090  0.500  1.619995  7.983356  1.579904  1.024355
  19611.023  19610.960  0.500  1.617740  7.966500  1.580128  1.024935
  19615.922  19615.850  0.500  1.615141  8.006382  1.592170  1.033421
  19620.839  19620.760  0.500  1.612591  7.991907  1.593350  1.032794
  19625.743  19625.690  0.500  1.610663  7.977544  1.593556  1.033928
  19630.683  19630.630  0.500  1.608560  7.964968  1.594392  1.034878
  19635.709  19635.600  0.500  1.607004  7.937774  1.591424  1.033090
  19640.620  19640.590  0.500  1.605470  7.939844  1.594282  1.035347
  19645.618  19645.590  0.500  1.603804  7.926906  1.594339  1.035839
  19650.687  19650.620  0.500  1.602658  7.908892  1.592539  1.035270
  19655.724  19655.660  0.500  1.601394  7.901323  1.593028  1.035964
  19660.798  19660.720  0.500  1.600056  7.878052  1.590462  1.035448
  19665.823  19665.800  0.500  1.598373  7.867752  1.591058  1.036128
  19670.919  19670.900  0.500  1.596994  7.856717  1.591018  1.036477
  19676.069  19676.020  0.500  1.595088  7.734267  1.569211  1.022366
  19681.204  19681.160  0.500  1.592613  7.834829  1.593552  1.039030
  19686.342  19686.320  0.500  1.591057  7.827060  1.594452  1.039802
  19691.517  19691.500  0.500  1.589033  7.802199  1.592608  1.039729
  19696.694  19696.690  0.500  1.586915  7.805775  1.596716  1.042390
  19701.994  19701.910  0.500  1.584692  7.794728  1.598005  1.043860
  19707.194  19707.140  0.500  1.582162  7.776223  1.598250  1.043463
  19712.431  19712.390  0.500  1.580121  7.764495  1.599098  1.044647
  19717.739  19717.660  0.500  1.578262  7.744113  1.597870  1.043152
  19722.999  19722.950  0.500  1.576564  7.730910  1.597856  1.044574
  19728.296  19728.260  0.500  1.575214  7.723748  1.598533  1.044984
  19733.578  19733.590  0.500  1.573293  7.706522  1.598033  1.044700
  19738.983  19738.940  0.500  1.572379  7.697046  1.597529  1.044875
  19744.357  19744.310  0.500  1.571181  7.596112  1.578469  1.033348
  19749.717  19749.690  0.500  1.569348  7.669291  1.596600  1.045482
  19755.182  19755.100  0.500  1.567006  7.660630  1.598536  1.046127
  19760.530  19760.520  0.500  1.565580  7.650163  1.598629  1.046736
  19766.019  19765.970  0.500  1.564526  7.632387  1.596597  1.046946
  19771.510  19771.430  0.500  1.562477  7.621533  1.597597  1.047713
  19776.902  19776.910  0.500  1.560747  7.610747  1.598099  1.047654
  19782.417  19782.410  0.500  1.558463  7.592466  1.597904  1.047970
  19788.021  19787.930  0.500  1.556868  7.578989  1.597615  1.048439
  19793.490  19793.470  0.500  1.555017  7.571617  1.599019  1.049949
  19799.015  19799.020  0.500  1.552375  7.553597  1.599433  1.050407
  19804.645  19804.600  0.500  1.550947  7.561417  1.603377  1.054361
  19810.245  19810.200  0.500  1.548488  7.551721  1.605262  1.055459
  19815.864  19815.810  0.500  1.546653  7.541557  1.606047  1.056297
  19821.453  19821.450  0.500  1.544755  7.526414  1.605867  1.057441
  19827.131  19827.100  0.500  1.542322  7.516518  1.607663  1.057867
  19832.847  19832.770  0.500  1.540916  7.498596  1.606085  1.057554
  19838.549  19838.460  0.500  1.539098  7.483753  1.605823  1.058068