File: xdidata/Gd/Gd-L3-Gd2Ti2O7.xdi
# XDI/1.0 BlueSky/1.10.0 BMM/2023-1.0-py310-tiled
# Beamline.name: BMM (06BM) -- Beamline for Materials Measurement (NIST)
# Beamline.xray_source: NSLS-II three-pole wiggler
# Beamline.collimation: paraboloid mirror, 5 nm Rh on 30 nm Pt
# Beamline.focusing: not in use
# Beamline.harmonic_rejection: flat mirror, Si stripe, pitch = 7.0 mrad relative to beam
# Beamline.software: Bluesky 1.10.0, Ophyd 1.7.0, DataBroker 2.0.0b13, Python 3.10.8, 2023-1.0-py310-tiled
# Detector.I0: 10 cm N2
# Detector.I1: 25 cm N2
# Detector.I2: 25 cm N2
# Element.symbol: Gd
# Element.edge: L3
# Element.reference: Gd
# Element.reference_material: Gd2O3
# Facility.name: NSLS-II
# Facility.energy: 3.0
# Facility.current: 397.3
# Facility.mode: top-off
# Facility.GUP: 123456
# Facility.SAF: 301027
# Facility.cycle: 2023-2
# Mono.name: Si(111)
# Mono.d_spacing: 3.13519
# Mono.encoder_resolution: 0.0000050 deg/ct
# Mono.angle_offset: 16.0754 deg
# Mono.scan_mode: pseudo channel cut
# Mono.scan_type: step
# Mono.direction: forward in energy
# Sample.name: Gd2Ti2O7
# Sample.prep: Powder in PEG pellet
# Sample.x: 149.848 mm
# Sample.y: 114.690 mm
# Sample.SDD_position: 205.000 mm
# Scan.experimenters: Bruce Ravel
# Scan.edge_energy: 7242.8
# Scan.start_time: 2023-05-08T18:17:32
# Scan.end_time: 2023-05-08T18:23:15
# Scan.transient_id: 75483
# Scan.uid: c05e67ee-5012-4dd7-bfc7-33af8a257bb2
# Scan.plot_hint: ln(I0/It)  --  ln($5/$6)
# Column.1: energy eV
# Column.2: requested_energy eV
# Column.3: measurement_time seconds
# Column.4: xmu
# Column.5: I0 nA
# Column.6: It nA
# Column.7: Ir nA
# ///////////
# sample courtesy Martin Stennett, University of Sheffield
# -----------
# energy  requested_energy  measurement_time  xmu  I0  It  Ir
  7042.807  7042.800  0.500  1.512848  150.049  33.053  6.388432
  7052.808  7052.800  0.500  1.504330  150.044  33.3347  6.486907
  7062.815  7062.800  0.500  1.495925  148.694  33.3136  6.528078
  7072.848  7072.800  0.500  1.487688  150.022  33.889  6.685698
  7082.845  7082.800  0.500  1.479462  148.913  33.9165  6.735646
  7092.818  7092.800  0.500  1.471098  149.997  34.4502  6.887630
  7102.827  7102.800  0.500  1.462985  150.019  34.736  6.992342
  7112.816  7112.800  0.500  1.454949  149.79  34.9627  7.085475
  7122.821  7122.800  0.500  1.446923  149.913  35.2735  7.195839
  7132.817  7132.800  0.500  1.439442  149.619  35.4686  7.278848
  7142.816  7142.800  0.500  1.431246  149.676  35.7742  7.390829
  7152.818  7152.800  0.500  1.423631  149.751  36.0657  7.499504
  7162.812  7162.800  0.500  1.415808  149.69  36.3342  7.604975
  7172.810  7172.800  0.500  1.407758  149.549  36.5933  7.707479
  7182.815  7182.800  0.500  1.400181  149.474  36.8532  7.809533
  7192.809  7192.800  0.500  1.392602  148.554  36.905  7.868863
  7202.814  7202.800  0.500  1.385966  149.124  37.2932  7.995748
  7212.811  7212.800  0.500  1.379624  149.041  37.5095  8.083297
  7214.802  7214.800  0.500  1.378537  149.005  37.5413  8.095775
  7216.802  7216.800  0.500  1.377664  148.96  37.5628  8.106440
  7218.801  7218.800  0.500  1.376700  148.912  37.5869  8.116721
  7220.796  7220.800  0.500  1.376424  148.875  37.588  8.120792
  7222.795  7222.800  0.500  1.376229  148.825  37.5826  8.122476
  7224.798  7224.800  0.500  1.376064  148.78  37.5775  8.122002
  7226.799  7226.800  0.500  1.376347  148.485  37.4924  8.100693
  7228.793  7228.800  0.500  1.377102  148.567  37.4847  8.092611
  7230.801  7230.800  0.500  1.379000  148.828  37.4793  8.076589
  7232.801  7232.800  0.500  1.382612  148.786  37.3336  8.022836
  7233.286  7233.300  0.500  1.383863  148.768  37.2825  8.004244
  7233.781  7233.800  0.500  1.385051  148.759  37.236  7.984975
  7234.283  7234.300  0.500  1.386197  148.737  37.1879  7.963385
  7234.787  7234.800  0.500  1.387938  148.717  37.1183  7.938451
  7235.285  7235.300  0.500  1.389944  148.703  37.0402  7.907604
  7235.783  7235.800  0.500  1.392224  148.696  36.9543  7.873833
  7236.285  7236.300  0.500  1.395200  148.686  36.842  7.832407
  7236.783  7236.800  0.500  1.398101  148.675  36.7325  7.786015
  7237.282  7237.300  0.500  1.401758  148.675  36.5984  7.734164
  7237.784  7237.800  0.500  1.405897  148.657  36.4429  7.671926
  7238.287  7238.300  0.500  1.410928  148.667  36.2625  7.598742
  7238.787  7238.800  0.500  1.417080  148.647  36.0351  7.509608
  7239.288  7239.300  0.500  1.424912  148.647  35.754  7.398813
  7239.791  7239.800  0.500  1.433897  148.639  35.4322  7.273400
  7240.294  7240.300  0.500  1.444256  148.616  35.0617  7.127514
  7240.788  7240.800  0.500  1.455607  148.603  34.6628  6.970571
  7241.284  7241.300  0.500  1.467575  148.584  34.2461  6.806579
  7241.788  7241.800  0.500  1.480257  148.582  33.8142  6.634100
  7242.289  7242.300  0.500  1.495204  148.572  33.3102  6.435002
  7242.787  7242.800  0.500  1.514351  148.562  32.6764  6.186523
  7243.295  7243.300  0.500  1.540292  148.529  31.8325  5.857196
  7243.794  7243.800  0.500  1.573647  148.359  30.7531  5.450378
  7244.293  7244.300  0.500  1.613842  147.353  29.3411  4.967667
  7244.792  7244.800  0.500  1.662356  146.094  27.7129  4.436012
  7245.292  7245.300  0.500  1.716209  146.115  26.2636  3.950589
  7245.789  7245.800  0.500  1.768208  147.745  25.211  3.583227
  7246.288  7246.300  0.500  1.814407  148.266  24.1577  3.279864
  7246.792  7246.800  0.500  1.851820  148.359  23.2852  3.057226
  7247.294  7247.300  0.500  1.881624  148.407  22.6087  2.889589
  7247.793  7247.800  0.500  1.902061  148.427  22.1543  2.768909
  7248.297  7248.300  0.500  1.912806  148.423  21.9169  2.693334
  7248.799  7248.800  0.500  1.912760  148.421  21.9177  2.673119
  7249.299  7249.300  0.500  1.902344  148.404  22.1446  2.710619
  7249.792  7249.800  0.500  1.883565  148.398  22.5636  2.808285
  7250.292  7250.300  0.500  1.856597  148.38  23.1774  2.970173
  7250.795  7250.800  0.500  1.825209  148.357  23.9128  3.179992
  7251.292  7251.300  0.500  1.792421  148.327  24.7047  3.414614
  7251.795  7251.800  0.500  1.757795  148.303  25.5711  3.678402
  7252.300  7252.300  0.500  1.725192  148.26  26.4109  3.944946
  7252.798  7252.800  0.500  1.697021  148.189  27.1524  4.188970
  7253.298  7253.300  0.500  1.673441  148.01  27.7666  4.400320
  7253.798  7253.800  0.500  1.654171  147.333  28.1776  4.569333
  7254.290  7254.300  0.500  1.638138  145.915  28.3573  4.687208
  7254.795  7254.800  0.500  1.624643  146.397  28.8376  4.843190
  7255.293  7255.300  0.500  1.614446  148.157  29.4833  5.016601
  7255.799  7255.800  0.500  1.606333  148.477  29.7878  5.122135
  7256.297  7256.300  0.500  1.598840  148.456  30.0076  5.205511
  7256.796  7256.800  0.500  1.591221  148.421  30.2299  5.281747
  7257.299  7257.300  0.500  1.584487  148.378  30.4254  5.348018
  7257.796  7257.800  0.500  1.578799  148.339  30.5908  5.403104
  7258.299  7258.300  0.500  1.573592  148.302  30.7428  5.454286
  7258.800  7258.800  0.500  1.569216  148.266  30.8702  5.498657
  7259.304  7259.300  0.500  1.565052  148.226  30.9907  5.539134
  7259.803  7259.800  0.500  1.561814  148.181  31.0818  5.569505
  7260.300  7260.300  0.500  1.558919  148.116  31.1581  5.593609
  7260.797  7260.800  0.500  1.556588  148.007  31.208  5.610463
  7261.303  7261.300  0.500  1.554717  147.856  31.2345  5.619565
  7261.802  7261.800  0.500  1.553594  147.63  31.2218  5.617731
  7262.304  7262.300  0.500  1.553058  147.266  31.1614  5.604234
  7262.805  7262.800  0.500  1.553144  146.504  30.9977  5.571192
  7263.303  7263.300  0.500  1.554131  144.491  30.5415  5.486895
  7263.807  7263.800  0.500  1.555771  136.203  28.7424  5.159955
  7264.309  7264.300  0.500  1.556917  123.024  25.9315  4.652207
  7264.800  7264.800  0.500  1.558347  124.4  26.1843  4.693771
  7265.299  7265.300  0.500  1.560726  138.204  29.0206  5.199858
  7265.799  7265.800  0.500  1.564214  146.844  30.7274  5.508411
  7266.299  7266.300  0.500  1.566962  148.108  30.907  5.541897
  7266.799  7266.800  0.500  1.569379  148.42  30.8973  5.545743
  7267.304  7267.300  0.500  1.571456  148.549  30.8599  5.545724
  7267.800  7267.800  0.500  1.572909  148.607  30.8272  5.547768
  7268.791  7268.790  0.500  1.574442  148.62  30.7825  5.557971
  7269.795  7269.790  0.500  1.574192  148.608  30.7878  5.574979
  7270.820  7270.810  0.500  1.573222  148.573  30.8104  5.588854
  7271.869  7271.860  0.500  1.572267  148.511  30.827  5.590326
  7272.920  7272.920  0.500  1.572762  148.313  30.7707  5.567525
  7274.008  7274.000  0.500  1.574166  146.017  30.2519  5.453907
  7275.114  7275.100  0.500  1.576698  148.412  30.6702  5.503581
  7276.227  7276.220  0.500  1.579743  148.663  30.6288  5.466143
  7277.367  7277.360  0.500  1.583381  148.626  30.5099  5.410058
  7278.528  7278.510  0.500  1.587365  148.599  30.3832  5.350207
  7279.698  7279.690  0.500  1.591094  148.58  30.2662  5.288475
  7280.889  7280.880  0.500  1.594701  148.558  30.1526  5.231402
  7282.114  7282.100  0.500  1.597234  148.513  30.0672  5.186320
  7283.342  7283.330  0.500  1.598292  148.208  29.9738  5.152333
  7284.584  7284.580  0.500  1.597419  145.747  29.5018  5.069697
  7285.860  7285.850  0.500  1.594641  148.191  30.0801  5.180418
  7287.159  7287.140  0.500  1.591045  148.319  30.2145  5.226320
  7288.449  7288.450  0.500  1.586698  148.343  30.3509  5.280411
  7289.794  7289.780  0.500  1.581794  148.355  30.5026  5.339085
  7291.136  7291.130  0.500  1.576619  148.339  30.6575  5.399016
  7292.507  7292.500  0.500  1.571099  148.32  30.8234  5.456800
  7293.892  7293.880  0.500  1.565913  148.315  30.9826  5.509156
  7295.302  7295.290  0.500  1.561576  148.291  31.1123  5.553480
  7296.720  7296.710  0.500  1.557744  148.275  31.2283  5.593745
  7298.157  7298.150  0.500  1.554636  148.225  31.3149  5.628408
  7299.617  7299.610  0.500  1.552246  148.141  31.3722  5.657179
  7301.100  7301.090  0.500  1.550026  146.716  31.1395  5.630551
  7302.602  7302.590  0.500  1.548842  148.277  31.5079  5.710614
  7304.118  7304.110  0.500  1.548287  148.294  31.5292  5.726911
  7305.664  7305.650  0.500  1.548339  148.245  31.517  5.736611
  7307.215  7307.210  0.500  1.548645  148.219  31.5018  5.746202
  7308.799  7308.780  0.500  1.548811  148.186  31.4896  5.752155
  7310.390  7310.380  0.500  1.550079  148.167  31.4456  5.751351
  7311.998  7311.990  0.500  1.552042  148.143  31.3789  5.745032
  7313.650  7313.630  0.500  1.553887  148.119  31.3161  5.735518
  7315.287  7315.280  0.500  1.555096  148.097  31.2735  5.726271
  7316.963  7316.950  0.500  1.555106  148.08  31.2695  5.721228
  7318.652  7318.640  0.500  1.554300  148.045  31.2875  5.717304
  7320.364  7320.350  0.500  1.552504  148.03  31.3405  5.718274
  7322.093  7322.080  0.500  1.550512  148.012  31.3992  5.720561
  7323.845  7323.830  0.500  1.548982  147.979  31.4402  5.719767
  7325.610  7325.590  0.500  1.546980  147.953  31.4976  5.725029
  7327.391  7327.380  0.500  1.544371  147.926  31.5742  5.733826
  7329.199  7329.180  0.500  1.542080  147.902  31.6415  5.745649
  7331.014  7331.010  0.500  1.539494  147.877  31.718  5.762521
  7332.865  7332.850  0.500  1.537063  147.848  31.7891  5.781157
  7334.723  7334.710  0.500  1.535623  147.828  31.8306  5.795869
  7336.605  7336.590  0.500  1.535101  147.813  31.844  5.807118
  7338.505  7338.490  0.500  1.535146  146.76  31.6157  5.775231
  7340.423  7340.410  0.500  1.535492  147.323  31.7259  5.804263
  7342.363  7342.350  0.500  1.535935  147.583  31.7679  5.819671
  7344.323  7344.310  0.500  1.536184  147.606  31.7649  5.827946
  7346.295  7346.280  0.500  1.535861  147.586  31.7708  5.837503
  7348.301  7348.280  0.500  1.534487  147.571  31.8112  5.852864
  7350.305  7350.290  0.500  1.532372  147.537  31.8712  5.870604
  7352.338  7352.320  0.500  1.529824  147.509  31.9467  5.890221
  7354.393  7354.380  0.500  1.527322  147.464  32.0168  5.909151
  7356.458  7356.450  0.500  1.525476  147.45  32.0729  5.926451
  7358.557  7358.540  0.500  1.523342  147.414  32.1336  5.944929
  7360.664  7360.650  0.500  1.521057  147.395  32.203  5.969963
  7362.800  7362.780  0.500  1.518529  147.358  32.2765  5.997808
  7364.927  7364.920  0.500  1.515717  147.303  32.3552  6.031398
  7367.107  7367.090  0.500  1.512617  147.283  32.4513  6.069133
  7369.298  7369.280  0.500  1.509861  147.277  32.5396  6.107214
  7371.494  7371.480  0.500  1.508025  147.253  32.594  6.138077
  7373.724  7373.700  0.500  1.507452  147.215  32.6042  6.159279
  7375.954  7375.950  0.500  1.506942  147.168  32.6105  6.172768
  7378.221  7378.210  0.500  1.506651  147.133  32.6121  6.179846
  7380.502  7380.490  0.500  1.506180  147.085  32.617  6.184081
  7382.800  7382.790  0.500  1.505976  147.061  32.6183  6.184358
  7385.123  7385.110  0.500  1.505422  147.024  32.6281  6.186452
  7387.460  7387.450  0.500  1.504338  146.997  32.6575  6.193511
  7389.811  7389.800  0.500  1.503017  146.971  32.6948  6.203419
  7392.192  7392.180  0.500  1.501309  146.935  32.7427  6.211238
  7394.577  7394.570  0.500  1.500000  146.894  32.7764  6.214805
  7397.006  7396.990  0.500  1.498459  146.86  32.8193  6.219465
  7399.434  7399.420  0.500  1.496664  146.831  32.872  6.229123
  7401.884  7401.870  0.500  1.494756  146.79  32.9255  6.241179
  7404.362  7404.350  0.500  1.492316  146.756  32.9983  6.260347
  7406.858  7406.840  0.500  1.489535  146.725  33.0831  6.283015
  7409.360  7409.350  0.500  1.486755  146.679  33.165  6.313337
  7411.883  7411.870  0.500  1.484195  146.641  33.2413  6.345674
  7414.442  7414.420  0.500  1.482090  146.604  33.303  6.378535
  7417.002  7416.990  0.500  1.480038  146.636  33.3786  6.413311
  7419.581  7419.570  0.500  1.478284  147.163  33.5575  6.465877
  7422.193  7422.180  0.500  1.476675  147.124  33.6025  6.489053
  7424.814  7424.800  0.500  1.475278  147.073  33.6378  6.507334
  7427.456  7427.450  0.500  1.474091  147.021  33.6658  6.521396
  7430.116  7430.110  0.500  1.473221  146.964  33.6821  6.531645
  7432.804  7432.790  0.500  1.472318  146.917  33.7018  6.541710
  7435.501  7435.490  0.500  1.471179  146.857  33.7264  6.552613
  7438.214  7438.210  0.500  1.469728  146.795  33.761  6.566687
  7440.959  7440.950  0.500  1.468015  146.716  33.8008  6.581871
  7443.705  7443.700  0.500  1.465888  146.589  33.8435  6.596507
  7446.483  7446.480  0.500  1.463956  143.973  33.3038  6.500321
  7449.273  7449.270  0.500  1.462591  146.611  33.9602  6.641080
  7452.103  7452.090  0.500  1.460662  146.357  33.967  6.657039
  7454.928  7454.920  0.500  1.458414  146.59  34.0975  6.701352
  7457.774  7457.770  0.500  1.456297  146.371  34.1187  6.723014
  7460.658  7460.650  0.500  1.453304  146.461  34.242  6.764182
  7463.549  7463.540  0.500  1.450411  146.434  34.335  6.798914
  7466.459  7466.450  0.500  1.448053  146.132  34.3451  6.815771
  7469.374  7469.370  0.500  1.445723  146.46  34.5025  6.857518
  7472.331  7472.320  0.500  1.443647  146.336  34.5449  6.875613
  7475.310  7475.290  0.500  1.441767  146.278  34.5961  6.893699
  7478.279  7478.270  0.500  1.439904  146.194  34.6407  6.911062
  7481.285  7481.280  0.500  1.438325  146.138  34.6823  6.926237
  7484.311  7484.300  0.500  1.436824  146.05  34.7134  6.941568
  7487.367  7487.350  0.500  1.434894  146.014  34.7718  6.960524
  7490.423  7490.410  0.500  1.433190  145.937  34.8127  6.977736
  7493.500  7493.490  0.500  1.431393  145.878  34.8614  6.995970
  7496.602  7496.590  0.500  1.429695  145.828  34.9085  7.015356
  7499.726  7499.710  0.500  1.427868  145.773  34.9592  7.036836
  7502.864  7502.850  0.500  1.425835  145.713  35.0159  7.061965
  7506.005  7506.000  0.500  1.423619  145.63  35.0738  7.087413
  7509.199  7509.180  0.500  1.421378  145.561  35.1357  7.115207
  7512.386  7512.370  0.500  1.418521  145.507  35.2231  7.148903
  7515.600  7515.590  0.500  1.415810  145.458  35.3068  7.181648
  7518.827  7518.820  0.500  1.413480  145.391  35.3729  7.213183
  7522.083  7522.070  0.500  1.410967  145.322  35.445  7.245298
  7525.366  7525.350  0.500  1.409002  145.259  35.4995  7.272711
  7528.657  7528.640  0.500  1.406596  145.195  35.5693  7.303681
  7531.958  7531.950  0.500  1.404543  145.123  35.6246  7.327558
  7535.276  7535.270  0.500  1.402592  145.042  35.6744  7.350543
  7538.632  7538.620  0.500  1.400606  144.986  35.7315  7.374215
  7542.012  7541.990  0.500  1.398725  144.919  35.7821  7.397006
  7545.384  7545.370  0.500  1.396814  144.847  35.8328  7.418627
  7548.802  7548.780  0.500  1.395051  144.75  35.8721  7.438813
  7552.214  7552.200  0.500  1.393174  144.698  35.9264  7.463870
  7555.667  7555.650  0.500  1.390901  144.606  35.9853  7.491764
  7559.127  7559.110  0.500  1.388825  144.534  36.0422  7.521126
  7562.614  7562.590  0.500  1.386361  144.447  36.1094  7.553807
  7566.110  7566.090  0.500  1.383756  144.351  36.1794  7.584892
  7569.647  7569.610  0.500  1.381207  144.294  36.2575  7.617963
  7573.189  7573.150  0.500  1.378386  144.192  36.3342  7.649038
  7576.714  7576.700  0.500  1.375731  144.115  36.4114  7.681990
  7580.296  7580.280  0.500  1.373464  144.017  36.4692  7.709127
  7583.894  7583.880  0.500  1.370639  143.915  36.5464  7.738728
  7587.513  7587.490  0.500  1.367952  143.799  36.6152  7.767490
  7591.138  7591.120  0.500  1.365533  143.663  36.6691  7.795885
  7594.816  7594.780  0.500  1.363354  143.519  36.7123  7.822136
  7598.468  7598.450  0.500  1.361062  143.362  36.7564  7.846440
  7602.158  7602.140  0.500  1.358845  141.64  36.3954  7.784661
  7605.866  7605.850  0.500  1.356752  142.727  36.7517  7.875738
  7609.603  7609.580  0.500  1.354589  142.501  36.7728  7.895344
  7613.336  7613.320  0.500  1.352342  142.436  36.8389  7.923147
  7617.108  7617.090  0.500  1.350095  142.439  36.9223  7.956338
  7620.898  7620.880  0.500  1.347774  142.546  37.0361  7.995921
  7624.698  7624.680  0.500  1.345489  142.624  37.1411  8.036255
  7628.531  7628.510  0.500  1.343174  142.593  37.219  8.070767
  7632.365  7632.350  0.500  1.340480  142.52  37.3004  8.106663
  7636.224  7636.210  0.500  1.337799  142.419  37.3739  8.141657
  7640.111  7640.090  0.500  1.335141  142.313  37.4454  8.175949
  7644.010  7643.990  0.500  1.332603  142.196  37.51  8.209779
  7647.928  7647.910  0.500  1.330203  142.072  37.5671  8.241204
  7651.872  7651.850  0.500  1.327676  141.985  37.639  8.276399
  7655.839  7655.810  0.500  1.324716  141.88  37.7229  8.313732
  7659.802  7659.780  0.500  1.321970  141.767  37.7964  8.349257
  7663.797  7663.780  0.500  1.319653  141.637  37.8494  8.381314
  7667.816  7667.790  0.500  1.317068  141.524  37.9171  8.417986
  7671.839  7671.830  0.500  1.315003  141.381  37.957  8.445503
  7675.905  7675.880  0.500  1.312459  141.254  38.0194  8.479151
  7679.978  7679.950  0.500  1.309837  141.115  38.0818  8.509153
  7684.055  7684.040  0.500  1.307772  140.946  38.115  8.533221
  7688.167  7688.150  0.500  1.305620  137.872  37.3639  8.378172
  7692.301  7692.280  0.500  1.303185  140.81  38.2531  8.595934
  7696.455  7696.430  0.500  1.300569  140.653  38.3105  8.625780
  7700.603  7700.590  0.500  1.297857  140.479  38.367  8.658560
  7704.769  7704.780  0.500  1.294944  140.189  38.3996  8.687084
  7709.000  7708.980  0.500  1.292018  140.291  38.5402  8.738875
  7713.203  7713.210  0.500  1.289175  140.101  38.5977  8.772717
  7717.467  7717.450  0.500  1.286697  139.913  38.6413  8.804895
  7721.730  7721.710  0.500  1.283784  139.015  38.5055  8.793780
  7726.006  7725.990  0.500  1.280970  139.697  38.8034  8.883840
  7730.297  7730.290  0.500  1.278042  139.533  38.8715  8.918736
  7734.621  7734.610  0.500  1.275353  139.372  38.931  8.955611
  7738.955  7738.950  0.500  1.272672  138.985  38.9272  8.976663
  7743.313  7743.310  0.500  1.269961  139.188  39.09  9.038142
  7747.695  7747.690  0.500  1.267393  139.03  39.1459  9.074370
  7752.083  7752.080  0.500  1.264814  138.86  39.199  9.107612
  7756.499  7756.500  0.500  1.262299  138.7  39.2523  9.140758
  7760.936  7760.930  0.500  1.260012  138.541  39.2973  9.171201
  7765.388  7765.380  0.500  1.257412  138.388  39.3561  9.203616
  7769.851  7769.850  0.500  1.254792  138.226  39.413  9.233773
  7774.345  7774.340  0.500  1.252286  138.051  39.4621  9.262435
  7778.862  7778.850  0.500  1.249533  137.9  39.5274  9.298606
  7783.390  7783.380  0.500  1.246820  137.723  39.584  9.334798
  7787.952  7787.930  0.500  1.244054  137.558  39.6461  9.372728