File: xdidata/Gd/Gd-L3-Gd_sulfate.xdi
# XDI/1.0 BlueSky/1.10.0 BMM/2023-1.0-py310-tiled
# Beamline.name: BMM (06BM) -- Beamline for Materials Measurement (NIST)
# Beamline.xray_source: NSLS-II three-pole wiggler
# Beamline.collimation: paraboloid mirror, 5 nm Rh on 30 nm Pt
# Beamline.focusing: not in use
# Beamline.harmonic_rejection: flat mirror, Si stripe, pitch = 7.0 mrad relative to beam
# Beamline.software: Bluesky 1.10.0, Ophyd 1.7.0, DataBroker 2.0.0b13, Python 3.10.8, 2023-1.0-py310-tiled
# Detector.I0: 10 cm N2
# Detector.I1: 25 cm N2
# Detector.I2: 25 cm N2
# Element.symbol: Gd
# Element.edge: L3
# Element.reference: Gd
# Element.reference_material: Gd2O3
# Facility.name: NSLS-II
# Facility.energy: 3.0
# Facility.current: 395.7
# Facility.mode: top-off
# Facility.GUP: 123456
# Facility.SAF: 301027
# Facility.cycle: 2023-2
# Mono.name: Si(111)
# Mono.d_spacing: 3.13519
# Mono.encoder_resolution: 0.0000050 deg/ct
# Mono.angle_offset: 16.0754 deg
# Mono.scan_mode: pseudo channel cut
# Mono.scan_type: step
# Mono.direction: forward in energy
# Sample.name: Gd2(SO4)2
# Sample.prep: powder on tape
# Sample.x: 123.848 mm
# Sample.y: 114.690 mm
# Sample.SDD_position: 205.000 mm
# Scan.experimenters: Bruce Ravel
# Scan.edge_energy: 7242.8
# Scan.start_time: 2023-05-08T18:04:03
# Scan.end_time: 2023-05-08T18:09:58
# Scan.transient_id: 75473
# Scan.uid: 2e362f3d-5263-45a4-a86b-c8fb815727dd
# Scan.plot_hint: ln(I0/It)  --  ln($5/$6)
# Column.1: energy eV
# Column.2: requested_energy eV
# Column.3: measurement_time seconds
# Column.4: xmu
# Column.5: I0 nA
# Column.6: It nA
# Column.7: Ir nA
# ///////////
# unknown provenence
# -----------
# energy  requested_energy  measurement_time  xmu  I0  It  Ir
  7042.803  7042.800  0.500  2.356669  149.371  14.1507  2.740966
  7052.850  7052.800  0.500  2.345133  149.384  14.3161  2.792202
  7062.860  7062.800  0.500  2.333454  148.066  14.3565  2.819317
  7072.819  7072.800  0.500  2.321693  149.356  14.6529  2.897047
  7082.820  7082.800  0.500  2.310551  148.251  14.7075  2.926944
  7092.824  7092.800  0.500  2.298804  149.317  14.9883  3.003798
  7102.818  7102.800  0.500  2.287773  149.34  15.1568  3.057430
  7112.816  7112.800  0.500  2.277035  149.112  15.2971  3.105779
  7122.819  7122.800  0.500  2.266072  148.858  15.4394  3.156266
  7132.819  7132.800  0.500  2.254982  148.395  15.563  3.201525
  7142.818  7142.800  0.500  2.244165  148.48  15.7412  3.259006
  7152.785  7152.800  0.500  2.232933  148.523  15.9236  3.318609
  7162.791  7162.800  0.500  2.223774  148.193  16.0345  3.363405
  7172.786  7172.800  0.500  2.213296  148.067  16.1896  3.416799
  7182.795  7182.800  0.500  2.203761  147.991  16.3363  3.470132
  7192.793  7192.800  0.500  2.194666  147.035  16.3791  3.498772
  7202.788  7202.800  0.500  2.187269  147.679  16.5729  3.561056
  7212.792  7212.800  0.500  2.182675  147.505  16.6296  3.591116
  7214.795  7214.800  0.500  2.182566  147.471  16.6277  3.593073
  7216.791  7216.800  0.500  2.182794  147.442  16.6206  3.594676
  7218.790  7218.800  0.500  2.183781  147.404  16.5998  3.592797
  7220.790  7220.800  0.500  2.185134  147.355  16.5719  3.587834
  7222.791  7222.800  0.500  2.187195  147.323  16.5342  3.581552
  7224.785  7224.800  0.500  2.190191  147.267  16.4786  3.568958
  7226.790  7226.800  0.500  2.195172  146.975  16.3642  3.543508
  7228.793  7228.800  0.500  2.202333  147.073  16.2582  3.517606
  7230.790  7230.800  0.500  2.213041  147.322  16.1122  3.481140
  7232.788  7232.800  0.500  2.228513  147.268  15.859  3.415471
  7233.283  7233.300  0.500  2.233550  147.268  15.7793  3.395150
  7233.781  7233.800  0.500  2.238709  147.247  15.696  3.374163
  7234.283  7234.300  0.500  2.244866  147.247  15.5996  3.348690
  7234.783  7234.800  0.500  2.251996  147.227  15.4867  3.320378
  7235.283  7235.300  0.500  2.259817  147.218  15.3651  3.288157
  7235.788  7235.800  0.500  2.268555  147.202  15.2297  3.252419
  7236.281  7236.300  0.500  2.278707  147.213  15.077  3.213034
  7236.783  7236.800  0.500  2.290374  147.192  14.9001  3.166682
  7237.284  7237.300  0.500  2.303781  147.172  14.6996  3.113473
  7237.784  7237.800  0.500  2.319500  147.17  14.4702  3.054075
  7238.285  7238.300  0.500  2.337759  147.157  14.2071  2.985515
  7238.787  7238.800  0.500  2.360315  147.159  13.8904  2.902622
  7239.290  7239.300  0.500  2.387357  147.145  13.5185  2.805914
  7239.784  7239.800  0.500  2.418419  147.131  13.1038  2.698398
  7240.292  7240.300  0.500  2.454583  147.122  12.6376  2.577703
  7240.783  7240.800  0.500  2.493675  147.119  12.1529  2.452597
  7241.284  7241.300  0.500  2.534824  147.105  11.6619  2.325809
  7241.788  7241.800  0.500  2.576081  147.088  11.1892  2.203084
  7242.295  7242.300  0.500  2.621973  147.075  10.6864  2.072543
  7242.794  7242.800  0.500  2.679735  147.053  10.0851  1.917329
  7243.291  7243.300  0.500  2.756447  147.028  9.338761  1.726990
  7243.792  7243.800  0.500  2.855472  146.863  8.448808  1.507345
  7244.291  7244.300  0.500  2.976793  145.85  7.431921  1.268607
  7244.790  7244.800  0.500  3.133581  144.605  6.299205  1.018591
  7245.289  7245.300  0.500  3.328564  144.636  5.184408  0.789754
  7245.795  7245.800  0.500  3.558651  146.293  4.166012  0.600060
  7246.297  7246.300  0.500  3.803072  146.783  3.273588  0.450991
  7246.799  7246.800  0.500  4.044318  146.871  2.573419  0.343031
  7247.296  7247.300  0.500  4.269102  146.914  2.055967  0.266815
  7247.789  7247.800  0.500  4.450774  146.916  1.714440  0.217689
  7248.293  7248.300  0.500  4.564122  146.919  1.530755  0.190990
  7248.788  7248.800  0.500  4.585598  146.924  1.498284  0.185463
  7249.299  7249.300  0.500  4.510509  146.928  1.615163  0.200737
  7249.799  7249.800  0.500  4.355272  146.907  1.886127  0.238647
  7250.297  7250.300  0.500  4.156892  146.879  2.299562  0.299468
  7250.801  7250.800  0.500  3.955869  146.866  2.811304  0.379672
  7251.292  7251.300  0.500  3.778807  146.844  3.355374  0.470384
  7251.795  7251.800  0.500  3.620848  146.813  3.928710  0.572341
  7252.297  7252.300  0.500  3.492032  146.752  4.466979  0.674198
  7252.800  7252.800  0.500  3.390675  146.677  4.940968  0.769426
  7253.305  7253.300  0.500  3.312020  146.506  5.339036  0.853797
  7253.798  7253.800  0.500  3.249829  145.827  5.655283  0.924371
  7254.306  7254.300  0.500  3.196661  144.412  5.906258  0.983987
  7254.795  7254.800  0.500  3.152629  144.988  6.196714  1.048356
  7255.296  7255.300  0.500  3.116288  146.676  6.500867  1.112886
  7255.796  7255.800  0.500  3.084442  146.978  6.725040  1.163373
  7256.304  7256.300  0.500  3.055988  146.948  6.917757  1.207293
  7256.805  7256.800  0.500  3.031244  146.933  7.090313  1.246136
  7257.301  7257.300  0.500  3.011467  146.905  7.230590  1.278425
  7257.805  7257.800  0.500  2.996510  146.869  7.337724  1.303814
  7258.303  7258.300  0.500  2.985658  146.836  7.416119  1.323457
  7258.798  7258.800  0.500  2.978796  146.794  7.465048  1.337323
  7259.301  7259.300  0.500  2.974594  146.758  7.494677  1.346944
  7259.798  7259.800  0.500  2.972404  146.703  7.508279  1.352865
  7260.304  7260.300  0.500  2.970644  146.627  7.517623  1.356793
  7260.801  7260.800  0.500  2.969156  146.525  7.523549  1.360215
  7261.300  7261.300  0.500  2.966313  146.382  7.537627  1.363306
  7261.802  7261.800  0.500  2.962434  146.152  7.555009  1.366914
  7262.297  7262.300  0.500  2.957921  145.789  7.570352  1.368784
  7262.794  7262.800  0.500  2.952167  145.056  7.575775  1.369184
  7263.298  7263.300  0.500  2.946499  143.052  7.513532  1.357096
  7263.800  7263.800  0.500  2.942187  134.896  7.115797  1.284045
  7264.300  7264.300  0.500  2.935198  121.838  6.472063  1.167419
  7264.802  7264.800  0.500  2.925508  123.265  6.611642  1.191501
  7265.297  7265.300  0.500  2.919911  137  7.389572  1.331229
  7265.799  7265.800  0.500  2.919531  145.436  7.847565  1.414722
  7266.297  7266.300  0.500  2.918146  146.707  7.927128  1.429382
  7266.795  7266.800  0.500  2.917639  147.026  7.948371  1.434425
  7267.302  7267.300  0.500  2.918311  147.145  7.949471  1.436143
  7267.802  7267.800  0.500  2.920193  147.194  7.937163  1.436518
  7268.796  7268.790  0.500  2.926666  147.236  7.888204  1.432123
  7269.790  7269.790  0.500  2.937710  147.215  7.800489  1.420172
  7270.818  7270.810  0.500  2.955399  147.182  7.661982  1.397648
  7271.869  7271.860  0.500  2.979226  147.122  7.478535  1.363706
  7272.923  7272.920  0.500  3.008693  146.917  7.251254  1.319419
  7274.015  7274.000  0.500  3.041197  144.639  6.910515  1.253062
  7275.111  7275.100  0.500  3.073977  147.003  6.796967  1.226552
  7276.227  7276.220  0.500  3.105135  147.246  6.599350  1.184853
  7277.376  7277.360  0.500  3.133075  147.23  6.416809  1.144660
  7278.528  7278.510  0.500  3.155242  147.203  6.274964  1.111833
  7279.698  7279.690  0.500  3.172105  147.179  6.169055  1.084747
  7280.891  7280.880  0.500  3.182577  147.145  6.103394  1.065751
  7282.116  7282.100  0.500  3.186642  147.111  6.077223  1.054848
  7283.335  7283.330  0.500  3.184241  146.815  6.079559  1.052247
  7284.590  7284.580  0.500  3.175133  144.382  6.033530  1.043306
  7285.860  7285.850  0.500  3.161629  146.796  6.217794  1.077935
  7287.147  7287.140  0.500  3.144679  146.927  6.329714  1.101723
  7288.456  7288.450  0.500  3.125168  146.96  6.455866  1.130276
  7289.792  7289.780  0.500  3.104495  146.965  6.590983  1.160890
  7291.142  7291.130  0.500  3.082572  146.951  6.736418  1.193594
  7292.511  7292.500  0.500  3.062807  146.946  6.870661  1.223325
  7293.892  7293.880  0.500  3.044993  146.928  6.993266  1.250991
  7295.298  7295.290  0.500  3.029109  146.892  7.103504  1.275439
  7296.720  7296.710  0.500  3.015860  146.863  7.196831  1.296344
  7298.157  7298.150  0.500  3.003995  146.842  7.281693  1.316688
  7299.628  7299.610  0.500  2.993514  146.746  7.353616  1.333411
  7301.097  7301.090  0.500  2.986110  145.321  7.336284  1.333824
  7302.602  7302.590  0.500  2.980993  146.878  7.452955  1.358406
  7304.124  7304.110  0.500  2.978858  146.892  7.469605  1.364684
  7305.661  7305.650  0.500  2.979344  146.841  7.463364  1.366927
  7307.220  7307.210  0.500  2.982081  146.826  7.442201  1.364874
  7308.785  7308.780  0.500  2.986366  146.812  7.409650  1.361394
  7310.393  7310.380  0.500  2.991140  146.785  7.373025  1.356569
  7312.001  7311.990  0.500  2.996391  146.768  7.333544  1.350265
  7313.650  7313.630  0.500  3.001519  146.736  7.294453  1.343412
  7315.287  7315.280  0.500  3.006906  146.695  7.253229  1.335566
  7316.966  7316.950  0.500  3.012208  146.684  7.214377  1.327569
  7318.656  7318.640  0.500  3.017176  146.665  7.177679  1.319066
  7320.366  7320.350  0.500  3.022213  146.662  7.141469  1.310768
  7322.093  7322.080  0.500  3.026666  146.623  7.107829  1.302310
  7323.847  7323.830  0.500  3.030439  146.582  7.079106  1.295250
  7325.603  7325.590  0.500  3.033960  146.566  7.053464  1.289657
  7327.391  7327.380  0.500  3.037167  146.54  7.029614  1.284323
  7329.194  7329.180  0.500  3.040107  146.508  7.007430  1.280316
  7331.026  7331.010  0.500  3.042554  146.491  6.989486  1.277511
  7332.862  7332.850  0.500  3.044225  146.484  6.977494  1.276326
  7334.728  7334.710  0.500  3.044497  146.454  6.974162  1.277564
  7336.605  7336.590  0.500  3.043305  146.424  6.981072  1.280862
  7338.509  7338.490  0.500  3.041131  145.307  6.942873  1.275878
  7340.430  7340.410  0.500  3.036532  145.96  7.006243  1.289032
  7342.370  7342.350  0.500  3.032170  146.196  7.048264  1.298981
  7344.335  7344.310  0.500  3.025929  146.212  7.093151  1.308943
  7346.272  7346.280  0.500  3.018690  146.206  7.144366  1.320708
  7348.287  7348.280  0.500  3.010139  146.186  7.204733  1.333410
  7350.291  7350.290  0.500  3.001645  146.14  7.263937  1.345476
  7352.333  7352.320  0.500  2.993117  146.107  7.324481  1.358543
  7354.391  7354.380  0.500  2.985179  146.093  7.382126  1.370475
  7356.454  7356.450  0.500  2.977996  146.065  7.433921  1.381244
  7358.559  7358.540  0.500  2.971657  146.023  7.479063  1.391852
  7360.659  7360.650  0.500  2.966368  145.984  7.516741  1.401688
  7362.790  7362.780  0.500  2.962328  145.957  7.545730  1.410437
  7364.932  7364.920  0.500  2.959153  145.918  7.567742  1.418719
  7367.100  7367.090  0.500  2.957234  145.887  7.580651  1.425906
  7369.286  7369.280  0.500  2.956433  145.869  7.585784  1.431703
  7371.487  7371.480  0.500  2.956545  145.838  7.583325  1.436432
  7373.715  7373.700  0.500  2.957177  145.8  7.576537  1.439854
  7375.956  7375.950  0.500  2.957704  145.751  7.570030  1.441387
  7378.212  7378.210  0.500  2.958346  145.725  7.563831  1.441288
  7380.502  7380.490  0.500  2.959331  145.679  7.553970  1.439754
  7382.793  7382.790  0.500  2.960912  145.646  7.540340  1.437658
  7385.116  7385.110  0.500  2.961810  145.615  7.531988  1.436273
  7387.462  7387.450  0.500  2.962695  145.583  7.523627  1.434565
  7389.804  7389.800  0.500  2.963178  145.549  7.518262  1.434589
  7392.192  7392.180  0.500  2.964633  145.521  7.505895  1.431993
  7394.575  7394.570  0.500  2.966956  145.484  7.486554  1.427747
  7396.999  7396.990  0.500  2.967374  145.454  7.481874  1.425776
  7399.429  7399.420  0.500  2.964229  145.411  7.503241  1.430819
  7401.877  7401.870  0.500  2.960714  145.364  7.527254  1.434626
  7404.362  7404.350  0.500  2.957678  145.327  7.548172  1.439832
  7406.851  7406.840  0.500  2.954517  145.26  7.568602  1.445587
  7409.355  7409.350  0.500  2.950587  145.224  7.596498  1.454385
  7411.878  7411.870  0.500  2.946153  145.207  7.629383  1.464719
  7414.421  7414.420  0.500  2.941729  145.159  7.660681  1.476252
  7416.997  7416.990  0.500  2.936038  145.108  7.701666  1.488434
  7419.577  7419.570  0.500  2.931174  145.075  7.737513  1.499052
  7422.193  7422.180  0.500  2.927128  145.029  7.766375  1.508082
  7424.809  7424.800  0.500  2.924903  144.989  7.781543  1.513960
  7427.458  7427.450  0.500  2.921736  144.94  7.803608  1.520295
  7430.120  7430.110  0.500  2.919012  144.889  7.822127  1.525225
  7432.804  7432.790  0.500  2.916420  144.816  7.838464  1.530368
  7435.505  7435.490  0.500  2.913462  144.76  7.858646  1.535642
  7438.218  7438.210  0.500  2.910371  144.704  7.879955  1.541101
  7440.959  7440.950  0.500  2.906759  144.628  7.904280  1.547574
  7443.712  7443.700  0.500  2.903144  144.493  7.925512  1.553557
  7446.495  7446.480  0.500  2.899251  142.032  7.820912  1.535088
  7449.278  7449.270  0.500  2.896749  144.529  7.978328  1.569288
  7452.096  7452.090  0.500  2.893997  144.291  7.987181  1.574064
  7454.937  7454.920  0.500  2.891178  144.511  8.021915  1.585193
  7457.788  7457.770  0.500  2.889285  144.281  8.024326  1.590273
  7460.663  7460.650  0.500  2.887519  144.389  8.044556  1.598468
  7463.551  7463.540  0.500  2.886515  144.339  8.049815  1.602644
  7466.471  7466.450  0.500  2.884926  144.024  8.045050  1.604875
  7469.381  7469.370  0.500  2.883504  144.371  8.075870  1.613611
  7472.329  7472.320  0.500  2.881972  144.253  8.081648  1.617525
  7475.312  7475.290  0.500  2.879640  144.179  8.096385  1.622487
  7478.286  7478.270  0.500  2.876983  144.109  8.113956  1.627604
  7481.296  7481.280  0.500  2.874459  144.051  8.131178  1.632810
  7484.316  7484.300  0.500  2.871723  143.988  8.149905  1.638594
  7487.369  7487.350  0.500  2.868884  143.919  8.169179  1.644363
  7490.425  7490.410  0.500  2.865439  143.867  8.194413  1.651282
  7493.508  7493.490  0.500  2.862147  143.804  8.217789  1.658112
  7496.602  7496.590  0.500  2.858605  143.749  8.243798  1.665638
  7499.730  7499.710  0.500  2.854893  143.703  8.271861  1.674321
  7502.869  7502.850  0.500  2.851168  143.64  8.299052  1.683364
  7506.021  7506.000  0.500  2.847640  143.569  8.324281  1.691923
  7509.196  7509.180  0.500  2.843786  143.501  8.352483  1.700323
  7512.386  7512.370  0.500  2.840555  143.447  8.376333  1.709599
  7515.603  7515.590  0.500  2.836911  143.388  8.403469  1.719442
  7518.836  7518.820  0.500  2.833361  143.312  8.428842  1.727767
  7522.090  7522.070  0.500  2.829818  143.253  8.455332  1.738005
  7525.368  7525.350  0.500  2.825953  143.194  8.484552  1.747709
  7528.654  7528.640  0.500  2.822900  143.146  8.507668  1.756327
  7531.965  7531.950  0.500  2.819573  143.057  8.530715  1.764367
  7535.284  7535.270  0.500  2.815826  142.978  8.558009  1.772818
  7538.639  7538.620  0.500  2.812645  142.904  8.580817  1.780855
  7542.010  7541.990  0.500  2.808802  142.838  8.609857  1.789758
  7545.405  7545.370  0.500  2.805376  142.77  8.635277  1.797471
  7548.812  7548.780  0.500  2.801942  142.718  8.661872  1.805633
  7552.233  7552.200  0.500  2.798799  142.642  8.684471  1.813614
  7555.670  7555.650  0.500  2.795380  142.617  8.712711  1.823355
  7559.132  7559.110  0.500  2.792009  142.573  8.739452  1.833897
  7562.607  7562.590  0.500  2.788880  142.496  8.762112  1.842705
  7566.110  7566.090  0.500  2.786226  142.506  8.785974  1.851646
  7569.643  7569.610  0.500  2.783186  142.44  8.808655  1.860836
  7573.147  7573.150  0.500  2.779464  142.35  8.835898  1.870226
  7576.733  7576.700  0.500  2.776486  142.306  8.859536  1.878815
  7580.269  7580.280  0.500  2.773494  142.214  8.880316  1.886585
  7583.909  7583.880  0.500  2.770301  142.115  8.902529  1.895200
  7587.511  7587.490  0.500  2.766587  142.041  8.930992  1.904889
  7591.138  7591.120  0.500  2.763221  141.923  8.953671  1.913786
  7594.784  7594.780  0.500  2.759545  141.767  8.976737  1.922486
  7598.485  7598.450  0.500  2.755986  141.64  9.000690  1.932000
  7602.175  7602.140  0.500  2.751717  140.024  8.936068  1.921258
  7605.886  7605.850  0.500  2.748784  141.044  9.027598  1.945415
  7609.573  7609.580  0.500  2.744846  140.831  9.049527  1.952759
  7613.354  7613.320  0.500  2.741202  140.785  9.079639  1.963564
  7617.101  7617.090  0.500  2.737417  140.927  9.123273  1.975906
  7620.901  7620.880  0.500  2.733675  141.037  9.164618  1.988992
  7624.713  7624.680  0.500  2.729471  141.124  9.208908  2.002082
  7628.531  7628.510  0.500  2.725566  141.15  9.246631  2.015853
  7632.383  7632.350  0.500  2.721687  141.099  9.279197  2.027326
  7636.243  7636.210  0.500  2.717405  141.02  9.313807  2.039064
  7640.096  7640.090  0.500  2.713317  140.961  9.348031  2.051941
  7644.000  7643.990  0.500  2.709296  140.857  9.378768  2.063583
  7647.920  7647.910  0.500  2.705403  140.778  9.410096  2.074582
  7651.870  7651.850  0.500  2.701325  140.7  9.443269  2.086688
  7655.831  7655.810  0.500  2.697363  140.653  9.477588  2.099227
  7659.812  7659.780  0.500  2.693509  140.628  9.512507  2.111831
  7663.799  7663.780  0.500  2.689727  140.525  9.541565  2.123702
  7667.798  7667.790  0.500  2.686185  140.468  9.571556  2.136073
  7671.849  7671.830  0.500  2.682254  140.351  9.601265  2.147646
  7675.895  7675.880  0.500  2.677889  140.217  9.634018  2.159801
  7679.980  7679.950  0.500  2.674043  140.145  9.666205  2.171206
  7684.062  7684.040  0.500  2.669956  139.981  9.694391  2.180751
  7688.182  7688.150  0.500  2.665621  137.048  9.532566  2.148654
  7692.298  7692.280  0.500  2.662046  139.913  9.766670  2.206292
  7696.455  7696.430  0.500  2.658171  139.768  9.794387  2.216439
  7700.618  7700.590  0.500  2.654326  139.699  9.827266  2.229366
  7704.804  7704.780  0.500  2.650567  139.469  9.848080  2.238549
  7708.982  7708.980  0.500  2.646812  139.607  9.894880  2.255020
  7713.254  7713.210  0.500  2.642148  139.463  9.930912  2.268323
  7717.444  7717.450  0.500  2.638559  139.299  9.954872  2.279546
  7721.684  7721.710  0.500  2.633968  138.456  9.940185  2.282025
  7725.981  7725.990  0.500  2.630015  139.116  10.0271  2.307067
  7730.266  7730.290  0.500  2.625682  138.974  10.0604  2.319904
  7734.598  7734.610  0.500  2.621115  138.899  10.101  2.334802
  7738.940  7738.950  0.500  2.616821  138.48  10.1138  2.343401
  7743.300  7743.310  0.500  2.612815  138.771  10.1758  2.363888
  7747.713  7747.690  0.500  2.608593  138.63  10.2085  2.377612
  7752.065  7752.080  0.500  2.603985  138.491  10.2453  2.391453
  7756.474  7756.500  0.500  2.599989  138.347  10.2756  2.404579
  7760.905  7760.930  0.500  2.595472  138.315  10.3198  2.420016
  7765.355  7765.380  0.500  2.591036  138.156  10.3538  2.432703
  7769.828  7769.850  0.500  2.586555  138.016  10.3897  2.445997
  7774.327  7774.340  0.500  2.581947  137.91  10.4297  2.460069
  7778.849  7778.850  0.500  2.577784  137.761  10.4618  2.473071
  7783.364  7783.380  0.500  2.573240  137.611  10.4981  2.487872
  7787.910  7787.930  0.500  2.568645  137.414  10.5313  2.501717