File: xdidata/Gd/Gd-L1-Gd_sulfate.xdi
# XDI/1.0 BlueSky/1.10.0 BMM/2023-1.0-py310-tiled
# Beamline.name: BMM (06BM) -- Beamline for Materials Measurement (NIST)
# Beamline.xray_source: NSLS-II three-pole wiggler
# Beamline.collimation: paraboloid mirror, 5 nm Rh on 30 nm Pt
# Beamline.focusing: not in use
# Beamline.harmonic_rejection: flat mirror, Pt stripe, pitch = 7.0 mrad relative to beam
# Beamline.software: Bluesky 1.10.0, Ophyd 1.7.0, DataBroker 2.0.0b13, Python 3.10.8, 2023-1.0-py310-tiled
# Detector.I0: 10 cm N2
# Detector.I1: 25 cm N2
# Detector.I2: 25 cm N2
# Element.symbol: Gd
# Element.edge: L1
# Element.reference: Gd
# Element.reference_material: Gd2O3
# Facility.name: NSLS-II
# Facility.energy: 3.0
# Facility.current: 400.8
# Facility.mode: top-off
# Facility.GUP: 123456
# Facility.SAF: 301027
# Facility.cycle: 2023-2
# Mono.name: Si(111)
# Mono.d_spacing: 3.13519
# Mono.encoder_resolution: 0.0000050 deg/ct
# Mono.angle_offset: 16.0754 deg
# Mono.scan_mode: pseudo channel cut
# Mono.scan_type: step
# Mono.direction: forward in energy
# Sample.name: Gd2(SO4)2
# Sample.prep: powder on tape
# Sample.x: 123.848 mm
# Sample.y: 114.690 mm
# Sample.SDD_position: 205.000 mm
# Scan.experimenters: Bruce Ravel
# Scan.edge_energy: 8375.6
# Scan.start_time: 2023-05-08T21:37:56
# Scan.end_time: 2023-05-08T21:43:41
# Scan.transient_id: 75637
# Scan.uid: fbfba659-7cf8-4d0b-abed-c4a5bf272e04
# Scan.plot_hint: ln(I0/It)  --  ln($5/$6)
# Column.1: energy eV
# Column.2: requested_energy eV
# Column.3: measurement_time seconds
# Column.4: xmu
# Column.5: I0 nA
# Column.6: It nA
# Column.7: Ir nA
# ///////////
# unknown provenence
# -----------
# energy  requested_energy  measurement_time  xmu  I0  It  Ir
  8175.616  8175.600  0.500  2.637017  135.463  9.695675  2.501672
  8185.621  8185.600  0.500  2.628284  135.312  9.769835  2.530092
  8195.623  8195.600  0.500  2.619561  135.154  9.843897  2.560797
  8205.658  8205.600  0.500  2.611140  134.966  9.913386  2.591051
  8215.632  8215.600  0.500  2.603043  134.784  9.980479  2.621130
  8225.620  8225.600  0.500  2.595076  134.606  10.047  2.649701
  8235.647  8235.600  0.500  2.586960  134.427  10.1154  2.677433
  8245.618  8245.600  0.500  2.579313  134.241  10.179  2.705852
  8255.614  8255.600  0.500  2.572085  134.042  10.2376  2.733807
  8265.620  8265.600  0.500  2.564585  133.859  10.3006  2.762950
  8275.601  8275.600  0.500  2.557463  133.685  10.3607  2.789356
  8286.631  8285.600  0.500  2.548715  133.486  10.4362  2.823622
  8295.609  8295.600  0.500  2.541820  133.316  10.495  2.848172
  8305.606  8305.600  0.500  2.534074  133.125  10.5615  2.876962
  8315.610  8315.600  0.500  2.526638  132.946  10.626  2.906330
  8325.615  8325.600  0.500  2.518899  132.742  10.6921  2.936990
  8335.609  8335.600  0.500  2.511589  132.332  10.7373  2.961628
  8345.616  8345.600  0.500  2.504589  132.019  10.7871  2.986812
  8347.591  8347.600  0.500  2.503586  131.941  10.7916  2.990438
  8349.587  8349.600  0.500  2.502399  131.815  10.7941  2.992946
  8351.584  8351.600  0.500  2.501428  131.623  10.7889  2.994040
  8353.583  8353.600  0.500  2.500377  131.508  10.7907  2.996885
  8355.591  8355.600  0.500  2.499324  131.49  10.8006  3.001099
  8357.585  8357.600  0.500  2.498417  131.454  10.8075  3.005613
  8359.581  8359.600  0.500  2.497555  131.423  10.8143  3.008561
  8361.586  8361.600  0.500  2.496582  131.42  10.8245  3.011275
  8363.589  8363.600  0.500  2.496022  131.402  10.8291  3.015041
  8365.584  8365.600  0.500  2.495097  131.361  10.8358  3.018112
  8366.071  8366.100  0.500  2.494920  131.351  10.8368  3.019023
  8366.578  8366.600  0.500  2.494858  131.341  10.8367  3.019666
  8367.076  8367.100  0.500  2.494827  131.326  10.8358  3.019364
  8367.578  8367.600  0.500  2.494687  131.332  10.8378  3.020770
  8368.082  8368.100  0.500  2.494566  131.316  10.8378  3.021291
  8368.578  8368.600  0.500  2.494602  131.318  10.8376  3.021559
  8369.076  8369.100  0.500  2.494557  131.308  10.8372  3.021696
  8369.575  8369.600  0.500  2.494445  131.289  10.8369  3.021809
  8370.080  8370.100  0.500  2.494596  131.282  10.8347  3.020971
  8370.575  8370.600  0.500  2.494773  131.273  10.832  3.020376
  8371.080  8371.100  0.500  2.494942  131.26  10.8291  3.019686
  8371.582  8371.600  0.500  2.495201  131.238  10.8245  3.018001
  8372.090  8372.100  0.500  2.495280  131.235  10.8234  3.017210
  8372.589  8372.600  0.500  2.495727  131.221  10.8174  3.015450
  8373.088  8373.100  0.500  2.496135  131.206  10.8117  3.013214
  8373.578  8373.600  0.500  2.496408  131.196  10.808  3.011681
  8374.080  8374.100  0.500  2.497068  131.184  10.7999  3.008846
  8374.580  8374.600  0.500  2.497554  131.179  10.7942  3.006767
  8375.082  8375.100  0.500  2.498201  131.16  10.7856  3.003143
  8375.587  8375.600  0.500  2.498863  131.147  10.7775  2.999565
  8376.093  8376.100  0.500  2.499927  131.138  10.7653  2.994194
  8376.592  8376.600  0.500  2.501341  131.121  10.7487  2.986384
  8377.092  8377.100  0.500  2.503003  131.111  10.7299  2.978692
  8377.592  8377.600  0.500  2.505138  131.098  10.706  2.968576
  8378.088  8378.100  0.500  2.507835  131.089  10.6765  2.956742
  8378.588  8378.600  0.500  2.510936  131.081  10.6427  2.943578
  8379.094  8379.100  0.500  2.514483  131.063  10.6036  2.929515
  8379.591  8379.600  0.500  2.518600  131.06  10.5598  2.914603
  8380.091  8380.100  0.500  2.522502  131.041  10.5171  2.899784
  8380.588  8380.600  0.500  2.526047  131.03  10.479  2.886536
  8381.100  8381.100  0.500  2.529625  131.016  10.4405  2.872631
  8381.597  8381.600  0.500  2.532919  131.013  10.4059  2.859654
  8382.100  8382.100  0.500  2.536680  130.996  10.3655  2.845558
  8382.597  8382.600  0.500  2.540973  130.966  10.3188  2.829481
  8383.089  8383.100  0.500  2.546453  130.954  10.2614  2.811517
  8383.589  8383.600  0.500  2.553220  130.936  10.1908  2.789227
  8384.089  8384.100  0.500  2.561118  130.921  10.1095  2.763235
  8384.593  8384.600  0.500  2.570032  130.906  10.0186  2.735385
  8385.096  8385.100  0.500  2.579467  130.887  9.923125  2.706342
  8385.594  8385.600  0.500  2.588765  130.867  9.829748  2.676831
  8386.098  8386.100  0.500  2.598747  130.846  9.730568  2.645719
  8386.598  8386.600  0.500  2.608398  130.825  9.635565  2.614979
  8387.099  8387.100  0.500  2.618279  130.807  9.539526  2.583970
  8387.600  8387.600  0.500  2.627887  130.781  9.446427  2.553321
  8388.092  8388.100  0.500  2.637290  130.756  9.356212  2.523879
  8388.596  8388.600  0.500  2.647242  130.753  9.263344  2.492317
  8389.094  8389.100  0.500  2.657582  130.732  9.166609  2.461158
  8389.598  8389.600  0.500  2.668025  130.706  9.069578  2.429898
  8390.108  8390.100  0.500  2.678139  130.686  8.976931  2.400996
  8390.594  8390.600  0.500  2.687001  130.677  8.897127  2.376556
  8391.102  8391.100  0.500  2.694673  130.654  8.827567  2.354718
  8391.600  8391.600  0.500  2.701069  130.642  8.770509  2.338224
  8392.098  8392.100  0.500  2.705884  130.644  8.728468  2.326153
  8392.600  8392.600  0.500  2.709363  130.63  8.697257  2.318211
  8393.105  8393.100  0.500  2.711006  130.617  8.682112  2.314177
  8393.594  8393.600  0.500  2.711577  130.602  8.676140  2.313599
  8394.099  8394.100  0.500  2.710718  130.591  8.682857  2.315810
  8394.600  8394.600  0.500  2.708745  130.582  8.699418  2.321089
  8395.099  8395.100  0.500  2.706062  130.562  8.721426  2.327699
  8395.607  8395.600  0.500  2.702802  130.548  8.749023  2.335692
  8396.112  8396.100  0.500  2.699189  130.527  8.779282  2.344152
  8396.605  8396.600  0.500  2.695872  130.512  8.807408  2.352127
  8397.104  8397.100  0.500  2.692378  130.499  8.837379  2.360103
  8397.597  8397.600  0.500  2.688880  130.486  8.867420  2.367275
  8398.090  8398.100  0.500  2.685775  130.467  8.893705  2.375026
  8398.598  8398.600  0.500  2.682528  130.452  8.921609  2.382690
  8399.101  8399.100  0.500  2.679819  130.422  8.943787  2.387660
  8399.603  8399.600  0.500  2.677221  130.416  8.966621  2.394875
  8400.099  8400.100  0.500  2.674916  130.409  8.986854  2.400678
  8400.602  8400.600  0.500  2.672494  130.4  9.008005  2.406057
  8401.595  8401.590  0.500  2.666933  130.371  9.056219  2.420089
  8402.594  8402.590  0.500  2.661192  130.349  9.106828  2.435509
  8403.618  8403.610  0.500  2.655236  130.327  9.159689  2.452017
  8404.675  8404.660  0.500  2.649403  130.303  9.211562  2.469852
  8405.739  8405.720  0.500  2.643646  130.282  9.263237  2.487943
  8406.806  8406.800  0.500  2.638286  130.262  9.311628  2.506576
  8407.906  8407.900  0.500  2.632828  130.239  9.360890  2.525842
  8409.041  8409.020  0.500  2.627453  130.216  9.409735  2.545052
  8410.172  8410.160  0.500  2.622480  130.196  9.455130  2.562877
  8411.313  8411.310  0.500  2.617627  130.161  9.498582  2.578818
  8412.500  8412.490  0.500  2.613032  130.124  9.539676  2.594692
  8413.699  8413.680  0.500  2.608690  130.105  9.579743  2.610044
  8414.917  8414.900  0.500  2.604696  130.082  9.616402  2.622807
  8416.136  8416.130  0.500  2.600908  130.037  9.649573  2.634372
  8417.394  8417.380  0.500  2.597035  130.03  9.686487  2.646165
  8418.655  8418.650  0.500  2.594319  130.003  9.710779  2.655687
  8419.942  8419.940  0.500  2.592679  129.965  9.723904  2.660313
  8421.253  8421.250  0.500  2.592558  129.928  9.722290  2.660889
  8422.595  8422.580  0.500  2.594120  129.895  9.704685  2.657282
  8423.931  8423.930  0.500  2.597159  129.87  9.673382  2.649209
  8425.304  8425.300  0.500  2.600732  129.848  9.637216  2.639744
  8426.696  8426.680  0.500  2.605417  129.809  9.589286  2.627362
  8428.095  8428.090  0.500  2.609629  129.778  9.546683  2.615556
  8429.518  8429.510  0.500  2.613599  129.745  9.506432  2.604886
  8430.970  8430.950  0.500  2.616538  129.709  9.475946  2.597023
  8432.418  8432.410  0.500  2.619009  129.674  9.449978  2.589475
  8433.907  8433.890  0.500  2.620671  129.638  9.431682  2.583555
  8435.400  8435.390  0.500  2.621189  129.6  9.424016  2.581516
  8436.924  8436.910  0.500  2.621062  129.565  9.422707  2.580774
  8438.463  8438.450  0.500  2.620818  129.538  9.423025  2.580390
  8440.025  8440.010  0.500  2.619877  129.51  9.429882  2.581464
  8441.584  8441.580  0.500  2.618596  129.468  9.438878  2.583200
  8443.198  8443.180  0.500  2.617512  129.421  9.445715  2.584629
  8444.798  8444.790  0.500  2.615864  129.38  9.458246  2.588181
  8446.442  8446.430  0.500  2.614362  129.336  9.469247  2.591894
  8448.089  8448.080  0.500  2.612931  129.281  9.478816  2.596629
  8449.755  8449.750  0.500  2.611009  129.244  9.494287  2.602369
  8451.462  8451.440  0.500  2.608673  129.208  9.513874  2.610561
  8453.157  8453.150  0.500  2.606217  129.164  9.533990  2.620507
  8454.899  8454.880  0.500  2.603046  129.141  9.562629  2.631354
  8456.645  8456.630  0.500  2.599803  129.085  9.589509  2.643143
  8458.398  8458.390  0.500  2.596643  129.038  9.616341  2.654512
  8460.188  8460.180  0.500  2.592985  128.997  9.648489  2.667159
  8461.985  8461.980  0.500  2.589640  128.962  9.678259  2.678333
  8463.823  8463.810  0.500  2.585819  129.369  9.745900  2.699214
  8465.653  8465.650  0.500  2.582800  129.324  9.771989  2.708393
  8467.520  8467.510  0.500  2.579988  129.279  9.796124  2.717101
  8469.397  8469.390  0.500  2.577382  129.228  9.817798  2.724465
  8471.294  8471.290  0.500  2.575119  129.177  9.836166  2.730797
  8473.219  8473.210  0.500  2.573201  129.128  9.851324  2.736395
  8475.139  8475.150  0.500  2.571930  129.074  9.859688  2.740080
  8477.119  8477.110  0.500  2.570905  129.045  9.867618  2.745709
  8479.084  8479.080  0.500  2.569911  129.012  9.874864  2.749924
  8481.093  8481.080  0.500  2.568799  128.962  9.882014  2.754981
  8483.091  8483.090  0.500  2.567992  128.9  9.885287  2.759526
  8485.133  8485.120  0.500  2.567430  128.844  9.886501  2.762489
  8487.182  8487.180  0.500  2.567173  128.787  9.884649  2.765689
  8489.254  8489.250  0.500  2.566687  128.725  9.884747  2.769457
  8491.348  8491.340  0.500  2.566175  128.672  9.885723  2.771343
  8493.453  8493.450  0.500  2.565353  128.622  9.889975  2.775826
  8495.593  8495.580  0.500  2.564759  128.578  9.892467  2.778774
  8497.722  8497.720  0.500  2.563997  128.517  9.895327  2.782446
  8499.905  8499.890  0.500  2.562953  128.474  9.902383  2.785120
  8502.082  8502.080  0.500  2.561739  128.415  9.909802  2.789476
  8504.298  8504.280  0.500  2.560157  128.36  9.921288  2.793880
  8506.503  8506.500  0.500  2.558459  128.307  9.934023  2.799016
  8508.765  8508.750  0.500  2.556674  128.226  9.945531  2.802092
  8511.016  8511.010  0.500  2.554838  128.177  9.959995  2.807706
  8513.305  8513.290  0.500  2.552782  128.109  9.975190  2.814228
  8515.601  8515.590  0.500  2.550901  128.047  9.989082  2.821071
  8517.921  8517.910  0.500  2.548759  127.976  10.005  2.827477
  8520.258  8520.250  0.500  2.546303  127.887  10.0226  2.835291
  8522.608  8522.600  0.500  2.543912  127.794  10.0393  2.843238
  8524.998  8524.980  0.500  2.541401  127.643  10.0527  2.848672
  8527.385  8527.370  0.500  2.538983  127.215  10.0432  2.848833
  8529.802  8529.790  0.500  2.537694  120.403  9.517687  2.702887
  8532.233  8532.220  0.500  2.533419  123.388  9.795437  2.784904
  8534.693  8534.670  0.500  2.532370  127.404  10.1249  2.882048
  8537.155  8537.150  0.500  2.530539  127.532  10.1536  2.893825
  8539.659  8539.640  0.500  2.528202  127.514  10.176  2.903247
  8542.162  8542.150  0.500  2.525826  127.457  10.1956  2.913649
  8544.685  8544.670  0.500  2.523614  127.389  10.2127  2.921638
  8547.231  8547.220  0.500  2.521709  127.325  10.227  2.928695
  8549.810  8549.790  0.500  2.519831  127.254  10.2405  2.934530
  8552.382  8552.370  0.500  2.517999  127.193  10.2544  2.940786
  8554.995  8554.980  0.500  2.516366  127.135  10.2665  2.946418
  8557.611  8557.600  0.500  2.514311  127.064  10.2818  2.952225
  8560.272  8560.250  0.500  2.512689  126.99  10.2925  2.958660
  8562.925  8562.910  0.500  2.510916  126.929  10.3059  2.965307
  8565.609  8565.590  0.500  2.508877  126.859  10.3212  2.973807
  8568.307  8568.290  0.500  2.506902  126.79  10.336  2.980586
  8571.022  8571.010  0.500  2.505012  126.702  10.3483  2.986917
  8573.777  8573.750  0.500  2.503153  126.626  10.3614  2.994581
  8576.524  8576.500  0.500  2.501470  126.539  10.3717  3.001463
  8579.305  8579.280  0.500  2.499616  126.45  10.3837  3.008697
  8582.091  8582.070  0.500  2.497963  126.351  10.3927  3.015826
  8584.907  8584.890  0.500  2.496535  126.233  10.3978  3.020553
  8587.744  8587.720  0.500  2.494732  126.027  10.3995  3.025348
  8590.596  8590.570  0.500  2.493264  125.185  10.3452  3.012047
  8593.472  8593.450  0.500  2.489912  110.561  9.167454  2.671439
  8596.368  8596.340  0.500  2.488598  125.301  10.4032  3.035358
  8599.274  8599.250  0.500  2.486171  125.606  10.4539  3.051954
  8602.197  8602.170  0.500  2.483628  125.557  10.4765  3.061493
  8605.138  8605.120  0.500  2.481180  125.391  10.4882  3.068506
  8608.109  8608.090  0.500  2.478661  125.132  10.493  3.072506
  8611.096  8611.070  0.500  2.476249  124.657  10.4784  3.071088
  8614.101  8614.080  0.500  2.474008  123.389  10.3951  3.050137
  8617.130  8617.100  0.500  2.475571  107.713  9.060263  2.662479
  8620.164  8620.150  0.500  2.468716  125.98  10.6697  3.138024
  8623.239  8623.210  0.500  2.466610  126.457  10.7327  3.159604
  8626.307  8626.290  0.500  2.463949  126.135  10.7339  3.164163
  8629.409  8629.390  0.500  2.461858  125.904  10.7366  3.168742
  8632.536  8632.510  0.500  2.459519  125.701  10.7444  3.174003
  8635.662  8635.650  0.500  2.457236  125.491  10.751  3.179994
  8638.825  8638.800  0.500  2.455155  125.171  10.7459  3.183228
  8641.988  8641.980  0.500  2.454043  121.236  10.4197  3.091183
  8645.194  8645.170  0.500  2.449063  122.647  10.5936  3.145945
  8648.410  8648.390  0.500  2.447707  124.952  10.8073  3.213179
  8651.641  8651.620  0.500  2.445158  125.008  10.8397  3.226840
  8654.897  8654.870  0.500  2.442756  124.937  10.8596  3.237683
  8658.165  8658.150  0.500  2.440186  124.846  10.8797  3.247748
  8661.458  8661.440  0.500  2.437848  124.765  10.898  3.257350
  8664.776  8664.750  0.500  2.435401  124.671  10.9165  3.265984
  8668.094  8668.070  0.500  2.433037  124.596  10.9358  3.276121
  8671.440  8671.420  0.500  2.430744  124.497  10.9522  3.283913
  8674.805  8674.790  0.500  2.428468  124.425  10.9708  3.294000
  8678.186  8678.170  0.500  2.425940  124.332  10.9903  3.304115
  8681.605  8681.580  0.500  2.423731  124.241  11.0066  3.314102
  8685.013  8685.000  0.500  2.421236  124.156  11.0265  3.323828
  8688.474  8688.450  0.500  2.419027  124.063  11.0426  3.333506
  8691.930  8691.910  0.500  2.416552  123.957  11.0605  3.343472
  8695.406  8695.390  0.500  2.414411  123.835  11.0733  3.351024
  8698.910  8698.890  0.500  2.411734  123.676  11.0887  3.359938
  8702.431  8702.410  0.500  2.409228  123.415  11.0931  3.365027
  8705.967  8705.950  0.500  2.406838  121.428  10.9406  3.323237
  8709.526  8709.500  0.500  2.403858  121.212  10.9538  3.331509
  8713.094  8713.080  0.500  2.401798  123.518  11.1852  3.405445
  8716.695  8716.680  0.500  2.399157  123.494  11.2126  3.418834
  8720.305  8720.290  0.500  2.396348  123.402  11.2358  3.429840
  8723.935  8723.920  0.500  2.393987  123.329  11.2556  3.441309
  8727.598  8727.580  0.500  2.391210  123.248  11.2795  3.452307
  8731.273  8731.250  0.500  2.388533  123.153  11.301  3.463141
  8734.952  8734.940  0.500  2.385851  123.074  11.3241  3.473892
  8738.666  8738.650  0.500  2.383126  122.977  11.3461  3.485212
  8742.400  8742.380  0.500  2.380476  122.891  11.3682  3.497630
  8746.131  8746.120  0.500  2.377902  122.794  11.3886  3.507692
  8749.902  8749.890  0.500  2.374818  122.707  11.4156  3.521484
  8753.705  8753.680  0.500  2.372152  122.62  11.438  3.532099
  8757.492  8757.480  0.500  2.369633  122.522  11.4576  3.545013
  8761.322  8761.310  0.500  2.366946  122.425  11.4794  3.556714
  8765.176  8765.150  0.500  2.364297  122.339  11.5018  3.567665
  8769.029  8769.010  0.500  2.361636  122.247  11.5238  3.580414
  8772.902  8772.890  0.500  2.358751  122.14  11.5469  3.592807
  8776.809  8776.790  0.500  2.356164  122.055  11.5688  3.604147
  8780.730  8780.710  0.500  2.353610  121.963  11.5896  3.615488
  8784.667  8784.650  0.500  2.350836  121.851  11.6111  3.628025
  8788.634  8788.610  0.500  2.348061  121.744  11.6332  3.639701
  8792.605  8792.580  0.500  2.345185  121.644  11.6571  3.652945
  8796.603  8796.580  0.500  2.342463  121.53  11.6779  3.664427
  8800.608  8800.590  0.500  2.339693  121.441  11.7017  3.676514
  8804.651  8804.630  0.500  2.336927  121.344  11.7247  3.688402
  8808.690  8808.680  0.500  2.333896  121.233  11.7496  3.701514
  8812.773  8812.750  0.500  2.330779  121.132  11.7765  3.714372
  8816.864  8816.840  0.500  2.327833  121.023  11.8005  3.726957
  8820.975  8820.950  0.500  2.325067  120.911  11.8223  3.739309
  8825.090  8825.080  0.500  2.322341  120.814  11.8451  3.751908
  8829.239  8829.230  0.500  2.319751  120.705  11.865  3.764602
  8833.402  8833.390  0.500  2.316670  120.597  11.8911  3.777862
  8837.586  8837.580  0.500  2.313576  120.502  11.9185  3.792678
  8841.791  8841.780  0.500  2.310955  120.39  11.9387  3.804953
  8846.027  8846.010  0.500  2.308238  120.268  11.959  3.816596
  8850.257  8850.250  0.500  2.305173  120.156  11.9845  3.829534
  8854.528  8854.510  0.500  2.302310  120.049  12.0082  3.844022
  8858.811  8858.790  0.500  2.298885  119.929  12.0374  3.858167
  8863.107  8863.090  0.500  2.296085  119.813  12.0594  3.871275
  8867.422  8867.410  0.500  2.293009  119.694  12.0846  3.885262
  8871.771  8871.750  0.500  2.290051  119.568  12.1076  3.898820
  8876.125  8876.110  0.500  2.287056  119.469  12.1339  3.912173
  8880.503  8880.490  0.500  2.283760  119.344  12.1611  3.926690
  8884.899  8884.880  0.500  2.280658  119.227  12.1871  3.940821
  8889.314  8889.300  0.500  2.277734  119.106  12.2103  3.954381
  8893.743  8893.730  0.500  2.274623  118.98  12.2354  3.968879
  8898.207  8898.180  0.500  2.271607  118.859  12.2599  3.981979
  8902.673  8902.650  0.500  2.268618  118.72  12.2822  3.994876
  8907.181  8907.140  0.500  2.265489  118.547  12.3027  4.007517
  8911.676  8911.650  0.500  2.262291  118.074  12.2929  4.010170
  8916.197  8916.180  0.500  2.259599  118.26  12.3455  4.035136
  8920.753  8920.730  0.500  2.256722  118.244  12.3793  4.051628