File: xdidata/Gd/Gd-L1-Gd2Ti2O7.xdi
# XDI/1.0 BlueSky/1.10.0 BMM/2023-1.0-py310-tiled
# Beamline.name: BMM (06BM) -- Beamline for Materials Measurement (NIST)
# Beamline.xray_source: NSLS-II three-pole wiggler
# Beamline.collimation: paraboloid mirror, 5 nm Rh on 30 nm Pt
# Beamline.focusing: not in use
# Beamline.harmonic_rejection: flat mirror, Pt stripe, pitch = 7.0 mrad relative to beam
# Beamline.software: Bluesky 1.10.0, Ophyd 1.7.0, DataBroker 2.0.0b13, Python 3.10.8, 2023-1.0-py310-tiled
# Detector.I0: 10 cm N2
# Detector.I1: 25 cm N2
# Detector.I2: 25 cm N2
# Element.symbol: Gd
# Element.edge: L1
# Element.reference: Gd
# Element.reference_material: Gd2O3
# Facility.name: NSLS-II
# Facility.energy: 3.0
# Facility.current: 400.8
# Facility.mode: top-off
# Facility.GUP: 123456
# Facility.SAF: 301027
# Facility.cycle: 2023-2
# Mono.name: Si(111)
# Mono.d_spacing: 3.13519
# Mono.encoder_resolution: 0.0000050 deg/ct
# Mono.angle_offset: 16.0754 deg
# Mono.scan_mode: pseudo channel cut
# Mono.scan_type: step
# Mono.direction: forward in energy
# Sample.name: Gd2Ti2O7
# Sample.prep: Powder in PEG pellet
# Sample.x: 149.848 mm
# Sample.y: 114.690 mm
# Sample.SDD_position: 205.000 mm
# Scan.experimenters: Bruce Ravel
# Scan.edge_energy: 8375.6
# Scan.start_time: 2023-05-08T21:51:02
# Scan.end_time: 2023-05-08T21:56:53
# Scan.transient_id: 75647
# Scan.uid: 7a7060ae-483c-4760-9457-d592e1e9397f
# Scan.plot_hint: ln(I0/It)  --  ln($5/$6)
# Column.1: energy eV
# Column.2: requested_energy eV
# Column.3: measurement_time seconds
# Column.4: xmu
# Column.5: I0 nA
# Column.6: It nA
# Column.7: Ir nA
# ///////////
# sample courtesy Martin Stennett, University of Sheffield
# -----------
# energy  requested_energy  measurement_time  xmu  I0  It  Ir
  8175.604  8175.600  0.500  1.137634  135.811  43.5379  11.1636
  8185.615  8185.600  0.500  1.133317  135.634  43.669  11.2402
  8195.634  8195.600  0.500  1.128371  135.472  43.8333  11.3344
  8205.641  8205.600  0.500  1.122416  135.293  44.0369  11.4436
  8215.647  8215.600  0.500  1.117337  135.102  44.1987  11.5414
  8225.672  8225.600  0.500  1.112672  134.922  44.346  11.6284
  8235.641  8235.600  0.500  1.108471  134.706  44.4616  11.7017
  8245.621  8245.600  0.500  1.103897  134.528  44.6063  11.7902
  8255.646  8255.600  0.500  1.099018  134.343  44.7627  11.8861
  8265.629  8265.600  0.500  1.093706  134.162  44.9406  11.9841
  8275.619  8275.600  0.500  1.088501  133.98  45.1139  12.0768
  8285.619  8285.600  0.500  1.083944  133.756  45.2443  12.1646
  8295.618  8295.600  0.500  1.079382  133.573  45.3887  12.2496
  8305.618  8305.600  0.500  1.074908  133.376  45.5251  12.3335
  8315.616  8315.600  0.500  1.070402  133.189  45.6667  12.4201
  8325.609  8325.600  0.500  1.065789  132.992  45.81  12.5118
  8335.621  8335.600  0.500  1.061179  132.585  45.8808  12.5858
  8346.491  8345.600  0.500  1.056217  132.247  45.9914  12.668
  8347.579  8347.600  0.500  1.055530  132.188  46.0023  12.6774
  8349.581  8349.600  0.500  1.054687  132.052  45.994  12.6855
  8351.581  8351.600  0.500  1.053750  131.871  45.9739  12.689
  8353.577  8353.600  0.500  1.052845  131.749  45.973  12.6976
  8355.585  8355.600  0.500  1.052066  131.737  46.0048  12.7152
  8357.780  8357.600  0.500  1.051396  131.683  46.0167  12.7256
  8359.901  8359.600  0.500  1.050331  131.644  46.052  12.7409
  8361.613  8361.600  0.500  1.049749  131.645  46.079  12.7532
  8363.586  8363.600  0.500  1.049216  131.619  46.0947  12.7639
  8365.590  8365.600  0.500  1.048615  131.59  46.1123  12.7767
  8366.080  8366.100  0.500  1.048631  131.581  46.1082  12.7773
  8366.578  8366.600  0.500  1.048394  131.577  46.1178  12.781
  8367.082  8367.100  0.500  1.048137  131.561  46.1241  12.7853
  8367.578  8367.600  0.500  1.047926  131.548  46.1292  12.7873
  8368.082  8368.100  0.500  1.048008  131.537  46.1214  12.788
  8368.581  8368.600  0.500  1.048061  131.526  46.1152  12.786
  8369.079  8369.100  0.500  1.047915  131.521  46.12  12.7881
  8369.572  8369.600  0.500  1.047679  131.514  46.1287  12.7918
  8370.077  8370.100  0.500  1.047617  131.503  46.1277  12.7915
  8370.575  8370.600  0.500  1.047539  131.491  46.1269  12.7923
  8371.083  8371.100  0.500  1.047804  131.486  46.1131  12.788
  8371.585  8371.600  0.500  1.047578  131.475  46.1198  12.7879
  8372.081  8372.100  0.500  1.047555  131.467  46.1179  12.7866
  8372.583  8372.600  0.500  1.047722  131.449  46.104  12.7824
  8373.085  8373.100  0.500  1.047567  131.439  46.1074  12.7794
  8373.581  8373.600  0.500  1.047622  131.425  46.1  12.7771
  8374.083  8374.100  0.500  1.047727  131.415  46.0917  12.7727
  8374.583  8374.600  0.500  1.047927  131.403  46.0782  12.7649
  8375.082  8375.100  0.500  1.048203  131.396  46.0631  12.7547
  8375.584  8375.600  0.500  1.048565  131.385  46.0427  12.7448
  8376.084  8376.100  0.500  1.048835  131.367  46.0239  12.7305
  8376.595  8376.600  0.500  1.049340  131.357  45.997  12.7123
  8377.098  8377.100  0.500  1.050163  131.355  45.9587  12.6883
  8377.595  8377.600  0.500  1.051089  131.352  45.9149  12.6612
  8378.097  8378.100  0.500  1.052118  131.339  45.8632  12.6293
  8378.597  8378.600  0.500  1.053060  131.323  45.8146  12.6008
  8379.097  8379.100  0.500  1.054081  131.311  45.7635  12.5746
  8379.597  8379.600  0.500  1.055142  131.299  45.7109  12.5471
  8380.094  8380.100  0.500  1.056046  131.283  45.6639  12.5199
  8380.585  8380.600  0.500  1.057153  131.269  45.6087  12.4928
  8381.085  8381.100  0.500  1.058247  131.252  45.5528  12.4627
  8381.591  8381.600  0.500  1.059382  131.249  45.5  12.4344
  8382.088  8382.100  0.500  1.060476  131.23  45.4439  12.4061
  8382.588  8382.600  0.500  1.061667  131.219  45.3859  12.3754
  8383.098  8383.100  0.500  1.062855  131.202  45.3259  12.3455
  8383.592  8383.600  0.500  1.064150  131.188  45.2625  12.3147
  8384.095  8384.100  0.500  1.065443  131.17  45.1979  12.2836
  8384.596  8384.600  0.500  1.066681  131.149  45.1347  12.2514
  8385.099  8385.100  0.500  1.067980  131.138  45.0724  12.2177
  8385.600  8385.600  0.500  1.069581  131.114  44.992  12.1798
  8386.098  8386.100  0.500  1.071090  131.095  44.9178  12.1407
  8386.595  8386.600  0.500  1.072872  131.075  44.8311  12.0954
  8387.093  8387.100  0.500  1.074669  131.062  44.746  12.0485
  8387.591  8387.600  0.500  1.076444  131.039  44.6588  12.0002
  8388.095  8388.100  0.500  1.078501  131.015  44.5587  11.9478
  8388.593  8388.600  0.500  1.080592  131.007  44.463  11.8938
  8389.103  8389.100  0.500  1.082925  130.984  44.3516  11.8373
  8389.601  8389.600  0.500  1.085410  130.967  44.236  11.7796
  8390.099  8390.100  0.500  1.088013  130.968  44.1211  11.7281
  8390.594  8390.600  0.500  1.090208  130.944  44.0165  11.6817
  8391.096  8391.100  0.500  1.092309  130.93  43.9194  11.6449
  8391.600  8391.600  0.500  1.093602  130.916  43.8578  11.6204
  8392.092  8392.100  0.500  1.094709  130.906  43.8059  11.6018
  8392.597  8392.600  0.500  1.095472  130.893  43.7684  11.5905
  8393.095  8393.100  0.500  1.095752  130.876  43.7503  11.5885
  8393.600  8393.600  0.500  1.095614  130.858  43.7505  11.5931
  8394.099  8394.100  0.500  1.095086  130.852  43.7713  11.6026
  8394.606  8394.600  0.500  1.094316  130.845  43.8027  11.6157
  8395.099  8395.100  0.500  1.093136  130.827  43.8484  11.6295
  8395.604  8395.600  0.500  1.092085  130.812  43.8894  11.644
  8396.103  8396.100  0.500  1.090900  130.795  43.9361  11.6597
  8396.602  8396.600  0.500  1.089682  130.775  43.9826  11.6725
  8397.101  8397.100  0.500  1.088686  130.777  44.0271  11.6852
  8397.597  8397.600  0.500  1.087472  130.747  44.0705  11.6958
  8398.096  8398.100  0.500  1.086194  130.726  44.12  11.7098
  8398.592  8398.600  0.500  1.084739  130.719  44.1817  11.7249
  8399.091  8399.100  0.500  1.083489  130.713  44.2351  11.7401
  8399.594  8399.600  0.500  1.082075  130.698  44.2923  11.7551
  8400.099  8400.100  0.500  1.081143  130.688  44.3305  11.7669
  8400.605  8400.600  0.500  1.079889  130.673  44.381  11.7817
  8401.595  8401.590  0.500  1.077866  130.647  44.4618  11.8077
  8402.603  8402.590  0.500  1.076369  130.612  44.5167  11.8306
  8403.621  8403.610  0.500  1.075764  130.606  44.5417  11.8528
  8404.663  8404.660  0.500  1.075688  130.585  44.5378  11.8686
  8405.727  8405.720  0.500  1.075936  130.559  44.5179  11.8866
  8406.815  8406.800  0.500  1.076118  130.541  44.5036  11.9077
  8407.906  8407.900  0.500  1.075689  130.52  44.5154  11.938
  8409.032  8409.020  0.500  1.075039  130.495  44.536  11.9711
  8410.166  8410.160  0.500  1.073448  130.457  44.594  12.0126
  8411.316  8411.310  0.500  1.071554  130.445  44.6742  12.0601
  8412.497  8412.490  0.500  1.069879  130.409  44.7368  12.0967
  8413.687  8413.680  0.500  1.068020  130.386  44.8122  12.1354
  8414.902  8414.900  0.500  1.066042  130.353  44.8895  12.1694
  8416.139  8416.130  0.500  1.064580  130.331  44.9478  12.1974
  8417.391  8417.380  0.500  1.062995  130.298  45.0074  12.2248
  8418.655  8418.650  0.500  1.061802  130.269  45.0513  12.247
  8419.948  8419.940  0.500  1.060927  130.239  45.0801  12.2605
  8421.262  8421.250  0.500  1.060399  130.206  45.0927  12.2696
  8422.595  8422.580  0.500  1.060196  130.178  45.0922  12.2732
  8423.937  8423.930  0.500  1.060379  130.152  45.0747  12.2717
  8425.310  8425.300  0.500  1.060696  130.122  45.05  12.2669
  8426.690  8426.680  0.500  1.061247  130.09  45.0142  12.2595
  8428.095  8428.090  0.500  1.062015  130.062  44.9699  12.2498
  8429.518  8429.510  0.500  1.062767  130.03  44.9252  12.2387
  8430.960  8430.950  0.500  1.063577  129.995  44.8767  12.2241
  8432.421  8432.410  0.500  1.064196  129.962  44.8374  12.2139
  8433.898  8433.890  0.500  1.064491  129.924  44.8113  12.2042
  8435.394  8435.390  0.500  1.063986  129.902  44.8263  12.2077
  8436.921  8436.910  0.500  1.063277  129.871  44.8474  12.2111
  8438.460  8438.450  0.500  1.062208  129.825  44.8794  12.2177
  8440.012  8440.010  0.500  1.060783  129.788  44.9306  12.2264
  8441.593  8441.580  0.500  1.059195  129.748  44.9882  12.2381
  8443.183  8443.180  0.500  1.057872  129.713  45.0354  12.2483
  8444.798  8444.790  0.500  1.056652  129.67  45.0756  12.2613
  8446.445  8446.430  0.500  1.055607  129.628  45.108  12.2756
  8448.092  8448.080  0.500  1.054704  129.58  45.1322  12.2881
  8449.752  8449.750  0.500  1.053976  129.54  45.151  12.3028
  8451.453  8451.440  0.500  1.053217  129.501  45.1718  12.3233
  8453.154  8453.150  0.500  1.052682  129.464  45.183  12.3428
  8454.896  8454.880  0.500  1.051942  129.417  45.2  12.3655
  8456.648  8456.630  0.500  1.051227  129.377  45.2182  12.3914
  8458.404  8458.390  0.500  1.050671  129.337  45.2296  12.4117
  8460.188  8460.180  0.500  1.049773  129.289  45.2535  12.4337
  8462.001  8461.980  0.500  1.048949  129.247  45.2759  12.454
  8463.820  8463.810  0.500  1.048256  129.201  45.2912  12.4686
  8465.662  8465.650  0.500  1.047618  129.157  45.3048  12.4844
  8467.523  8467.510  0.500  1.046539  129.112  45.3377  12.5007
  8469.391  8469.390  0.500  1.045595  129.068  45.3652  12.5148
  8471.303  8471.290  0.500  1.044595  129.016  45.3921  12.5279
  8473.213  8473.210  0.500  1.043493  129.284  45.5365  12.5747
  8475.167  8475.150  0.500  1.042371  129.435  45.6412  12.6136
  8477.128  8477.110  0.500  1.041563  129.39  45.6619  12.6305
  8479.090  8479.080  0.500  1.040892  129.34  45.6752  12.6481
  8481.090  8481.080  0.500  1.039602  129.285  45.7146  12.6717
  8483.100  8483.090  0.500  1.038485  129.242  45.7504  12.6962
  8485.133  8485.120  0.500  1.037286  129.191  45.7872  12.7237
  8487.200  8487.180  0.500  1.036095  129.14  45.8237  12.7462
  8489.257  8489.250  0.500  1.035264  129.101  45.848  12.7682
  8491.354  8491.340  0.500  1.034397  129.046  45.8681  12.7888
  8493.456  8493.450  0.500  1.033489  128.977  45.8854  12.8047
  8495.606  8495.580  0.500  1.032377  128.931  45.9202  12.8258
  8497.731  8497.720  0.500  1.031456  128.881  45.9445  12.8423
  8499.908  8499.890  0.500  1.030765  128.815  45.9527  12.8538
  8502.098  8502.080  0.500  1.030091  128.771  45.9681  12.8656
  8504.298  8504.280  0.500  1.029394  128.719  45.9815  12.8758
  8506.509  8506.500  0.500  1.028785  128.66  45.9883  12.8818
  8508.759  8508.750  0.500  1.027918  128.603  46.0079  12.8922
  8511.028  8511.010  0.500  1.026843  128.54  46.0349  12.9024
  8513.299  8513.290  0.500  1.025754  128.47  46.0597  12.9206
  8515.611  8515.590  0.500  1.024646  128.398  46.0849  12.9383
  8517.924  8517.910  0.500  1.023396  128.333  46.1194  12.9599
  8520.264  8520.250  0.500  1.022162  128.254  46.1478  12.9811
  8522.615  8522.600  0.500  1.021036  128.157  46.165  12.9977
  8524.991  8524.980  0.500  1.019984  128.006  46.1592  13.0061
  8527.382  8527.370  0.500  1.018824  127.586  46.0611  12.9914
  8529.799  8529.790  0.500  1.017903  120.883  43.6813  12.3325
  8532.233  8532.220  0.500  1.016194  123.623  44.7477  12.6477
  8534.684  8534.670  0.500  1.015263  127.744  46.2827  13.1
  8537.174  8537.150  0.500  1.014376  127.878  46.3724  13.1442
  8539.650  8539.640  0.500  1.013230  127.851  46.4155  13.1733
  8542.168  8542.150  0.500  1.012253  127.799  46.4421  13.1965
  8544.678  8544.670  0.500  1.011097  127.738  46.4735  13.221
  8547.237  8547.220  0.500  1.010248  127.672  46.4889  13.2384
  8549.801  8549.790  0.500  1.009319  127.6  46.506  13.2509
  8552.382  8552.370  0.500  1.008425  127.543  46.527  13.2667
  8554.983  8554.980  0.500  1.007559  127.485  46.5459  13.283
  8557.608  8557.600  0.500  1.006589  127.406  46.5622  13.2976
  8560.263  8560.250  0.500  1.005475  127.335  46.588  13.3179
  8562.916  8562.910  0.500  1.004344  127.265  46.6154  13.3398
  8565.609  8565.590  0.500  1.003048  127.184  46.646  13.3593
  8568.297  8568.290  0.500  1.001705  127.116  46.6837  13.3865
  8571.022  8571.010  0.500  1.000304  127.038  46.7205  13.4121
  8573.755  8573.750  0.500  0.999078  126.962  46.75  13.4383
  8576.512  8576.500  0.500  0.997706  126.869  46.7796  13.4632
  8579.289  8579.280  0.500  0.996575  126.776  46.7984  13.4858
  8582.082  8582.070  0.500  0.995275  126.678  46.8231  13.5094
  8584.907  8584.890  0.500  0.994355  126.559  46.8219  13.5271
  8587.728  8587.720  0.500  0.992911  126.358  46.8154  13.5409
  8590.590  8590.570  0.500  0.991375  125.518  46.5754  13.4868
  8593.449  8593.450  0.500  0.989773  110.483  41.0621  11.9023
  8596.353  8596.340  0.500  0.989037  125.629  46.7256  13.5574
  8599.258  8599.250  0.500  0.987768  125.978  46.915  13.6224
  8602.187  8602.170  0.500  0.986798  125.898  46.931  13.6398
  8605.131  8605.120  0.500  0.985730  125.727  46.917  13.6492
  8608.097  8608.090  0.500  0.984445  125.484  46.8865  13.6533
  8611.080  8611.070  0.500  0.983326  125.018  46.7648  13.6322
  8614.094  8614.080  0.500  0.982211  123.76  46.346  13.5257
  8617.117  8617.100  0.500  0.981556  108.776  40.7615  11.9108
  8620.161  8620.150  0.500  0.979566  126.283  47.4161  13.8673
  8623.227  8623.210  0.500  0.978334  126.805  47.6706  13.9593
  8626.298  8626.290  0.500  0.977084  126.487  47.6107  13.9584
  8629.409  8629.390  0.500  0.975666  126.252  47.5897  13.9685
  8632.520  8632.510  0.500  0.974250  126.055  47.5826  13.9835
  8635.658  8635.650  0.500  0.972733  125.854  47.579  13.9988
  8638.819  8638.800  0.500  0.971275  125.524  47.5234  14.0018
  8641.997  8641.980  0.500  0.970055  121.678  46.1236  13.6065
  8645.191  8645.170  0.500  0.968292  122.913  46.6737  13.7855
  8648.410  8648.390  0.500  0.967272  125.323  47.6376  14.0882
  8651.641  8651.620  0.500  0.966094  125.364  47.7093  14.1274
  8654.893  8654.870  0.500  0.964847  125.285  47.7389  14.1551
  8658.158  8658.150  0.500  0.963581  125.211  47.7711  14.1827
  8661.458  8661.440  0.500  0.962234  125.127  47.8032  14.2082
  8664.770  8664.750  0.500  0.960932  125.045  47.8343  14.2334
  8668.091  8668.070  0.500  0.959293  124.955  47.8781  14.2601
  8671.440  8671.420  0.500  0.958032  124.874  47.9076  14.2881
  8674.805  8674.790  0.500  0.956576  124.783  47.9423  14.3193
  8678.195  8678.170  0.500  0.955185  124.689  47.9732  14.3453
  8681.605  8681.580  0.500  0.953832  124.606  48.0059  14.3747
  8685.017  8685.000  0.500  0.952299  124.501  48.0393  14.4044
  8688.487  8688.450  0.500  0.950581  124.407  48.0853  14.4385
  8691.927  8691.910  0.500  0.949290  124.283  48.0995  14.4614
  8695.406  8695.390  0.500  0.947850  124.17  48.1249  14.4883
  8698.917  8698.890  0.500  0.946264  124.009  48.139  14.5104
  8702.424  8702.410  0.500  0.944749  123.725  48.1016  14.5173
  8705.967  8705.950  0.500  0.943462  121.832  47.4264  14.3301
  8709.526  8709.500  0.500  0.941545  121.266  47.2967  14.3079
  8713.098  8713.080  0.500  0.940216  123.774  48.3393  14.6416
  8716.698  8716.680  0.500  0.938915  123.752  48.3936  14.6786
  8720.312  8720.290  0.500  0.937491  123.659  48.4259  14.7046
  8723.935  8723.920  0.500  0.936112  123.569  48.4574  14.7342
  8727.608  8727.580  0.500  0.934791  123.46  48.4787  14.7594
  8731.267  8731.250  0.500  0.933226  123.36  48.5155  14.7886
  8734.958  8734.940  0.500  0.931779  123.264  48.5478  14.8159
  8738.673  8738.650  0.500  0.930285  123.181  48.5878  14.8501
  8742.400  8742.380  0.500  0.929106  123.078  48.6045  14.8731
  8746.138  8746.120  0.500  0.927446  122.97  48.6423  14.9072
  8749.908  8749.890  0.500  0.925864  122.873  48.681  14.9405
  8753.699  8753.680  0.500  0.924132  122.776  48.7267  14.9759
  8757.502  8757.480  0.500  0.922599  122.682  48.7641  15.008
  8761.329  8761.310  0.500  0.920925  122.566  48.7998  15.0415
  8765.172  8765.150  0.500  0.919367  122.47  48.8374  15.075
  8769.029  8769.010  0.500  0.917660  122.37  48.8809  15.1111
  8772.906  8772.890  0.500  0.916168  122.242  48.9027  15.1376
  8776.813  8776.790  0.500  0.914495  122.155  48.9499  15.173
  8780.730  8780.710  0.500  0.913126  122.057  48.9775  15.2046
  8784.657  8784.650  0.500  0.911546  121.943  49.0093  15.2367
  8788.627  8788.610  0.500  0.909881  121.825  49.0433  15.2683
  8792.605  8792.580  0.500  0.908345  121.706  49.0709  15.2979
  8796.597  8796.580  0.500  0.906740  121.594  49.1042  15.3298
  8800.602  8800.590  0.500  0.905083  121.504  49.1493  15.3657
  8804.651  8804.630  0.500  0.903565  121.388  49.1771  15.3943
  8808.703  8808.680  0.500  0.902244  121.29  49.2024  15.4225
  8812.773  8812.750  0.500  0.900465  121.177  49.244  15.4562
  8816.857  8816.840  0.500  0.898852  121.055  49.2739  15.4856
  8820.975  8820.950  0.500  0.897503  120.958  49.3007  15.5157
  8825.100  8825.080  0.500  0.895767  120.844  49.3398  15.5521
  8829.249  8829.230  0.500  0.894162  120.735  49.3745  15.5871
  8833.409  8833.390  0.500  0.892310  120.625  49.4209  15.6226
  8837.603  8837.580  0.500  0.890606  120.514  49.46  15.6599
  8841.804  8841.780  0.500  0.888876  120.401  49.499  15.6929
  8846.030  8846.010  0.500  0.887296  120.288  49.5308  15.7287
  8850.264  8850.250  0.500  0.885556  120.153  49.5612  15.7613
  8854.532  8854.510  0.500  0.883956  120.052  49.5991  15.7976
  8858.811  8858.790  0.500  0.882305  119.916  49.6247  15.8286
  8863.111  8863.090  0.500  0.880517  119.807  49.6681  15.8674
  8867.428  8867.410  0.500  0.878914  119.683  49.6962  15.8988
  8871.774  8871.750  0.500  0.877347  119.572  49.7282  15.9368
  8876.125  8876.110  0.500  0.875490  119.452  49.7706  15.9709
  8880.510  8880.490  0.500  0.873956  119.319  49.7914  16.0034
  8884.896  8884.880  0.500  0.872306  119.199  49.8237  16.0351
  8889.314  8889.300  0.500  0.870662  119.078  49.8547  16.0676
  8893.757  8893.730  0.500  0.868973  118.948  49.8847  16.1001
  8898.201  8898.180  0.500  0.867319  118.815  49.9114  16.1318
  8902.670  8902.650  0.500  0.865712  118.681  49.9352  16.1643
  8907.157  8907.140  0.500  0.863938  118.509  49.9513  16.1946
  8911.676  8911.650  0.500  0.862070  118.022  49.8392  16.1835
  8916.203  8916.180  0.500  0.860236  118.237  50.0214  16.2665
  8920.756  8920.730  0.500  0.858530  118.221  50.1001  16.32