File: xdidata/Gd/Gd-L1-GadoliniumOxide.xdi
# XDI/1.0 BlueSky/1.10.0 BMM/2023-1.0-py310-tiled
# Beamline.name: BMM (06BM) -- Beamline for Materials Measurement (NIST)
# Beamline.xray_source: NSLS-II three-pole wiggler
# Beamline.collimation: paraboloid mirror, 5 nm Rh on 30 nm Pt
# Beamline.focusing: not in use
# Beamline.harmonic_rejection: flat mirror, Pt stripe, pitch = 7.0 mrad relative to beam
# Beamline.software: Bluesky 1.10.0, Ophyd 1.7.0, DataBroker 2.0.0b13, Python 3.10.8, 2023-1.0-py310-tiled
# Detector.I0: 10 cm N2
# Detector.I1: 25 cm N2
# Detector.I2: 25 cm N2
# Element.symbol: Gd
# Element.edge: L1
# Element.reference: Gd
# Element.reference_material: Gd2O3
# Facility.name: NSLS-II
# Facility.energy: 3.0
# Facility.current: 400.6
# Facility.mode: top-off
# Facility.GUP: 301027
# Facility.SAF: 310583
# Facility.cycle: 2023-2
# Mono.name: Si(111)
# Mono.d_spacing: 3.13519
# Mono.encoder_resolution: 0.0000050 deg/ct
# Mono.angle_offset: 16.0754 deg
# Mono.scan_mode: pseudo channel cut
# Mono.scan_type: step
# Mono.direction: forward in energy
# Sample.name: Gd2O3
# Sample.prep: PEG pellet
# Sample.x: 109.138 mm
# Sample.y: 153.150 mm
# Sample.SDD_position: 205.000 mm
# Scan.experimenters: Bruce Ravel
# Scan.edge_energy: 8375.6
# Scan.start_time: 2023-05-28T15:16:49
# Scan.end_time: 2023-05-28T15:24:59
# Scan.transient_id: 78791
# Scan.uid: bb3ec8ad-72f4-41bc-ab94-efd46cfe316d
# Scan.plot_hint: ln(It/Ir)  --  ln($6/$7)
# Column.1: energy eV
# Column.2: requested_energy eV
# Column.3: measurement_time seconds
# Column.4: xmu
# Column.5: I0 nA
# Column.6: It nA
# Column.7: Ir nA
# ///////////
# sample courtesy Martin Stennett, University of Sheffield
# -----------
# energy  requested_energy  measurement_time  xmu  I0  It  Ir
  8175.604  8175.600  0.500  1.551149  134.232  167.657  35.5439
  8185.621  8185.600  0.500  1.546669  134.087  167.705  35.7138
  8195.671  8195.600  0.500  1.541429  133.961  167.851  35.9327
  8205.644  8205.600  0.500  1.535784  133.835  167.971  36.1621
  8215.624  8215.600  0.500  1.530311  133.66  167.988  36.3641
  8225.643  8225.600  0.500  1.525563  133.518  168.083  36.5578
  8235.641  8235.600  0.500  1.521056  133.373  168.2  36.7485
  8245.665  8245.600  0.500  1.516077  133.235  168.294  36.9525
  8255.637  8255.600  0.500  1.510912  133.086  168.402  37.1679
  8265.626  8265.600  0.500  1.505957  132.956  168.493  37.3726
  8275.625  8275.600  0.500  1.501387  132.83  168.608  37.5694
  8285.631  8285.600  0.500  1.496556  132.619  168.615  37.7528
  8295.612  8295.600  0.500  1.492122  132.487  168.704  37.9406
  8305.618  8305.600  0.500  1.487606  132.365  168.794  38.1328
  8315.622  8315.600  0.500  1.482865  132.272  168.902  38.3384
  8325.609  8325.600  0.500  1.477973  132.101  168.945  38.5363
  8335.612  8335.600  0.500  1.473167  131.73  168.786  38.6854
  8345.601  8345.600  0.500  1.468616  131.474  168.716  38.8459
  8347.594  8347.600  0.500  1.467698  131.413  168.681  38.8735
  8349.590  8349.600  0.500  1.466746  131.298  168.583  38.8879
  8351.587  8351.600  0.500  1.465898  131.153  168.422  38.8836
  8353.589  8353.600  0.500  1.465078  130.989  168.261  38.8783
  8355.588  8355.600  0.500  1.464275  130.976  168.317  38.9227
  8357.588  8357.600  0.500  1.463518  130.971  168.372  38.9647
  8359.590  8359.600  0.500  1.462939  130.942  168.385  38.9903
  8361.592  8361.600  0.500  1.462555  130.96  168.464  39.0235
  8363.586  8363.600  0.500  1.461965  130.931  168.478  39.0499
  8365.587  8365.600  0.500  1.461185  130.889  168.469  39.0782
  8365.873  8365.900  0.500  1.461074  130.887  168.445  39.0771
  8366.170  8366.200  0.500  1.461045  130.896  168.449  39.079
  8366.473  8366.500  0.500  1.460868  130.884  168.503  39.0986
  8366.773  8366.800  0.500  1.460759  130.874  168.437  39.0875
  8367.079  8367.100  0.500  1.460622  130.845  168.397  39.0836
  8367.379  8367.400  0.500  1.460564  130.845  168.428  39.0931
  8367.674  8367.700  0.500  1.460464  130.85  168.468  39.1063
  8367.983  8368.000  0.500  1.460402  130.85  168.498  39.1155
  8368.277  8368.300  0.500  1.460273  130.832  168.477  39.1158
  8368.587  8368.600  0.500  1.460221  130.836  168.462  39.1142
  8368.884  8368.900  0.500  1.460166  130.825  168.449  39.1134
  8369.184  8369.200  0.500  1.460047  130.831  168.473  39.1236
  8369.491  8369.500  0.500  1.459964  130.863  168.522  39.1384
  8369.788  8369.800  0.500  1.459975  130.835  168.507  39.1344
  8370.092  8370.100  0.500  1.459910  130.811  168.468  39.1279
  8370.386  8370.400  0.500  1.459839  130.828  168.481  39.1338
  8370.692  8370.700  0.500  1.459821  130.781  168.427  39.1218
  8370.990  8371.000  0.500  1.459865  130.815  168.456  39.1268
  8371.288  8371.300  0.500  1.459824  130.829  168.511  39.1413
  8371.588  8371.600  0.500  1.459821  130.811  168.483  39.135
  8371.886  8371.900  0.500  1.459833  130.763  168.413  39.118
  8372.189  8372.200  0.500  1.459787  130.786  168.468  39.1328
  8372.487  8372.500  0.500  1.459860  130.752  168.446  39.1249
  8372.787  8372.800  0.500  1.459949  130.754  168.464  39.1255
  8373.094  8373.100  0.500  1.459972  130.745  168.472  39.1265
  8373.383  8373.400  0.500  1.460021  130.716  168.446  39.1183
  8373.699  8373.700  0.500  1.460172  130.74  168.486  39.1219
  8373.993  8374.000  0.500  1.460269  130.723  168.474  39.1153
  8374.297  8374.300  0.500  1.460292  130.74  168.521  39.1252
  8374.601  8374.600  0.500  1.460431  130.717  168.454  39.1043
  8374.896  8374.900  0.500  1.460547  130.717  168.469  39.1033
  8375.196  8375.200  0.500  1.460716  130.693  168.454  39.0932
  8375.497  8375.500  0.500  1.460976  130.68  168.457  39.0838
  8375.801  8375.800  0.500  1.461176  130.688  168.464  39.0774
  8376.093  8376.100  0.500  1.461435  130.667  168.468  39.0682
  8376.388  8376.400  0.500  1.461865  130.665  168.458  39.0491
  8376.695  8376.700  0.500  1.462224  130.662  168.46  39.0356
  8376.987  8377.000  0.500  1.462781  130.682  168.534  39.031
  8377.291  8377.300  0.500  1.463387  130.668  168.492  38.9976
  8377.592  8377.600  0.500  1.463987  130.67  168.505  38.9773
  8377.890  8377.900  0.500  1.464782  130.668  168.492  38.9432
  8378.200  8378.200  0.500  1.465600  130.631  168.445  38.9006
  8378.501  8378.500  0.500  1.466324  130.64  168.476  38.8796
  8378.805  8378.800  0.500  1.467021  130.644  168.486  38.8548
  8379.100  8379.100  0.500  1.467631  130.627  168.454  38.8238
  8379.398  8379.400  0.500  1.468303  130.642  168.477  38.803
  8379.702  8379.700  0.500  1.468911  130.631  168.471  38.7781
  8379.988  8380.000  0.500  1.469507  130.621  168.507  38.7632
  8380.298  8380.300  0.500  1.470046  130.615  168.475  38.735
  8380.591  8380.600  0.500  1.470721  130.607  168.465  38.7066
  8380.895  8380.900  0.500  1.471345  130.594  168.434  38.6752
  8381.196  8381.200  0.500  1.471932  130.577  168.412  38.6474
  8381.500  8381.500  0.500  1.472639  130.608  168.483  38.6365
  8381.802  8381.800  0.500  1.473255  130.58  168.445  38.6039
  8382.097  8382.100  0.500  1.473761  130.572  168.429  38.5808
  8382.401  8382.400  0.500  1.474484  130.549  168.408  38.548
  8382.697  8382.700  0.500  1.475212  130.538  168.409  38.5203
  8383.007  8383.000  0.500  1.475776  130.528  168.387  38.4934
  8383.306  8383.300  0.500  1.476464  130.53  168.409  38.472
  8383.610  8383.600  0.500  1.477081  130.505  168.41  38.4486
  8383.896  8383.900  0.500  1.477692  130.512  168.424  38.4283
  8384.195  8384.200  0.500  1.478336  130.48  168.373  38.3919
  8384.493  8384.500  0.500  1.479019  130.502  168.418  38.376
  8384.789  8384.800  0.500  1.479652  130.5  168.43  38.3543
  8385.096  8385.100  0.500  1.480435  130.461  168.366  38.3098
  8385.392  8385.400  0.500  1.481147  130.459  168.372  38.2839
  8385.706  8385.700  0.500  1.481935  130.479  168.425  38.2658
  8386.004  8386.000  0.500  1.482905  130.441  168.411  38.2256
  8386.309  8386.300  0.500  1.483777  130.422  168.375  38.1841
  8386.604  8386.600  0.500  1.484745  130.408  168.369  38.1457
  8386.900  8386.900  0.500  1.485870  130.391  168.365  38.1018
  8387.199  8387.200  0.500  1.486975  130.397  168.378  38.0628
  8387.504  8387.500  0.500  1.488116  130.369  168.346  38.012
  8387.793  8387.800  0.500  1.489259  130.372  168.367  37.9735
  8388.092  8388.100  0.500  1.490507  130.386  168.383  37.9296
  8388.397  8388.400  0.500  1.491827  130.345  168.335  37.8689
  8388.699  8388.700  0.500  1.493197  130.334  168.335  37.8171
  8389.006  8389.000  0.500  1.494468  130.323  168.296  37.7601
  8389.302  8389.300  0.500  1.495914  130.292  168.262  37.6981
  8389.604  8389.600  0.500  1.497283  130.304  168.29  37.6527
  8389.903  8389.900  0.500  1.498572  130.291  168.292  37.6048
  8390.193  8390.200  0.500  1.499637  130.298  168.321  37.5712
  8390.501  8390.500  0.500  1.500776  130.281  168.309  37.5257
  8390.797  8390.800  0.500  1.501720  130.266  168.332  37.4953
  8391.108  8391.100  0.500  1.502452  130.261  168.325  37.4664
  8391.401  8391.400  0.500  1.503088  130.269  168.315  37.4404
  8391.697  8391.700  0.500  1.503591  130.23  168.232  37.4031
  8391.993  8392.000  0.500  1.503942  130.228  168.261  37.3963
  8392.289  8392.300  0.500  1.504158  130.238  168.293  37.3954
  8392.594  8392.600  0.500  1.504180  130.257  168.325  37.4017
  8392.893  8392.900  0.500  1.504200  130.215  168.278  37.3905
  8393.207  8393.200  0.500  1.504197  130.572  168.774  37.5007
  8393.500  8393.500  0.500  1.504020  130.617  168.827  37.5192
  8393.803  8393.800  0.500  1.503841  130.608  168.807  37.5216
  8394.102  8394.100  0.500  1.503654  130.616  168.818  37.531
  8394.404  8394.400  0.500  1.503396  130.609  168.843  37.5461
  8394.703  8394.700  0.500  1.503071  130.619  168.851  37.5603
  8395.002  8395.000  0.500  1.502949  130.599  168.838  37.562
  8395.305  8395.300  0.500  1.502667  130.591  168.839  37.5727
  8395.595  8395.600  0.500  1.502528  130.585  168.794  37.5679
  8395.894  8395.900  0.500  1.502352  130.574  168.796  37.5751
  8396.194  8396.200  0.500  1.502179  130.557  168.799  37.5821
  8396.493  8396.500  0.500  1.502084  130.553  168.804  37.5869
  8396.798  8396.800  0.500  1.501931  130.542  168.782  37.5876
  8397.104  8397.100  0.500  1.501873  130.52  168.762  37.5855
  8397.409  8397.400  0.500  1.501845  130.539  168.809  37.5969
  8397.709  8397.700  0.500  1.501832  130.506  168.792  37.5937
  8398.005  8398.000  0.500  1.501856  130.501  168.802  37.595
  8398.302  8398.300  0.500  1.501728  130.504  168.798  37.5989
  8398.598  8398.600  0.500  1.501679  130.49  168.77  37.5946
  8398.907  8398.900  0.500  1.501682  130.477  168.761  37.5923
  8399.197  8399.200  0.500  1.501649  130.474  168.77  37.5957
  8399.506  8399.500  0.500  1.501601  130.477  168.78  37.5996
  8399.797  8399.800  0.500  1.501591  130.457  168.778  37.5996
  8400.093  8400.100  0.500  1.501515  130.447  168.771  37.6009
  8400.393  8400.400  0.500  1.501478  130.422  168.75  37.5976
  8400.596  8400.600  0.500  1.501389  130.444  168.783  37.6084
  8401.598  8401.590  0.500  1.501054  130.424  168.786  37.6215
  8402.582  8402.590  0.500  1.500442  130.396  168.787  37.6448
  8403.618  8403.610  0.500  1.499401  130.401  168.794  37.6856
  8404.684  8404.660  0.500  1.497863  130.371  168.777  37.7398
  8405.745  8405.720  0.500  1.496051  130.351  168.793  37.8119
  8406.821  8406.800  0.500  1.493944  130.346  168.801  37.8934
  8407.919  8407.900  0.500  1.491565  130.31  168.786  37.9802
  8409.041  8409.020  0.500  1.489207  130.314  168.837  38.0813
  8410.184  8410.160  0.500  1.486954  130.279  168.791  38.157
  8411.341  8411.310  0.500  1.484683  130.257  168.78  38.2412
  8412.473  8412.490  0.500  1.482944  130.229  168.747  38.3002
  8413.873  8413.680  0.500  1.481018  130.174  168.736  38.3716
  8414.966  8414.900  0.500  1.479848  130.168  168.784  38.4274
  8416.169  8416.130  0.500  1.478724  130.132  168.742  38.4611
  8417.379  8417.380  0.500  1.477684  130.082  168.719  38.4958
  8418.637  8418.650  0.500  1.476918  130.059  168.717  38.525
  8419.923  8419.940  0.500  1.476126  130.078  168.766  38.5665
  8421.238  8421.250  0.500  1.475652  130.014  168.72  38.5743
  8422.564  8422.580  0.500  1.475288  130.01  168.768  38.5995
  8423.922  8423.930  0.500  1.474868  129.978  168.759  38.6136
  8425.289  8425.300  0.500  1.474575  129.976  168.791  38.6323
  8426.669  8426.680  0.500  1.474222  129.94  168.791  38.6458
  8428.080  8428.090  0.500  1.474087  129.905  168.778  38.6481
  8429.500  8429.510  0.500  1.473832  129.893  168.776  38.6574
  8430.939  8430.950  0.500  1.473734  129.873  168.794  38.6654
  8432.412  8432.410  0.500  1.473679  129.833  168.783  38.6649
  8433.880  8433.890  0.500  1.473721  129.814  168.799  38.6671
  8435.382  8435.390  0.500  1.473620  129.802  168.795  38.6699
  8436.908  8436.910  0.500  1.473749  129.798  168.842  38.6759
  8438.448  8438.450  0.500  1.474001  129.731  168.811  38.659
  8440.003  8440.010  0.500  1.474231  129.71  168.818  38.6517
  8441.568  8441.580  0.500  1.474400  129.679  168.805  38.6423
  8443.180  8443.180  0.500  1.474518  129.651  168.813  38.6394
  8444.789  8444.790  0.500  1.474294  129.614  168.788  38.6424
  8446.417  8446.430  0.500  1.473936  129.597  168.77  38.652
  8448.080  8448.080  0.500  1.473208  129.572  168.817  38.691
  8449.749  8449.750  0.500  1.472434  129.519  168.774  38.711
  8451.425  8451.440  0.500  1.471280  129.496  168.758  38.752
  8453.148  8453.150  0.500  1.469883  129.472  168.791  38.814
  8454.878  8454.880  0.500  1.468237  129.432  168.809  38.882
  8456.630  8456.630  0.500  1.466648  129.399  168.829  38.9485
  8458.385  8458.390  0.500  1.464945  129.367  168.8  39.0082
  8460.182  8460.180  0.500  1.463459  129.329  168.793  39.0644
  8461.979  8461.980  0.500  1.462262  129.299  168.808  39.1149
  8463.808  8463.810  0.500  1.461323  129.287  168.834  39.1575
  8465.643  8465.650  0.500  1.460440  129.226  168.819  39.1887
  8467.517  8467.510  0.500  1.459586  129.202  168.813  39.2207
  8469.382  8469.390  0.500  1.458940  129.164  168.815  39.2464
  8471.291  8471.290  0.500  1.458297  129.123  168.809  39.2704
  8473.213  8473.210  0.500  1.457613  129.105  168.815  39.2986
  8475.145  8475.150  0.500  1.456565  129.047  168.799  39.3362
  8477.115  8477.110  0.500  1.455808  129.032  168.804  39.3671
  8479.080  8479.080  0.500  1.454634  128.979  168.78  39.4079
  8481.083  8481.080  0.500  1.453441  128.955  168.777  39.4542
  8483.100  8483.090  0.500  1.452209  128.953  168.834  39.5161
  8485.120  8485.120  0.500  1.450960  128.892  168.803  39.5582
  8487.194  8487.180  0.500  1.449624  128.865  168.805  39.6116
  8489.247  8489.250  0.500  1.448394  128.818  168.793  39.6576
  8491.345  8491.340  0.500  1.447036  128.77  168.805  39.7141
  8493.456  8493.450  0.500  1.445985  128.715  168.785  39.7513
  8495.581  8495.580  0.500  1.444882  128.702  168.817  39.8026
  8497.735  8497.720  0.500  1.443986  128.655  168.829  39.8411
  8499.889  8499.890  0.500  1.443230  128.627  168.874  39.8819
  8502.092  8502.080  0.500  1.442487  128.581  168.849  39.9056
  8504.292  8504.280  0.500  1.441833  128.531  168.802  39.9207
  8506.503  8506.500  0.500  1.441302  128.494  168.799  39.9411
  8508.762  8508.750  0.500  1.440874  128.467  168.839  39.9677
  8511.016  8511.010  0.500  1.440392  128.407  168.818  39.982
  8513.317  8513.290  0.500  1.439579  128.35  168.809  40.0123
  8515.595  8515.590  0.500  1.438627  128.31  168.792  40.0465
  8517.927  8517.910  0.500  1.437545  128.265  168.802  40.0922
  8520.255  8520.250  0.500  1.436406  128.224  168.791  40.1353
  8522.621  8522.600  0.500  1.435351  128.166  168.782  40.1755
  8524.985  8524.980  0.500  1.434415  128.114  168.762  40.2083
  8527.385  8527.370  0.500  1.433319  127.862  168.472  40.1832
  8529.802  8529.790  0.500  1.432017  125.404  165.287  39.4749
  8532.233  8532.220  0.500  1.431029  118.13  155.767  37.238
  8534.681  8534.670  0.500  1.429346  127.262  167.845  40.193
  8537.155  8537.150  0.500  1.427944  127.65  168.404  40.3834
  8539.663  8539.640  0.500  1.426403  127.682  168.488  40.466
  8542.156  8542.150  0.500  1.424986  127.689  168.572  40.5437
  8544.688  8544.670  0.500  1.423599  127.658  168.599  40.6063
  8547.234  8547.220  0.500  1.422528  127.622  168.622  40.6553
  8549.801  8549.790  0.500  1.421715  127.592  168.638  40.6922
  8552.375  8552.370  0.500  1.420897  127.526  168.603  40.7172
  8554.992  8554.980  0.500  1.419962  127.522  168.668  40.771
  8557.611  8557.600  0.500  1.419031  127.435  168.621  40.7977
  8560.269  8560.250  0.500  1.417907  127.391  168.646  40.8495
  8562.922  8562.910  0.500  1.416830  127.324  168.598  40.8819
  8565.603  8565.590  0.500  1.415648  127.265  168.616  40.9347
  8568.310  8568.290  0.500  1.414372  127.218  168.594  40.9815
  8571.025  8571.010  0.500  1.413043  127.189  168.578  41.0322
  8573.755  8573.750  0.500  1.411669  127.116  168.564  41.0852
  8576.509  8576.500  0.500  1.410271  127.009  168.523  41.1327
  8579.293  8579.280  0.500  1.408855  126.939  168.455  41.1744
  8582.091  8582.070  0.500  1.407377  126.84  168.387  41.2185
  8584.907  8584.890  0.500  1.406038  126.692  168.258  41.2422
  8587.728  8587.720  0.500  1.404565  126.465  168.031  41.2472
  8590.596  8590.570  0.500  1.403269  125.67  167.047  41.0588
  8593.468  8593.450  0.500  1.402070  109.37  145.445  35.7921
  8596.362  8596.340  0.500  1.401048  126.198  167.891  41.3582
  8599.264  8599.250  0.500  1.400023  126.503  168.321  41.5064
  8602.190  8602.170  0.500  1.399054  126.42  168.291  41.5394
  8605.138  8605.120  0.500  1.397819  126.252  168.124  41.5495
  8608.103  8608.090  0.500  1.396742  125.992  167.849  41.526
  8611.090  8611.070  0.500  1.395474  125.573  167.36  41.4577
  8614.091  8614.080  0.500  1.394231  124.495  165.987  41.1688
  8617.114  8617.100  0.500  1.392582  115.819  154.476  38.3768
  8620.158  8620.150  0.500  1.391927  125.09  166.919  41.4954
  8623.227  8623.210  0.500  1.390344  127.379  170.046  42.3396
  8626.301  8626.290  0.500  1.388966  127.126  169.776  42.3307
  8629.396  8629.390  0.500  1.387563  127.257  170.029  42.4532
  8632.526  8632.510  0.500  1.386150  127.041  169.821  42.4615
  8635.655  8635.650  0.500  1.384728  126.829  169.64  42.4766
  8638.806  8638.800  0.500  1.383282  126.509  169.261  42.4428
  8642.000  8641.980  0.500  1.381817  124.262  166.31  41.7641
  8645.178  8645.170  0.500  1.380717  121.32  162.43  40.8347
  8648.400  8648.390  0.500  1.378965  126.645  169.631  42.7198
  8651.628  8651.620  0.500  1.377485  126.667  169.756  42.8146
  8654.887  8654.870  0.500  1.376112  126.601  169.758  42.8738
  8658.165  8658.150  0.500  1.374720  126.487  169.647  42.9054
  8661.445  8661.440  0.500  1.373348  126.408  169.605  42.9537
  8664.767  8664.750  0.500  1.372046  126.354  169.624  43.0145
  8668.075  8668.070  0.500  1.370637  126.243  169.556  43.058
  8671.427  8671.420  0.500  1.369274  126.175  169.524  43.1085
  8674.808  8674.790  0.500  1.367806  126.099  169.505  43.1671
  8678.186  8678.170  0.500  1.366289  126.017  169.483  43.2268
  8681.592  8681.580  0.500  1.364730  125.941  169.449  43.2856
  8685.017  8685.000  0.500  1.363188  125.866  169.425  43.3463
  8688.461  8688.450  0.500  1.361598  125.813  169.424  43.4151
  8691.927  8691.910  0.500  1.360051  125.743  169.394  43.4746
  8695.406  8695.390  0.500  1.358561  125.636  169.338  43.5251
  8698.894  8698.890  0.500  1.357242  125.514  169.249  43.5595
  8702.424  8702.410  0.500  1.355860  125.358  169.102  43.582
  8705.957  8705.950  0.500  1.354362  124.424  167.925  43.3434
  8709.506  8709.500  0.500  1.353337  118.73  160.341  41.4283
  8713.091  8713.080  0.500  1.351535  125.022  168.878  43.7129
  8716.692  8716.680  0.500  1.350128  125.136  169.125  43.8385
  8720.305  8720.290  0.500  1.348632  125.099  169.185  43.9197
  8723.932  8723.920  0.500  1.347218  125.055  169.176  43.9794
  8727.591  8727.580  0.500  1.345703  124.999  169.159  44.0417
  8731.260  8731.250  0.500  1.344327  124.905  169.137  44.0966
  8734.958  8734.940  0.500  1.342754  124.853  169.149  44.1691
  8738.666  8738.650  0.500  1.341354  124.751  169.091  44.2157
  8742.397  8742.380  0.500  1.339791  124.687  169.091  44.285
  8746.135  8746.120  0.500  1.338230  124.596  169.044  44.3418
  8749.908  8749.890  0.500  1.336563  124.526  169.025  44.4108
  8753.702  8753.680  0.500  1.334988  124.47  168.998  44.4738
  8757.492  8757.480  0.500  1.333327  124.375  168.956  44.5365
  8761.332  8761.310  0.500  1.331662  124.294  168.956  44.6108
  8765.179  8765.150  0.500  1.330033  124.201  168.908  44.6708
  8769.029  8769.010  0.500  1.328440  124.138  168.917  44.7444
  8772.916  8772.890  0.500  1.326727  124.038  168.82  44.7954
  8776.816  8776.790  0.500  1.325082  123.955  168.793  44.862
  8780.726  8780.710  0.500  1.323513  123.876  168.757  44.9229
  8784.663  8784.650  0.500  1.321791  123.765  168.693  44.9831
  8788.637  8788.610  0.500  1.320262  123.657  168.655  45.0418
  8792.595  8792.580  0.500  1.318628  123.568  168.62  45.1061
  8796.607  8796.580  0.500  1.316980  123.452  168.562  45.1651
  8800.612  8800.590  0.500  1.315423  123.401  168.572  45.2381
  8804.651  8804.630  0.500  1.313927  123.305  168.497  45.2858
  8808.697  8808.680  0.500  1.312335  123.208  168.438  45.342
  8812.773  8812.750  0.500  1.310813  123.109  168.383  45.3962
  8816.860  8816.840  0.500  1.309310  123.022  168.35  45.4555
  8820.968  8820.950  0.500  1.307731  122.963  168.352  45.5279
  8825.103  8825.080  0.500  1.306022  122.878  168.322  45.5976
  8829.259  8829.230  0.500  1.304352  122.771  168.261  45.6574
  8833.409  8833.390  0.500  1.302666  122.688  168.266  45.7357
  8837.596  8837.580  0.500  1.300948  122.599  168.204  45.7976
  8841.811  8841.780  0.500  1.299214  122.489  168.154  45.8632
  8846.034  8846.010  0.500  1.297619  122.407  168.133  45.9309
  8850.270  8850.250  0.500  1.295913  122.325  168.105  46.0015
  8854.535  8854.510  0.500  1.294140  122.221  168.042  46.0658
  8858.814  8858.790  0.500  1.292404  122.113  167.95  46.1207
  8863.121  8863.090  0.500  1.290687  122.016  167.935  46.1959
  8867.428  8867.410  0.500  1.288930  121.92  167.897  46.2665
  8871.774  8871.750  0.500  1.287215  121.836  167.874  46.3397
  8876.138  8876.110  0.500  1.285441  121.742  167.82  46.4069
  8880.510  8880.490  0.500  1.283833  121.62  167.756  46.464
  8884.889  8884.880  0.500  1.282167  121.517  167.692  46.5237
  8889.324  8889.300  0.500  1.280544  121.415  167.613  46.5773
  8893.753  8893.730  0.500  1.278865  121.33  167.595  46.6506
  8898.201  8898.180  0.500  1.277238  121.203  167.508  46.7023
  8902.666  8902.650  0.500  1.275543  121.099  167.462  46.7687
  8907.157  8907.140  0.500  1.273761  120.957  167.342  46.8186
  8911.676  8911.650  0.500  1.272061  119.277  165.124  46.2767
  8916.203  8916.180  0.500  1.270163  120.692  167.154  46.9345
  8920.753  8920.730  0.500  1.268267  120.728  167.275  47.0576
  8925.314  8925.300  0.500  1.266423  120.614  167.228  47.1311
  8929.903  8929.880  0.500  1.264681  120.468  167.124  47.1841
  8934.518  8934.490  0.500  1.262786  120.52  167.275  47.3162
  8939.131  8939.110  0.500  1.261095  120.352  167.142  47.3586
  8943.773  8943.760  0.500  1.259299  120.259  167.097  47.4309
  8948.434  8948.420  0.500  1.257662  120.153  167.045  47.4939
  8953.121  8953.100  0.500  1.255897  119.768  166.604  47.4523
  8957.826  8957.800  0.500  1.254088  119.913  166.894  47.6209
  8962.547  8962.520  0.500  1.252478  119.801  166.813  47.6744
  8967.283  8967.260  0.500  1.250741  119.644  166.693  47.7228
  8972.028  8972.010  0.500  1.248989  119.566  166.675  47.8015
  8976.813  8976.790  0.500  1.247274  119.46  166.624  47.8689
  8981.624  8981.590  0.500  1.245385  119.292  166.476  47.9169
  8986.416  8986.400  0.500  1.243629  119.172  166.39  47.9764
  8991.248  8991.230  0.500  1.241849  119.025  166.282  48.0306
  8996.106  8996.090  0.500  1.240113  118.846  166.117  48.0663
  9000.976  9000.960  0.500  1.238127  118.747  166.078  48.1505
  9005.873  9005.850  0.500  1.236318  118.748  166.161  48.2618
  9010.779  9010.760  0.500  1.234236  117.589  164.631  47.9171
  9015.704  9015.690  0.500  1.232379  118.521  166.048  48.4194
  9020.645  9020.630  0.500  1.230493  116.993  164.007  47.9145
  9025.613  9025.600  0.500  1.228700  118.343  165.976  48.5768
  9030.597  9030.590  0.500  1.226882  118.213  165.886  48.6388
  9035.604  9035.590  0.500  1.225057  118.085  165.796  48.7011
  9040.642  9040.620  0.500  1.223251  117.906  165.636  48.7421
  9045.678  9045.660  0.500  1.221399  117.789  165.555  48.8085
  9050.741  9050.720  0.500  1.219649  117.676  165.513  48.8817
  9055.818  9055.800  0.500  1.217845  117.557  165.431  48.9457
  9060.924  9060.900  0.500  1.216080  117.433  165.332  49.0028
  9066.030  9066.020  0.500  1.214282  117.236  165.139  49.0335
  9071.180  9071.160  0.500  1.212388  117.182  165.154  49.1309
  9076.333  9076.320  0.500  1.210611  117.065  165.083  49.1972
  9081.513  9081.500  0.500  1.208776  115.993  163.665  48.8642
  9086.703  9086.690  0.500  1.206869  116.769  164.869  49.3176
  9091.924  9091.910  0.500  1.204915  116.674  164.831  49.4027
  9097.162  9097.140  0.500  1.203091  116.54  164.736  49.4644
  9102.409  9102.390  0.500  1.201108  116.404  164.645  49.5352
  9107.670  9107.660  0.500  1.199240  116.234  164.485  49.5795
  9112.958  9112.950  0.500  1.197352  116.121  164.402  49.6482
  9118.260  9118.260  0.500  1.195408  115.999  164.321  49.7202
  9123.601  9123.590  0.500  1.193538  115.866  164.245  49.7904
  9128.951  9128.940  0.500  1.191692  115.739  164.151  49.8539
  9134.326  9134.310  0.500  1.189714  115.598  164.039  49.9185
  9139.704  9139.690  0.500  1.187868  115.412  163.862  49.9569
  9145.099  9145.100  0.500  1.186060  111.436  158.326  48.3561
  9150.530  9150.520  0.500  1.184189  115.243  163.812  50.1257
  9155.982  9155.970  0.500  1.182320  114.875  163.403  50.094
  9161.454  9161.430  0.500  1.180455  115.057  163.742  50.2915
  9166.919  9166.910  0.500  1.178544  114.656  163.254  50.2375
  9172.427  9172.410  0.500  1.176634  114.846  163.608  50.4429
  9177.945  9177.930  0.500  1.174697  114.613  163.358  50.4632
  9183.474  9183.470  0.500  1.172918  112.634  160.648  49.7146
  9189.035  9189.020  0.500  1.170904  114.434  163.321  50.6435
  9194.614  9194.600  0.500  1.168905  114.251  163.164  50.6961
  9200.226  9200.200  0.500  1.167031  114.076  163.006  50.7421
  9205.829  9205.810  0.500  1.165133  113.913  162.842  50.7873
  9211.462  9211.450  0.500  1.163086  113.773  162.775  50.8705
  9217.113  9217.100  0.500  1.161215  113.639  162.675  50.9345
  9222.796  9222.770  0.500  1.159292  113.495  162.553  50.9941
  9228.487  9228.460  0.500  1.157319  113.35  162.44  51.0593