File: xdidata/Gd/Gd-L3-Gd2TiO5.xdi
# XDI/1.0 BlueSky/1.10.0 BMM/2023-1.0-py310-tiled
# Beamline.name: BMM (06BM) -- Beamline for Materials Measurement (NIST)
# Beamline.xray_source: NSLS-II three-pole wiggler
# Beamline.collimation: paraboloid mirror, 5 nm Rh on 30 nm Pt
# Beamline.focusing: not in use
# Beamline.harmonic_rejection: flat mirror, Si stripe, pitch = 7.0 mrad relative to beam
# Beamline.software: Bluesky 1.10.0, Ophyd 1.7.0, DataBroker 2.0.0b13, Python 3.10.8, 2023-1.0-py310-tiled
# Detector.I0: 10 cm N2
# Detector.I1: 25 cm N2
# Detector.I2: 25 cm N2
# Element.symbol: Gd
# Element.edge: L3
# Element.reference: Gd
# Element.reference_material: Gd2O3
# Facility.name: NSLS-II
# Facility.energy: 3.0
# Facility.current: 399.0
# Facility.mode: top-off
# Facility.GUP: 123456
# Facility.SAF: 301027
# Facility.cycle: 2023-2
# Mono.name: Si(111)
# Mono.d_spacing: 3.13519
# Mono.encoder_resolution: 0.0000050 deg/ct
# Mono.angle_offset: 16.0754 deg
# Mono.scan_mode: pseudo channel cut
# Mono.scan_type: step
# Mono.direction: forward in energy
# Sample.name: Gd2TiO5
# Sample.prep: Powder in PEG pellet
# Sample.x: 149.848 mm
# Sample.y: 114.690 mm
# Sample.SDD_position: 205.000 mm
# Scan.experimenters: Bruce Ravel
# Scan.edge_energy: 7242.8
# Scan.start_time: 2023-05-08T18:10:48
# Scan.end_time: 2023-05-08T18:16:48
# Scan.transient_id: 75478
# Scan.uid: d40312a8-d397-45f7-b91b-5e2d895c82bb
# Scan.plot_hint: ln(I0/It)  --  ln($5/$6)
# Column.1: energy eV
# Column.2: requested_energy eV
# Column.3: measurement_time seconds
# Column.4: xmu
# Column.5: I0 nA
# Column.6: It nA
# Column.7: Ir nA
# ///////////
# sample courtesy Martin Stennett, University of Sheffield
# -----------
# energy  requested_energy  measurement_time  xmu  I0  It  Ir
  7042.807  7042.800  0.500  1.359467  150.315  38.6005  7.465898
  7052.810  7052.800  0.500  1.351140  150.367  38.9367  7.583241
  7062.820  7062.800  0.500  1.343271  149.069  38.9055  7.629841
  7072.833  7072.800  0.500  1.334833  150.457  39.6007  7.818790
  7082.822  7082.800  0.500  1.326782  149.336  39.6233  7.876445
  7092.822  7092.800  0.500  1.318618  150.42  40.2381  8.053055
  7102.825  7102.800  0.500  1.310573  150.455  40.5727  8.173838
  7112.818  7112.800  0.500  1.302208  150.38  40.8929  8.292871
  7122.819  7122.800  0.500  1.294336  150.129  41.1473  8.398879
  7132.817  7132.800  0.500  1.286229  149.69  41.3609  8.496213
  7142.807  7142.800  0.500  1.278302  149.793  41.7187  8.626890
  7152.816  7152.800  0.500  1.270465  149.878  42.071  8.755873
  7162.810  7162.800  0.500  1.262414  149.816  42.3935  8.880206
  7172.816  7172.800  0.500  1.254704  149.676  42.6816  8.997262
  7182.812  7182.800  0.500  1.247280  149.593  42.9758  9.114434
  7192.778  7192.800  0.500  1.240212  148.662  43.0113  9.177288
  7202.773  7202.800  0.500  1.233691  149.293  43.4766  9.330043
  7212.781  7212.800  0.500  1.228428  149.122  43.6558  9.413909
  7214.782  7214.800  0.500  1.227198  149.097  43.7021  9.430194
  7216.777  7216.800  0.500  1.226650  149.059  43.7149  9.442345
  7218.783  7218.800  0.500  1.226216  149.01  43.7198  9.449265
  7220.785  7220.800  0.500  1.226280  148.98  43.7081  9.450763
  7222.791  7222.800  0.500  1.225731  148.925  43.716  9.455018
  7224.789  7224.800  0.500  1.226457  148.854  43.6634  9.443970
  7226.786  7226.800  0.500  1.227304  148.582  43.5466  9.415652
  7228.784  7228.800  0.500  1.229069  148.625  43.4823  9.393977
  7230.788  7230.800  0.500  1.231981  148.921  43.4424  9.370661
  7232.786  7232.800  0.500  1.236766  148.877  43.2223  9.296209
  7233.279  7233.300  0.500  1.238598  148.861  43.1386  9.269556
  7233.783  7233.800  0.500  1.240544  148.846  43.0503  9.240014
  7234.281  7234.300  0.500  1.242821  148.819  42.9444  9.205570
  7234.781  7234.800  0.500  1.245282  148.798  42.833  9.167431
  7235.283  7235.300  0.500  1.248050  148.79  42.7122  9.127030
  7235.785  7235.800  0.500  1.251323  148.777  42.569  9.078538
  7236.283  7236.300  0.500  1.254635  148.762  42.424  9.026322
  7236.777  7236.800  0.500  1.258964  148.755  42.2386  8.963014
  7237.284  7237.300  0.500  1.264009  148.75  42.0246  8.889131
  7237.784  7237.800  0.500  1.269693  148.74  41.7838  8.804276
  7238.282  7238.300  0.500  1.276697  148.719  41.4862  8.703831
  7238.785  7238.800  0.500  1.285345  148.718  41.1287  8.579578
  7239.292  7239.300  0.500  1.296028  148.704  40.6878  8.429749
  7239.791  7239.800  0.500  1.308416  148.691  40.1835  8.257254
  7240.289  7240.300  0.500  1.322862  148.686  39.6058  8.062062
  7240.786  7240.800  0.500  1.339095  148.667  38.963  7.845439
  7241.287  7241.300  0.500  1.356668  148.632  38.2752  7.616416
  7241.783  7241.800  0.500  1.375254  148.655  37.5763  7.383087
  7242.286  7242.300  0.500  1.397152  148.65  36.7612  7.112458
  7242.796  7242.800  0.500  1.426213  148.621  35.7013  6.767088
  7243.291  7243.300  0.500  1.464700  148.591  34.3464  6.331542
  7243.792  7243.800  0.500  1.516020  148.428  32.5924  5.790742
  7244.298  7244.300  0.500  1.578887  147.381  30.3905  5.157929
  7244.792  7244.800  0.500  1.654808  146.152  27.9338  4.486537
  7245.287  7245.300  0.500  1.740409  146.18  25.6471  3.874106
  7245.789  7245.800  0.500  1.825127  147.841  23.8316  3.397247
  7246.293  7246.300  0.500  1.897296  148.336  22.2465  3.028593
  7246.788  7246.800  0.500  1.953286  148.43  21.0485  2.771090
  7247.298  7247.300  0.500  1.995882  148.475  20.1769  2.584963
  7247.793  7247.800  0.500  2.025496  148.479  19.5886  2.454135
  7248.293  7248.300  0.500  2.043920  148.481  19.2313  2.368810
  7248.788  7248.800  0.500  2.050984  148.474  19.095  2.333572
  7249.290  7249.300  0.500  2.044864  148.463  19.2107  2.355689
  7249.797  7249.800  0.500  2.022720  148.45  19.6393  2.449101
  7250.299  7250.300  0.500  1.984965  148.434  20.3926  2.620162
  7250.799  7250.800  0.500  1.936250  148.409  21.4071  2.852375
  7251.301  7251.300  0.500  1.881804  148.392  22.6023  3.132763
  7251.793  7251.800  0.500  1.826367  148.359  23.8854  3.442876
  7252.297  7252.300  0.500  1.772959  148.301  25.1859  3.767787
  7252.793  7252.800  0.500  1.726391  148.229  26.3737  4.073739
  7253.296  7253.300  0.500  1.686813  148.05  27.4053  4.349312
  7253.798  7253.800  0.500  1.653115  147.366  28.2137  4.581783
  7254.299  7254.300  0.500  1.624100  145.94  28.7632  4.762987
  7254.800  7254.800  0.500  1.599381  146.508  29.5978  4.980087
  7255.302  7255.300  0.500  1.579609  148.228  30.5432  5.204788
  7255.803  7255.800  0.500  1.563346  148.529  31.1071  5.356985
  7256.300  7256.300  0.500  1.549628  148.51  31.5327  5.477812
  7256.796  7256.800  0.500  1.538120  148.475  31.8901  5.579886
  7257.297  7257.300  0.500  1.528897  148.437  32.1774  5.663687
  7257.802  7257.800  0.500  1.521660  148.399  32.4028  5.732902
  7258.306  7258.300  0.500  1.515248  148.375  32.6059  5.792450
  7258.807  7258.800  0.500  1.510161  148.327  32.7617  5.843789
  7259.304  7259.300  0.500  1.506002  148.273  32.8863  5.885292
  7259.798  7259.800  0.500  1.503071  148.227  32.9724  5.916494
  7260.300  7260.300  0.500  1.501081  148.145  33.0199  5.936296
  7260.794  7260.800  0.500  1.500115  148.048  33.0301  5.946609
  7261.300  7261.300  0.500  1.500318  147.895  32.9894  5.942927
  7261.804  7261.800  0.500  1.501193  147.661  32.9083  5.929347
  7262.301  7262.300  0.500  1.502877  147.288  32.7699  5.901983
  7262.801  7262.800  0.500  1.505273  146.531  32.5235  5.854712
  7263.300  7263.300  0.500  1.507435  144.511  32.006  5.757481
  7263.796  7263.800  0.500  1.509359  136.429  30.1579  5.421254
  7264.295  7264.300  0.500  1.511621  123.179  27.1674  4.881872
  7264.795  7264.800  0.500  1.513815  124.426  27.3822  4.914682
  7265.299  7265.300  0.500  1.515353  138.474  30.4269  5.459245
  7265.797  7265.800  0.500  1.515406  146.927  32.2827  5.794565
  7266.306  7266.300  0.500  1.515419  148.159  32.553  5.846421
  7266.802  7266.800  0.500  1.514750  148.488  32.6471  5.867991
  7267.304  7267.300  0.500  1.513960  148.591  32.6955  5.884473
  7267.795  7267.800  0.500  1.512600  148.65  32.753  5.903796
  7268.794  7268.790  0.500  1.508575  148.69  32.894  5.948544
  7269.804  7269.790  0.500  1.504597  148.688  33.0246  5.989236
  7270.816  7270.810  0.500  1.502012  148.674  33.1071  6.013140
  7271.867  7271.860  0.500  1.502309  148.645  33.0908  6.009367
  7272.927  7272.920  0.500  1.505414  148.443  32.9433  5.969454
  7274.012  7274.000  0.500  1.511644  146.129  32.2282  5.818152
  7275.105  7275.100  0.500  1.521003  148.534  32.4535  5.831972
  7276.231  7276.220  0.500  1.531729  148.821  32.1693  5.750042
  7277.374  7277.360  0.500  1.543360  148.8  31.7929  5.646433
  7278.519  7278.510  0.500  1.554910  148.798  31.4274  5.543191
  7279.698  7279.690  0.500  1.567091  148.787  31.0447  5.433087
  7280.896  7280.880  0.500  1.578673  148.769  30.6833  5.331139
  7282.110  7282.100  0.500  1.588447  148.744  30.3799  5.247589
  7283.335  7283.330  0.500  1.592871  148.485  30.1931  5.198022
  7284.595  7284.580  0.500  1.590889  146.043  29.7554  5.120942
  7285.860  7285.850  0.500  1.583503  148.512  30.4828  5.258762
  7287.150  7287.140  0.500  1.572077  148.658  30.8634  5.347212
  7288.458  7288.450  0.500  1.559013  148.695  31.2771  5.449486
  7289.788  7289.780  0.500  1.546830  148.708  31.6632  5.550491
  7291.133  7291.130  0.500  1.536199  148.713  32.0026  5.644758
  7292.516  7292.500  0.500  1.527645  148.716  32.2781  5.722404
  7293.887  7293.880  0.500  1.521179  148.73  32.4906  5.785773
  7295.300  7295.290  0.500  1.516143  148.723  32.6533  5.837490
  7296.720  7296.710  0.500  1.512353  148.701  32.7722  5.879117
  7298.159  7298.150  0.500  1.509263  148.678  32.8688  5.916331
  7299.621  7299.610  0.500  1.506936  148.601  32.9283  5.944696
  7301.106  7301.090  0.500  1.504981  147.147  32.6699  5.914741
  7302.595  7302.590  0.500  1.503415  148.745  33.0763  6.002602
  7304.127  7304.110  0.500  1.501435  148.777  33.149  6.029494
  7305.652  7305.650  0.500  1.499609  148.757  33.2052  6.052444
  7307.226  7307.210  0.500  1.497970  148.753  33.2588  6.074972
  7308.790  7308.780  0.500  1.496979  148.733  33.2872  6.091052
  7310.390  7310.380  0.500  1.496537  148.721  33.2993  6.099926
  7312.001  7311.990  0.500  1.496974  148.705  33.2812  6.101984
  7313.641  7313.630  0.500  1.497588  148.687  33.2567  6.100298
  7315.289  7315.280  0.500  1.498230  148.673  33.2322  6.093932
  7316.961  7316.950  0.500  1.499029  148.666  33.204  6.083660
  7318.661  7318.640  0.500  1.499689  148.659  33.1807  6.072273
  7320.362  7320.350  0.500  1.500814  148.647  33.1406  6.055452
  7322.095  7322.080  0.500  1.502125  148.622  33.0917  6.037831
  7323.843  7323.830  0.500  1.504117  148.597  33.0203  6.016494
  7325.607  7325.590  0.500  1.506493  148.582  32.9386  5.994370
  7327.391  7327.380  0.500  1.508778  148.554  32.8572  5.975795
  7329.190  7329.180  0.500  1.510639  148.516  32.7877  5.962420
  7331.021  7331.010  0.500  1.511218  148.496  32.7644  5.961582
  7332.860  7332.850  0.500  1.510669  148.502  32.7836  5.970560
  7334.723  7334.710  0.500  1.509673  148.487  32.8129  5.983964
  7336.601  7336.590  0.500  1.507472  148.463  32.88  6.005312
  7338.502  7338.490  0.500  1.504223  147.383  32.747  5.990951
  7340.425  7340.410  0.500  1.501330  147.987  32.9765  6.041408
  7342.363  7342.350  0.500  1.498111  148.245  33.1405  6.079317
  7344.318  7344.310  0.500  1.495462  148.273  33.2346  6.106069
  7346.302  7346.280  0.500  1.493308  148.252  33.3015  6.127376
  7348.269  7348.280  0.500  1.491380  148.229  33.3606  6.146590
  7350.280  7350.290  0.500  1.489180  148.209  33.4296  6.166896
  7352.308  7352.320  0.500  1.486924  148.194  33.5018  6.186666
  7354.370  7354.380  0.500  1.484783  148.158  33.5654  6.205065
  7356.442  7356.450  0.500  1.482245  148.143  33.6474  6.226218
  7358.545  7358.540  0.500  1.479213  148.107  33.7412  6.250125
  7360.652  7360.650  0.500  1.476012  148.066  33.84  6.281444
  7362.793  7362.780  0.500  1.472594  148.039  33.9497  6.318216
  7364.932  7364.920  0.500  1.469386  147.99  34.0477  6.355674
  7367.112  7367.090  0.500  1.466180  147.956  34.149  6.395882
  7369.291  7369.280  0.500  1.463638  147.928  34.2294  6.433454
  7371.492  7371.480  0.500  1.461060  147.906  34.3129  6.470614
  7373.710  7373.700  0.500  1.458930  147.864  34.3761  6.502788
  7375.961  7375.950  0.500  1.457383  147.824  34.4201  6.524668
  7378.226  7378.210  0.500  1.456376  147.775  34.4432  6.535071
  7380.500  7380.490  0.500  1.456137  147.749  34.4454  6.539682
  7382.803  7382.790  0.500  1.456391  147.707  34.4269  6.537002
  7385.121  7385.110  0.500  1.457274  147.665  34.3868  6.529923
  7387.457  7387.450  0.500  1.458178  147.653  34.3528  6.524418
  7389.814  7389.800  0.500  1.458904  147.623  34.3209  6.521219
  7392.188  7392.180  0.500  1.459444  147.592  34.2953  6.515915
  7394.580  7394.570  0.500  1.459430  147.658  34.3111  6.514865
  7397.004  7396.990  0.500  1.458538  147.626  34.3342  6.516195
  7399.431  7399.420  0.500  1.456171  147.597  34.4088  6.531131
  7401.882  7401.870  0.500  1.453862  147.557  34.479  6.544909
  7404.364  7404.350  0.500  1.451862  147.515  34.5382  6.560432
  7406.851  7406.840  0.500  1.450056  147.491  34.595  6.579606
  7409.358  7409.350  0.500  1.447705  147.447  34.6663  6.608363
  7411.885  7411.870  0.500  1.445169  147.396  34.7422  6.641158
  7414.433  7414.420  0.500  1.442451  147.353  34.8266  6.680337
  7416.995  7416.990  0.500  1.439864  147.309  34.9064  6.716489
  7419.577  7419.570  0.500  1.437347  147.265  34.9839  6.749671
  7422.188  7422.180  0.500  1.435179  147.21  35.0466  6.777064
  7424.807  7424.800  0.500  1.433173  147.158  35.1047  6.801314
  7427.456  7427.450  0.500  1.431292  147.095  35.1557  6.819984
  7430.120  7430.110  0.500  1.429251  147.043  35.2151  6.837296
  7432.797  7432.790  0.500  1.427162  146.98  35.2736  6.856518
  7435.496  7435.490  0.500  1.425124  146.928  35.333  6.874013
  7438.223  7438.210  0.500  1.422975  146.866  35.3942  6.893524
  7440.962  7440.950  0.500  1.420444  146.781  35.4633  6.915630
  7443.707  7443.700  0.500  1.418072  146.634  35.5119  6.932105
  7446.488  7446.480  0.500  1.415773  144.129  34.9856  6.839673
  7449.282  7449.270  0.500  1.413140  146.688  35.7007  6.991442
  7452.091  7452.090  0.500  1.410540  146.44  35.733  7.013812
  7454.923  7454.920  0.500  1.407844  146.671  35.886  7.063700
  7457.783  7457.770  0.500  1.405944  146.432  35.8957  7.083241
  7460.663  7460.650  0.500  1.404364  146.526  35.9754  7.116932
  7463.549  7463.540  0.500  1.403309  146.497  36.0063  7.140052
  7466.459  7466.450  0.500  1.402357  146.17  35.9603  7.144404
  7469.381  7469.370  0.500  1.401217  146.509  36.0847  7.181580
  7472.333  7472.320  0.500  1.399866  146.387  36.1035  7.195412
  7475.296  7475.290  0.500  1.398761  146.331  36.1296  7.209649
  7478.277  7478.270  0.500  1.397571  146.27  36.1573  7.224172
  7481.287  7481.280  0.500  1.395906  146.206  36.2019  7.240281
  7484.309  7484.300  0.500  1.394153  146.133  36.2472  7.257686
  7487.357  7487.350  0.500  1.391792  146.071  36.3176  7.280109
  7490.420  7490.410  0.500  1.388897  145.987  36.4019  7.306586
  7493.508  7493.490  0.500  1.386087  145.938  36.4921  7.333290
  7496.595  7496.590  0.500  1.382859  145.893  36.5987  7.363708
  7499.718  7499.710  0.500  1.379766  145.83  36.6964  7.397752
  7502.864  7502.850  0.500  1.377209  145.759  36.7724  7.427266
  7506.014  7506.000  0.500  1.374690  145.687  36.8469  7.457133
  7509.187  7509.180  0.500  1.372584  145.62  36.9075  7.484129
  7512.384  7512.370  0.500  1.370405  145.552  36.9709  7.512855
  7515.605  7515.590  0.500  1.368474  145.504  37.0299  7.544022
  7518.829  7518.820  0.500  1.366666  145.44  37.0808  7.571399
  7522.085  7522.070  0.500  1.364809  145.362  37.1296  7.599955
  7525.368  7525.350  0.500  1.363170  145.284  37.1706  7.625911
  7528.652  7528.640  0.500  1.361278  145.22  37.2247  7.653884
  7531.960  7531.950  0.500  1.359320  145.145  37.2784  7.679092
  7535.288  7535.270  0.500  1.357045  145.063  37.3421  7.705283
  7538.642  7538.620  0.500  1.354520  144.999  37.42  7.735766
  7542.010  7541.990  0.500  1.351639  144.947  37.5146  7.765536
  7545.386  7545.370  0.500  1.348332  144.857  37.6155  7.797667
  7548.795  7548.780  0.500  1.345200  144.771  37.7109  7.830870
  7552.216  7552.200  0.500  1.342237  144.698  37.8039  7.864080
  7555.667  7555.650  0.500  1.339448  144.619  37.8888  7.898585
  7559.127  7559.110  0.500  1.336608  144.541  37.9761  7.935476
  7562.609  7562.590  0.500  1.334295  144.47  38.0454  7.969016
  7566.110  7566.090  0.500  1.331693  144.373  38.1187  8.003061
  7569.630  7569.610  0.500  1.329381  144.293  38.1859  8.034382
  7573.169  7573.150  0.500  1.327402  144.215  38.2407  8.063349
  7576.733  7576.700  0.500  1.325731  144.123  38.2803  8.087039
  7580.313  7580.280  0.500  1.323809  144.023  38.3272  8.112166
  7583.897  7583.880  0.500  1.322258  143.914  38.3577  8.133421
  7587.506  7587.490  0.500  1.320325  143.799  38.4014  8.159757
  7591.141  7591.120  0.500  1.318400  143.684  38.4445  8.185555
  7594.791  7594.780  0.500  1.316218  143.522  38.4851  8.211176
  7598.470  7598.450  0.500  1.313820  143.368  38.5361  8.238173
  7602.163  7602.140  0.500  1.311229  141.709  38.1891  8.179632
  7605.869  7605.850  0.500  1.308255  142.739  38.5811  8.278976
  7609.591  7609.580  0.500  1.305289  142.497  38.6302  8.303441
  7613.336  7613.320  0.500  1.302358  142.446  38.7297  8.341105
  7617.106  7617.090  0.500  1.299252  142.423  38.844  8.381785
  7620.896  7620.880  0.500  1.296295  142.586  39.0034  8.432973
  7624.693  7624.680  0.500  1.293134  142.657  39.1464  8.480678
  7628.523  7628.510  0.500  1.290299  142.633  39.2509  8.523193
  7632.368  7632.350  0.500  1.287484  142.575  39.3455  8.562734
  7636.229  7636.210  0.500  1.284844  142.476  39.4223  8.599402
  7640.108  7640.090  0.500  1.282196  142.374  39.4985  8.636711
  7644.012  7643.990  0.500  1.279893  142.283  39.5643  8.671328
  7647.943  7647.910  0.500  1.277535  142.188  39.631  8.706080
  7651.882  7651.850  0.500  1.275317  142.097  39.6937  8.739581
  7655.831  7655.810  0.500  1.272969  141.979  39.754  8.771773
  7659.809  7659.780  0.500  1.270522  141.873  39.8216  8.809333
  7663.804  7663.780  0.500  1.268118  141.76  39.8858  8.844406
  7667.811  7667.790  0.500  1.265357  141.655  39.9665  8.884069
  7671.844  7671.830  0.500  1.262480  141.521  40.0437  8.922487
  7675.900  7675.880  0.500  1.259364  141.393  40.1322  8.962186
  7679.945  7679.950  0.500  1.256395  141.273  40.2173  8.997517
  7684.057  7684.040  0.500  1.253298  141.092  40.2904  9.031786
  7688.174  7688.150  0.500  1.250462  138.076  39.5413  8.880196
  7692.268  7692.280  0.500  1.247767  141.001  40.4877  9.109369
  7696.414  7696.430  0.500  1.245146  140.847  40.5496  9.142113
  7700.588  7700.590  0.500  1.242241  140.68  40.6195  9.178186
  7704.799  7704.780  0.500  1.239500  140.397  40.649  9.208898
  7708.975  7708.980  0.500  1.236586  140.517  40.8024  9.263956
  7713.226  7713.210  0.500  1.234086  140.332  40.8507  9.297791
  7717.459  7717.450  0.500  1.231654  140.143  40.8951  9.330409
  7721.720  7721.710  0.500  1.229234  139.237  40.729  9.314648
  7725.993  7725.990  0.500  1.226483  139.943  41.0486  9.408947
  7730.297  7730.290  0.500  1.223882  139.78  41.1075  9.446092
  7734.619  7734.610  0.500  1.221050  139.624  41.1779  9.484459
  7738.958  7738.950  0.500  1.218148  139.23  41.1811  9.508905
  7743.325  7743.310  0.500  1.215321  139.467  41.3681  9.577697
  7747.708  7747.690  0.500  1.212536  139.298  41.433  9.615984
  7752.096  7752.080  0.500  1.209335  139.126  41.5147  9.658341
  7756.512  7756.500  0.500  1.206022  138.955  41.6011  9.701097
  7760.951  7760.930  0.500  1.202934  138.813  41.6872  9.742266
  7765.396  7765.380  0.500  1.199870  138.659  41.7688  9.781736
  7769.869  7769.850  0.500  1.196722  138.502  41.8531  9.818483
  7774.358  7774.340  0.500  1.193789  138.32  41.9207  9.854949
  7778.875  7778.850  0.500  1.190778  138.165  42.0002  9.893430
  7783.400  7783.380  0.500  1.188067  138.007  42.066  9.934033
  7787.952  7787.930  0.500  1.184918  137.823  42.1424  9.974509