File: xdidata/Br/Br-K-BromophenolBlue.xdi
# XDI/1.0 BlueSky/1.10.0 BMM/2023-1.0-py310-tiled
# Beamline.name: BMM (06BM) -- Beamline for Materials Measurement (NIST)
# Beamline.xray_source: NSLS-II three-pole wiggler
# Beamline.collimation: paraboloid mirror, 5 nm Rh on 30 nm Pt
# Beamline.focusing: not in use
# Beamline.harmonic_rejection: flat mirror, Pt stripe, pitch = 7.0 mrad relative to beam
# Beamline.software: Bluesky 1.10.0, Ophyd 1.7.0, DataBroker 2.0.0b13, Python 3.10.8, 2023-1.0-py310-tiled
# Detector.I0: 10 cm N2
# Detector.I1: 25 cm N2
# Detector.I2: 25 cm N2
# Element.symbol: Br
# Element.edge: K
# Element.reference: Br
# Element.reference_material: bromophenol blue
# Facility.name: NSLS-II
# Facility.energy: 3.0
# Facility.current: 400.8
# Facility.mode: top-off
# Facility.GUP: 301027
# Facility.SAF: 310583
# Facility.cycle: 2023-2
# Mono.name: Si(111)
# Mono.d_spacing: 3.13519
# Mono.encoder_resolution: 0.0000050 deg/ct
# Mono.angle_offset: 16.0754 deg
# Mono.scan_mode: pseudo channel cut
# Mono.scan_type: step
# Mono.direction: forward in energy
# Sample.name: C19H10Br4O5S
# Sample.prep: powder on Kapton tape
# Sample.x: 109.138 mm
# Sample.y: 153.150 mm
# Sample.SDD_position: 205.000 mm
# Scan.experimenters: Bruce Ravel
# Scan.edge_energy: 13473.7
# Scan.start_time: 2023-05-28T20:55:12
# Scan.end_time: 2023-05-28T21:03:11
# Scan.transient_id: 79008
# Scan.uid: 7f5eb8b4-2991-42f8-9e27-86db1128e904
# Scan.plot_hint: ln(It/Ir)  --  ln($6/$7)
# Column.1: energy eV
# Column.2: requested_energy eV
# Column.3: measurement_time seconds
# Column.4: xmu
# Column.5: I0 nA
# Column.6: It nA
# Column.7: Ir nA
# ///////////
# sample courtesy Alesandra Leri, Marymount Manhatten College
# -----------
# energy  requested_energy  measurement_time  xmu  I0  It  Ir
  13273.667  13273.700  0.500  0.521666  42.3833  74.6049  44.2803
  13283.701  13283.700  0.500  0.520498  42.2479  74.3806  44.1988
  13293.743  13293.700  0.500  0.519446  42.1007  74.1358  44.0997
  13303.747  13303.700  0.500  0.518428  41.9646  73.9238  44.0184
  13313.796  13313.700  0.500  0.517354  41.9594  73.9253  44.0666
  13323.691  13323.700  0.500  0.516355  41.8097  73.677  43.9624
  13333.693  13333.700  0.500  0.515328  41.7119  73.5205  43.9141
  13343.680  13343.700  0.500  0.514182  41.6553  73.4398  43.9162
  13353.713  13353.700  0.500  0.513311  41.6078  73.3703  43.9129
  13363.714  13363.700  0.500  0.512238  41.5098  73.2128  43.8657
  13373.715  13373.700  0.500  0.511314  41.3911  73.0223  43.792
  13383.723  13383.700  0.500  0.510418  41.294  72.866  43.7374
  13393.707  13393.700  0.500  0.509602  41.2276  72.7659  43.713
  13403.714  13403.700  0.500  0.508955  41.1609  72.6668  43.6817
  13413.721  13413.700  0.500  0.508323  41.1142  72.5932  43.6651
  13423.735  13423.700  0.500  0.507946  40.9951  72.409  43.5707
  13433.740  13433.700  0.500  0.507979  40.8788  72.2168  43.4536
  13443.705  13443.700  0.500  0.508849  40.8026  72.0959  43.3432
  13445.670  13445.700  0.500  0.509139  40.7887  72.0734  43.3171
  13447.683  13447.700  0.500  0.509572  40.7676  72.0386  43.2773
  13449.680  13449.700  0.500  0.510128  40.7332  71.9893  43.2237
  13451.663  13451.700  0.500  0.510822  40.7431  72.0131  43.208
  13453.677  13453.700  0.500  0.511573  40.7355  71.993  43.1635
  13455.669  13455.700  0.500  0.512710  40.6979  71.9313  43.0775
  13457.669  13457.700  0.500  0.514139  40.704  71.9433  43.0232
  13459.685  13459.700  0.500  0.515939  40.6639  71.8751  42.9051
  13461.687  13461.700  0.500  0.518322  40.6472  71.8525  42.7895
  13463.665  13463.700  0.500  0.521761  40.6261  71.8139  42.6197
  13463.965  13464.000  0.500  0.522278  40.6101  71.7928  42.5852
  13464.250  13464.300  0.500  0.523051  40.6099  71.7948  42.5535
  13464.535  13464.600  0.500  0.523612  40.6125  71.7874  42.5252
  13464.844  13464.900  0.500  0.524247  40.6134  71.7918  42.5008
  13465.152  13465.200  0.500  0.525150  40.6182  71.7989  42.4667
  13465.437  13465.500  0.500  0.525946  40.6079  71.7864  42.4255
  13465.738  13465.800  0.500  0.526783  40.6161  71.8022  42.3993
  13466.071  13466.100  0.500  0.527806  40.599  71.7792  42.3424
  13466.356  13466.400  0.500  0.528729  40.5979  71.7692  42.2974
  13466.657  13466.700  0.500  0.529840  40.5867  71.7487  42.2384
  13466.957  13467.000  0.500  0.531050  40.5745  71.7296  42.176
  13467.258  13467.300  0.500  0.532437  40.5794  71.745  42.1267
  13467.559  13467.600  0.500  0.533722  40.5701  71.7305  42.0641
  13467.868  13467.900  0.500  0.535252  40.5828  71.7466  42.0092
  13468.185  13468.200  0.500  0.536947  40.579  71.7368  41.9324
  13468.462  13468.500  0.500  0.538652  40.5373  71.6694  41.8216
  13468.771  13468.800  0.500  0.540526  40.5906  71.7605  41.7963
  13469.088  13469.100  0.500  0.542841  40.5751  71.7308  41.6824
  13469.381  13469.400  0.500  0.545140  40.5445  71.6833  41.5592
  13469.682  13469.700  0.500  0.547623  40.5448  71.686  41.4576
  13469.983  13470.000  0.500  0.550699  40.5449  71.6847  41.3296
  13470.291  13470.300  0.500  0.553786  40.5142  71.629  41.1702
  13470.577  13470.600  0.500  0.557104  40.5231  71.6479  41.0446
  13470.893  13470.900  0.500  0.561033  40.4926  71.5918  40.8517
  13471.195  13471.200  0.500  0.565632  40.4988  71.5995  40.6686
  13471.496  13471.500  0.500  0.570662  40.4846  71.5849  40.4563
  13471.773  13471.800  0.500  0.576135  40.508  71.6271  40.2592
  13472.106  13472.100  0.500  0.583343  40.5311  71.6689  39.9934
  13472.399  13472.400  0.500  0.591039  40.4989  71.6082  39.6531
  13472.692  13472.700  0.500  0.599968  40.4963  71.6015  39.297
  13472.985  13473.000  0.500  0.610636  40.5081  71.625  38.8928
  13473.302  13473.300  0.500  0.624340  40.506  71.6174  38.3593
  13473.572  13473.600  0.500  0.639295  40.5014  71.6196  37.7911
  13473.897  13473.900  0.500  0.660254  40.5098  71.6293  37.0123
  13474.198  13474.200  0.500  0.684421  40.5104  71.6319  36.1299
  13474.475  13474.500  0.500  0.712904  40.4895  71.5966  35.098
  13474.784  13474.800  0.500  0.750951  40.4907  71.5991  33.7889
  13475.093  13475.100  0.500  0.797454  40.5197  71.6501  32.2765
  13475.371  13475.400  0.500  0.848691  40.4817  71.5891  30.6384
  13475.696  13475.700  0.500  0.917635  40.4733  71.58  28.5936
  13475.981  13476.000  0.500  0.986885  40.4732  71.5885  26.6836
  13476.267  13476.300  0.500  1.060880  40.4569  71.5386  24.7632
  13476.584  13476.600  0.500  1.133572  40.4494  71.5324  23.0249
  13476.861  13476.900  0.500  1.194326  40.4642  71.5623  21.6768
  13477.171  13477.200  0.500  1.241487  40.4254  71.4994  20.6601
  13477.496  13477.500  0.500  1.265649  40.4103  71.4684  20.1581
  13477.789  13477.800  0.500  1.265079  40.4008  71.4497  20.1643
  13478.106  13478.100  0.500  1.243963  40.3934  71.4386  20.5914
  13478.400  13478.400  0.500  1.212620  40.3861  71.4372  21.2466
  13478.701  13478.700  0.500  1.176261  40.3861  71.4352  22.0327
  13479.019  13479.000  0.500  1.138800  40.396  71.4498  22.8784
  13479.296  13479.300  0.500  1.110863  40.4175  71.4899  23.5398
  13479.590  13479.600  0.500  1.090073  40.4157  71.484  24.0323
  13479.907  13479.900  0.500  1.077785  40.3864  71.4285  24.3106
  13480.193  13480.200  0.500  1.075005  40.381  71.416  24.374
  13480.518  13480.500  0.500  1.080443  40.3765  71.426  24.2452
  13480.795  13480.800  0.500  1.091930  40.2975  71.2743  23.9174
  13481.097  13481.100  0.500  1.109427  40.2579  71.2009  23.4783
  13481.422  13481.400  0.500  1.132326  40.1878  71.0923  22.9118
  13481.700  13481.700  0.500  1.155315  40.1488  71.0187  22.3679
  13482.002  13482.000  0.500  1.180994  40.1372  70.9975  21.7944
  13482.295  13482.300  0.500  1.205969  40.1175  70.961  21.2459
  13482.597  13482.600  0.500  1.229431  40.1458  71.0106  20.7677
  13482.906  13482.900  0.500  1.250774  40.1933  71.0986  20.3543
  13483.176  13483.200  0.500  1.266451  40.2412  71.1794  20.0605
  13483.501  13483.500  0.500  1.280902  40.2716  71.2347  19.788
  13483.795  13483.800  0.500  1.290743  40.3211  71.3251  19.6191
  13484.089  13484.100  0.500  1.296979  40.3521  71.3822  19.5128
  13484.398  13484.400  0.500  1.300840  40.3312  71.3404  19.4262
  13484.676  13484.700  0.500  1.301927  40.3335  71.3457  19.4065
  13484.994  13485.000  0.500  1.301014  40.3238  71.3267  19.4191
  13485.272  13485.300  0.500  1.298270  40.3281  71.3381  19.4756
  13485.581  13485.600  0.500  1.294145  40.3316  71.3466  19.5584
  13485.899  13485.900  0.500  1.288199  40.3502  71.3757  19.6831
  13486.201  13486.200  0.500  1.281674  40.3599  71.4013  19.819
  13486.510  13486.500  0.500  1.273443  40.365  71.4112  19.9856
  13486.788  13486.800  0.500  1.265529  40.3911  71.4473  20.1546
  13487.098  13487.100  0.500  1.256109  40.3481  71.3795  20.326
  13487.392  13487.400  0.500  1.246763  40.3551  71.3884  20.5194
  13487.694  13487.700  0.500  1.237846  40.354  71.392  20.7043
  13488.019  13488.000  0.500  1.227992  40.3458  71.3735  20.9039
  13488.305  13488.300  0.500  1.220099  40.3667  71.4126  21.0811
  13488.607  13488.600  0.500  1.212139  40.3462  71.3769  21.2389
  13488.909  13488.900  0.500  1.204787  40.3585  71.3956  21.4013
  13489.187  13489.200  0.500  1.198554  40.3222  71.3321  21.5159
  13489.528  13489.500  0.500  1.192227  40.3389  71.3657  21.6627
  13489.799  13489.800  0.500  1.187434  40.3373  71.361  21.7653
  13490.100  13490.100  0.500  1.182685  40.3513  71.3845  21.8761
  13490.410  13490.400  0.500  1.178404  40.3337  71.3595  21.9623
  13490.696  13490.700  0.500  1.174960  40.3156  71.3265  22.0278
  13491.022  13491.000  0.500  1.171574  40.3146  71.3279  22.103
  13491.300  13491.300  0.500  1.169072  40.3043  71.3066  22.1518
  13491.602  13491.600  0.500  1.166908  40.2902  71.2835  22.1926
  13491.888  13491.900  0.500  1.165426  40.2819  71.2684  22.2208
  13492.182  13492.200  0.500  1.164400  40.2693  71.2421  22.2354
  13492.508  13492.500  0.500  1.163948  40.2597  71.2255  22.2402
  13492.786  13492.800  0.500  1.164132  40.2592  71.2219  22.235
  13493.088  13493.100  0.500  1.164989  40.2521  71.2115  22.2127
  13493.375  13493.400  0.500  1.165989  40.2498  71.2094  22.1899
  13493.692  13493.700  0.500  1.167694  40.2607  71.2303  22.1586
  13493.995  13494.000  0.500  1.169513  40.2572  71.2186  22.1147
  13494.297  13494.300  0.500  1.171488  40.2388  71.1949  22.0637
  13494.607  13494.600  0.500  1.173630  40.2456  71.2116  22.0216
  13494.901  13494.900  0.500  1.175795  40.2283  71.1787  21.9639
  13495.203  13495.200  0.500  1.177919  40.257  71.218  21.9294
  13495.513  13495.500  0.500  1.179817  40.2596  71.2273  21.8906
  13495.807  13495.800  0.500  1.181590  40.2546  71.2195  21.8495
  13496.109  13496.100  0.500  1.183382  40.2495  71.2196  21.8104
  13496.412  13496.400  0.500  1.184822  40.253  71.2246  21.7805
  13496.714  13496.700  0.500  1.186232  40.25  71.2222  21.7491
  13497.016  13497.000  0.500  1.187459  40.2276  71.1832  21.7105
  13497.310  13497.300  0.500  1.188459  40.2388  71.1988  21.6936
  13497.605  13497.600  0.500  1.189118  40.241  71.2044  21.681
  13497.907  13497.900  0.500  1.189737  40.2367  71.1974  21.6655
  13498.193  13498.200  0.500  1.190175  40.2443  71.2136  21.6609
  13498.519  13498.500  0.500  1.190306  40.1917  71.1207  21.6298
  13498.702  13498.700  0.500  1.190283  40.1957  71.1249  21.6316
  13499.705  13499.690  0.500  1.188036  40.1854  71.0996  21.6725
  13500.715  13500.690  0.500  1.182709  40.209  71.1529  21.8046
  13501.686  13501.710  0.500  1.175118  40.2082  71.1508  21.9701
  13502.769  13502.760  0.500  1.165833  40.167  71.0763  22.1519
  13503.835  13503.820  0.500  1.157895  40.1544  71.0585  22.3228
  13504.918  13504.900  0.500  1.151347  40.1606  71.0642  22.4712
  13506.009  13506.000  0.500  1.146621  40.1717  71.0866  22.5848
  13507.124  13507.120  0.500  1.143047  40.2361  71.2117  22.7056
  13508.247  13508.260  0.500  1.140699  40.2436  71.2172  22.7607
  13509.403  13509.410  0.500  1.139741  40.2218  71.1847  22.7721
  13510.622  13510.590  0.500  1.140598  40.2117  71.1721  22.7486
  13511.793  13511.780  0.500  1.143217  40.1996  71.1527  22.6829
  13513.021  13513.000  0.500  1.147797  40.193  71.1407  22.5754
  13514.257  13514.230  0.500  1.154155  40.1786  71.1166  22.4247
  13515.485  13515.480  0.500  1.161705  40.1648  71.0909  22.248
  13516.745  13516.750  0.500  1.169368  40.1732  71.1113  22.0846
  13518.045  13518.040  0.500  1.176020  40.1357  71.0532  21.9202
  13519.378  13519.350  0.500  1.181089  40.117  71.0174  21.7984
  13520.719  13520.680  0.500  1.183564  40.1169  71.0187  21.7449
  13522.052  13522.030  0.500  1.184344  40.083  70.9633  21.711
  13523.401  13523.400  0.500  1.183291  40.0711  70.9416  21.7272
  13524.782  13524.780  0.500  1.181242  40.0876  70.9773  21.7827
  13526.188  13526.190  0.500  1.178372  40.038  70.8885  21.818
  13527.642  13527.610  0.500  1.175348  40.0217  70.8614  21.8757
  13529.080  13529.050  0.500  1.172372  40.0346  70.8855  21.9484
  13530.519  13530.510  0.500  1.169528  40.0018  70.8338  21.9948
  13531.982  13531.990  0.500  1.166830  40.0093  70.836  22.055
  13533.477  13533.490  0.500  1.164548  39.9691  70.7756  22.0865
  13535.005  13535.010  0.500  1.162568  39.9579  70.7541  22.1236
  13536.565  13536.550  0.500  1.161056  39.8709  70.6022  22.1095
  13538.125  13538.110  0.500  1.159676  39.3409  69.6753  21.8493
  13539.677  13539.680  0.500  1.158165  39.2202  69.4571  21.8138
  13541.254  13541.280  0.500  1.157174  39.8042  70.4955  22.1619
  13542.896  13542.890  0.500  1.156299  39.9243  70.7043  22.247
  13544.514  13544.530  0.500  1.155924  39.923  70.7085  22.2567
  13546.196  13546.180  0.500  1.155420  39.89  70.6579  22.252
  13547.830  13547.850  0.500  1.155056  39.9076  70.6838  22.2682
  13549.530  13549.540  0.500  1.154374  39.8513  70.5868  22.2528
  13551.221  13551.250  0.500  1.153633  39.8407  70.577  22.2662
  13552.953  13552.980  0.500  1.152524  39.805  70.5101  22.2698
  13554.726  13554.730  0.500  1.151372  39.7501  70.4208  22.2672
  13556.467  13556.490  0.500  1.150034  39.4471  69.8871  22.1281
  13558.240  13558.280  0.500  1.148293  39.1947  69.4402  22.0249
  13560.039  13560.080  0.500  1.146560  39.7522  70.4316  22.3781
  13561.901  13561.910  0.500  1.144723  39.771  70.4689  22.4311
  13563.741  13563.750  0.500  1.142714  39.779  70.4822  22.4804
  13565.605  13565.610  0.500  1.140746  39.6784  70.3015  22.467
  13567.565  13567.490  0.500  1.139116  39.5506  70.0831  22.4337
  13569.712  13569.390  0.500  1.137821  39.6986  70.3488  22.5479
  13571.248  13571.310  0.500  1.137052  39.6354  70.2404  22.5305
  13573.242  13573.250  0.500  1.136434  39.5543  70.1002  22.4995
  13575.254  13575.210  0.500  1.135889  38.9617  69.0576  22.1769
  13577.274  13577.180  0.500  1.135628  39.4559  69.9272  22.462
  13579.149  13579.180  0.500  1.135704  39.6174  70.2207  22.5546
  13581.146  13581.190  0.500  1.135907  39.6194  70.2284  22.5525
  13583.160  13583.220  0.500  1.135960  39.5813  70.1665  22.5314
  13585.231  13585.280  0.500  1.135909  39.5519  70.1104  22.5146
  13587.302  13587.350  0.500  1.135829  39.5256  70.0622  22.5009
  13589.398  13589.440  0.500  1.135659  39.4887  70.0063  22.4868
  13591.503  13591.550  0.500  1.135368  39.3935  69.8441  22.4412
  13593.641  13593.680  0.500  1.134650  39.088  69.3058  22.2842
  13595.772  13595.820  0.500  1.133882  38.8055  68.7999  22.1386
  13597.943  13597.990  0.500  1.132964  39.4214  69.8971  22.5123
  13600.148  13600.180  0.500  1.132145  39.4298  69.9163  22.5369
  13602.353  13602.380  0.500  1.131280  39.4092  69.8884  22.5474
  13604.591  13604.600  0.500  1.130776  39.3595  69.8012  22.5306
  13606.830  13606.850  0.500  1.130563  39.3554  69.7971  22.5341
  13609.086  13609.110  0.500  1.130649  39.3531  69.7908  22.5301
  13611.351  13611.390  0.500  1.131281  39.3132  69.7304  22.4964
  13613.641  13613.690  0.500  1.132034  39.2838  69.6756  22.4618
  13615.996  13616.010  0.500  1.132746  39.3106  69.7236  22.4613
  13618.320  13618.350  0.500  1.133642  39.245  69.6136  22.4058
  13620.693  13620.700  0.500  1.134132  39.2244  69.5793  22.3837
  13623.067  13623.080  0.500  1.134600  39.2082  69.559  22.3667
  13625.450  13625.470  0.500  1.134606  39.1918  69.5289  22.3569
  13627.858  13627.890  0.500  1.134438  39.1826  69.5184  22.3573
  13630.292  13630.320  0.500  1.133546  39.1437  69.4466  22.3541
  13632.759  13632.770  0.500  1.132593  39.1289  69.4286  22.3697
  13635.234  13635.250  0.500  1.131153  39.1127  69.4027  22.3935
  13637.727  13637.740  0.500  1.129610  39.0919  69.369  22.4173
  13640.262  13640.250  0.500  1.128012  39.0632  69.3251  22.4389
  13642.748  13642.770  0.500  1.126537  39.034  69.2763  22.4562
  13645.285  13645.320  0.500  1.125151  39.0324  69.2809  22.4888
  13647.887  13647.890  0.500  1.123936  38.9971  69.2145  22.4946
  13650.474  13650.470  0.500  1.122915  38.9455  69.1248  22.4884
  13653.086  13653.080  0.500  1.121901  38.6748  68.6563  22.3586
  13655.716  13655.700  0.500  1.121083  38.9477  69.1456  22.5364
  13658.339  13658.350  0.500  1.120147  38.9395  69.137  22.5547
  13660.979  13661.010  0.500  1.119031  38.8902  69.0401  22.5482
  13663.677  13663.690  0.500  1.118064  38.8705  69.0142  22.5616
  13666.392  13666.390  0.500  1.116807  38.8467  68.9832  22.5798
  13669.117  13669.110  0.500  1.115680  38.8362  68.9681  22.6003
  13671.859  13671.850  0.500  1.114778  38.8058  68.9139  22.6029
  13674.594  13674.600  0.500  1.113729  38.7857  68.8893  22.6186
  13677.380  13677.380  0.500  1.112882  38.7875  68.8857  22.6366
  13680.174  13680.170  0.500  1.112169  38.7287  68.7849  22.6195
  13682.986  13682.990  0.500  1.111465  38.704  68.7485  22.6235
  13685.832  13685.820  0.500  1.110999  38.6742  68.6988  22.6177
  13688.679  13688.670  0.500  1.110442  38.6436  68.6383  22.6104
  13691.544  13691.550  0.500  1.109900  38.6329  68.6298  22.6198
  13694.418  13694.440  0.500  1.109471  38.597  68.5744  22.6113
  13697.351  13697.350  0.500  1.109042  38.5805  68.5454  22.6114
  13700.268  13700.270  0.500  1.108649  38.5588  68.5086  22.6082
  13703.195  13703.220  0.500  1.108308  38.5176  68.4461  22.5952
  13706.197  13706.190  0.500  1.108086  38.5024  68.4177  22.5908
  13709.176  13709.170  0.500  1.108001  38.4758  68.3742  22.5784
  13712.181  13712.180  0.500  1.107842  38.455  68.3477  22.5733
  13715.195  13715.200  0.500  1.107590  38.4216  68.2875  22.5591
  13718.244  13718.250  0.500  1.106973  38.405  68.262  22.5646
  13721.326  13721.310  0.500  1.106531  38.3832  68.2284  22.5634
  13724.411  13724.390  0.500  1.105531  38.355  68.1804  22.5701
  13727.488  13727.490  0.500  1.104534  38.3228  68.1355  22.5778
  13730.616  13730.610  0.500  1.103354  38.305  68.096  22.5913
  13733.754  13733.750  0.500  1.102277  38.2683  68.0471  22.5994
  13736.918  13736.900  0.500  1.101223  38.2409  68.0019  22.6082
  13740.075  13740.080  0.500  1.100390  38.2212  67.966  22.6151
  13743.259  13743.270  0.500  1.099530  38.1922  67.9178  22.6185
  13746.526  13746.490  0.500  1.098928  38.1696  67.8806  22.6197
  13749.729  13749.720  0.500  1.098558  38.15  67.853  22.6189
  13752.958  13752.970  0.500  1.098366  38.1006  67.7744  22.597
  13756.255  13756.250  0.500  1.097897  38.0793  67.7336  22.594
  13759.570  13759.540  0.500  1.097349  38.0448  67.6801  22.5886
  13762.870  13762.850  0.500  1.096792  38.0173  67.6355  22.5862
  13766.164  13766.170  0.500  1.095925  37.9904  67.5907  22.5909
  13769.517  13769.520  0.500  1.094850  37.9728  67.5664  22.607
  13772.930  13772.890  0.500  1.093887  37.9316  67.4947  22.6048
  13776.294  13776.270  0.500  1.092789  37.8987  67.4434  22.6124
  13779.685  13779.680  0.500  1.091655  37.8985  67.4426  22.6378
  13783.103  13783.100  0.500  1.090798  37.839  67.3417  22.6233
  13786.556  13786.550  0.500  1.089902  37.8084  67.2981  22.6289
  13790.035  13790.010  0.500  1.089021  37.7725  67.2368  22.6283
  13793.491  13793.490  0.500  1.088218  37.7596  67.2238  22.6421
  13796.999  13796.990  0.500  1.087179  37.7051  67.1307  22.6342
  13800.534  13800.510  0.500  1.086401  37.6837  67.1001  22.6415
  13804.070  13804.050  0.500  1.085311  37.6561  67.0448  22.6475
  13807.617  13807.600  0.500  1.084165  37.6314  67.0057  22.6603
  13811.199  13811.180  0.500  1.083082  37.6044  66.9618  22.67
  13814.815  13814.780  0.500  1.081884  37.5654  66.8988  22.6758
  13818.418  13818.390  0.500  1.080840  37.6544  67.0675  22.7567
  13822.022  13822.020  0.500  1.079785  37.6493  67.0579  22.7775
  13825.728  13825.680  0.500  1.078996  37.6082  66.9948  22.774
  13829.369  13829.350  0.500  1.078118  37.5416  66.8855  22.7568
  13833.038  13833.040  0.500  1.077267  37.5391  66.8796  22.7742
  13836.758  13836.750  0.500  1.076634  37.5072  66.8222  22.769
  13840.498  13840.480  0.500  1.076076  37.501  66.816  22.7796
  13844.230  13844.220  0.500  1.075179  37.439  66.7124  22.7647
  13847.974  13847.990  0.500  1.074363  37.394  66.6371  22.7576
  13851.786  13851.780  0.500  1.073720  37.3453  66.5597  22.7458
  13855.618  13855.580  0.500  1.072844  37.3221  66.5191  22.7518
  13859.409  13859.410  0.500  1.072023  37.3076  66.5004  22.7641
  13863.270  13863.250  0.500  1.071092  37.2601  66.4152  22.7561
  13867.116  13867.110  0.500  1.070227  37.2074  66.3326  22.7475
  13871.007  13870.990  0.500  1.069402  37.1714  66.2757  22.7467
  13874.899  13874.890  0.500  1.068647  37.0845  66.1203  22.7106
  13878.836  13878.810  0.500  1.067757  37.023  66.0151  22.6946
  13882.775  13882.750  0.500  1.066950  36.9372  65.8688  22.6626
  13886.716  13886.710  0.500  1.065981  36.8338  65.6948  22.6246
  13890.694  13890.680  0.500  1.065028  36.7414  65.527  22.5884
  13894.707  13894.680  0.500  1.063889  36.6441  65.3551  22.5548
  13898.698  13898.690  0.500  1.062766  36.6263  65.328  22.5707
  13902.741  13902.730  0.500  1.061700  36.5817  65.2523  22.5686
  13906.821  13906.780  0.500  1.060546  36.6238  65.3382  22.6244
  13910.860  13910.850  0.500  1.059514  36.5408  65.2041  22.6013
  13914.953  13914.940  0.500  1.058534  36.5509  65.2219  22.6297
  13919.065  13919.050  0.500  1.057505  36.4596  65.0588  22.5963
  13923.205  13923.180  0.500  1.056439  36.4502  65.0541  22.6188
  13927.331  13927.330  0.500  1.055420  36.4258  65.0221  22.6307
  13931.518  13931.490  0.500  1.054298  36.4264  65.0228  22.6563
  13935.674  13935.680  0.500  1.053467  36.3971  64.9752  22.6586
  13939.901  13939.880  0.500  1.052378  36.3631  64.9188  22.6636
  13944.138  13944.110  0.500  1.051249  36.3276  64.8594  22.6684
  13948.370  13948.350  0.500  1.050152  36.2896  64.7975  22.6717
  13952.630  13952.610  0.500  1.048995  36.2595  64.7397  22.6776
  13956.926  13956.890  0.500  1.048098  36.2095  64.6676  22.6727
  13961.191  13961.190  0.500  1.047164  36.1795  64.611  22.674
  13965.527  13965.510  0.500  1.046119  36.1195  64.5108  22.6626
  13969.866  13969.850  0.500  1.045172  36.0009  64.304  22.6113
  13974.207  13974.210  0.500  1.044164  33.6825  60.1678  21.1782
  13978.611  13978.590  0.500  1.043358  36.0583  64.4193  22.693
  13983.017  13982.980  0.500  1.042245  36.0512  64.4084  22.7144
  13987.435  13987.400  0.500  1.041169  36.0132  64.346  22.7168
  13991.847  13991.830  0.500  1.040161  35.9695  64.2743  22.7144
  13996.288  13996.280  0.500  1.039016  35.9244  64.197  22.7131
  14000.740  14000.750  0.500  1.037933  35.8928  64.149  22.7207
  14005.255  14005.240  0.500  1.036826  35.8658  64.1073  22.731
  14009.773  14009.750  0.500  1.035695  35.8295  64.0494  22.7362
  14014.294  14014.280  0.500  1.034737  35.7845  63.9724  22.7307
  14018.852  14018.830  0.500  1.033723  35.7487  63.9174  22.7341
  14023.439  14023.400  0.500  1.032778  35.7049  63.8418  22.7287
  14027.977  14027.980  0.500  1.031930  35.6755  63.7914  22.7301
  14032.639  14032.590  0.500  1.030898  35.6242  63.7049  22.7227
  14037.244  14037.210  0.500  1.029788  35.6004  63.6683  22.7348
  14041.886  14041.860  0.500  1.028972  35.5511  63.591  22.7258
  14046.548  14046.520  0.500  1.027769  35.5138  63.524  22.7292
  14051.214  14051.200  0.500  1.026781  35.4838  63.4781  22.7352
  14055.926  14055.900  0.500  1.025655  35.4292  63.3781  22.725
  14060.658  14060.620  0.500  1.024602  35.3529  63.249  22.7026
  14065.351  14065.360  0.500  1.023661  35.293  63.1499  22.6883
  14070.133  14070.110  0.500  1.022534  35.0133  62.6582  22.537
  14074.901  14074.890  0.500  1.021242  33.9498  60.76  21.8826
  14079.707  14079.690  0.500  1.020320  35.3572  63.2798  22.8111
  14084.542  14084.500  0.500  1.019306  35.2171  63.0391  22.7474
  14089.337  14089.330  0.500  1.018250  35.2554  63.105  22.7952
  14094.214  14094.190  0.500  1.017176  35.2059  63.0291  22.7922
  14099.094  14099.060  0.500  1.016165  35.1263  62.8904  22.7651
  14103.986  14103.950  0.500  1.014959  35.0666  62.7952  22.7581
  14108.891  14108.860  0.500  1.013821  34.8981  62.49  22.6732
  14113.798  14113.790  0.500  1.012684  34.9185  62.5356  22.7156
  14118.771  14118.730  0.500  1.011649  33.8882  60.6949  22.0698
  14123.711  14123.700  0.500  1.010288  34.9944  62.6841  22.8242
  14128.717  14128.690  0.500  1.009233  34.9511  62.6088  22.8208
  14133.726  14133.690  0.500  1.008212  34.8978  62.523  22.8128
  14138.756  14138.720  0.500  1.007111  34.8554  62.4473  22.8103
  14143.790  14143.760  0.500  1.006013  34.8076  62.3768  22.8096
  14148.879  14148.820  0.500  1.004978  34.7752  62.3217  22.813
  14153.929  14153.900  0.500  1.003865  34.6897  62.1756  22.7849
  14159.044  14159.000  0.500  1.002676  34.5438  61.9172  22.7172
  14164.162  14164.120  0.500  1.001658  34.1874  61.287  22.5089
  14169.311  14169.260  0.500  1.000328  34.169  61.2571  22.5278
  14174.454  14174.420  0.500  0.999392  34.6499  62.1256  22.8686
  14179.628  14179.600  0.500  0.998491  34.588  62.0173  22.8493
  14184.832  14184.790  0.500  0.997383  34.552  61.9551  22.8517
  14190.066  14190.010  0.500  0.996138  34.4924  61.8567  22.8439
  14195.251  14195.240  0.500  0.995218  34.4481  61.7828  22.8376
  14200.546  14200.490  0.500  0.994237  34.4156  61.7331  22.8416
  14205.774  14205.760  0.500  0.992867  34.3674  61.6442  22.84
  14211.094  14211.050  0.500  0.991990  34.322  61.5768  22.835
  14216.383  14216.360  0.500  0.990876  34.2772  61.5041  22.8335
  14221.712  14221.690  0.500  0.989877  34.2389  61.4401  22.8325
  14227.097  14227.040  0.500  0.988589  34.2038  61.3763  22.8382
  14232.469  14232.410  0.500  0.987499  34.1428  61.2756  22.8256
  14237.836  14237.790  0.500  0.986474  34.1081  61.2141  22.8261
  14243.251  14243.200  0.500  0.985253  34.0647  61.1414  22.8268
  14248.636  14248.620  0.500  0.984347  34.023  61.0791  22.8242
  14254.122  14254.070  0.500  0.983142  33.9692  60.9895  22.8182
  14259.568  14259.530  0.500  0.981847  33.9081  60.8786  22.8062
  14265.044  14265.010  0.500  0.980848  33.8248  60.734  22.7748
  14270.552  14270.510  0.500  0.979753  31.355  56.3091  21.1386
  14276.082  14276.030  0.500  0.978545  33.8179  60.7351  22.8277
  14281.643  14281.570  0.500  0.977448  33.786  60.684  22.8336
  14287.190  14287.120  0.500  0.976363  33.7356  60.6037  22.8281
  14292.733  14292.700  0.500  0.975304  33.707  60.5591  22.8355
  14298.360  14298.300  0.500  0.974051  33.6286  60.4267  22.8141
  14303.939  14303.910  0.500  0.972818  33.6086  60.3931  22.8296
  14309.593  14309.550  0.500  0.971906  33.5611  60.3077  22.8181
  14315.261  14315.200  0.500  0.970572  33.4889  60.1864  22.8026
  14320.897  14320.870  0.500  0.969404  33.4787  60.1803  22.8269
  14326.592  14326.560  0.500  0.968398  33.4176  60.0688  22.8076