File: xdidata/Data/Er/Er-L3-ErbiumOxide.xdi
# XDI/1.0 BlueSky/1.10.0 BMM/2023-1.0-py310-tiled
# Beamline.name: BMM (06BM) -- Beamline for Materials Measurement (NIST)
# Beamline.xray_source: NSLS-II three-pole wiggler
# Beamline.collimation: paraboloid mirror, 5 nm Rh on 30 nm Pt
# Beamline.focusing: not in use
# Beamline.harmonic_rejection: flat mirror, Pt stripe, pitch = 7.0 mrad relative to beam
# Beamline.software: Bluesky 1.10.0, Ophyd 1.7.0, DataBroker 2.0.0b13, Python 3.10.8, 2023-1.0-py310-tiled
# Detector.I0: 10 cm N2
# Detector.I1: 25 cm N2
# Detector.I2: 25 cm N2
# Element.symbol: Er
# Element.edge: L3
# Element.reference: Er
# Element.reference_material: Er2O3
# Facility.name: NSLS-II
# Facility.energy: 3.0
# Facility.current: 399.7
# Facility.mode: top-off
# Facility.GUP: 301027
# Facility.SAF: 310583
# Facility.cycle: 2023-2
# Mono.name: Si(111)
# Mono.d_spacing: 3.13519
# Mono.encoder_resolution: 0.0000050 deg/ct
# Mono.angle_offset: 16.0754 deg
# Mono.scan_mode: pseudo channel cut
# Mono.scan_type: step
# Mono.direction: forward in energy
# Sample.name: Er2O3
# Sample.prep: PEG pellet
# Sample.x: 109.138 mm
# Sample.y: 153.150 mm
# Sample.SDD_position: 205.000 mm
# Scan.experimenters: Bruce Ravel
# Scan.edge_energy: 8357.9
# Scan.start_time: 2023-05-28T15:06:19
# Scan.end_time: 2023-05-28T15:14:14
# Scan.transient_id: 78784
# Scan.uid: 55ed502f-0ccd-4cb3-8f53-ce5b6a5c8679
# Scan.plot_hint: ln(It/Ir)  --  ln($6/$7)
# Column.1: energy eV
# Column.2: requested_energy eV
# Column.3: measurement_time seconds
# Column.4: xmu
# Column.5: I0 nA
# Column.6: It nA
# Column.7: Ir nA
# ///////////
# sample courtesy Martin Stennett, University of Sheffield
# -----------
# energy  requested_energy  measurement_time  xmu  I0  It  Ir
  8157.914  8157.900  0.500  1.121404  134.736  167.766  54.662
  8167.912  8167.900  0.500  1.117481  134.617  167.921  54.9273
  8177.961  8177.900  0.500  1.113461  134.465  168.001  55.175
  8187.923  8187.900  0.500  1.109507  134.296  168.091  55.4231
  8197.933  8197.900  0.500  1.105517  134.178  168.189  55.6773
  8207.955  8207.900  0.500  1.101651  134.035  168.305  55.9313
  8217.940  8217.900  0.500  1.097682  133.89  168.373  56.1764
  8227.937  8227.900  0.500  1.093889  133.787  168.504  56.4339
  8237.932  8237.900  0.500  1.090087  133.63  168.582  56.6753
  8247.920  8247.900  0.500  1.086233  133.51  168.677  56.9261
  8257.913  8257.900  0.500  1.082410  133.342  168.725  57.1602
  8267.916  8267.900  0.500  1.078727  133.187  168.816  57.4022
  8277.915  8277.900  0.500  1.074952  132.89  168.695  57.5781
  8287.918  8287.900  0.500  1.071501  132.878  168.952  57.8652
  8297.919  8297.900  0.500  1.068005  132.752  169.052  58.102
  8307.913  8307.900  0.500  1.064974  132.613  169.162  58.3165
  8317.914  8317.900  0.500  1.062298  132.444  169.19  58.4823
  8327.904  8327.900  0.500  1.060723  132.296  169.268  58.6015
  8329.896  8329.900  0.500  1.060649  132.27  169.282  58.6106
  8331.884  8331.900  0.500  1.060838  132.22  169.316  58.6114
  8333.885  8333.900  0.500  1.061153  132.091  169.176  58.5443
  8335.886  8335.900  0.500  1.061617  131.99  169.109  58.4942
  8337.886  8337.900  0.500  1.062449  131.96  169.117  58.4482
  8339.889  8339.900  0.500  1.063795  131.896  169.063  58.351
  8341.885  8341.900  0.500  1.065553  131.821  169.052  58.2448
  8343.887  8343.900  0.500  1.068458  131.765  169.014  58.0626
  8345.891  8345.900  0.500  1.072617  131.693  168.968  57.8058
  8347.889  8347.900  0.500  1.079426  131.638  168.954  57.409
  8348.176  8348.200  0.500  1.080716  131.607  168.94  57.3303
  8348.472  8348.500  0.500  1.082138  131.591  168.866  57.2235
  8348.774  8348.800  0.500  1.083679  131.551  168.833  57.1243
  8349.073  8349.100  0.500  1.085383  131.673  169.012  57.0877
  8349.372  8349.400  0.500  1.087264  131.908  169.301  57.0778
  8349.683  8349.700  0.500  1.089489  131.887  169.291  56.9475
  8349.979  8350.000  0.500  1.091731  131.872  169.292  56.8204
  8350.284  8350.300  0.500  1.094326  131.864  169.309  56.6787
  8350.577  8350.600  0.500  1.097247  131.844  169.288  56.5063
  8350.885  8350.900  0.500  1.100401  131.794  169.231  56.3094
  8351.187  8351.200  0.500  1.103959  131.784  169.236  56.111
  8351.483  8351.500  0.500  1.107416  131.761  169.187  55.9014
  8351.791  8351.800  0.500  1.111346  131.74  169.166  55.6752
  8352.081  8352.100  0.500  1.115009  131.7  169.14  55.4632
  8352.386  8352.400  0.500  1.118984  131.693  169.144  55.2444
  8352.682  8352.700  0.500  1.122628  131.671  169.132  55.0395
  8352.984  8353.000  0.500  1.126290  131.65  169.089  54.8244
  8353.283  8353.300  0.500  1.129902  131.628  169.074  54.622
  8353.577  8353.600  0.500  1.133667  131.613  169.069  54.4149
  8353.882  8353.900  0.500  1.137695  131.594  169.062  54.1941
  8354.178  8354.200  0.500  1.141995  131.602  169.061  53.9612
  8354.486  8354.500  0.500  1.147168  131.597  169.082  53.6895
  8354.780  8354.800  0.500  1.152789  131.569  169.054  53.3797
  8355.082  8355.100  0.500  1.159504  131.574  169.059  53.024
  8355.387  8355.400  0.500  1.167439  131.578  169.064  52.6063
  8355.693  8355.700  0.500  1.176532  131.603  169.117  52.1465
  8355.998  8356.000  0.500  1.187332  131.6  169.125  51.589
  8356.298  8356.300  0.500  1.199688  131.591  169.131  50.9571
  8356.588  8356.600  0.500  1.213647  131.563  169.099  50.2414
  8356.902  8356.900  0.500  1.230991  131.563  169.105  49.3791
  8357.193  8357.200  0.500  1.249386  131.563  169.105  48.4791
  8357.489  8357.500  0.500  1.270331  131.548  169.096  47.4718
  8357.801  8357.800  0.500  1.294755  131.545  169.072  46.3199
  8358.092  8358.100  0.500  1.320445  131.54  169.089  45.1495
  8358.382  8358.400  0.500  1.349441  131.536  169.085  43.8582
  8358.691  8358.700  0.500  1.383140  131.535  169.067  42.4004
  8358.984  8359.000  0.500  1.418249  131.536  169.106  40.947
  8359.290  8359.300  0.500  1.456851  131.524  169.098  39.3945
  8359.590  8359.600  0.500  1.495002  131.523  169.071  37.9139
  8359.895  8359.900  0.500  1.532781  131.512  169.061  36.5061
  8360.195  8360.200  0.500  1.568192  131.522  169.135  35.2515
  8360.501  8360.500  0.500  1.600060  131.52  169.119  34.1424
  8360.803  8360.800  0.500  1.626870  131.537  169.119  33.2392
  8361.103  8361.100  0.500  1.648782  131.503  169.094  32.5141
  8361.394  8361.400  0.500  1.666517  131.506  169.104  31.9445
  8361.703  8361.700  0.500  1.681281  131.484  169.072  31.4703
  8361.991  8362.000  0.500  1.692849  131.481  169.111  31.1155
  8362.296  8362.300  0.500  1.702649  131.481  169.134  30.8162
  8362.590  8362.600  0.500  1.710640  131.515  169.178  30.5789
  8362.899  8362.900  0.500  1.716965  131.48  169.142  30.3796
  8363.190  8363.200  0.500  1.720911  131.489  169.162  30.2636
  8363.496  8363.500  0.500  1.722263  131.499  169.174  30.2249
  8363.793  8363.800  0.500  1.720337  131.474  169.164  30.2813
  8364.102  8364.100  0.500  1.714723  131.467  169.161  30.4512
  8364.405  8364.400  0.500  1.705255  131.472  169.179  30.7443
  8364.702  8364.700  0.500  1.691801  131.463  169.131  31.1519
  8365.008  8365.000  0.500  1.674187  131.444  169.145  31.708
  8365.299  8365.300  0.500  1.653955  131.436  169.144  32.3558
  8365.602  8365.600  0.500  1.631164  131.443  169.152  33.1033
  8365.894  8365.900  0.500  1.607413  131.445  169.16  33.9006
  8366.188  8366.200  0.500  1.582580  131.446  169.144  34.7497
  8366.497  8366.500  0.500  1.556952  131.425  169.13  35.6487
  8366.791  8366.800  0.500  1.533240  131.404  169.116  36.5012
  8367.103  8367.100  0.500  1.509613  131.425  169.143  37.3798
  8367.400  8367.400  0.500  1.488114  131.418  169.177  38.1998
  8367.704  8367.700  0.500  1.467683  131.405  169.142  38.9803
  8368.001  8368.000  0.500  1.449126  131.417  169.192  39.722
  8368.301  8368.300  0.500  1.432570  131.417  169.172  40.3805
  8368.596  8368.600  0.500  1.417737  131.41  169.16  40.981
  8368.899  8368.900  0.500  1.404381  131.388  169.156  41.5309
  8369.208  8369.200  0.500  1.392957  131.397  169.173  42.0125
  8369.506  8369.500  0.500  1.383123  131.362  169.13  42.4167
  8369.797  8369.800  0.500  1.374534  131.368  169.135  42.7839
  8370.098  8370.100  0.500  1.367160  131.367  169.155  43.1056
  8370.395  8370.400  0.500  1.360295  131.366  169.19  43.4118
  8370.692  8370.700  0.500  1.354067  131.374  169.2  43.6853
  8370.993  8371.000  0.500  1.348209  131.359  169.162  43.9323
  8371.306  8371.300  0.500  1.342812  131.359  169.162  44.17
  8371.609  8371.600  0.500  1.338005  131.331  169.174  44.386
  8371.910  8371.900  0.500  1.333581  131.309  169.165  44.5803
  8372.204  8372.200  0.500  1.329669  131.333  169.152  44.7517
  8372.505  8372.500  0.500  1.326098  131.317  169.153  44.912
  8372.805  8372.800  0.500  1.322900  131.333  169.191  45.0659
  8373.103  8373.100  0.500  1.319986  131.311  169.171  45.1921
  8373.404  8373.400  0.500  1.317369  131.282  169.125  45.2984
  8373.702  8373.700  0.500  1.315094  131.281  169.147  45.4075
  8373.999  8374.000  0.500  1.312934  131.273  169.163  45.5099
  8374.297  8374.300  0.500  1.311233  131.281  169.197  45.5966
  8374.592  8374.600  0.500  1.309662  131.276  169.166  45.6598
  8374.899  8374.900  0.500  1.308318  131.276  169.189  45.7273
  8375.193  8375.200  0.500  1.307227  131.248  169.152  45.7672
  8375.506  8375.500  0.500  1.306459  131.268  169.197  45.8146
  8375.804  8375.800  0.500  1.305877  131.257  169.19  45.8394
  8376.111  8376.100  0.500  1.305665  131.25  169.193  45.8501
  8376.406  8376.400  0.500  1.305679  131.243  169.194  45.8497
  8376.698  8376.700  0.500  1.305917  131.233  169.192  45.8382
  8377.002  8377.000  0.500  1.306398  131.229  169.18  45.8129
  8377.300  8377.300  0.500  1.307104  131.223  169.172  45.7784
  8377.604  8377.600  0.500  1.307908  131.216  169.163  45.7393
  8377.902  8377.900  0.500  1.308778  131.205  169.183  45.7048
  8378.197  8378.200  0.500  1.309679  131.212  169.152  45.6552
  8378.495  8378.500  0.500  1.310741  131.219  169.206  45.6213
  8378.793  8378.800  0.500  1.311588  131.202  169.201  45.5814
  8379.100  8379.100  0.500  1.312398  131.204  169.219  45.5493
  8379.404  8379.400  0.500  1.313077  131.187  169.164  45.5036
  8379.702  8379.700  0.500  1.313654  131.18  169.173  45.4798
  8380.003  8380.000  0.500  1.313973  131.173  169.187  45.4691
  8380.292  8380.300  0.500  1.314066  131.166  169.196  45.4673
  8380.597  8380.600  0.500  1.314084  131.172  169.212  45.4707
  8380.904  8380.900  0.500  1.313862  131.156  169.19  45.4748
  8381.205  8381.200  0.500  1.313520  131.136  169.177  45.4869
  8381.491  8381.500  0.500  1.312976  131.141  169.199  45.5177
  8381.790  8381.800  0.500  1.312347  131.133  169.188  45.5434
  8382.097  8382.100  0.500  1.311496  131.139  169.186  45.5816
  8382.392  8382.400  0.500  1.310587  131.128  169.161  45.6162
  8382.691  8382.700  0.500  1.309589  131.112  169.176  45.6657
  8382.890  8382.900  0.500  1.308794  131.111  169.179  45.7031
  8383.878  8383.890  0.500  1.304877  131.073  169.168  45.8793
  8385.048  8384.890  0.500  1.301211  131.047  169.152  46.0435
  8385.986  8385.910  0.500  1.299591  131.027  169.151  46.1179
  8386.954  8386.960  0.500  1.300103  130.952  169.084  46.0759
  8388.029  8388.020  0.500  1.303222  130.971  169.125  45.9437
  8389.109  8389.100  0.500  1.308262  130.916  169.102  45.7065
  8390.208  8390.200  0.500  1.314499  130.871  169.054  45.4095
  8391.331  8391.320  0.500  1.321103  130.856  169.071  45.1151
  8392.470  8392.460  0.500  1.328243  130.825  169.066  44.7926
  8393.621  8393.610  0.500  1.336129  130.812  169.067  44.4412
  8394.806  8394.790  0.500  1.344893  130.806  169.097  44.0613
  8395.991  8395.980  0.500  1.354163  130.753  169.05  43.6424
  8397.207  8397.200  0.500  1.362387  130.736  169.046  43.284
  8398.435  8398.430  0.500  1.368286  130.709  169.058  43.0325
  8399.682  8399.680  0.500  1.370712  130.703  169.074  42.9324
  8400.959  8400.950  0.500  1.369457  130.656  169.042  42.9781
  8402.249  8402.240  0.500  1.365109  130.62  169.057  43.1691
  8403.551  8403.550  0.500  1.358907  130.62  169.07  43.441
  8404.887  8404.880  0.500  1.351682  130.61  169.077  43.758
  8406.239  8406.230  0.500  1.344614  130.565  169.053  44.062
  8407.609  8407.600  0.500  1.338066  130.551  169.058  44.3527
  8408.986  8408.980  0.500  1.332735  130.529  169.112  44.604
  8410.385  8410.390  0.500  1.328579  130.52  169.1  44.7866
  8411.820  8411.810  0.500  1.324919  130.508  169.129  44.9586
  8413.268  8413.250  0.500  1.321386  130.461  169.101  45.1103
  8414.714  8414.710  0.500  1.317957  130.442  169.133  45.2738
  8416.187  8416.190  0.500  1.314826  130.415  169.13  45.415
  8417.704  8417.690  0.500  1.312107  130.39  169.13  45.5386
  8419.227  8419.210  0.500  1.309955  130.345  169.112  45.6317
  8420.757  8420.750  0.500  1.308063  130.333  169.141  45.7261
  8422.306  8422.310  0.500  1.306333  130.284  169.116  45.7984
  8423.894  8423.880  0.500  1.304806  130.282  169.157  45.8796
  8425.490  8425.480  0.500  1.303612  130.242  169.14  45.9298
  8427.095  8427.090  0.500  1.302824  130.237  169.167  45.9733
  8428.732  8428.730  0.500  1.302425  130.223  169.188  45.9975
  8430.393  8430.380  0.500  1.302736  130.146  169.121  45.9649
  8432.058  8432.050  0.500  1.303538  130.122  169.119  45.9276
  8433.746  8433.740  0.500  1.305113  130.099  169.132  45.8589
  8435.458  8435.450  0.500  1.307078  130.059  169.121  45.7657
  8437.192  8437.180  0.500  1.309430  130.038  169.143  45.6642
  8438.937  8438.930  0.500  1.311827  130.411  169.696  45.7039
  8440.697  8440.690  0.500  1.314042  130.413  169.751  45.6175
  8442.486  8442.480  0.500  1.315900  130.398  169.766  45.5367
  8444.290  8444.280  0.500  1.317221  130.393  169.817  45.4903
  8446.108  8446.110  0.500  1.318049  130.342  169.75  45.4347
  8447.948  8447.950  0.500  1.318138  130.302  169.709  45.4198
  8449.811  8449.810  0.500  1.317880  130.279  169.745  45.4412
  8451.704  8451.690  0.500  1.317038  130.222  169.743  45.479
  8453.593  8453.590  0.500  1.316160  130.19  169.746  45.5196
  8455.522  8455.510  0.500  1.315334  130.176  169.761  45.5612
  8457.455  8457.450  0.500  1.314682  130.152  169.794  45.5997
  8459.408  8459.410  0.500  1.314146  130.091  169.773  45.6186
  8461.392  8461.380  0.500  1.313534  130.069  169.776  45.6473
  8463.399  8463.380  0.500  1.312547  130.04  169.769  45.6906
  8465.400  8465.390  0.500  1.311549  129.98  169.731  45.7259
  8467.434  8467.420  0.500  1.310351  129.949  169.743  45.7841
  8469.480  8469.480  0.500  1.309450  129.916  169.763  45.8306
  8471.559  8471.550  0.500  1.308605  129.868  169.767  45.8706
  8473.654  8473.640  0.500  1.307957  129.823  169.782  45.9043
  8475.759  8475.750  0.500  1.307273  129.779  169.732  45.9222
  8477.896  8477.880  0.500  1.306205  129.766  169.745  45.9749
  8480.028  8480.020  0.500  1.304747  129.73  169.781  46.0517
  8482.210  8482.190  0.500  1.302359  129.705  169.828  46.1744
  8484.388  8484.380  0.500  1.299489  129.666  169.813  46.3031
  8486.597  8486.580  0.500  1.296326  129.598  169.788  46.4429
  8488.814  8488.800  0.500  1.293065  129.546  169.777  46.5917
  8491.057  8491.050  0.500  1.289758  129.501  169.778  46.7462
  8493.320  8493.310  0.500  1.287051  129.459  169.78  46.8736
  8495.603  8495.590  0.500  1.285135  129.417  169.782  46.9639
  8497.911  8497.890  0.500  1.284603  129.377  169.763  46.9838
  8500.212  8500.210  0.500  1.285194  129.333  169.773  46.9588
  8502.560  8502.550  0.500  1.286066  129.29  169.763  46.9151
  8504.910  8504.900  0.500  1.286846  129.25  169.76  46.8777
  8507.301  8507.280  0.500  1.287346  129.194  169.761  46.8545
  8509.682  8509.670  0.500  1.287584  129.145  169.74  46.8376
  8512.104  8512.090  0.500  1.287883  129.108  169.735  46.8221
  8514.537  8514.520  0.500  1.288325  129.071  169.752  46.8062
  8516.974  8516.970  0.500  1.289245  129.014  169.74  46.7598
  8519.460  8519.450  0.500  1.290652  128.955  169.733  46.692
  8521.950  8521.940  0.500  1.291886  128.907  169.735  46.635
  8524.467  8524.450  0.500  1.292688  128.809  169.662  46.5777
  8526.989  8526.970  0.500  1.292516  128.595  169.443  46.5254
  8529.537  8529.520  0.500  1.291253  127.004  167.355  46.0104
  8532.108  8532.090  0.500  1.288845  117.185  154.48  42.573
  8534.681  8534.670  0.500  1.285691  128.012  168.823  46.6726
  8537.293  8537.280  0.500  1.282494  128.413  169.412  46.9856
  8539.913  8539.900  0.500  1.279700  128.436  169.509  47.1439
  8542.569  8542.550  0.500  1.277632  128.449  169.604  47.2681
  8545.221  8545.210  0.500  1.276132  128.391  169.579  47.3321
  8547.909  8547.890  0.500  1.275022  128.339  169.568  47.3816
  8550.604  8550.590  0.500  1.274510  128.317  169.623  47.4211
  8553.333  8553.310  0.500  1.274219  128.264  169.622  47.4346
  8556.064  8556.050  0.500  1.273985  128.202  169.592  47.4374
  8558.828  8558.800  0.500  1.273653  128.152  169.611  47.4584
  8561.591  8561.580  0.500  1.273362  128.115  169.613  47.4728
  8564.393  8564.370  0.500  1.272952  128.033  169.566  47.4792
  8567.213  8567.190  0.500  1.272555  127.979  169.543  47.4916
  8570.041  8570.020  0.500  1.271936  127.928  169.554  47.5241
  8572.887  8572.870  0.500  1.270956  127.875  169.567  47.5743
  8575.763  8575.750  0.500  1.269308  127.765  169.493  47.6319
  8578.660  8578.640  0.500  1.267118  127.684  169.444  47.7225
  8581.553  8581.550  0.500  1.264863  127.579  169.34  47.801
  8584.493  8584.470  0.500  1.262744  127.445  169.231  47.8715
  8587.431  8587.420  0.500  1.260909  127.241  169.052  47.9088
  8590.396  8590.390  0.500  1.259434  126.548  168.21  47.7405
  8593.380  8593.370  0.500  1.258256  110.046  146.335  41.5811
  8596.387  8596.380  0.500  1.257290  126.839  168.739  47.9935
  8599.413  8599.400  0.500  1.256812  127.166  169.234  48.1571
  8602.454  8602.450  0.500  1.256468  127.057  169.142  48.1476
  8605.516  8605.510  0.500  1.256275  126.882  168.981  48.111
  8608.606  8608.590  0.500  1.255933  126.61  168.687  48.0436
  8611.698  8611.690  0.500  1.255502  126.102  168.066  47.8875
  8614.834  8614.810  0.500  1.255047  124.586  166.135  47.3588
  8617.953  8617.950  0.500  1.254582  99.2813  132.45  37.7742
  8621.116  8621.100  0.500  1.253945  127.949  170.751  48.7284
  8624.291  8624.280  0.500  1.253169  127.939  170.817  48.785
  8627.481  8627.470  0.500  1.252079  127.633  170.49  48.7449
  8630.702  8630.690  0.500  1.250742  127.409  170.268  48.7464
  8633.932  8633.920  0.500  1.249456  127.193  170.037  48.743
  8637.174  8637.170  0.500  1.248159  126.928  169.761  48.7271
  8640.464  8640.450  0.500  1.246666  126.293  168.957  48.5686
  8643.750  8643.740  0.500  1.245057  110.657  148.109  42.6443
  8647.067  8647.050  0.500  1.243111  126.577  169.527  48.9059
  8650.377  8650.370  0.500  1.241252  126.855  169.978  49.1274
  8653.725  8653.720  0.500  1.239331  126.79  169.969  49.2192
  8657.102  8657.090  0.500  1.237649  126.699  169.919  49.2875
  8660.475  8660.470  0.500  1.236520  126.62  169.886  49.3336
  8663.876  8663.880  0.500  1.235458  126.529  169.862  49.3793
  8667.316  8667.300  0.500  1.234511  126.448  169.787  49.4042
  8670.752  8670.750  0.500  1.233735  126.363  169.74  49.4287
  8674.223  8674.210  0.500  1.232991  126.294  169.733  49.4635
  8677.710  8677.690  0.500  1.231990  126.214  169.716  49.5081
  8681.203  8681.190  0.500  1.230858  126.13  169.684  49.5547
  8684.735  8684.710  0.500  1.229590  126.061  169.636  49.6035
  8688.266  8688.250  0.500  1.227930  125.986  169.661  49.6934
  8691.810  8691.800  0.500  1.226290  125.91  169.637  49.7678
  8695.386  8695.380  0.500  1.224695  125.81  169.551  49.8222
  8698.992  8698.980  0.500  1.223338  125.69  169.49  49.8718
  8702.600  8702.590  0.500  1.222009  125.496  169.292  49.8799
  8706.241  8706.220  0.500  1.220828  124.065  167.457  49.3974
  8709.891  8709.880  0.500  1.219822  122.356  165.226  48.7885
  8713.574  8713.550  0.500  1.218773  125.251  169.227  50.0221
  8717.257  8717.240  0.500  1.217708  125.307  169.398  50.1262
  8720.969  8720.950  0.500  1.216222  125.246  169.327  50.1798
  8724.701  8724.680  0.500  1.214728  125.19  169.372  50.2681
  8728.443  8728.420  0.500  1.213197  125.104  169.334  50.3338
  8732.207  8732.190  0.500  1.211944  125.035  169.329  50.3954
  8736.021  8735.980  0.500  1.210811  124.944  169.283  50.4387
  8739.792  8739.780  0.500  1.209836  124.865  169.267  50.4831
  8743.620  8743.610  0.500  1.208856  124.794  169.237  50.5237
  8747.493  8747.450  0.500  1.207781  124.705  169.169  50.5578
  8751.324  8751.310  0.500  1.206714  124.611  169.125  50.5987
  8755.204  8755.190  0.500  1.205395  124.528  169.107  50.66
  8759.112  8759.090  0.500  1.204063  124.447  169.106  50.7271
  8763.026  8763.010  0.500  1.202555  124.346  169.065  50.7914
  8766.973  8766.950  0.500  1.201065  124.269  169.002  50.8481
  8770.931  8770.910  0.500  1.199566  124.196  169.011  50.9273
  8774.898  8774.880  0.500  1.197914  124.107  168.99  51.0051
  8778.900  8778.880  0.500  1.196236  124.003  168.943  51.0765
  8782.912  8782.890  0.500  1.194610  123.9  168.846  51.1302
  8786.950  8786.930  0.500  1.193082  123.8  168.804  51.1957
  8791.003  8790.980  0.500  1.191345  123.698  168.739  51.2649
  8795.073  8795.050  0.500  1.189579  123.598  168.701  51.344
  8799.166  8799.140  0.500  1.187791  123.505  168.665  51.4249
  8803.267  8803.250  0.500  1.186050  123.425  168.634  51.505
  8807.402  8807.380  0.500  1.184526  123.326  168.584  51.5682
  8811.554  8811.530  0.500  1.183201  123.231  168.539  51.6228
  8815.714  8815.690  0.500  1.182090  123.141  168.519  51.6743
  8819.897  8819.880  0.500  1.181090  123.041  168.459  51.7076
  8824.108  8824.080  0.500  1.180269  122.944  168.411  51.7353
  8828.334  8828.310  0.500  1.179232  122.848  168.384  51.7807
  8832.576  8832.550  0.500  1.178116  122.755  168.338  51.8244
  8836.830  8836.810  0.500  1.176763  122.671  168.301  51.883
  8841.118  8841.090  0.500  1.175204  122.576  168.25  51.9481
  8845.418  8845.390  0.500  1.173565  122.472  168.204  52.0193
  8849.738  8849.710  0.500  1.171874  122.378  168.156  52.0925
  8854.076  8854.050  0.500  1.170165  122.285  168.122  52.171
  8858.426  8858.410  0.500  1.168502  122.184  168.062  52.2392
  8862.817  8862.790  0.500  1.166800  122.063  167.97  52.2994
  8867.202  8867.180  0.500  1.165188  121.969  167.935  52.373
  8871.615  8871.600  0.500  1.163569  121.866  167.9  52.4467
  8876.050  8876.030  0.500  1.161876  121.749  167.831  52.5141
  8880.510  8880.480  0.500  1.160127  121.659  167.779  52.5896
  8884.967  8884.950  0.500  1.158316  121.56  167.737  52.6719
  8889.457  8889.440  0.500  1.156645  121.447  167.664  52.7369
  8893.975  8893.950  0.500  1.155226  121.332  167.586  52.7872
  8898.504  8898.480  0.500  1.153918  121.222  167.54  52.8419
  8903.052  8903.030  0.500  1.152702  121.103  167.451  52.8781
  8907.621  8907.600  0.500  1.151768  120.956  167.349  52.8953
  8912.199  8912.180  0.500  1.150767  120.484  166.79  52.7713
  8916.809  8916.790  0.500  1.149760  120.588  167.033  52.9016
  8921.434  8921.410  0.500  1.148426  120.678  167.239  53.0375
  8926.088  8926.060  0.500  1.146719  120.676  167.324  53.1552
  8930.741  8930.720  0.500  1.144805  120.003  166.483  52.989
  8935.415  8935.400  0.500  1.142764  120.426  167.149  53.31
  8940.115  8940.100  0.500  1.140774  120.295  167.056  53.3862
  8944.841  8944.820  0.500  1.138670  120.195  167.015  53.4855
  8949.586  8949.560  0.500  1.136663  120.081  166.958  53.5748
  8954.336  8954.310  0.500  1.134630  119.942  166.827  53.6417
  8959.108  8959.090  0.500  1.132883  119.84  166.771  53.7176
  8963.906  8963.890  0.500  1.131237  119.728  166.735  53.7943
  8968.710  8968.700  0.500  1.129616  119.931  167.12  54.0061
  8973.553  8973.530  0.500  1.128097  119.852  167.094  54.0797
  8978.413  8978.390  0.500  1.126730  119.745  167.03  54.1331
  8983.277  8983.260  0.500  1.125622  119.386  166.62  54.0599
  8988.168  8988.150  0.500  1.124354  119.446  166.797  54.1861
  8993.079  8993.060  0.500  1.123049  119.161  166.497  54.1591
  8998.002  8997.990  0.500  1.121680  119.219  166.661  54.2868
  9002.940  9002.930  0.500  1.120261  118.451  165.678  54.0434
  9007.923  9007.900  0.500  1.118850  118.957  166.5  54.388
  9012.915  9012.890  0.500  1.117294  118.802  166.378  54.433
  9017.916  9017.890  0.500  1.115598  118.711  166.339  54.5127
  9022.941  9022.920  0.500  1.113740  118.681  166.381  54.6277
  9027.978  9027.960  0.500  1.111667  118.553  166.295  54.7126
  9033.042  9033.020  0.500  1.109540  118.426  166.212  54.8018
  9038.115  9038.100  0.500  1.107574  118.29  166.108  54.8755
  9043.216  9043.200  0.500  1.105581  117.636  165.286  54.7127
  9048.336  9048.320  0.500  1.103798  118.005  165.898  55.0132
  9053.473  9053.460  0.500  1.102096  117.884  165.821  55.0815
  9058.641  9058.620  0.500  1.100443  117.762  165.734  55.1438
  9063.807  9063.800  0.500  1.098750  116.462  164.014  54.6638
  9069.001  9068.990  0.500  1.097078  117.483  165.539  55.2643
  9074.219  9074.210  0.500  1.095555  117.369  165.505  55.3373
  9079.439  9079.440  0.500  1.094116  117.247  165.392  55.3789
  9084.701  9084.690  0.500  1.092578  117.052  165.214  55.4046
  9089.980  9089.960  0.500  1.091218  116.959  165.181  55.4691
  9095.265  9095.250  0.500  1.089771  116.846  165.132  55.5329
  9100.575  9100.560  0.500  1.088279  116.723  165.026  55.5801
  9105.898  9105.890  0.500  1.086452  116.434  164.699  55.5714
  9111.248  9111.240  0.500  1.084568  116.439  164.795  55.7085
  9116.631  9116.610  0.500  1.082492  116.308  164.715  55.7973
  9122.005  9121.990  0.500  1.080533  116.177  164.64  55.8813
  9127.422  9127.400  0.500  1.078572  116.031  164.534  55.955
  9132.831  9132.820  0.500  1.076712  115.878  164.399  56.013
  9138.275  9138.270  0.500  1.074797  115.713  164.249  56.0692
  9143.748  9143.730  0.500  1.072987  115.043  163.396  55.8792
  9149.235  9149.210  0.500  1.070960  115.553  164.23  56.2783
  9154.728  9154.710  0.500  1.069205  115.277  163.928  56.2733
  9160.250  9160.230  0.500  1.067414  115.33  164.109  56.4367
  9165.771  9165.770  0.500  1.065753  115.037  163.74  56.4033
  9171.332  9171.320  0.500  1.064066  115.098  163.942  56.5681
  9176.922  9176.900  0.500  1.062546  114.861  163.721  56.578
  9182.522  9182.500  0.500  1.060919  111.001  158.31  54.7971
  9188.126  9188.110  0.500  1.059271  114.664  163.644  56.7366
  9193.769  9193.750  0.500  1.057614  114.468  163.468  56.7699
  9199.416  9199.400  0.500  1.055811  114.267  163.27  56.8033
  9205.091  9205.070  0.500  1.053969  114.107  163.107  56.8511
  9210.785  9210.760  0.500  1.052160  113.945  162.985  56.9115