File: xdidata/Data/Er/Er-L3-Er2O3.xdi
# XDI/1.0 BlueSky/1.10.0 BMM/2023-1.0-py310-tiled
# Beamline.name: BMM (06BM) -- Beamline for Materials Measurement (NIST)
# Beamline.xray_source: NSLS-II three-pole wiggler
# Beamline.collimation: paraboloid mirror, 5 nm Rh on 30 nm Pt
# Beamline.focusing: not in use
# Beamline.harmonic_rejection: flat mirror, Pt stripe, pitch = 7.0 mrad relative to beam
# Beamline.software: Bluesky 1.10.0, Ophyd 1.7.0, DataBroker 2.0.0b13, Python 3.10.8, 2023-1.0-py310-tiled
# Detector.I0: 10 cm N2
# Detector.I1: 25 cm N2
# Detector.I2: 25 cm N2
# Element.symbol: Er
# Element.edge: L3
# Element.reference: Er
# Element.reference_material: Er2O3
# Facility.name: NSLS-II
# Facility.energy: 3.0
# Facility.current: 399.3
# Facility.mode: top-off
# Facility.GUP: 123456
# Facility.SAF: 301027
# Facility.cycle: 2023-2
# Mono.name: Si(111)
# Mono.d_spacing: 3.13519
# Mono.encoder_resolution: 0.0000050 deg/ct
# Mono.angle_offset: 16.0754 deg
# Mono.scan_mode: pseudo channel cut
# Mono.scan_type: step
# Mono.direction: forward in energy
# Sample.name: Er2O3
# Sample.prep: Powder in PEG pellet
# Sample.x: 123.848 mm
# Sample.y: 114.690 mm
# Sample.SDD_position: 205.000 mm
# Scan.experimenters: Bruce Ravel
# Scan.edge_energy: 8357.9
# Scan.start_time: 2023-05-08T19:06:25
# Scan.end_time: 2023-05-08T19:12:21
# Scan.transient_id: 75521
# Scan.uid: 779a3337-3817-4134-95b5-ebf0a9af7930
# Scan.plot_hint: ln(I0/It)  --  ln($5/$6)
# Column.1: energy eV
# Column.2: requested_energy eV
# Column.3: measurement_time seconds
# Column.4: xmu
# Column.5: I0 nA
# Column.6: It nA
# Column.7: Ir nA
# ///////////
# sample courtesy Martin Stennett, University of Sheffield
# -----------
# energy  requested_energy  measurement_time  xmu  I0  It  Ir
  8157.917  8157.900  0.500  1.404250  134.929  33.1319  13.2159
  8167.918  8167.900  0.500  1.397199  134.783  33.3302  13.3404
  8177.964  8177.900  0.500  1.390026  134.626  33.5312  13.4633
  8187.955  8187.900  0.500  1.382706  134.474  33.7394  13.5911
  8197.945  8197.900  0.500  1.375505  134.312  33.9423  13.7169
  8207.926  8207.900  0.500  1.368430  134.149  34.1418  13.8424
  8217.926  8217.900  0.500  1.361514  133.965  34.3316  13.9644
  8227.931  8227.900  0.500  1.354479  133.814  34.535  14.0894
  8237.920  8237.900  0.500  1.347389  133.654  34.7392  14.2167
  8247.923  8247.900  0.500  1.340608  133.48  34.93  14.3402
  8258.091  8257.900  0.500  1.333778  133.262  35.1118  14.4593
  8269.073  8267.900  0.500  1.326510  133.087  35.3216  14.5962
  8277.885  8277.900  0.500  1.320806  132.165  35.2776  14.6153
  8287.882  8287.900  0.500  1.314494  132.721  35.6502  14.8138
  8297.887  8297.900  0.500  1.308703  132.563  35.8146  14.9224
  8307.889  8307.900  0.500  1.303677  132.373  35.9434  15.0139
  8317.884  8317.900  0.500  1.300214  132.203  36.0217  15.0743
  8327.889  8327.900  0.500  1.300022  132.011  35.9763  15.0671
  8329.882  8329.900  0.500  1.301005  131.961  35.9274  15.045
  8331.881  8331.900  0.500  1.302083  131.888  35.8689  15.0178
  8333.879  8333.900  0.500  1.303862  131.74  35.7649  14.9675
  8335.877  8335.900  0.500  1.306285  131.645  35.6527  14.9097
  8337.880  8337.900  0.500  1.309874  131.607  35.5146  14.8359
  8339.880  8339.900  0.500  1.314585  131.534  35.3283  14.736
  8341.882  8341.900  0.500  1.321355  131.46  35.0699  14.5978
  8343.884  8343.900  0.500  1.331106  131.384  34.7098  14.4032
  8345.885  8345.900  0.500  1.345684  131.327  34.1925  14.1214
  8347.880  8347.900  0.500  1.368235  131.241  33.4081  13.694
  8348.373  8348.400  0.500  1.375868  131.204  33.1448  13.5509
  8348.879  8348.900  0.500  1.384516  131.168  32.8505  13.3901
  8349.369  8349.400  0.500  1.394930  131.128  32.5001  13.2027
  8349.874  8349.900  0.500  1.407647  131.083  32.0784  12.9755
  8350.373  8350.400  0.500  1.422383  131.038  31.5984  12.7178
  8350.876  8350.900  0.500  1.439659  130.995  31.0468  12.4245
  8351.375  8351.400  0.500  1.458083  130.933  30.4657  12.118
  8351.877  8351.900  0.500  1.476718  130.897  29.895  11.8145
  8352.380  8352.400  0.500  1.494503  130.856  29.3587  11.5322
  8352.886  8352.900  0.500  1.512114  130.828  28.8403  11.2621
  8353.388  8353.400  0.500  1.530949  130.808  28.2977  10.9815
  8353.885  8353.900  0.500  1.553345  130.8  27.6694  10.6556
  8354.385  8354.400  0.500  1.581206  130.792  26.9074  10.2669
  8354.882  8354.900  0.500  1.616218  130.792  25.9816  9.798358
  8355.378  8355.400  0.500  1.661331  130.789  24.8351  9.226147
  8355.875  8355.900  0.500  1.718208  130.781  23.4605  8.552192
  8356.387  8356.400  0.500  1.792674  130.775  21.7759  7.742713
  8356.884  8356.900  0.500  1.886034  130.756  19.832  6.836582
  8357.394  8357.400  0.500  2.003079  130.874  17.6575  5.856655
  8357.891  8357.900  0.500  2.137713  131.219  15.4739  4.908271
  8358.388  8358.400  0.500  2.295007  131.204  13.2202  3.980392
  8358.891  8358.900  0.500  2.471254  131.199  11.0836  3.143681
  8359.395  8359.400  0.500  2.651053  131.19  9.258993  2.469014
  8359.895  8359.900  0.500  2.815123  131.187  7.857769  1.978367
  8360.390  8360.400  0.500  2.944335  131.168  6.904282  1.659569
  8360.884  8360.900  0.500  3.037757  131.169  6.288561  1.462257
  8361.388  8361.400  0.500  3.103435  131.181  5.889352  1.337996
  8361.892  8361.900  0.500  3.149970  131.171  5.621118  1.256057
  8362.401  8362.400  0.500  3.183450  131.164  5.435759  1.199927
  8362.899  8362.900  0.500  3.199351  131.153  5.349557  1.174601
  8363.400  8363.400  0.500  3.189959  131.139  5.399444  1.189008
  8363.895  8363.900  0.500  3.151141  131.134  5.612947  1.253137
  8364.396  8364.400  0.500  3.083234  131.125  6.006971  1.373339
  8364.894  8364.900  0.500  2.989267  131.117  6.598354  1.558903
  8365.392  8365.400  0.500  2.876041  131.105  7.388729  1.816257
  8365.897  8365.900  0.500  2.756580  131.097  8.325779  2.131446
  8366.395  8366.400  0.500  2.641483  131.088  9.340724  2.487729
  8366.893  8366.900  0.500  2.537959  131.077  10.3587  2.857529
  8367.400  8367.400  0.500  2.445154  131.072  11.3656  3.236066
  8367.902  8367.900  0.500  2.367203  131.065  12.2864  3.591390
  8368.403  8368.400  0.500  2.302014  131.058  13.1133  3.919108
  8368.887  8368.900  0.500  2.250356  131.05  13.8076  4.199229
  8369.392  8369.400  0.500  2.208270  131.046  14.4007  4.442501
  8369.887  8369.900  0.500  2.174828  131.038  14.8896  4.644969
  8370.401  8370.400  0.500  2.146377  131.028  15.3181  4.826253
  8370.900  8370.900  0.500  2.121859  131.02  15.6974  4.987091
  8371.402  8371.400  0.500  2.100683  131.002  16.031  5.130198
  8371.898  8371.900  0.500  2.082570  130.989  16.3224  5.256092
  8372.403  8372.400  0.500  2.066976  130.984  16.5784  5.366748
  8372.902  8372.900  0.500  2.054285  130.962  16.7873  5.458588
  8373.404  8373.400  0.500  2.043734  130.95  16.9637  5.535659
  8373.900  8373.900  0.500  2.035236  130.939  17.1072  5.597901
  8374.402  8374.400  0.500  2.028782  130.929  17.2165  5.647632
  8374.889  8374.900  0.500  2.024256  130.921  17.2936  5.681799
  8375.392  8375.400  0.500  2.021927  130.9  17.3312  5.699371
  8375.897  8375.900  0.500  2.021896  130.884  17.3296  5.699163
  8376.403  8376.400  0.500  2.023744  130.877  17.2966  5.685766
  8376.908  8376.900  0.500  2.026894  130.878  17.2424  5.660812
  8377.399  8377.400  0.500  2.031344  130.863  17.1639  5.627437
  8377.896  8377.900  0.500  2.036286  130.853  17.0779  5.589379
  8378.401  8378.400  0.500  2.040836  130.844  16.9993  5.555383
  8378.898  8378.900  0.500  2.044313  130.838  16.9394  5.529033
  8379.398  8379.400  0.500  2.046803  130.819  16.8949  5.510010
  8379.892  8379.900  0.500  2.047769  130.813  16.8778  5.503792
  8380.398  8380.400  0.500  2.047300  130.798  16.8837  5.507211
  8380.907  8380.900  0.500  2.045554  130.785  16.9117  5.519235
  8381.407  8381.400  0.500  2.042214  130.769  16.9661  5.542349
  8381.910  8381.900  0.500  2.038172  130.759  17.0336  5.573130
  8382.404  8382.400  0.500  2.033331  130.745  17.1144  5.609060
  8382.899  8382.900  0.500  2.027919  130.731  17.2054  5.648454
  8383.890  8383.890  0.500  2.017333  130.702  17.3846  5.729484
  8384.900  8384.890  0.500  2.009744  130.672  17.5131  5.786716
  8385.926  8385.910  0.500  2.007827  130.632  17.5413  5.799260
  8386.969  8386.960  0.500  2.013550  130.596  17.4363  5.755719
  8388.035  8388.020  0.500  2.025573  130.549  17.2218  5.660398
  8389.109  8389.100  0.500  2.041958  130.516  16.9376  5.537598
  8390.205  8390.200  0.500  2.060940  130.493  16.6162  5.397581
  8391.334  8391.320  0.500  2.080370  130.474  16.2941  5.258122
  8392.464  8392.460  0.500  2.101660  130.446  15.9475  5.108902
  8393.621  8393.610  0.500  2.126020  130.433  15.5621  4.946144
  8394.806  8394.790  0.500  2.151912  130.405  15.1611  4.775508
  8395.994  8395.980  0.500  2.178238  130.369  14.7631  4.609780
  8397.207  8397.200  0.500  2.199979  130.343  14.4427  4.476041
  8398.441  8398.430  0.500  2.213608  130.312  14.2438  4.394794
  8399.691  8399.680  0.500  2.216399  130.284  14.201  4.377634
  8400.953  8400.950  0.500  2.209872  130.26  14.2915  4.414736
  8402.243  8402.240  0.500  2.195271  130.229  14.4982  4.501154
  8403.557  8403.550  0.500  2.176897  130.201  14.7639  4.614267
  8404.890  8404.880  0.500  2.156566  130.177  15.0643  4.741511
  8406.239  8406.230  0.500  2.137305  130.152  15.3543  4.864128
  8407.612  8407.600  0.500  2.120441  130.116  15.6112  4.975173
  8408.986  8408.980  0.500  2.106989  130.081  15.8183  5.064251
  8410.403  8410.390  0.500  2.096244  130.049  15.9853  5.136106
  8411.826  8411.810  0.500  2.086576  130.022  16.1372  5.202609
  8413.256  8413.250  0.500  2.077448  129.998  16.2822  5.267712
  8414.723  8414.710  0.500  2.068344  129.966  16.4271  5.331800
  8416.199  8416.190  0.500  2.060330  129.928  16.5544  5.387460
  8417.701  8417.690  0.500  2.053923  129.895  16.6566  5.434692
  8419.224  8419.210  0.500  2.048502  129.867  16.7435  5.472722
  8420.772  8420.750  0.500  2.043818  129.835  16.818  5.506091
  8422.321  8422.310  0.500  2.039476  129.798  16.8863  5.536429
  8423.894  8423.880  0.500  2.036122  129.763  16.9385  5.561884
  8425.490  8425.480  0.500  2.033775  129.739  16.9752  5.579242
  8427.098  8427.090  0.500  2.032532  129.7  16.9911  5.588188
  8428.744  8428.730  0.500  2.032515  129.662  16.9864  5.585926
  8430.387  8430.380  0.500  2.034323  129.629  16.9514  5.571309
  8432.058  8432.050  0.500  2.038051  129.59  16.8833  5.543679
  8433.755  8433.740  0.500  2.043328  129.557  16.7902  5.503795
  8435.461  8435.450  0.500  2.050084  129.499  16.6697  5.452444
  8437.192  8437.180  0.500  2.057482  129.468  16.5429  5.397117
  8438.949  8438.930  0.500  2.065003  129.441  16.4155  5.342957
  8440.709  8440.690  0.500  2.071738  129.402  16.3004  5.293629
  8442.483  8442.480  0.500  2.077482  129.368  16.2027  5.252918
  8444.294  8444.280  0.500  2.081518  129.325  16.1321  5.223288
  8446.121  8446.110  0.500  2.083732  129.278  16.0905  5.206615
  8447.951  8447.950  0.500  2.084380  129.231  16.0743  5.200052
  8449.811  8449.810  0.500  2.083735  129.185  16.079  5.203312
  8451.695  8451.690  0.500  2.082076  129.145  16.1006  5.213735
  8453.599  8453.590  0.500  2.080223  129.106  16.1257  5.226594
  8455.510  8455.510  0.500  2.078692  129.053  16.1438  5.235540
  8457.458  8457.450  0.500  2.077995  128.997  16.148  5.238959
  8459.408  8459.410  0.500  2.077185  128.949  16.155  5.245239
  8461.395  8461.380  0.500  2.075777  128.895  16.171  5.252018
  8463.383  8463.380  0.500  2.073703  128.86  16.2002  5.266858
  8465.400  8465.390  0.500  2.071179  128.817  16.2357  5.283533
  8467.431  8467.420  0.500  2.068847  128.769  16.2676  5.298157
  8469.489  8469.480  0.500  2.067007  128.725  16.2919  5.310709
  8471.562  8471.550  0.500  2.065644  128.672  16.3075  5.319026
  8473.644  8473.640  0.500  2.064424  128.624  16.3213  5.325713
  8475.765  8475.750  0.500  2.063004  128.571  16.3377  5.334486
  8477.883  8477.880  0.500  2.060583  128.52  16.3709  5.349917
  8480.037  8480.020  0.500  2.056511  128.476  16.432  5.379254
  8482.195  8482.190  0.500  2.050357  128.429  16.5274  5.422021
  8484.391  8484.380  0.500  2.042600  128.366  16.648  5.478263
  8486.591  8486.580  0.500  2.034319  128.314  16.7796  5.537519
  8488.818  8488.800  0.500  2.025402  128.258  16.9225  5.600964
  8491.064  8491.050  0.500  2.016974  128.203  17.0583  5.662839
  8493.323  8493.310  0.500  2.010344  128.147  17.1644  5.712252
  8495.606  8495.590  0.500  2.006754  128.098  17.2195  5.738479
  8497.899  8497.890  0.500  2.006843  128.048  17.2112  5.735848
  8500.224  8500.210  0.500  2.009768  127.996  17.1539  5.712595
  8502.563  8502.550  0.500  2.013260  127.948  17.0878  5.685022
  8504.922  8504.900  0.500  2.016055  127.9  17.0336  5.662650
  8507.289  8507.280  0.500  2.018131  127.84  16.9904  5.644139
  8509.685  8509.670  0.500  2.019704  127.781  16.9559  5.632159
  8512.095  8512.090  0.500  2.021309  127.719  16.9205  5.617053
  8514.531  8514.520  0.500  2.023904  127.664  16.8693  5.597042
  8516.978  8516.970  0.500  2.027666  127.595  16.7969  5.565682
  8519.473  8519.450  0.500  2.032749  127.521  16.7021  5.527044
  8521.950  8521.940  0.500  2.037030  127.431  16.6189  5.492148
  8524.467  8524.450  0.500  2.039703  127.297  16.5572  5.467495
  8526.979  8526.970  0.500  2.039387  126.97  16.5199  5.455537
  8529.546  8529.520  0.500  2.035619  122.344  15.9781  5.284177
  8532.102  8532.090  0.500  2.030008  122.098  16.0356  5.315218
  8534.687  8534.670  0.500  2.021133  126.893  16.8139  5.591645
  8537.284  8537.280  0.500  2.012945  127.054  16.9737  5.660922
  8539.922  8539.900  0.500  2.006552  127.034  17.0799  5.709653
  8542.563  8542.550  0.500  2.001894  126.98  17.1523  5.743154
  8545.227  8545.210  0.500  1.998747  126.922  17.1985  5.766906
  8547.893  8547.890  0.500  1.996849  126.862  17.2231  5.780189
  8550.611  8550.590  0.500  1.996592  126.8  17.2191  5.779503
  8553.321  8553.310  0.500  1.996911  126.74  17.2054  5.775428
  8556.073  8556.050  0.500  1.997166  126.673  17.192  5.772343
  8558.809  8558.800  0.500  1.996999  126.597  17.1845  5.770345
  8561.603  8561.580  0.500  1.996970  126.529  17.1757  5.768827
  8564.393  8564.370  0.500  1.996984  126.459  17.166  5.766686
  8567.213  8567.190  0.500  1.996958  126.388  17.1569  5.765682
  8570.054  8570.020  0.500  1.996066  126.299  17.1601  5.768054
  8572.862  8572.870  0.500  1.993894  126.212  17.1855  5.782606
  8575.747  8575.750  0.500  1.989679  126.122  17.2459  5.811661
  8578.654  8578.640  0.500  1.984221  126.024  17.3268  5.851201
  8581.569  8581.550  0.500  1.978701  125.917  17.4078  5.891261
  8584.486  8584.470  0.500  1.973848  125.785  17.4743  5.924264
  8587.440  8587.420  0.500  1.969745  125.567  17.5157  5.946664
  8590.415  8590.390  0.500  1.966486  124.695  17.4508  5.933351
  8593.383  8593.370  0.500  1.964866  110.422  15.4784  5.266831
  8596.400  8596.380  0.500  1.963229  125.076  17.5612  5.979467
  8599.413  8599.400  0.500  1.962861  125.292  17.598  5.992802
  8602.473  8602.450  0.500  1.963043  125.179  17.579  5.987921
  8605.526  8605.510  0.500  1.963492  124.998  17.5457  5.977894
  8608.609  8608.590  0.500  1.963603  124.691  17.5007  5.962558
  8611.701  8611.690  0.500  1.963220  124.118  17.4269  5.941361
  8614.821  8614.810  0.500  1.962889  122.16  17.1577  5.849020
  8617.969  8617.950  0.500  1.962320  87.7931  12.3377  4.208808
  8621.119  8621.100  0.500  1.962110  126.234  17.7436  6.053313
  8624.297  8624.280  0.500  1.960552  125.954  17.7319  6.053473
  8627.487  8627.470  0.500  1.958393  125.68  17.7316  6.060550
  8630.711  8630.690  0.500  1.955816  125.458  17.7459  6.070394
  8633.938  8633.920  0.500  1.953245  125.247  17.7616  6.082840
  8637.187  8637.170  0.500  1.950568  124.993  17.7732  6.093994
  8640.467  8640.450  0.500  1.947278  124.19  17.7172  6.081796
  8643.759  8643.740  0.500  1.943824  110.676  15.8439  5.446896
  8647.064  8647.050  0.500  1.939541  124.53  17.9037  6.165390
  8650.383  8650.370  0.500  1.935197  124.733  18.0109  6.213874
  8653.738  8653.720  0.500  1.930525  124.826  18.1087  6.257448
  8657.105  8657.090  0.500  1.927134  125.117  18.2126  6.302356
  8660.494  8660.470  0.500  1.925204  125.024  18.2343  6.314894
  8663.899  8663.880  0.500  1.923577  124.933  18.2507  6.325760
  8667.316  8667.300  0.500  1.922095  124.85  18.2656  6.336622
  8670.771  8670.750  0.500  1.920936  124.755  18.2729  6.341904
  8674.220  8674.210  0.500  1.919939  124.667  18.2782  6.347838
  8677.707  8677.690  0.500  1.918179  124.57  18.2961  6.358367
  8681.213  8681.190  0.500  1.915983  124.47  18.3216  6.374895
  8684.725  8684.710  0.500  1.912992  124.366  18.3611  6.395200
  8688.273  8688.250  0.500  1.909754  124.273  18.4069  6.420436
  8691.817  8691.800  0.500  1.906173  124.158  18.4559  6.447498
  8695.393  8695.380  0.500  1.902972  124.04  18.4974  6.469533
  8698.998  8698.980  0.500  1.900397  123.893  18.5231  6.486927
  8702.610  8702.590  0.500  1.897864  123.618  18.5289  6.495374
  8706.231  8706.220  0.500  1.895034  120.33  18.0872  6.347740
  8709.898  8709.880  0.500  1.893716  122.614  18.4548  6.480089
  8713.567  8713.550  0.500  1.891811  123.627  18.6427  6.552098
  8717.254  8717.240  0.500  1.889713  123.592  18.6766  6.571042
  8720.976  8720.950  0.500  1.887075  123.508  18.7133  6.590724
  8724.694  8724.680  0.500  1.883665  123.41  18.7622  6.616174
  8728.433  8728.420  0.500  1.880965  123.314  18.7983  6.638609
  8732.210  8732.190  0.500  1.878624  123.219  18.8278  6.655559
  8735.992  8735.980  0.500  1.876441  123.12  18.8538  6.669442
  8739.792  8739.780  0.500  1.874773  123.022  18.8703  6.681275
  8743.629  8743.610  0.500  1.873074  122.917  18.8863  6.691979
  8747.467  8747.450  0.500  1.871624  122.824  18.8993  6.702852
  8751.321  8751.310  0.500  1.869442  122.72  18.9246  6.716353
  8755.211  8755.190  0.500  1.867244  122.615  18.9501  6.733689
  8759.098  8759.090  0.500  1.864546  122.52  18.9865  6.753642
  8763.026  8763.010  0.500  1.861316  122.41  19.0309  6.778446
  8766.973  8766.950  0.500  1.858298  122.31  19.0727  6.801796
  8770.931  8770.910  0.500  1.855120  122.21  19.1178  6.827505
  8774.895  8774.880  0.500  1.851738  122.106  19.1662  6.853835
  8778.897  8778.880  0.500  1.848402  122.016  19.2161  6.881043
  8782.912  8782.890  0.500  1.844766  121.906  19.2687  6.909888
  8786.940  8786.930  0.500  1.841480  121.792  19.3141  6.935178
  8790.996  8790.980  0.500  1.838088  121.679  19.3617  6.962129
  8795.069  8795.050  0.500  1.834204  121.565  19.4189  6.993558
  8799.163  8799.140  0.500  1.830408  121.459  19.4757  7.025242
  8803.270  8803.250  0.500  1.826615  121.352  19.5326  7.056772
  8807.402  8807.380  0.500  1.823436  121.244  19.5773  7.080526
  8811.537  8811.530  0.500  1.821288  121.128  19.6005  7.097560
  8815.700  8815.690  0.500  1.819469  121.026  19.6198  7.110408
  8819.890  8819.880  0.500  1.818209  120.923  19.6278  7.118976
  8824.088  8824.080  0.500  1.816758  120.822  19.6399  7.127468
  8828.317  8828.310  0.500  1.815250  120.703  19.65  7.137104
  8832.570  8832.550  0.500  1.813196  120.596  19.6731  7.151370
  8836.820  8836.810  0.500  1.810478  120.499  19.7108  7.173899
  8841.098  8841.090  0.500  1.807286  120.385  19.7551  7.200668
  8845.408  8845.390  0.500  1.803936  120.27  19.8024  7.227813
  8849.721  8849.710  0.500  1.800561  120.158  19.8509  7.255702
  8854.066  8854.050  0.500  1.797011  120.039  19.9018  7.285099
  8858.429  8858.410  0.500  1.793295  119.926  19.957  7.314779
  8862.803  8862.790  0.500  1.789872  119.8  20.0044  7.342269
  8867.192  8867.180  0.500  1.786545  119.689  20.0524  7.370633
  8871.622  8871.600  0.500  1.783136  119.58  20.1026  7.399987
  8876.040  8876.030  0.500  1.779679  119.46  20.152  7.428871
  8880.503  8880.480  0.500  1.776088  119.335  20.2034  7.457775
  8884.974  8884.950  0.500  1.772301  119.219  20.2603  7.490326
  8889.453  8889.440  0.500  1.768847  119.094  20.309  7.520438
  8893.971  8893.950  0.500  1.766245  118.954  20.338  7.538169
  8898.500  8898.480  0.500  1.763827  118.841  20.3679  7.557361
  8903.052  8903.030  0.500  1.761920  118.707  20.3837  7.570991