File: xdidata/Data/Er/Eu-L1-Eu2O3-m.xdi
# XDI/1.0 BlueSky/1.10.0 BMM/2023-1.0-py310-tiled
# Beamline.name: BMM (06BM) -- Beamline for Materials Measurement (NIST)
# Beamline.xray_source: NSLS-II three-pole wiggler
# Beamline.collimation: paraboloid mirror, 5 nm Rh on 30 nm Pt
# Beamline.focusing: not in use
# Beamline.harmonic_rejection: flat mirror, Pt stripe, pitch = 7.0 mrad relative to beam
# Beamline.software: Bluesky 1.10.0, Ophyd 1.7.0, DataBroker 2.0.0b13, Python 3.10.8, 2023-1.0-py310-tiled
# Detector.I0: 10 cm N2
# Detector.I1: 25 cm N2
# Detector.I2: 25 cm N2
# Element.symbol: Eu
# Element.edge: L1
# Element.reference: Eu
# Element.reference_material: Eu2O3
# Facility.name: NSLS-II
# Facility.energy: 3.0
# Facility.current: 399.5
# Facility.mode: top-off
# Facility.GUP: 123456
# Facility.SAF: 301027
# Facility.cycle: 2023-2
# Mono.name: Si(111)
# Mono.d_spacing: 3.13519
# Mono.encoder_resolution: 0.0000050 deg/ct
# Mono.angle_offset: 16.0754 deg
# Mono.scan_mode: pseudo channel cut
# Mono.scan_type: step
# Mono.direction: forward in energy
# Sample.name: monoclinic Eu2O3
# Sample.prep: Powder in PEG pellet
# Sample.x: 123.848 mm
# Sample.y: 114.690 mm
# Sample.SDD_position: 205.000 mm
# Scan.experimenters: Bruce Ravel
# Scan.edge_energy: 8052.0
# Scan.start_time: 2023-05-08T21:03:17
# Scan.end_time: 2023-05-08T21:09:12
# Scan.transient_id: 75610
# Scan.uid: 3807b9f8-2d96-4364-b2e3-2ecb9fb05b2f
# Scan.plot_hint: ln(I0/It)  --  ln($5/$6)
# Column.1: energy eV
# Column.2: requested_energy eV
# Column.3: measurement_time seconds
# Column.4: xmu
# Column.5: I0 nA
# Column.6: It nA
# Column.7: Ir nA
# ///////////
# sample courtesy Martin Stennett, University of Sheffield
# -----------
# energy  requested_energy  measurement_time  xmu  I0  It  Ir
  7852.003  7852.000  0.500  1.830179  136.795  21.9399  5.924474
  7862.052  7862.000  0.500  1.823873  136.605  22.048  5.971820
  7872.048  7872.000  0.500  1.816241  136.467  22.1944  6.033392
  7882.050  7882.000  0.500  1.808873  136.258  22.3243  6.096404
  7892.053  7892.000  0.500  1.800770  136.091  22.4783  6.167341
  7902.038  7902.000  0.500  1.794979  135.874  22.5728  6.222054
  7912.038  7912.000  0.500  1.788313  135.716  22.6973  6.280381
  7922.024  7922.000  0.500  1.780132  135.522  22.8511  6.346812
  7932.025  7932.000  0.500  1.773032  135.246  22.9671  6.405940
  7942.017  7942.000  0.500  1.765417  135.267  23.1462  6.485244
  7952.019  7952.000  0.500  1.757647  134.8  23.2463  6.540932
  7962.026  7962.000  0.500  1.751356  133.623  23.1888  6.548961
  7971.977  7972.000  0.500  1.745412  133.325  23.2749  6.596148
  7981.976  7982.000  0.500  1.739298  133.029  23.3658  6.646919
  7991.978  7992.000  0.500  1.732459  132.885  23.5005  6.709230
  8001.990  8002.000  0.500  1.725690  132.617  23.6124  6.768191
  8011.990  8012.000  0.500  1.718605  132.373  23.7366  6.829869
  8021.988  8022.000  0.500  1.712181  132.166  23.8522  6.891163
  8023.984  8024.000  0.500  1.711111  132.153  23.8755  6.901854
  8025.973  8026.000  0.500  1.710000  132.08  23.8887  6.910065
  8027.974  8028.000  0.500  1.709081  132.06  23.907  6.919931
  8029.976  8030.000  0.500  1.707960  131.962  23.9162  6.927380
  8031.979  8032.000  0.500  1.707307  131.907  23.9219  6.933877
  8033.980  8034.000  0.500  1.706175  131.896  23.9469  6.945934
  8035.979  8036.000  0.500  1.705516  131.824  23.9495  6.950783
  8037.983  8038.000  0.500  1.704654  131.741  23.9551  6.955481
  8039.981  8040.000  0.500  1.703875  131.729  23.9716  6.964197
  8041.990  8042.000  0.500  1.703351  131.647  23.9692  6.965309
  8042.477  8042.500  0.500  1.703319  131.606  23.9626  6.964736
  8042.975  8043.000  0.500  1.703220  131.631  23.9695  6.968204
  8043.473  8043.500  0.500  1.703270  131.591  23.961  6.965137
  8043.979  8044.000  0.500  1.703164  131.572  23.9602  6.965203
  8044.475  8044.500  0.500  1.703186  131.58  23.9611  6.966004
  8044.981  8045.000  0.500  1.703294  131.588  23.9599  6.964887
  8045.477  8045.500  0.500  1.703487  132.054  24.0402  6.988594
  8045.984  8046.000  0.500  1.703653  132.052  24.0357  6.987755
  8046.485  8046.500  0.500  1.703859  132.019  24.0247  6.984420
  8046.987  8047.000  0.500  1.704012  131.998  24.0173  6.982151
  8047.488  8047.500  0.500  1.704215  131.997  24.0122  6.979915
  8047.984  8048.000  0.500  1.704406  131.973  24.0033  6.977662
  8048.486  8048.500  0.500  1.704956  131.958  23.9874  6.970526
  8048.984  8049.000  0.500  1.705465  131.929  23.97  6.962910
  8049.483  8049.500  0.500  1.706091  131.913  23.9519  6.957641
  8049.988  8050.000  0.500  1.706826  131.891  23.9304  6.948961
  8050.495  8050.500  0.500  1.707897  131.867  23.9003  6.939117
  8050.994  8051.000  0.500  1.708906  131.891  23.8807  6.929445
  8051.494  8051.500  0.500  1.710272  131.855  23.8415  6.913878
  8051.996  8052.000  0.500  1.711826  131.818  23.7978  6.896766
  8052.492  8052.500  0.500  1.714019  131.792  23.741  6.875358
  8052.983  8053.000  0.500  1.716296  131.753  23.6801  6.851710
  8053.485  8053.500  0.500  1.719089  131.73  23.6098  6.822894
  8053.991  8054.000  0.500  1.722800  131.704  23.5177  6.787111
  8054.498  8054.500  0.500  1.726748  131.648  23.4152  6.745749
  8054.998  8055.000  0.500  1.731068  131.61  23.3074  6.702755
  8055.495  8055.500  0.500  1.735204  131.527  23.1966  6.660281
  8056.000  8056.000  0.500  1.739556  131.478  23.0873  6.617466
  8056.500  8056.500  0.500  1.743796  131.32  22.9621  6.570788
  8056.992  8057.000  0.500  1.747759  131.051  22.8243  6.522009
  8057.489  8057.500  0.500  1.751227  130.287  22.6128  6.452419
  8057.992  8058.000  0.500  1.754645  127.578  22.067  6.289320
  8058.495  8058.500  0.500  1.757413  125.919  21.7199  6.181881
  8058.997  8059.000  0.500  1.760182  127.88  21.9971  6.250486
  8059.495  8059.500  0.500  1.763021  130.94  22.4596  6.372253
  8060.006  8060.000  0.500  1.765533  131.798  22.5501  6.387135
  8060.504  8060.500  0.500  1.768477  131.818  22.4872  6.358731
  8060.999  8061.000  0.500  1.771811  131.803  22.4097  6.324086
  8061.494  8061.500  0.500  1.775470  131.757  22.3201  6.287423
  8061.991  8062.000  0.500  1.779691  131.753  22.2254  6.244656
  8062.495  8062.500  0.500  1.784603  131.643  22.098  6.194009
  8063.001  8063.000  0.500  1.790143  131.671  21.9807  6.143014
  8063.499  8063.500  0.500  1.795974  131.635  21.8469  6.089199
  8064.002  8064.000  0.500  1.802368  131.607  21.7031  6.029995
  8064.503  8064.500  0.500  1.809198  131.582  21.5512  5.968518
  8065.007  8065.000  0.500  1.816307  131.547  21.3928  5.906509
  8065.505  8065.500  0.500  1.823256  131.525  21.2412  5.844343
  8065.998  8066.000  0.500  1.829842  131.473  21.0935  5.787414
  8066.488  8066.500  0.500  1.835880  131.413  20.9569  5.733737
  8066.995  8067.000  0.500  1.841449  131.388  20.8365  5.687792
  8067.499  8067.500  0.500  1.846006  131.294  20.7269  5.646917
  8068.003  8068.000  0.500  1.849483  131.228  20.6446  5.614490
  8068.501  8068.500  0.500  1.851829  131.073  20.5718  5.587988
  8069.003  8069.000  0.500  1.852888  130.678  20.4882  5.560408
  8069.504  8069.500  0.500  1.853221  128.815  20.1893  5.476129
  8070.000  8070.000  0.500  1.852363  125.876  19.7457  5.355116
  8070.502  8070.500  0.500  1.850918  127.02  19.9539  5.410654
  8070.990  8071.000  0.500  1.849283  130.044  20.4624  5.548259
  8071.494  8071.500  0.500  1.847652  131.295  20.6929  5.612484
  8072.004  8072.000  0.500  1.845848  131.38  20.7438  5.628228
  8072.501  8072.500  0.500  1.844234  131.377  20.7768  5.639786
  8073.003  8073.000  0.500  1.842800  131.336  20.8001  5.649375
  8073.507  8073.500  0.500  1.841445  131.296  20.8221  5.658645
  8074.004  8074.000  0.500  1.840668  131.296  20.8382  5.665170
  8074.498  8074.500  0.500  1.839908  131.269  20.8498  5.672075
  8074.994  8075.000  0.500  1.839353  131.237  20.8562  5.677770
  8075.499  8075.500  0.500  1.838960  131.198  20.8581  5.679726
  8075.999  8076.000  0.500  1.838590  131.166  20.8608  5.684767
  8076.496  8076.500  0.500  1.838281  131.096  20.8562  5.686372
  8077.004  8077.000  0.500  1.838152  131.029  20.8481  5.688297
  8077.995  8077.990  0.500  1.837553  130.657  20.8014  5.682244
  8079.003  8078.990  0.500  1.836456  126.453  20.1542  5.513092
  8080.017  8080.010  0.500  1.834480  128.746  20.5603  5.632459
  8081.076  8081.060  0.500  1.832175  131.099  20.9844  5.758292
  8082.132  8082.120  0.500  1.828923  131.093  21.0518  5.790155
  8083.214  8083.200  0.500  1.825058  131.069  21.1294  5.823995
  8084.305  8084.300  0.500  1.820645  131.024  21.2156  5.862493
  8085.432  8085.420  0.500  1.815885  130.964  21.307  5.901797
  8086.577  8086.560  0.500  1.811328  130.928  21.3985  5.940862
  8087.721  8087.710  0.500  1.807069  130.759  21.4622  5.972031
  8088.889  8088.890  0.500  1.802898  130.656  21.5348  6.003330
  8090.085  8090.080  0.500  1.799021  130.177  21.5392  6.014730
  8091.312  8091.300  0.500  1.795430  125.207  20.7914  5.814530
  8092.536  8092.530  0.500  1.792135  130.148  21.6831  6.070757
  8093.784  8093.780  0.500  1.789755  130.988  21.8752  6.132305
  8095.065  8095.050  0.500  1.787696  130.914  21.9078  6.147583
  8096.347  8096.340  0.500  1.786205  130.842  21.9285  6.157390
  8097.657  8097.650  0.500  1.785692  130.799  21.9325  6.161848
  8098.988  8098.980  0.500  1.785774  130.725  21.9183  6.158286
  8100.344  8100.330  0.500  1.786367  130.683  21.8983  6.152565
  8101.703  8101.700  0.500  1.787312  130.66  21.8737  6.144899
  8103.089  8103.080  0.500  1.788424  130.627  21.8439  6.133879
  8104.500  8104.490  0.500  1.789400  130.562  21.8117  6.120756
  8105.920  8105.910  0.500  1.790746  130.501  21.7723  6.106133
  8107.365  8107.350  0.500  1.792194  130.455  21.733  6.092638
  8108.826  8108.810  0.500  1.793413  130.433  21.7028  6.081533
  8110.304  8110.290  0.500  1.794039  130.379  21.6804  6.071623
  8111.802  8111.790  0.500  1.794326  130.357  21.6706  6.066673
  8113.320  8113.310  0.500  1.794024  130.314  21.6699  6.063859
  8114.856  8114.850  0.500  1.793386  130.295  21.6806  6.064919
  8116.423  8116.410  0.500  1.792563  130.249  21.6907  6.065988
  8117.986  8117.980  0.500  1.792079  130.208  21.6944  6.067475
  8119.588  8119.580  0.500  1.791363  130.157  21.7014  6.070880
  8121.203  8121.190  0.500  1.790612  130.13  21.7132  6.076039
  8122.830  8122.830  0.500  1.789770  130.076  21.7225  6.082925
  8124.499  8124.480  0.500  1.788632  130.049  21.7427  6.093769
  8126.155  8126.150  0.500  1.787428  129.98  21.7573  6.104853
  8127.852  8127.840  0.500  1.786049  129.94  21.7807  6.119298
  8129.563  8129.550  0.500  1.784673  129.899  21.8039  6.134402
  8131.289  8131.280  0.500  1.782505  129.842  21.8415  6.153436
  8133.056  8133.030  0.500  1.780357  129.789  21.8796  6.173107
  8134.798  8134.790  0.500  1.778592  129.724  21.9071  6.190620
  8136.600  8136.580  0.500  1.776697  129.669  21.9395  6.207493
  8138.389  8138.380  0.500  1.775213  129.651  21.9691  6.224265
  8140.224  8140.210  0.500  1.774088  129.629  21.99  6.235821
  8142.057  8142.050  0.500  1.772858  129.547  22.0032  6.245309
  8143.916  8143.910  0.500  1.771621  129.501  22.0226  6.256415
  8145.799  8145.790  0.500  1.770191  129.415  22.0394  6.264961
  8147.697  8147.690  0.500  1.768236  129.368  22.0745  6.279520
  8149.622  8149.610  0.500  1.765826  129.345  22.1239  6.296743
  8151.562  8151.550  0.500  1.763875  129.258  22.1522  6.311300
  8153.523  8153.510  0.500  1.761377  129.233  22.2033  6.330630
  8155.493  8155.480  0.500  1.759029  129.198  22.2494  6.349480
  8157.495  8157.480  0.500  1.756763  129.182  22.2972  6.369197
  8159.502  8159.490  0.500  1.754889  129.149  22.3332  6.385530
  8161.535  8161.520  0.500  1.753148  129.085  22.3611  6.399652
  8163.589  8163.580  0.500  1.751640  129.054  22.3895  6.415766
  8165.673  8165.650  0.500  1.750068  129.012  22.4174  6.430054
  8167.749  8167.740  0.500  1.748557  128.961  22.4425  6.441446
  8169.878  8169.850  0.500  1.746924  128.9  22.4684  6.454649
  8171.965  8171.980  0.500  1.745836  128.881  22.4897  6.464710
  8174.108  8174.120  0.500  1.744741  128.834  22.506  6.473481
  8176.277  8176.290  0.500  1.743979  128.78  22.5137  6.481085
  8178.479  8178.480  0.500  1.743346  128.746  22.5221  6.487113
  8180.671  8180.680  0.500  1.742675  128.667  22.5234  6.491740
  8182.904  8182.900  0.500  1.741975  128.651  22.5363  6.498967
  8185.153  8185.150  0.500  1.740911  128.614  22.5537  6.505905
  8187.406  8187.410  0.500  1.739640  128.399  22.5448  6.506349
  8189.706  8189.690  0.500  1.738126  128.486  22.5942  6.525077
  8191.994  8191.990  0.500  1.736480  128.426  22.6209  6.538311
  8194.328  8194.310  0.500  1.734669  128.402  22.6576  6.555176
  8196.656  8196.650  0.500  1.732728  128.327  22.6884  6.571330
  8199.024  8199.000  0.500  1.730422  128.31  22.7378  6.591910
  8201.389  8201.380  0.500  1.728159  128.263  22.781  6.611970
  8203.784  8203.770  0.500  1.725909  128.214  22.8235  6.632424
  8206.200  8206.190  0.500  1.723899  128.139  22.856  6.648939
  8208.633  8208.620  0.500  1.722050  128.099  22.8912  6.669267
  8211.081  8211.070  0.500  1.720237  128.051  22.9241  6.685661
  8213.566  8213.550  0.500  1.718865  127.966  22.9404  6.699402
  8216.054  8216.040  0.500  1.717816  127.933  22.9585  6.712135
  8218.559  8218.550  0.500  1.716522  127.884  22.9795  6.725505
  8221.083  8221.070  0.500  1.715101  127.785  22.9943  6.734909
  8223.632  8223.620  0.500  1.713739  127.735  23.0166  6.747562
  8226.200  8226.190  0.500  1.712137  127.688  23.0452  6.761732
  8228.772  8228.770  0.500  1.710647  127.673  23.0767  6.775943
  8231.392  8231.380  0.500  1.708859  127.595  23.104  6.790372
  8234.009  8234.000  0.500  1.706854  127.53  23.1386  6.806296
  8236.656  8236.650  0.500  1.704711  127.442  23.1721  6.822756
  8239.322  8239.310  0.500  1.702595  127.376  23.2092  6.839653
  8241.993  8241.990  0.500  1.700364  127.28  23.2435  6.857078
  8244.695  8244.690  0.500  1.698017  127.246  23.2919  6.878985
  8247.410  8247.410  0.500  1.695754  127.142  23.3255  6.895727
  8250.156  8250.150  0.500  1.693514  127.096  23.3694  6.916463
  8252.907  8252.900  0.500  1.691379  127.032  23.4075  6.935885
  8255.684  8255.680  0.500  1.689380  126.978  23.4445  6.954391
  8258.477  8258.470  0.500  1.687828  126.888  23.4642  6.969172
  8261.301  8261.290  0.500  1.686038  126.824  23.4944  6.986222
  8264.121  8264.120  0.500  1.684447  126.692  23.5072  6.997529
  8266.979  8266.970  0.500  1.682687  126.723  23.5546  7.019925
  8269.853  8269.850  0.500  1.681273  126.604  23.5657  7.030760
  8272.755  8272.740  0.500  1.679775  126.501  23.5818  7.041577
  8275.657  8275.650  0.500  1.678318  126.407  23.5986  7.052581
  8278.587  8278.570  0.500  1.676632  124.919  23.3602  6.990063
  8281.523  8281.520  0.500  1.674630  126.253  23.6569  7.085065
  8284.504  8284.490  0.500  1.672605  126.17  23.6893  7.100718
  8287.485  8287.470  0.500  1.670529  126.054  23.7167  7.116217
  8290.489  8290.480  0.500  1.668424  126.051  23.7661  7.139685
  8293.515  8293.500  0.500  1.666247  125.922  23.7936  7.156554
  8296.559  8296.550  0.500  1.664118  125.858  23.8321  7.175976
  8299.622  8299.610  0.500  1.661931  125.772  23.8681  7.197739
  8302.706  8302.690  0.500  1.659702  126.063  23.9767  7.238382
  8305.801  8305.790  0.500  1.657630  126.094  24.0322  7.264808
  8308.925  8308.910  0.500  1.655452  126.055  24.0772  7.287354
  8312.069  8312.050  0.500  1.653409  125.971  24.1105  7.306731
  8315.207  8315.200  0.500  1.651127  125.906  24.1531  7.328334
  8318.394  8318.380  0.500  1.649041  125.821  24.187  7.348154
  8321.587  8321.570  0.500  1.646996  125.684  24.2103  7.363478
  8324.807  8324.790  0.500  1.645248  125.599  24.2361  7.380280
  8328.041  8328.020  0.500  1.643163  125.497  24.267  7.398000
  8331.289  8331.270  0.500  1.641318  125.363  24.2859  7.412928
  8334.561  8334.550  0.500  1.639098  125.168  24.3019  7.426737
  8337.865  8337.840  0.500  1.636906  125.095  24.3412  7.445490
  8341.169  8341.150  0.500  1.634423  124.941  24.3717  7.464914
  8344.487  8344.470  0.500  1.631969  124.813  24.4065  7.484852
  8347.839  8347.820  0.500  1.629427  124.672  24.441  7.502709
  8351.207  8351.190  0.500  1.627205  124.383  24.4385  7.512378
  8354.588  8354.570  0.500  1.624839  124.231  24.4665  7.530010
  8357.999  8357.980  0.500  1.622677  124.134  24.5002  7.550565
  8361.421  8361.400  0.500  1.620635  124.089  24.5414  7.570947
  8364.861  8364.850  0.500  1.618304  124.029  24.5868  7.595495
  8368.328  8368.310  0.500  1.615999  123.969  24.6316  7.620547
  8371.804  8371.790  0.500  1.613658  123.857  24.667  7.643251
  8375.308  8375.290  0.500  1.611278  123.813  24.7171  7.666527
  8378.826  8378.810  0.500  1.609033  123.711  24.7522  7.687540
  8382.377  8382.350  0.500  1.606921  123.576  24.7775  7.705587
  8385.923  8385.900  0.500  1.604769  123.478  24.8113  7.724839
  8389.492  8389.480  0.500  1.602735  123.32  24.8298  7.740078
  8393.117  8393.080  0.500  1.600713  123.203  24.8565  7.757063
  8396.732  8396.690  0.500  1.598424  123.108  24.8944  7.778162
  8400.338  8400.320  0.500  1.596387  122.966  24.9163  7.794289
  8403.993  8403.980  0.500  1.594050  122.879  24.957  7.817202
  8407.673  8407.650  0.500  1.591812  122.741  24.9848  7.837082
  8411.368  8411.340  0.500  1.589321  122.675  25.0336  7.861453
  8415.072  8415.050  0.500  1.586756  122.567  25.0757  7.885487
  8418.801  8418.780  0.500  1.584324  122.474  25.1177  7.909741
  8422.540  8422.520  0.500  1.581985  122.364  25.154  7.933840
  8426.318  8426.290  0.500  1.579449  122.262  25.1968  7.958377
  8430.122  8430.080  0.500  1.576790  122.154  25.2416  7.982178
  8433.898  8433.880  0.500  1.574194  122.061  25.288  8.008843
  8437.724  8437.710  0.500  1.571789  121.926  25.3207  8.031515
  8441.575  8441.550  0.500  1.569221  121.814  25.3625  8.054855
  8445.435  8445.410  0.500  1.566661  121.68  25.3997  8.078532
  8449.308  8449.290  0.500  1.564355  121.572  25.4355  8.102992
  8453.213  8453.190  0.500  1.562011  121.429  25.4653  8.122052
  8457.148  8457.110  0.500  1.559674  121.301  25.4979  8.143505
  8461.094  8461.050  0.500  1.557174  121.206  25.5417  8.168674
  8465.028  8465.010  0.500  1.554810  121.063  25.572  8.189682
  8468.991  8468.980  0.500  1.552233  120.932  25.6103  8.214149
  8473.006  8472.980  0.500  1.549720  120.793  25.6452  8.235759
  8477.017  8476.990  0.500  1.547313  120.677  25.6824  8.259742
  8481.062  8481.030  0.500  1.544763  120.551  25.7211  8.283637
  8485.095  8485.080  0.500  1.542244  120.423  25.7586  8.306502
  8489.198  8489.150  0.500  1.539699  120.301  25.798  8.330453
  8493.267  8493.240  0.500  1.537141  120.153  25.8322  8.352788
  8497.372  8497.350  0.500  1.534369  120.029  25.8773  8.379038
  8501.505  8501.480  0.500  1.531953  119.848  25.9008  8.399390
  8505.658  8505.630  0.500  1.529259  119.694  25.9373  8.422647
  8509.812  8509.790  0.500  1.526712  119.585  25.9797  8.448963
  8514.023  8513.980  0.500  1.524063  119.419  26.0124  8.472924
  8518.202  8518.180  0.500  1.521439  119.21  26.0352  8.491422
  8522.434  8522.410  0.500  1.518789  118.967  26.0511  8.509895
  8526.695  8526.650  0.500  1.516262  118.336  25.9783  8.499039
  8530.924  8530.910  0.500  1.513697  103.07  22.6852  7.431841
  8535.219  8535.190  0.500  1.511188  118.97  26.2506  8.613209
  8539.525  8539.490  0.500  1.508545  118.827  26.2883  8.639332
  8543.838  8543.810  0.500  1.506002  118.651  26.3162  8.660191
  8548.150  8548.150  0.500  1.503307  118.502  26.354  8.684269
  8552.526  8552.510  0.500  1.500766  118.324  26.3814  8.706026
  8556.925  8556.890  0.500  1.498281  118.071  26.3904  8.722302
  8561.304  8561.280  0.500  1.495490  118.058  26.4613  8.757958
  8565.678  8565.700  0.500  1.492987  117.904  26.4932  8.781769
  8570.180  8570.130  0.500  1.490349  117.76  26.5306  8.808340
  8574.598  8574.580  0.500  1.487705  117.592  26.563  8.831216
  8579.071  8579.050  0.500  1.484943  117.423  26.5981  8.855915
  8583.556  8583.540  0.500  1.482035  117.275  26.6419  8.885057
  8588.051  8588.050  0.500  1.479470  117.059  26.6612  8.904726
  8592.596  8592.580  0.500  1.476846  105.407  24.0704  8.052130
  8597.143  8597.130  0.500  1.473555  115.983  26.5729  8.902025