File: xdidata/W/W-L1-TungstenOxide.xdi
# XDI/1.0 BlueSky/1.10.0 BMM/2023-1.0-py310-tiled
# Beamline.name: BMM (06BM) -- Beamline for Materials Measurement (NIST)
# Beamline.xray_source: NSLS-II three-pole wiggler
# Beamline.collimation: paraboloid mirror, 5 nm Rh on 30 nm Pt
# Beamline.focusing: not in use
# Beamline.harmonic_rejection: flat mirror, Pt stripe, pitch = 7.0 mrad relative to beam
# Beamline.software: Bluesky 1.10.0, Ophyd 1.7.0, DataBroker 2.0.0b13, Python 3.10.8, 2023-1.0-py310-tiled
# Detector.I0: 10 cm N2
# Detector.I1: 25 cm N2
# Detector.I2: 25 cm N2
# Element.symbol: W
# Element.edge: L1
# Element.reference: W
# Element.reference_material: WO3
# Facility.name: NSLS-II
# Facility.energy: 3.0
# Facility.current: 400.0
# Facility.mode: top-off
# Facility.GUP: 301027
# Facility.SAF: 310583
# Facility.cycle: 2023-2
# Mono.name: Si(111)
# Mono.d_spacing: 3.13519
# Mono.encoder_resolution: 0.0000050 deg/ct
# Mono.angle_offset: 16.0754 deg
# Mono.scan_mode: pseudo channel cut
# Mono.scan_type: step
# Mono.direction: forward in energy
# Sample.name: WO3
# Sample.prep: PEG pellet
# Sample.x: 109.138 mm
# Sample.y: 153.150 mm
# Sample.SDD_position: 205.000 mm
# Scan.experimenters: Bruce Ravel
# Scan.edge_energy: 12099.8
# Scan.start_time: 2023-05-28T19:41:00
# Scan.end_time: 2023-05-28T19:49:14
# Scan.transient_id: 78959
# Scan.uid: 97b25d8f-3407-4821-80cd-958244b8479e
# Scan.plot_hint: ln(It/Ir)  --  ln($6/$7)
# Column.1: energy eV
# Column.2: requested_energy eV
# Column.3: measurement_time seconds
# Column.4: xmu
# Column.5: I0 nA
# Column.6: It nA
# Column.7: Ir nA
# ///////////
# sample courtesy Martin Stennett, University of Sheffield
# -----------
# energy  requested_energy  measurement_time  xmu  I0  It  Ir
  11899.772  11899.800  0.500  1.342525  60.9573  103.135  26.9374
  11909.838  11909.800  0.500  1.340442  60.9409  103.14  26.9949
  11919.878  11919.800  0.500  1.338865  60.8197  102.973  26.9936
  11929.855  11929.800  0.500  1.337057  60.7059  102.823  27.0033
  11939.867  11939.800  0.500  1.335403  60.5447  102.58  26.9839
  11949.810  11949.800  0.500  1.333641  60.4079  102.381  26.979
  11959.812  11959.800  0.500  1.331968  60.2899  102.216  26.9806
  11969.820  11969.800  0.500  1.330074  60.1505  102.018  26.9796
  11979.825  11979.800  0.500  1.328465  60.0267  101.839  26.9756
  11989.823  11989.800  0.500  1.326899  59.9092  101.679  26.9752
  11999.812  11999.800  0.500  1.325134  59.7847  101.504  26.9764
  12009.825  12009.800  0.500  1.323378  59.6444  101.304  26.9706
  12019.835  12019.800  0.500  1.321643  59.5311  101.146  26.9753
  12029.825  12029.800  0.500  1.319705  59.4074  100.968  26.9801
  12039.826  12039.800  0.500  1.317996  59.2614  100.757  26.9697
  12049.830  12049.800  0.500  1.316403  58.8458  100.078  26.8308
  12059.814  12059.800  0.500  1.314874  58.999  100.377  26.952
  12069.820  12069.800  0.500  1.313520  58.8998  100.252  26.955
  12071.768  12071.800  0.500  1.313219  58.8613  100.195  26.9478
  12073.767  12073.800  0.500  1.312814  58.8288  100.132  26.9417
  12075.773  12075.800  0.500  1.312568  58.8178  100.117  26.9443
  12077.760  12077.800  0.500  1.312410  58.7733  100.05  26.9306
  12079.761  12079.800  0.500  1.312196  58.7441  100.014  26.9265
  12081.750  12081.800  0.500  1.311836  58.7153  99.9668  26.9236
  12083.771  12083.800  0.500  1.311915  58.7081  99.9579  26.919
  12085.787  12085.800  0.500  1.311743  58.6605  99.8888  26.9051
  12087.784  12087.800  0.500  1.311610  58.6481  99.8671  26.9028
  12089.782  12089.800  0.500  1.311636  58.619  99.8259  26.891
  12090.049  12090.100  0.500  1.311606  58.5878  99.7673  26.876
  12090.336  12090.400  0.500  1.311668  58.5804  99.7561  26.8713
  12090.648  12090.700  0.500  1.311674  58.5598  99.7244  26.8626
  12090.953  12091.000  0.500  1.311657  58.4976  99.6247  26.8362
  12091.246  12091.300  0.500  1.311744  58.4406  99.5345  26.8096
  12091.552  12091.600  0.500  1.311732  58.3961  99.4598  26.7898
  12091.863  12091.900  0.500  1.311804  58.362  99.4051  26.7732
  12092.156  12092.200  0.500  1.311817  58.3751  99.4228  26.7775
  12092.449  12092.500  0.500  1.311921  58.4029  99.4784  26.7897
  12092.755  12092.800  0.500  1.311951  58.4312  99.5234  26.8011
  12093.073  12093.100  0.500  1.311914  58.4863  99.6151  26.8267
  12093.366  12093.400  0.500  1.311979  58.5203  99.6713  26.8401
  12093.665  12093.700  0.500  1.312067  58.5382  99.6999  26.8455
  12093.977  12094.000  0.500  1.312162  58.5402  99.7093  26.8455
  12094.277  12094.300  0.500  1.312211  58.5459  99.7165  26.8461
  12094.563  12094.600  0.500  1.312133  58.5439  99.7117  26.8469
  12094.875  12094.900  0.500  1.312222  58.545  99.7192  26.8465
  12095.187  12095.200  0.500  1.312482  58.5419  99.7178  26.8391
  12095.480  12095.500  0.500  1.312437  58.5277  99.6931  26.8337
  12095.780  12095.800  0.500  1.312591  58.5252  99.6842  26.8272
  12096.098  12096.100  0.500  1.312723  58.5144  99.6705  26.82
  12096.391  12096.400  0.500  1.312855  58.5126  99.6737  26.8173
  12096.678  12096.700  0.500  1.312980  58.5052  99.6545  26.8088
  12096.997  12097.000  0.500  1.313146  58.486  99.6227  26.7958
  12097.290  12097.300  0.500  1.313242  58.5134  99.6635  26.8042
  12097.583  12097.600  0.500  1.313500  58.4951  99.6338  26.7893
  12097.895  12097.900  0.500  1.313769  58.4881  99.6314  26.7814
  12098.207  12098.200  0.500  1.314037  58.4985  99.6537  26.7802
  12098.488  12098.500  0.500  1.314232  58.4706  99.609  26.763
  12098.794  12098.800  0.500  1.314756  58.4709  99.611  26.7495
  12099.093  12099.100  0.500  1.315036  58.4622  99.6044  26.7403
  12099.387  12099.400  0.500  1.315175  58.4666  99.6131  26.7389
  12099.705  12099.700  0.500  1.315728  58.4522  99.5819  26.7157
  12099.999  12100.000  0.500  1.316178  58.4427  99.5656  26.6993
  12100.273  12100.300  0.500  1.316706  58.5213  99.6999  26.7212
  12100.579  12100.600  0.500  1.317275  58.6273  99.8688  26.7513
  12100.878  12100.900  0.500  1.317883  58.6118  99.8454  26.7287
  12101.178  12101.200  0.500  1.318500  58.611  99.85  26.7135
  12101.497  12101.500  0.500  1.319328  58.6116  99.8555  26.6929
  12101.784  12101.800  0.500  1.319956  58.626  99.8756  26.6815
  12102.077  12102.100  0.500  1.320806  58.6094  99.8572  26.6539
  12102.377  12102.400  0.500  1.321714  58.6058  99.854  26.6288
  12102.683  12102.700  0.500  1.322514  58.5919  99.8234  26.5994
  12102.995  12103.000  0.500  1.323493  58.6138  99.8671  26.585
  12103.289  12103.300  0.500  1.324298  58.5746  99.8048  26.547
  12103.595  12103.600  0.500  1.325129  58.5863  99.8191  26.5288
  12103.895  12103.900  0.500  1.325974  58.5799  99.8112  26.5043
  12104.207  12104.200  0.500  1.326972  58.5972  99.8428  26.4862
  12104.501  12104.500  0.500  1.327762  58.58  99.808  26.4561
  12104.801  12104.800  0.500  1.328569  58.5534  99.7729  26.4254
  12105.094  12105.100  0.500  1.329414  58.5546  99.7777  26.4044
  12105.407  12105.400  0.500  1.330272  58.5494  99.7586  26.3767
  12105.707  12105.700  0.500  1.331019  58.5325  99.725  26.3481
  12106.000  12106.000  0.500  1.331714  58.533  99.739  26.3335
  12106.300  12106.300  0.500  1.332350  58.5506  99.7613  26.3227
  12106.594  12106.600  0.500  1.333003  58.5375  99.7406  26.3
  12106.906  12106.900  0.500  1.333430  58.5249  99.7216  26.2838
  12107.200  12107.200  0.500  1.333842  58.5333  99.7436  26.2788
  12107.506  12107.500  0.500  1.334024  58.5259  99.7265  26.2695
  12107.787  12107.800  0.500  1.334196  58.5107  99.7098  26.2606
  12108.100  12108.100  0.500  1.334165  58.5368  99.7444  26.2705
  12108.387  12108.400  0.500  1.334243  58.5082  99.7004  26.2568
  12108.687  12108.700  0.500  1.334199  58.4987  99.6853  26.254
  12108.981  12109.000  0.500  1.334247  58.5116  99.707  26.2585
  12109.300  12109.300  0.500  1.334193  58.496  99.6802  26.2528
  12109.581  12109.600  0.500  1.334331  58.477  99.6538  26.2423
  12109.888  12109.900  0.500  1.334427  58.4765  99.655  26.2401
  12110.181  12110.200  0.500  1.334461  58.4827  99.6631  26.2413
  12110.494  12110.500  0.500  1.334572  58.4872  99.6651  26.2389
  12110.794  12110.800  0.500  1.334819  58.4756  99.6477  26.2278
  12111.101  12111.100  0.500  1.335055  58.4628  99.6251  26.2157
  12111.414  12111.400  0.500  1.335350  58.4683  99.633  26.21
  12111.708  12111.700  0.500  1.335585  58.459  99.6285  26.2027
  12112.002  12112.000  0.500  1.336088  58.4312  99.5884  26.179
  12112.302  12112.300  0.500  1.336659  58.4273  99.5829  26.1626
  12112.608  12112.600  0.500  1.337290  58.455  99.6332  26.1593
  12112.890  12112.900  0.500  1.337886  58.4329  99.5945  26.1336
  12113.222  12113.200  0.500  1.338770  58.421  99.5699  26.104
  12113.503  12113.500  0.500  1.339651  58.4269  99.585  26.085
  12113.803  12113.800  0.500  1.340625  58.4183  99.5691  26.0554
  12114.097  12114.100  0.500  1.341718  58.4233  99.5663  26.0263
  12114.410  12114.400  0.500  1.342956  58.4068  99.5391  25.987
  12114.711  12114.700  0.500  1.344172  58.4031  99.5451  25.9569
  12114.992  12115.000  0.500  1.345535  58.4091  99.5564  25.9245
  12115.299  12115.300  0.500  1.347000  58.3861  99.5199  25.8771
  12115.580  12115.600  0.500  1.348567  58.3895  99.526  25.8381
  12115.899  12115.900  0.500  1.350124  58.3832  99.5146  25.795
  12116.181  12116.200  0.500  1.351673  58.3807  99.5086  25.7535
  12116.481  12116.500  0.500  1.353395  58.3794  99.5125  25.7102
  12116.788  12116.800  0.500  1.355085  58.3653  99.4932  25.6618
  12117.101  12117.100  0.500  1.356864  58.3608  99.4876  25.6148
  12117.382  12117.400  0.500  1.358491  58.3729  99.5053  25.5777
  12117.702  12117.700  0.500  1.360220  58.3521  99.473  25.5252
  12117.990  12118.000  0.500  1.361700  58.3537  99.4703  25.4868
  12118.322  12118.300  0.500  1.363285  58.3534  99.4749  25.4476
  12118.597  12118.600  0.500  1.364669  58.3329  99.4486  25.4057
  12118.904  12118.900  0.500  1.366029  58.3237  99.4343  25.3675
  12119.192  12119.200  0.500  1.367137  58.3377  99.4589  25.3456
  12119.512  12119.500  0.500  1.368098  58.3178  99.4169  25.3106
  12119.800  12119.800  0.500  1.369025  58.3076  99.3991  25.2827
  12120.113  12120.100  0.500  1.369771  58.3057  99.3944  25.2626
  12120.407  12120.400  0.500  1.370310  58.3093  99.4116  25.2534
  12120.702  12120.700  0.500  1.370665  58.2894  99.3713  25.2342
  12121.015  12121.000  0.500  1.370994  58.2903  99.3679  25.225
  12121.303  12121.300  0.500  1.371131  58.2878  99.3695  25.2219
  12121.597  12121.600  0.500  1.371220  58.2938  99.3751  25.2211
  12121.885  12121.900  0.500  1.371296  58.2698  99.3441  25.2113
  12122.205  12122.200  0.500  1.371180  58.274  99.3521  25.2163
  12122.487  12122.500  0.500  1.371105  58.2675  99.3488  25.2173
  12122.800  12122.800  0.500  1.371014  58.2691  99.3389  25.2171
  12123.082  12123.100  0.500  1.370902  58.2559  99.3216  25.2155
  12123.402  12123.400  0.500  1.370684  58.2728  99.3546  25.2294
  12123.677  12123.700  0.500  1.370752  58.2429  99.3097  25.2163
  12123.997  12124.000  0.500  1.370556  58.2615  99.321  25.2241
  12124.291  12124.300  0.500  1.370411  58.2215  99.2605  25.2124
  12124.599  12124.600  0.500  1.370400  58.2231  99.274  25.2161
  12124.797  12124.800  0.500  1.370539  58.2402  99.3042  25.2203
  12125.802  12125.790  0.500  1.370304  58.2018  99.2398  25.2099
  12126.801  12126.790  0.500  1.370405  58.1873  99.2204  25.2024
  12127.794  12127.810  0.500  1.370882  58.1161  99.108  25.1618
  12128.838  12128.860  0.500  1.371235  57.9401  98.8121  25.0778
  12129.895  12129.920  0.500  1.371536  58.0524  98.9928  25.1161
  12130.984  12131.000  0.500  1.371951  58.1548  99.1807  25.1534
  12132.118  12132.100  0.500  1.372329  58.1528  99.1779  25.1432
  12133.445  12133.220  0.500  1.372708  58.113  99.1093  25.1163
  12134.298  12134.360  0.500  1.373360  58.1008  99.0916  25.0954
  12135.503  12135.510  0.500  1.373776  58.0741  99.0491  25.0742
  12136.645  12136.690  0.500  1.374283  58.0368  98.9982  25.0486
  12137.876  12137.880  0.500  1.374378  58.0176  98.9656  25.038
  12139.089  12139.100  0.500  1.374049  57.9964  98.9333  25.0381
  12140.347  12140.330  0.500  1.373327  57.9887  98.9269  25.0545
  12141.579  12141.580  0.500  1.372146  57.9761  98.909  25.0796
  12142.850  12142.850  0.500  1.370476  57.9627  98.8907  25.1168
  12144.128  12144.140  0.500  1.368737  57.9576  98.8871  25.1597
  12145.438  12145.450  0.500  1.366991  57.9238  98.8309  25.1893
  12146.768  12146.780  0.500  1.365215  57.902  98.7971  25.2254
  12148.130  12148.130  0.500  1.363584  57.8846  98.7678  25.2591
  12149.512  12149.500  0.500  1.362512  57.863  98.7477  25.2811
  12150.894  12150.880  0.500  1.361333  57.8404  98.7068  25.3004
  12152.290  12152.290  0.500  1.360646  57.8215  98.6803  25.311
  12153.711  12153.710  0.500  1.360077  57.8015  98.6468  25.3168
  12155.158  12155.150  0.500  1.359685  57.7928  98.6386  25.3246
  12156.600  12156.610  0.500  1.359184  57.7528  98.5799  25.3222
  12158.080  12158.090  0.500  1.358991  57.7369  98.5585  25.3216
  12159.606  12159.590  0.500  1.358710  57.7154  98.5246  25.3201
  12161.119  12161.110  0.500  1.358162  57.6374  98.3934  25.3002
  12162.646  12162.650  0.500  1.357639  57.4701  98.1108  25.2407
  12164.224  12164.210  0.500  1.356898  57.6545  98.4368  25.3434
  12165.784  12165.780  0.500  1.356215  57.6561  98.437  25.3607
  12167.370  12167.380  0.500  1.355363  57.6307  98.3933  25.3711
  12168.969  12168.990  0.500  1.354848  57.6089  98.3639  25.3766
  12170.620  12170.630  0.500  1.354224  57.578  98.3189  25.3808
  12172.297  12172.280  0.500  1.353518  57.5528  98.2763  25.3877
  12173.943  12173.950  0.500  1.353247  57.5302  98.2498  25.3877
  12175.653  12175.640  0.500  1.352933  57.5182  98.2347  25.3918
  12177.358  12177.350  0.500  1.352777  57.4862  98.1903  25.3843
  12179.095  12179.080  0.500  1.352496  57.4687  98.1651  25.3849
  12180.820  12180.830  0.500  1.352267  57.4385  98.1215  25.3794
  12182.578  12182.590  0.500  1.352200  57.4142  98.0843  25.3715
  12184.388  12184.380  0.500  1.352122  57.3925  98.0481  25.3641
  12186.179  12186.180  0.500  1.352015  57.3872  98.0335  25.3631
  12188.022  12188.010  0.500  1.352004  57.3598  98.003  25.3555
  12189.853  12189.850  0.500  1.352078  57.3179  97.9346  25.3359
  12191.705  12191.710  0.500  1.352063  57.2928  97.9011  25.3276
  12193.582  12193.590  0.500  1.352035  57.2679  97.8722  25.3208
  12195.492  12195.490  0.500  1.352031  57.25  97.8443  25.3137
  12197.423  12197.410  0.500  1.351993  57.2238  97.7966  25.3023
  12199.367  12199.350  0.500  1.352001  57.1439  97.6617  25.2672
  12201.318  12201.310  0.500  1.352103  56.9978  97.4196  25.202
  12203.270  12203.280  0.500  1.351978  57.1645  97.714  25.2813
  12205.281  12205.280  0.500  1.351795  57.1524  97.6986  25.282
  12207.293  12207.290  0.500  1.351675  57.1187  97.6589  25.2748
  12209.324  12209.320  0.500  1.351320  57.1816  97.7762  25.3141
  12211.389  12211.380  0.500  1.350955  57.1611  97.74  25.314
  12213.455  12213.450  0.500  1.350556  57.131  97.6918  25.3116
  12215.547  12215.540  0.500  1.350116  57.1374  97.7176  25.3294
  12217.666  12217.650  0.500  1.349537  57.0869  97.6346  25.3225
  12219.786  12219.780  0.500  1.349040  57.0792  97.624  25.3324
  12221.932  12221.920  0.500  1.348737  57.0319  97.5529  25.3216
  12224.099  12224.090  0.500  1.348310  57.0085  97.5199  25.3239
  12226.286  12226.280  0.500  1.347989  56.9829  97.4805  25.3217
  12228.461  12228.480  0.500  1.347746  56.9544  97.4392  25.3172
  12230.702  12230.700  0.500  1.347574  56.9235  97.4057  25.3128
  12232.969  12232.950  0.500  1.347322  56.8219  97.2325  25.2742
  12235.225  12235.210  0.500  1.347020  55.4304  94.8635  24.6658
  12237.488  12237.490  0.500  1.346910  56.5503  96.7779  25.1664
  12239.784  12239.790  0.500  1.346434  56.7201  97.0804  25.2571
  12242.134  12242.110  0.500  1.345967  56.7268  97.0907  25.2715
  12244.471  12244.450  0.500  1.345463  56.7137  97.0771  25.2807
  12246.803  12246.800  0.500  1.344986  56.6829  97.0353  25.2819
  12249.174  12249.180  0.500  1.344532  56.6585  96.9953  25.2829
  12251.586  12251.570  0.500  1.343906  56.6261  96.9484  25.2866
  12254.006  12253.990  0.500  1.343251  56.5848  96.893  25.2887
  12256.433  12256.420  0.500  1.342757  56.4048  96.5808  25.2196
  12258.880  12258.870  0.500  1.342094  56.5205  96.79  25.291
  12261.362  12261.350  0.500  1.341464  56.4237  96.6324  25.2658
  12263.850  12263.840  0.500  1.340745  55.1835  94.5282  24.7334
  12266.360  12266.350  0.500  1.340195  56.2121  96.2887  25.2079
  12268.864  12268.870  0.500  1.339428  56.3922  96.6075  25.3107
  12271.422  12271.420  0.500  1.338791  56.2878  96.4292  25.2801
  12274.013  12273.990  0.500  1.338291  56.3586  96.5594  25.3269
  12276.573  12276.570  0.500  1.337872  56.3217  96.5068  25.3237
  12279.180  12279.180  0.500  1.337436  56.2805  96.4445  25.3184
  12281.807  12281.800  0.500  1.337024  56.2228  96.3437  25.3024
  12284.469  12284.450  0.500  1.336690  56.0898  96.1303  25.2548
  12287.118  12287.110  0.500  1.336312  56.1198  96.1897  25.2799
  12289.782  12289.790  0.500  1.335742  55.1282  94.4951  24.8487
  12292.507  12292.490  0.500  1.335433  55.7479  95.5703  25.1392
  12295.219  12295.210  0.500  1.334890  56.0416  96.078  25.2865
  12297.939  12297.950  0.500  1.334360  55.959  95.9451  25.2649
  12300.700  12300.700  0.500  1.333957  55.9751  95.9926  25.2876
  12303.496  12303.480  0.500  1.333365  55.9469  95.9404  25.2888
  12306.292  12306.270  0.500  1.332882  55.9086  95.8788  25.2848
  12309.097  12309.090  0.500  1.332340  55.8915  95.8656  25.295
  12311.948  12311.920  0.500  1.331917  55.8463  95.7929  25.2865
  12314.802  12314.770  0.500  1.331397  55.8079  95.7486  25.288
  12317.656  12317.650  0.500  1.330810  55.7514  95.6506  25.2769
  12320.545  12320.540  0.500  1.330305  54.3588  93.2651  24.659
  12323.475  12323.450  0.500  1.329862  55.5093  95.2433  25.1932
  12326.380  12326.370  0.500  1.329346  55.5964  95.4095  25.2501
  12329.313  12329.320  0.500  1.328998  55.5841  95.3978  25.2558
  12332.300  12332.290  0.500  1.328412  55.5671  95.3741  25.2644
  12335.302  12335.270  0.500  1.327957  55.5237  95.309  25.2586
  12338.293  12338.280  0.500  1.327687  55.4916  95.2637  25.2534
  12341.318  12341.300  0.500  1.327156  55.4511  95.2008  25.2502
  12344.371  12344.350  0.500  1.327041  55.3993  95.1282  25.2338
  12347.432  12347.410  0.500  1.326521  55.3638  95.0737  25.2325
  12350.488  12350.490  0.500  1.326096  55.2902  94.9531  25.2112
  12353.598  12353.590  0.500  1.325646  55.3073  94.9907  25.2325
  12356.717  12356.710  0.500  1.325120  55.1303  94.7044  25.1697
  12359.831  12359.850  0.500  1.324534  55.2309  94.8802  25.2312
  12363.013  12363.000  0.500  1.324022  55.1413  94.7446  25.208
  12366.204  12366.180  0.500  1.323291  55.1467  94.7566  25.2297
  12369.369  12369.370  0.500  1.322668  55.1153  94.7108  25.2332
  12372.596  12372.590  0.500  1.321865  54.9465  94.4303  25.1787
  12375.838  12375.820  0.500  1.321352  55.0192  94.5798  25.2315
  12379.055  12379.070  0.500  1.320655  54.9891  94.5271  25.235
  12382.348  12382.350  0.500  1.319923  54.8575  94.3134  25.1964
  12385.662  12385.640  0.500  1.319418  54.8566  94.3153  25.2096
  12388.938  12388.950  0.500  1.318866  54.8871  94.3743  25.2393
  12392.269  12392.270  0.500  1.318411  54.8216  94.2757  25.2244
  12395.642  12395.620  0.500  1.317735  54.7881  94.2304  25.2294
  12399.003  12398.990  0.500  1.317175  54.7374  94.1502  25.222
  12402.380  12402.370  0.500  1.316614  54.7086  94.1125  25.2261
  12405.806  12405.780  0.500  1.316035  54.6599  94.0353  25.2199
  12409.193  12409.200  0.500  1.315429  54.5957  93.9238  25.2053
  12412.663  12412.650  0.500  1.314800  54.5625  93.8791  25.2092
  12416.114  12416.110  0.500  1.314080  54.4977  93.7859  25.2023
  12419.581  12419.590  0.500  1.313484  54.4794  93.7631  25.2112
  12423.090  12423.090  0.500  1.312857  54.4188  93.6656  25.2008
  12426.628  12426.610  0.500  1.312188  54.3875  93.6196  25.2052
  12430.148  12430.150  0.500  1.311502  54.3119  93.5111  25.1933
  12433.731  12433.700  0.500  1.310665  54.2544  93.4228  25.1906
  12437.295  12437.280  0.500  1.310134  53.7836  92.618  24.9868
  12440.916  12440.880  0.500  1.309625  54.2295  93.3959  25.2095
  12444.512  12444.490  0.500  1.308965  54.1771  93.3131  25.2038
  12448.136  12448.120  0.500  1.308324  54.1333  93.2532  25.2038
  12451.797  12451.780  0.500  1.307679  54.0345  93.0882  25.1754
  12455.480  12455.450  0.500  1.307063  54.0388  93.1096  25.1967
  12459.145  12459.140  0.500  1.306619  53.9911  93.0335  25.1873
  12462.873  12462.850  0.500  1.306021  53.9594  92.9849  25.1892
  12466.590  12466.580  0.500  1.305343  53.8941  92.8793  25.1777
  12470.316  12470.320  0.500  1.304853  53.8015  92.7394  25.1521
  12474.099  12474.090  0.500  1.304215  53.8055  92.7487  25.1706
  12477.890  12477.880  0.500  1.303527  53.7563  92.6783  25.1689
  12481.704  12481.680  0.500  1.302866  53.6841  92.5691  25.1558
  12485.541  12485.510  0.500  1.302186  53.2101  91.7455  24.949
  12489.347  12489.350  0.500  1.301524  53.6287  92.4854  25.1668
  12493.216  12493.210  0.500  1.300839  53.5842  92.4227  25.167
  12497.101  12497.090  0.500  1.300148  53.5329  92.343  25.1627
  12501.022  12500.990  0.500  1.299620  53.4947  92.2926  25.1622
  12504.932  12504.910  0.500  1.298968  53.4418  92.2143  25.1573
  12508.852  12508.850  0.500  1.298209  53.3785  92.1055  25.1467
  12512.815  12512.810  0.500  1.297531  53.3384  92.0568  25.1504
  12516.801  12516.780  0.500  1.296882  53.2917  91.986  25.1474
  12520.803  12520.780  0.500  1.296097  53.2342  91.899  25.1434
  12524.829  12524.790  0.500  1.295547  53.1856  91.8236  25.1365
  12528.850  12528.830  0.500  1.294762  53.1304  91.7351  25.132
  12532.894  12532.880  0.500  1.294123  53.0796  91.6603  25.1276
  12536.976  12536.950  0.500  1.293474  53.0167  91.5635  25.1173
  12541.039  12541.040  0.500  1.292723  52.7354  91.0824  25.0041
  12545.194  12545.150  0.500  1.292105  52.9448  91.4592  25.1231
  12549.297  12549.280  0.500  1.291225  52.8934  91.3876  25.1255
  12553.444  12553.430  0.500  1.290382  52.8349  91.297  25.1218
  12557.615  12557.590  0.500  1.289726  52.7847  91.2156  25.1159
  12561.809  12561.780  0.500  1.289029  52.7297  91.1377  25.1119
  12565.998  12565.980  0.500  1.288195  52.686  91.07  25.1142
  12570.239  12570.210  0.500  1.287541  52.6222  90.9649  25.1016
  12574.490  12574.450  0.500  1.286805  52.5732  90.8976  25.1015
  12578.764  12578.710  0.500  1.286128  52.521  90.8065  25.0934
  12583.007  12582.990  0.500  1.285420  52.4686  90.7393  25.0926
  12587.342  12587.290  0.500  1.284575  52.4181  90.6612  25.0921
  12591.660  12591.610  0.500  1.283834  52.3645  90.5848  25.0896
  12595.974  12595.950  0.500  1.283222  52.3104  90.4965  25.0804
  12600.339  12600.310  0.500  1.282462  52.2455  90.3956  25.0716
  12604.728  12604.690  0.500  1.281652  52.2114  90.3402  25.0765
  12609.106  12609.080  0.500  1.281061  52.1615  90.2722  25.0724
  12613.550  12613.500  0.500  1.280427  52.1148  90.2006  25.0684
  12617.948  12617.930  0.500  1.279535  52.0494  90.1061  25.0645
  12622.440  12622.380  0.500  1.278827  51.9637  89.9651  25.043
  12626.810  12626.850  0.500  1.277956  51.9094  89.8811  25.0414
  12631.308  12631.340  0.500  1.277356  51.8913  89.859  25.0503
  12635.816  12635.850  0.500  1.276593  51.8261  89.7562  25.0407
  12640.349  12640.380  0.500  1.275769  51.7597  89.6537  25.0328
  12644.905  12644.930  0.500  1.275064  51.7238  89.6121  25.0388
  12649.486  12649.500  0.500  1.274473  51.6512  89.4957  25.0211
  12654.078  12654.080  0.500  1.273693  51.617  89.4409  25.0253
  12658.686  12658.690  0.500  1.272937  51.5571  89.3553  25.0202
  12663.298  12663.310  0.500  1.272139  51.5004  89.2639  25.0146
  12667.956  12667.960  0.500  1.271315  51.4493  89.1901  25.0145
  12672.616  12672.620  0.500  1.270578  51.3925  89.1043  25.0088
  12677.309  12677.300  0.500  1.269888  51.3321  89.0102  24.9997
  12682.012  12682.000  0.500  1.269051  51.2822  88.9276  24.9974
  12686.739  12686.720  0.500  1.268333  51.2126  88.8275  24.9872
  12691.484  12691.460  0.500  1.267526  51.1578  88.7454  24.9842
  12696.226  12696.210  0.500  1.266678  51.101  88.6513  24.9789
  12701.042  12700.990  0.500  1.265962  51.0487  88.5734  24.9749
  12705.790  12705.790  0.500  1.265301  50.9785  88.4708  24.9624
  12710.627  12710.600  0.500  1.264492  50.9214  88.3814  24.9574
  12715.468  12715.430  0.500  1.263630  50.87  88.2947  24.9544
  12720.306  12720.290  0.500  1.262942  50.8084  88.1966  24.9438
  12725.203  12725.160  0.500  1.262061  50.7472  88.1017  24.9389
  12730.084  12730.050  0.500  1.261331  50.6807  87.9994  24.9282
  12734.975  12734.960  0.500  1.260381  50.5746  87.836  24.9055
  12739.919  12739.890  0.500  1.259611  50.5391  87.7835  24.9098
  12744.853  12744.830  0.500  1.258808  50.5202  87.7544  24.9216
  12749.827  12749.800  0.500  1.257973  50.4703  87.6809  24.9215
  12754.818  12754.790  0.500  1.257118  50.3962  87.5713  24.9116
  12759.821  12759.790  0.500  1.256360  50.3392  87.477  24.9037
  12764.849  12764.820  0.500  1.255670  50.4658  87.715  24.9887
  12769.881  12769.860  0.500  1.254772  50.4228  87.6501  24.9926
  12774.953  12774.920  0.500  1.254058  50.3747  87.5866  24.9924
  12780.021  12780.000  0.500  1.253023  50.3157  87.4964  24.9925
  12785.129  12785.100  0.500  1.252326  50.2533  87.3978  24.9817
  12790.263  12790.220  0.500  1.251372  50.1948  87.3046  24.9789
  12795.387  12795.360  0.500  1.250532  50.1342  87.2061  24.9717
  12800.550  12800.520  0.500  1.249715  50.0685  87.1089  24.9642
  12805.718  12805.700  0.500  1.249047  50.0086  87.0141  24.9537
  12810.919  12810.890  0.500  1.248042  49.9524  86.935  24.9561
  12816.131  12816.110  0.500  1.247311  49.8829  86.8304  24.9443
  12821.354  12821.340  0.500  1.246469  49.8237  86.7366  24.9384
  12826.632  12826.590  0.500  1.245649  49.7075  86.543  24.9031
  12831.893  12831.860  0.500  1.244846  49.7019  86.5469  24.9242
  12837.187  12837.150  0.500  1.243866  49.63  86.4364  24.9168
  12842.471  12842.460  0.500  1.243070  49.5642  86.3302  24.906
  12847.825  12847.790  0.500  1.242143  49.4872  86.2042  24.8927
  12853.161  12853.140  0.500  1.241403  49.4377  86.1269  24.8888
  12858.545  12858.510  0.500  1.240438  49.381  86.0428  24.8885
  12863.933  12863.890  0.500  1.239625  49.3166  85.9357  24.8778
  12869.348  12869.300  0.500  1.238853  49.245  85.8293  24.8661
  12874.746  12874.720  0.500  1.238054  49.1266  85.6331  24.8291
  12880.220  12880.170  0.500  1.237246  49.1258  85.642  24.8518
  12885.670  12885.630  0.500  1.236324  49.0608  85.5416  24.8455
  12891.162  12891.110  0.500  1.235409  48.9923  85.4393  24.8385
  12896.643  12896.610  0.500  1.234589  48.9262  85.3282  24.8266
  12902.166  12902.130  0.500  1.233737  48.8623  85.235  24.8206
  12907.700  12907.670  0.500  1.232833  48.7917  85.126  24.8113
  12913.240  12913.220  0.500  1.232041  48.6955  84.9793  24.7882
  12918.849  12918.800  0.500  1.231150  48.6697  84.9449  24.8002
  12924.435  12924.400  0.500  1.230224  48.5921  84.8223  24.7874
  12930.062  12930.010  0.500  1.229437  48.4269  84.54  24.7243
  12935.686  12935.650  0.500  1.228535  48.4667  84.6235  24.7711
  12941.330  12941.300  0.500  1.227738  48.1078  84.0062  24.61
  12947.008  12946.970  0.500  1.226740  48.3184  84.3933  24.7481
  12952.706  12952.660  0.500  1.225836  48.0349  83.906  24.6274