File: xdidata/W/W-L3-TungstenOxide.xdi
# XDI/1.0 BlueSky/1.10.0 BMM/2023-1.0-py310-tiled
# Beamline.name: BMM (06BM) -- Beamline for Materials Measurement (NIST)
# Beamline.xray_source: NSLS-II three-pole wiggler
# Beamline.collimation: paraboloid mirror, 5 nm Rh on 30 nm Pt
# Beamline.focusing: not in use
# Beamline.harmonic_rejection: flat mirror, Pt stripe, pitch = 7.0 mrad relative to beam
# Beamline.software: Bluesky 1.10.0, Ophyd 1.7.0, DataBroker 2.0.0b13, Python 3.10.8, 2023-1.0-py310-tiled
# Detector.I0: 10 cm N2
# Detector.I1: 25 cm N2
# Detector.I2: 25 cm N2
# Element.symbol: W
# Element.edge: L3
# Element.reference: W
# Element.reference_material: WO3
# Facility.name: NSLS-II
# Facility.energy: 3.0
# Facility.current: 399.9
# Facility.mode: top-off
# Facility.GUP: 301027
# Facility.SAF: 310583
# Facility.cycle: 2023-2
# Mono.name: Si(111)
# Mono.d_spacing: 3.13519
# Mono.encoder_resolution: 0.0000050 deg/ct
# Mono.angle_offset: 16.0754 deg
# Mono.scan_mode: pseudo channel cut
# Mono.scan_type: step
# Mono.direction: forward in energy
# Sample.name: WO3
# Sample.prep: PEG pellet
# Sample.x: 109.138 mm
# Sample.y: 153.150 mm
# Sample.SDD_position: 205.000 mm
# Scan.experimenters: Bruce Ravel
# Scan.edge_energy: 10206.8
# Scan.start_time: 2023-05-28T17:40:11
# Scan.end_time: 2023-05-28T17:48:36
# Scan.transient_id: 78882
# Scan.uid: c40f4c59-4dae-4041-9b24-ad9d6c138e51
# Scan.plot_hint: ln(It/Ir)  --  ln($6/$7)
# Column.1: energy eV
# Column.2: requested_energy eV
# Column.3: measurement_time seconds
# Column.4: xmu
# Column.5: I0 nA
# Column.6: It nA
# Column.7: Ir nA
# ///////////
# sample courtesy Martin Stennett, University of Sheffield
# -----------
# energy  requested_energy  measurement_time  xmu  I0  It  Ir
  10006.746  10006.800  0.500  1.242203  97.3769  149.312  43.1134
  10016.829  10016.800  0.500  1.239219  96.4899  148.062  42.8802
  10026.841  10026.800  0.500  1.235981  96.975  148.907  43.2649
  10036.891  10036.800  0.500  1.233105  93.9616  144.402  42.0768
  10046.861  10046.800  0.500  1.230050  96.6654  148.631  43.4414
  10056.830  10056.800  0.500  1.227037  96.4905  148.481  43.5286
  10066.836  10066.800  0.500  1.224053  96.2717  148.252  43.5915
  10076.867  10076.800  0.500  1.221130  96.0955  148.109  43.6768
  10086.821  10086.800  0.500  1.218170  95.9197  147.946  43.758
  10096.836  10096.800  0.500  1.215321  95.6707  147.656  43.7969
  10106.839  10106.800  0.500  1.212506  95.5142  147.512  43.8775
  10116.832  10116.800  0.500  1.209816  95.3374  147.349  43.9472
  10126.859  10126.800  0.500  1.207193  95.1603  147.186  44.0139
  10136.865  10136.800  0.500  1.204766  94.9565  146.952  44.0506
  10146.821  10146.800  0.500  1.202946  94.8009  146.801  44.0855
  10156.841  10156.800  0.500  1.201657  94.6303  146.638  44.0934
  10166.832  10166.800  0.500  1.201631  94.3948  146.378  44.0164
  10176.834  10176.800  0.500  1.204622  94.2841  146.309  43.8641
  10178.781  10178.800  0.500  1.205908  94.2255  146.247  43.7893
  10180.773  10180.800  0.500  1.207442  94.1749  146.188  43.7046
  10182.779  10182.800  0.500  1.209560  94.1397  146.167  43.6059
  10184.777  10184.800  0.500  1.212293  94.099  146.114  43.4711
  10186.776  10186.800  0.500  1.215742  94.0535  146.063  43.3063
  10188.767  10188.800  0.500  1.220283  94.0161  146.029  43.1001
  10190.780  10190.800  0.500  1.226404  93.9762  145.979  42.8222
  10192.773  10192.800  0.500  1.234569  93.9093  145.893  42.4491
  10194.779  10194.800  0.500  1.245737  93.6765  145.543  41.8769
  10196.782  10196.800  0.500  1.262042  93.8278  145.784  41.2678
  10197.070  10197.100  0.500  1.264944  93.8424  145.832  41.1618
  10197.354  10197.400  0.500  1.267881  93.845  145.852  41.0468
  10197.674  10197.700  0.500  1.271464  93.824  145.803  40.8863
  10197.966  10198.000  0.500  1.274869  93.8211  145.82  40.7519
  10198.259  10198.300  0.500  1.278557  93.8117  145.812  40.5996
  10198.570  10198.600  0.500  1.282729  93.814  145.827  40.4347
  10198.867  10198.900  0.500  1.286910  93.805  145.808  40.261
  10199.173  10199.200  0.500  1.291605  93.7801  145.765  40.0604
  10199.466  10199.500  0.500  1.296386  93.7952  145.772  39.8713
  10199.759  10199.800  0.500  1.301695  93.7665  145.728  39.6484
  10200.065  10200.100  0.500  1.307452  93.7521  145.712  39.4164
  10200.358  10200.400  0.500  1.313337  93.7646  145.73  39.1898
  10200.669  10200.700  0.500  1.319967  93.7448  145.695  38.9217
  10200.966  10201.000  0.500  1.327119  93.7523  145.711  38.6483
  10201.263  10201.300  0.500  1.334692  93.7156  145.67  38.3459
  10201.570  10201.600  0.500  1.342894  93.7081  145.658  38.0296
  10201.863  10201.900  0.500  1.351640  93.7105  145.683  37.705
  10202.169  10202.200  0.500  1.361297  93.6929  145.649  37.3339
  10202.480  10202.500  0.500  1.371413  93.6815  145.614  36.9494
  10202.773  10202.800  0.500  1.382146  93.6771  145.623  36.557
  10203.084  10203.100  0.500  1.394317  93.6703  145.615  36.113
  10203.377  10203.400  0.500  1.406809  93.6549  145.592  35.6588
  10203.693  10203.700  0.500  1.421447  93.6588  145.592  35.1408
  10203.990  10204.000  0.500  1.436786  93.6632  145.613  34.6109
  10204.288  10204.300  0.500  1.454252  93.6334  145.559  33.999
  10204.585  10204.600  0.500  1.472616  93.6342  145.581  33.3853
  10204.887  10204.900  0.500  1.493487  93.8852  145.98  32.7853
  10205.194  10205.200  0.500  1.516058  93.8689  145.951  32.0474
  10205.492  10205.500  0.500  1.540387  93.8733  145.957  31.2783
  10205.798  10205.800  0.500  1.567598  93.8704  145.95  30.4371
  10206.082  10206.100  0.500  1.594830  93.8662  145.958  29.6212
  10206.394  10206.400  0.500  1.625725  93.8808  145.982  28.7248
  10206.687  10206.700  0.500  1.657245  93.8545  145.945  27.8263
  10206.989  10207.000  0.500  1.690395  93.8631  145.944  26.9189
  10207.296  10207.300  0.500  1.725213  93.8444  145.928  25.9948
  10207.584  10207.600  0.500  1.760294  93.8307  145.911  25.0958
  10207.891  10207.900  0.500  1.795727  93.8463  145.937  24.2266
  10208.184  10208.200  0.500  1.830026  93.8247  145.908  23.4051
  10208.487  10208.500  0.500  1.863598  93.8166  145.912  22.6329
  10208.785  10208.800  0.500  1.893479  93.7948  145.889  21.9632
  10209.091  10209.100  0.500  1.919612  93.8055  145.914  21.4002
  10209.394  10209.400  0.500  1.941341  93.7979  145.893  20.9373
  10209.683  10209.700  0.500  1.956650  93.778  145.877  20.617
  10209.999  10210.000  0.500  1.968397  93.7779  145.872  20.3755
  10210.297  10210.300  0.500  1.975440  93.7685  145.866  20.2317
  10210.590  10210.600  0.500  1.979350  93.7762  145.872  20.1535
  10210.906  10210.900  0.500  1.981591  93.7557  145.83  20.1026
  10211.199  10211.200  0.500  1.982606  93.7379  145.821  20.081
  10211.497  10211.500  0.500  1.983426  93.7472  145.835  20.0665
  10211.800  10211.800  0.500  1.983891  93.7391  145.815  20.0544
  10212.093  10212.100  0.500  1.984294  93.7382  145.823  20.0474
  10212.400  10212.400  0.500  1.984220  93.7205  145.811  20.0472
  10212.694  10212.700  0.500  1.982888  93.7133  145.787  20.0707
  10212.988  10213.000  0.500  1.980101  93.7034  145.779  20.1255
  10213.299  10213.300  0.500  1.974455  93.6956  145.777  20.2392
  10213.588  10213.600  0.500  1.966589  93.6911  145.772  20.3984
  10213.882  10213.900  0.500  1.955352  93.6839  145.762  20.6274
  10214.194  10214.200  0.500  1.940865  93.6837  145.763  20.9287
  10214.496  10214.500  0.500  1.923949  93.6749  145.754  21.2843
  10214.794  10214.800  0.500  1.905297  93.677  145.766  21.6869
  10215.111  10215.100  0.500  1.884207  93.6565  145.742  22.1454
  10215.404  10215.400  0.500  1.864246  93.6555  145.732  22.5903
  10215.694  10215.700  0.500  1.844305  93.6443  145.713  23.0424
  10216.010  10216.000  0.500  1.823636  93.6446  145.71  23.5231
  10216.304  10216.300  0.500  1.805006  93.6528  145.73  23.9688
  10216.606  10216.600  0.500  1.786556  93.626  145.698  24.4097
  10216.909  10216.900  0.500  1.768515  93.6138  145.68  24.851
  10217.203  10217.200  0.500  1.751655  93.6098  145.684  25.2742
  10217.497  10217.500  0.500  1.735933  93.6055  145.678  25.6737
  10217.800  10217.800  0.500  1.719712  93.5851  145.663  26.0909
  10218.094  10218.100  0.500  1.705079  93.5988  145.679  26.4783
  10218.392  10218.400  0.500  1.690990  93.571  145.624  26.8438
  10218.695  10218.700  0.500  1.677617  93.5792  145.651  27.2102
  10218.989  10219.000  0.500  1.665043  93.5597  145.61  27.5469
  10219.287  10219.300  0.500  1.653573  93.5561  145.612  27.8651
  10219.599  10219.600  0.500  1.642698  93.5472  145.599  28.1671
  10219.902  10219.900  0.500  1.633422  93.5497  145.595  28.429
  10220.205  10220.200  0.500  1.625086  93.5392  145.593  28.6665
  10220.508  10220.500  0.500  1.617627  93.516  145.558  28.8742
  10220.811  10220.800  0.500  1.611403  93.5065  145.545  29.0519
  10221.105  10221.100  0.500  1.605835  93.5295  145.589  29.223
  10221.418  10221.400  0.500  1.600837  93.5159  145.56  29.3634
  10221.703  10221.700  0.500  1.596663  93.4948  145.519  29.478
  10222.001  10222.000  0.500  1.593116  93.4845  145.515  29.5818
  10222.309  10222.300  0.500  1.589782  93.477  145.506  29.6789
  10222.589  10222.600  0.500  1.587230  93.4792  145.508  29.7551
  10222.893  10222.900  0.500  1.584755  93.5048  145.544  29.8362
  10223.200  10223.200  0.500  1.582661  93.4875  145.524  29.8947
  10223.485  10223.500  0.500  1.580930  93.4398  145.474  29.9361
  10223.793  10223.800  0.500  1.579193  93.4446  145.465  29.9863
  10224.096  10224.100  0.500  1.577619  93.4556  145.481  30.0368
  10224.391  10224.400  0.500  1.576118  93.4399  145.466  30.0788
  10224.698  10224.700  0.500  1.574561  93.4284  145.466  30.1257
  10224.997  10225.000  0.500  1.573253  93.4176  145.438  30.1594
  10225.301  10225.300  0.500  1.572137  93.4067  145.431  30.1917
  10225.608  10225.600  0.500  1.570991  93.3714  145.387  30.2172
  10225.894  10225.900  0.500  1.569897  93.3486  145.356  30.2436
  10226.206  10226.200  0.500  1.569094  93.3649  145.384  30.2739
  10226.505  10226.500  0.500  1.568237  93.3437  145.358  30.2943
  10226.804  10226.800  0.500  1.567662  93.3505  145.363  30.3129
  10227.112  10227.100  0.500  1.566954  93.3574  145.363  30.3343
  10227.411  10227.400  0.500  1.566489  93.3477  145.366  30.3491
  10227.701  10227.700  0.500  1.566024  93.3449  145.363  30.3625
  10228.000  10228.000  0.500  1.565657  93.3481  145.368  30.3747
  10228.294  10228.300  0.500  1.565400  93.3361  145.358  30.3804
  10228.598  10228.600  0.500  1.565182  93.3397  145.369  30.3893
  10228.888  10228.900  0.500  1.564981  93.3254  145.351  30.3917
  10229.191  10229.200  0.500  1.564681  93.312  145.334  30.3972
  10229.495  10229.500  0.500  1.564311  93.3104  145.318  30.4053
  10229.794  10229.800  0.500  1.563876  93.297  145.306  30.4158
  10230.106  10230.100  0.500  1.563375  93.2922  145.299  30.4298
  10230.383  10230.400  0.500  1.562770  93.3112  145.334  30.4554
  10230.700  10230.700  0.500  1.561881  93.2867  145.301  30.4756
  10231.004  10231.000  0.500  1.561089  93.2708  145.286  30.4965
  10231.303  10231.300  0.500  1.560003  93.2605  145.278  30.5281
  10231.602  10231.600  0.500  1.559021  93.2495  145.262  30.5547
  10231.802  10231.800  0.500  1.558295  93.2545  145.261  30.5767
  10232.890  10232.790  0.500  1.554012  93.2271  145.229  30.7012
  10233.747  10233.790  0.500  1.551273  93.2885  145.336  30.8079
  10234.785  10234.810  0.500  1.548051  93.2451  145.267  30.8928
  10235.879  10235.860  0.500  1.545568  93.224  145.261  30.9683
  10236.972  10236.920  0.500  1.543680  93.2002  145.22  31.0181
  10237.962  10238.000  0.500  1.542879  93.1224  145.11  31.0195
  10239.078  10239.100  0.500  1.542790  92.8953  144.771  30.9496
  10240.182  10240.220  0.500  1.543372  92.8611  144.722  30.9212
  10241.321  10241.360  0.500  1.544003  93.0974  145.108  30.9841
  10242.484  10242.510  0.500  1.544123  93.0896  145.111  30.9811
  10243.670  10243.690  0.500  1.543852  93.0514  145.062  30.979
  10244.852  10244.880  0.500  1.543336  93.0237  145.034  30.9891
  10246.088  10246.100  0.500  1.543097  93.0146  145.04  30.9976
  10247.311  10247.330  0.500  1.543149  92.9716  144.979  30.9831
  10248.557  10248.580  0.500  1.543903  92.9525  144.958  30.9553
  10249.822  10249.850  0.500  1.545261  92.9238  144.921  30.9052
  10251.119  10251.140  0.500  1.547443  92.8997  144.903  30.8341
  10252.448  10252.450  0.500  1.550564  92.871  144.859  30.7286
  10253.768  10253.780  0.500  1.554209  92.8449  144.824  30.6095
  10255.120  10255.130  0.500  1.558456  92.8232  144.805  30.4759
  10256.487  10256.500  0.500  1.562756  92.7952  144.768  30.3372
  10257.858  10257.880  0.500  1.566926  92.7545  144.715  30.1999
  10259.276  10259.290  0.500  1.570860  92.7395  144.71  30.0804
  10260.707  10260.710  0.500  1.574316  92.7143  144.685  29.9714
  10262.157  10262.150  0.500  1.577482  92.6728  144.637  29.8668
  10263.612  10263.610  0.500  1.580324  92.6496  144.61  29.7765
  10265.073  10265.090  0.500  1.582673  92.6124  144.573  29.6989
  10266.574  10266.590  0.500  1.584220  92.5799  144.54  29.6463
  10268.094  10268.110  0.500  1.584580  92.5494  144.505  29.6284
  10269.643  10269.650  0.500  1.583534  92.5225  144.472  29.6527
  10271.205  10271.210  0.500  1.581422  92.4889  144.429  29.7064
  10272.786  10272.780  0.500  1.578540  92.4544  144.396  29.7855
  10274.377  10274.380  0.500  1.575556  92.6765  144.764  29.9506
  10275.977  10275.990  0.500  1.572909  92.6296  144.7  30.0168
  10277.619  10277.630  0.500  1.570282  92.3239  144.239  29.9998
  10279.276  10279.280  0.500  1.567955  92.6462  144.761  30.1784
  10280.955  10280.950  0.500  1.565957  92.626  144.755  30.2375
  10282.631  10282.640  0.500  1.564278  92.6013  144.715  30.2799
  10284.344  10284.350  0.500  1.563102  92.57  144.682  30.3088
  10286.067  10286.080  0.500  1.562173  92.5324  144.64  30.3282
  10287.831  10287.830  0.500  1.561505  92.5072  144.62  30.3442
  10289.601  10289.590  0.500  1.561161  92.4638  144.575  30.3451
  10291.390  10291.380  0.500  1.561146  92.4339  144.552  30.3409
  10293.175  10293.180  0.500  1.561291  92.4001  144.506  30.3268
  10294.997  10295.010  0.500  1.561431  92.3559  144.463  30.3134
  10296.856  10296.850  0.500  1.561629  92.3251  144.435  30.3016
  10298.716  10298.710  0.500  1.561489  92.2982  144.398  30.2982
  10300.582  10300.590  0.500  1.560954  92.2556  144.343  30.3026
  10302.489  10302.490  0.500  1.559862  92.2057  144.289  30.3244
  10304.407  10304.410  0.500  1.558575  92.1733  144.248  30.3549
  10306.362  10306.350  0.500  1.557021  92.1444  144.225  30.3972
  10308.313  10308.310  0.500  1.555276  92.1072  144.194  30.4439
  10310.265  10310.280  0.500  1.553740  92.0589  144.135  30.4781
  10312.282  10312.280  0.500  1.552095  92.0282  144.093  30.5195
  10314.295  10314.290  0.500  1.550580  91.9804  144.043  30.5551
  10316.319  10316.320  0.500  1.549646  91.9383  143.993  30.5731
  10318.375  10318.380  0.500  1.548782  91.9014  143.961  30.5927
  10320.456  10320.450  0.500  1.548501  91.8458  143.893  30.5869
  10322.546  10322.540  0.500  1.548280  91.6131  143.543  30.5191
  10324.642  10324.650  0.500  1.548491  91.772  143.81  30.5695
  10326.785  10326.780  0.500  1.548754  91.7462  143.798  30.5588
  10328.929  10328.920  0.500  1.548903  91.6974  143.744  30.543
  10331.092  10331.090  0.500  1.548845  91.643  143.684  30.5319
  10333.298  10333.280  0.500  1.548606  91.5979  143.634  30.5285
  10335.496  10335.480  0.500  1.548366  91.5526  143.579  30.5242
  10337.717  10337.700  0.500  1.548086  91.516  143.539  30.5243
  10339.944  10339.950  0.500  1.547872  91.4739  143.483  30.5189
  10342.224  10342.210  0.500  1.547719  91.4131  143.437  30.5138
  10344.509  10344.490  0.500  1.547826  91.3777  143.389  30.5002
  10346.781  10346.790  0.500  1.547991  91.3374  143.347  30.4862
  10349.114  10349.110  0.500  1.548129  91.2766  143.278  30.4674
  10351.476  10351.450  0.500  1.548330  91.2387  143.235  30.4521
  10353.798  10353.800  0.500  1.548223  91.1924  143.179  30.4436
  10356.190  10356.180  0.500  1.547973  91.1556  143.154  30.4458
  10358.593  10358.570  0.500  1.547677  91.1028  143.096  30.4424
  10361.001  10360.990  0.500  1.547270  91.0602  143.047  30.4444
  10363.429  10363.420  0.500  1.547101  91.0045  142.988  30.437
  10365.887  10365.870  0.500  1.546843  90.9546  142.927  30.4319
  10368.364  10368.350  0.500  1.546738  90.9014  142.862  30.4213
  10370.856  10370.840  0.500  1.546736  90.834  142.768  30.4012
  10373.355  10373.350  0.500  1.546490  90.7763  142.685  30.3912
  10375.887  10375.870  0.500  1.546131  90.7257  142.642  30.3928
  10378.420  10378.420  0.500  1.545371  90.6725  142.577  30.4021
  10381.011  10380.990  0.500  1.544436  90.6224  142.525  30.4195
  10383.575  10383.570  0.500  1.543145  90.5726  142.47  30.447
  10386.182  10386.180  0.500  1.541826  90.5174  142.415  30.4753
  10388.809  10388.800  0.500  1.540548  90.4701  142.362  30.503
  10391.457  10391.450  0.500  1.539643  90.4126  142.295  30.5162
  10394.101  10394.110  0.500  1.538724  90.3668  142.246  30.5338
  10396.803  10396.790  0.500  1.538075  90.3049  142.191  30.5417
  10399.492  10399.490  0.500  1.537380  90.2547  142.141  30.5523
  10402.210  10402.210  0.500  1.536570  90.2067  142.08  30.5639
  10404.968  10404.950  0.500  1.535707  90.1518  142.001  30.5734
  10407.699  10407.700  0.500  1.534748  90.097  141.941  30.5897
  10410.487  10410.480  0.500  1.533739  90.0399  141.866  30.6045
  10413.282  10413.270  0.500  1.532955  89.9892  141.807  30.6157
  10416.098  10416.090  0.500  1.531962  89.9259  141.741  30.6319
  10418.943  10418.920  0.500  1.531105  89.8702  141.676  30.644
  10421.775  10421.770  0.500  1.530105  89.8236  141.622  30.663
  10424.656  10424.650  0.500  1.528919  89.7591  141.542  30.6821
  10427.549  10427.540  0.500  1.528054  89.7024  141.496  30.6985
  10430.452  10430.450  0.500  1.526871  89.6364  141.432  30.721
  10433.385  10433.370  0.500  1.525939  89.5888  141.379  30.7381
  10436.315  10436.320  0.500  1.525142  89.5316  141.314  30.7485
  10439.309  10439.290  0.500  1.524055  89.479  141.249  30.7678
  10442.280  10442.270  0.500  1.523171  89.4031  141.165  30.7767
  10445.277  10445.280  0.500  1.522115  89.3502  141.093  30.7936
  10448.308  10448.300  0.500  1.521201  89.2902  141.031  30.808
  10451.361  10451.350  0.500  1.520446  89.2283  140.966  30.8171
  10454.415  10454.410  0.500  1.519959  89.1714  140.901  30.8179
  10457.499  10457.490  0.500  1.519430  89.1069  140.825  30.8176
  10460.590  10460.590  0.500  1.519213  89.0493  140.767  30.8116
  10463.726  10463.710  0.500  1.519060  88.9937  140.682  30.7978
  10466.845  10466.850  0.500  1.519015  88.9192  140.611  30.7835
  10470.022  10470.000  0.500  1.519019  88.8617  140.523  30.7642
  10473.197  10473.180  0.500  1.519070  88.7944  140.459  30.7487
  10476.392  10476.370  0.500  1.518999  88.7342  140.391  30.736
  10479.599  10479.590  0.500  1.518555  88.6731  140.323  30.7347
  10482.823  10482.820  0.500  1.518026  88.6126  140.257  30.7365
  10486.082  10486.070  0.500  1.517236  88.5615  140.198  30.7479
  10489.357  10489.350  0.500  1.516352  88.4956  140.122  30.7584
  10492.663  10492.640  0.500  1.515418  88.4274  140.034  30.7678
  10495.956  10495.950  0.500  1.514180  88.3594  139.965  30.7906
  10499.281  10499.270  0.500  1.513146  88.2818  139.88  30.8039
  10502.636  10502.620  0.500  1.512036  88.2219  139.796  30.8195
  10506.003  10505.990  0.500  1.511142  88.1613  139.73  30.8325
  10509.377  10509.370  0.500  1.510242  88.0862  139.639  30.8402
  10512.792  10512.780  0.500  1.509600  87.9442  139.442  30.8164
  10516.223  10516.200  0.500  1.508865  87.953  139.481  30.8477
  10519.656  10519.650  0.500  1.508102  87.8831  139.402  30.8539
  10523.131  10523.110  0.500  1.507356  87.8059  139.317  30.858
  10526.588  10526.590  0.500  1.506418  87.5666  138.956  30.8069
  10530.110  10530.090  0.500  1.505508  87.6855  139.193  30.8875
  10533.606  10533.610  0.500  1.504434  87.6174  139.11  30.9022
  10537.171  10537.150  0.500  1.503314  87.5452  139.012  30.9152
  10540.710  10540.700  0.500  1.502238  87.4088  138.829  30.9076
  10544.299  10544.280  0.500  1.500979  87.4033  138.846  30.9505
  10547.892  10547.880  0.500  1.499783  87.3366  138.759  30.9681
  10551.520  10551.490  0.500  1.498649  87.2606  138.677  30.9848
  10555.136  10555.120  0.500  1.497469  87.1177  138.475  30.9763
  10558.803  10558.780  0.500  1.496435  86.9615  138.25  30.9579
  10562.478  10562.450  0.500  1.495289  87.0555  138.441  31.0363
  10566.165  10566.140  0.500  1.494184  86.9787  138.356  31.0515
  10569.889  10569.850  0.500  1.493279  86.9071  138.279  31.0623
  10573.605  10573.580  0.500  1.492289  86.8416  138.182  31.0712
  10577.344  10577.320  0.500  1.491328  86.7625  138.096  31.0817
  10581.109  10581.090  0.500  1.490415  86.6848  138.005  31.0897
  10584.916  10584.880  0.500  1.489393  86.5862  137.884  31.0941
  10588.702  10588.680  0.500  1.488516  86.5455  137.842  31.112
  10592.534  10592.510  0.500  1.487753  86.4769  137.771  31.1196
  10596.369  10596.350  0.500  1.486798  86.3989  137.675  31.1277
  10600.236  10600.210  0.500  1.485939  86.3128  137.551  31.1263
  10604.115  10604.090  0.500  1.485035  86.2305  137.461  31.1342
  10608.027  10607.990  0.500  1.484293  86.1645  137.39  31.1412
  10611.942  10611.910  0.500  1.483374  86.0034  137.154  31.1162
  10615.879  10615.850  0.500  1.482410  86.0111  137.198  31.1563
  10619.819  10619.810  0.500  1.481425  85.6643  136.686  31.0705
  10623.797  10623.780  0.500  1.480417  85.8554  137.01  31.1757
  10627.807  10627.780  0.500  1.479410  85.7794  136.914  31.1851
  10631.810  10631.790  0.500  1.478328  85.6979  136.817  31.1969
  10635.855  10635.830  0.500  1.477204  85.6185  136.719  31.2095
  10639.919  10639.880  0.500  1.476296  85.5254  136.606  31.2121
  10643.985  10643.950  0.500  1.475556  85.1776  136.091  31.1175
  10648.055  10648.040  0.500  1.474681  85.3923  136.463  31.2298
  10652.172  10652.150  0.500  1.473950  85.3067  136.36  31.2289
  10656.312  10656.280  0.500  1.472859  85.2127  136.244  31.2365
  10660.460  10660.430  0.500  1.471902  85.0845  136.073  31.2272
  10664.626  10664.590  0.500  1.470905  85.0717  136.074  31.2587
  10668.811  10668.780  0.500  1.469833  84.9788  135.96  31.266
  10672.994  10672.980  0.500  1.468576  84.8899  135.847  31.2792
  10677.239  10677.210  0.500  1.467398  84.739  135.643  31.2691
  10681.468  10681.450  0.500  1.466349  84.7271  135.664  31.3068
  10685.741  10685.710  0.500  1.465155  84.6348  135.541  31.3157
  10690.021  10689.990  0.500  1.464058  84.5306  135.424  31.3229
  10694.325  10694.290  0.500  1.462808  84.4346  135.296  31.3325
  10698.633  10698.610  0.500  1.461511  83.7621  134.236  31.1273
  10702.974  10702.950  0.500  1.460292  84.2828  135.097  31.3653
  10707.338  10707.310  0.500  1.459093  84.1923  134.984  31.3767
  10711.716  10711.690  0.500  1.457931  84.0979  134.862  31.3848
  10716.112  10716.080  0.500  1.456906  84.0036  134.749  31.3906
  10720.527  10720.500  0.500  1.455883  83.9119  134.651  31.3998
  10724.966  10724.930  0.500  1.454730  83.8177  134.521  31.4058
  10729.404  10729.380  0.500  1.453489  83.7266  134.4  31.4164
  10733.880  10733.850  0.500  1.452443  83.6294  134.307  31.4274
  10738.360  10738.340  0.500  1.451138  83.5382  134.183  31.4396
  10742.869  10742.850  0.500  1.450138  83.3889  133.977  31.4228
  10747.397  10747.380  0.500  1.448919  83.3373  133.928  31.4495
  10751.959  10751.930  0.500  1.447791  83.2473  133.819  31.4594
  10756.519  10756.500  0.500  1.446603  83.1536  133.696  31.4679
  10761.114  10761.080  0.500  1.445316  83.052  133.563  31.4771
  10765.713  10765.690  0.500  1.444243  82.9496  133.44  31.4817
  10770.341  10770.310  0.500  1.443159  82.8644  133.315  31.4864
  10774.993  10774.960  0.500  1.441936  82.7611  133.183  31.4937
  10779.649  10779.620  0.500  1.440850  82.6707  133.068  31.5006
  10784.335  10784.300  0.500  1.439690  82.5335  132.905  31.4987
  10789.029  10789.000  0.500  1.438564  82.3957  132.716  31.4893
  10793.753  10793.720  0.500  1.437462  82.4163  132.782  31.5398
  10798.497  10798.460  0.500  1.436282  82.4817  132.924  31.6107
  10803.240  10803.210  0.500  1.435162  82.41  132.832  31.6242
  10808.027  10807.990  0.500  1.433984  81.3804  131.212  31.2753
  10812.814  10812.790  0.500  1.432786  82.2284  132.615  31.6476
  10817.656  10817.600  0.500  1.431810  82.1669  132.548  31.6625
  10822.446  10822.430  0.500  1.430659  82.0574  132.399  31.6634
  10827.327  10827.290  0.500  1.429303  81.91  132.186  31.6553
  10832.188  10832.160  0.500  1.428287  81.8374  132.093  31.6653
  10837.067  10837.050  0.500  1.427139  81.7503  131.993  31.6777
  10841.993  10841.960  0.500  1.425975  81.6494  131.877  31.6866
  10846.922  10846.890  0.500  1.424651  81.4612  131.61  31.6642
  10851.872  10851.830  0.500  1.423364  81.4534  131.619  31.7072
  10856.821  10856.800  0.500  1.421984  81.3575  131.506  31.7239
  10861.826  10861.790  0.500  1.420887  81.1001  131.141  31.6704
  10866.825  10866.790  0.500  1.419548  81.1365  131.226  31.7334
  10871.840  10871.820  0.500  1.418447  81.0684  131.142  31.7482
  10876.905  10876.860  0.500  1.417241  80.823  130.779  31.6985
  10881.944  10881.920  0.500  1.416069  80.8628  130.872  31.7581
  10887.024  10887.000  0.500  1.414877  80.7629  130.742  31.7645
  10892.130  10892.100  0.500  1.413684  80.6574  130.614  31.7714
  10897.255  10897.220  0.500  1.412177  80.552  130.49  31.789
  10902.401  10902.360  0.500  1.410846  80.4581  130.365  31.8008
  10907.552  10907.520  0.500  1.409513  80.3517  130.21  31.8054
  10912.729  10912.700  0.500  1.408179  80.2562  130.091  31.8187
  10917.921  10917.890  0.500  1.406956  80.0932  129.866  31.8027
  10923.144  10923.110  0.500  1.405782  80.0532  129.83  31.8311
  10928.372  10928.340  0.500  1.404348  79.9384  129.701  31.845
  10933.616  10933.590  0.500  1.403052  79.8398  129.568  31.8538
  10938.890  10938.860  0.500  1.401683  79.7342  129.441  31.866
  10944.185  10944.150  0.500  1.400388  79.63  129.298  31.8722
  10949.496  10949.460  0.500  1.399032  79.5138  129.147  31.8781
  10954.828  10954.790  0.500  1.397741  79.4146  129.023  31.8888
  10960.165  10960.140  0.500  1.396414  79.3154  128.898  31.9
  10965.550  10965.510  0.500  1.395001  79.2134  128.767  31.9126
  10970.923  10970.890  0.500  1.393774  79.109  128.624  31.9163
  10976.334  10976.300  0.500  1.392441  79.0052  128.481  31.9235
  10981.750  10981.720  0.500  1.391220  78.8728  128.307  31.9192
  10987.193  10987.170  0.500  1.389902  78.7921  128.209  31.9368
  10992.672  10992.630  0.500  1.388438  78.686  128.063  31.9471
  10998.136  10998.110  0.500  1.387186  78.5689  127.916  31.9504
  11003.632  11003.610  0.500  1.385775  78.4674  127.778  31.9612
  11009.165  11009.130  0.500  1.384444  78.3593  127.648  31.9712
  11014.693  11014.670  0.500  1.383192  78.169  127.371  31.9416
  11020.258  11020.220  0.500  1.381907  78.1373  127.358  31.9795
  11025.824  11025.800  0.500  1.380479  78.0283  127.218  31.9899
  11031.422  11031.400  0.500  1.379171  77.9162  127.07  31.9945
  11037.047  11037.010  0.500  1.377802  77.8053  126.918  32.0002
  11042.667  11042.650  0.500  1.376448  77.6761  126.748  32.0005
  11048.325  11048.300  0.500  1.375052  77.5657  126.608  32.0098
  11053.994  11053.970  0.500  1.373703  77.4745  126.495  32.0245
  11059.684  11059.660  0.500  1.372401  77.3333  126.282  32.0123