File: xdidata/W/W-L3-metal.xdi
# XDI/1.0 BlueSky/1.5.3
# Beamline.name: 6BM
# Beamline.xray_source: NSLS-II three-pole wiggler
# Beamline.collimation: paraboloid mirror, 5 nm Rh on 30 nm Pt
# Beamline.focusing: not in use
# Beamline.harmonic_rejection: flat mirror, Pt stripe, pitch = 7.0 mrad relative to beam
# Detector.i0: 10 cm N2
# Detector.I1: 25 cm N2
# Detector.I2: 25 cm N2
# Element.symbol: W
# Element.edge: L3
# Facility.name: NSLS-II
# Facility.energy: 3.0
# Facility.current: 400.2
# Facility.mode: top-off
# Facility.GUP: 305832
# Facility.SAF: 305669
# Facility.cycle: 2020-1
# Mono.name: Si(111)
# Mono.d_spacing: 3.13532
# Mono.encoder_resolution: 0.0000050 deg/ct
# Mono.angle_offset: 16.0581 deg
# Mono.scan_mode: fixed exit
# Mono.scan_type: step
# Mono.direction: forward in energy
# Sample.name: W
# Sample.prep: X
# Sample.x_position: -7.603 mm
# Sample.y_position: 102.894 mm
# Scan.experimenters: Neil Hyatt, Martin Stennett, Dan Austin, Seb Lawson
# Scan.edge_energy: 10206.8
# Scan.start_time: 2020-03-07T06:29:04
# Scan.end_time: 2020-03-07T06:40:30
# Scan.transient_id: 23475
# Scan.uid: 345fc664-76d0-4446-b4da-d8e219ee986d
# Scan.plot_hint: ln(i0/itrans)  --  ln($5/$6)
# Column.1: energy eV
# Column.2: requested_energy eV
# Column.3: measurement_time seconds
# Column.4: mutrans
# Column.5: i0
# Column.6: itrans
# Column.7: irefer
# ///////////
#
# -----------
#  energy  requested_energy  measurement_time  mutrans  i0  itrans  irefer
10006.798  10006.800  1.000  0.354076  105.75  74.2176  19.654
10016.881  10016.800  1.000  0.351404  105.365  74.145  19.6847
10026.898  10026.800  1.000  0.348975  105.007  74.073  19.7223
10036.862  10036.800  1.000  0.346313  101.454  71.7573  19.1667
10046.841  10046.800  1.000  0.344077  104.377  73.9902  19.8826
10056.832  10056.800  1.000  0.341715  104.023  73.9139  19.9948
10066.847  10066.800  1.000  0.339374  103.642  73.8155  20.08
10076.839  10076.800  1.000  0.337084  103.264  73.715  20.1389
10086.838  10086.800  1.000  0.334664  102.924  73.6499  20.2119
10096.835  10096.800  1.000  0.332408  102.516  73.5237  20.2596
10106.831  10106.800  1.000  0.330145  102.187  73.454  20.3132
10116.828  10116.800  1.000  0.327969  101.852  73.3727  20.3586
10126.780  10126.800  1.000  0.325930  101.554  73.3074  20.4025
10136.809  10136.800  1.000  0.324537  101.124  73.099  20.4167
10146.801  10146.800  1.000  0.323760  100.747  72.8828  20.4393
10156.794  10156.800  1.000  0.324096  100.373  72.588  20.4504
10166.790  10166.800  1.000  0.327224  99.9482  72.0548  20.392
10176.797  10176.800  1.000  0.336603  99.6032  71.1358  20.2173
10178.775  10178.800  1.000  0.340034  99.5202  70.8331  20.149
10180.772  10180.800  1.000  0.344507  99.463  70.4764  20.0653
10182.774  10182.800  1.000  0.349889  99.3763  70.0371  19.9546
10184.776  10184.800  1.000  0.357023  99.2921  69.4803  19.8094
10186.775  10186.800  1.000  0.366419  99.2097  68.7734  19.6254
10188.775  10188.800  1.000  0.379291  99.1111  67.8263  19.3692
10190.780  10190.800  1.000  0.396567  99.0174  66.6016  19.0366
10192.781  10192.800  1.000  0.421458  98.7123  64.7641  18.5225
10194.783  10194.800  1.000  0.459458  98.8887  62.4607  17.8752
10196.786  10196.800  1.000  0.519785  98.8082  58.7562  16.8282
10197.012  10197.050  1.000  0.529395  98.8329  58.2087  16.6715
10197.255  10197.300  1.000  0.540067  98.8339  57.5914  16.498
10197.516  10197.550  1.000  0.552028  98.8073  56.8914  16.2985
10197.772  10197.800  1.000  0.565461  98.7653  56.1084  16.0758
10198.020  10198.050  1.000  0.579151  98.8015  55.3658  15.8623
10198.272  10198.300  1.000  0.594070  98.7812  54.5347  15.6253
10198.533  10198.550  1.000  0.610792  98.7583  53.6179  15.3636
10198.777  10198.800  1.000  0.627604  98.7415  52.7151  15.1049
10199.029  10199.050  1.000  0.646637  98.7259  51.7131  14.8193
10199.290  10199.300  1.000  0.667993  98.7192  50.617  14.5094
10199.538  10199.550  1.000  0.689905  98.822  49.5715  14.2119
10199.790  10199.800  1.000  0.713100  99.0152  48.5296  13.9115
10200.042  10200.050  1.000  0.740135  98.9818  47.2192  13.5387
10200.295  10200.300  1.000  0.769489  98.9759  45.8506  13.1466
10200.538  10200.550  1.000  0.800805  99.0179  44.4558  12.7487
10200.795  10200.800  1.000  0.837872  99.0045  42.8323  12.284
10201.047  10201.050  1.000  0.877742  98.9977  41.1554  11.8045
10201.290  10201.300  1.000  0.921765  98.9875  39.3789  11.2953
10201.552  10201.550  1.000  0.972946  98.9693  37.4072  10.7292
10201.800  10201.800  1.000  1.029003  98.9532  35.3622  10.1469
10202.038  10202.050  1.000  1.089636  98.9158  33.2692  9.547460
10202.295  10202.300  1.000  1.161279  98.9406  30.9769  8.890872
10202.548  10202.550  1.000  1.240852  98.9238  28.6026  8.209298
10202.796  10202.800  1.000  1.325259  98.9143  26.2849  7.545931
10203.048  10203.050  1.000  1.423826  98.8796  23.8093  6.837195
10203.296  10203.300  1.000  1.529879  98.8655  21.4105  6.149188
10203.544  10203.550  1.000  1.644693  98.8686  19.0887  5.483667
10203.801  10203.800  1.000  1.774451  98.8331  16.7598  4.815279
10204.040  10204.050  1.000  1.899878  98.8239  14.7828  4.247961
10204.283  10204.300  1.000  2.038046  98.7971  12.8716  3.697535
10204.554  10204.550  1.000  2.192810  98.7715  11.0232  3.167711
10204.784  10204.800  1.000  2.334731  98.7519  9.562792  2.745626
10205.041  10205.050  1.000  2.488259  98.7483  8.201487  2.353549
10205.293  10205.300  1.000  2.637605  98.7379  7.062954  2.024916
10205.541  10205.550  1.000  2.773780  98.7123  6.162178  1.766736
10205.794  10205.800  1.000  2.903460  98.6911  5.411545  1.548511
10206.046  10206.050  1.000  3.013531  98.6475  4.845363  1.385998
10206.290  10206.300  1.000  3.100752  98.6122  4.439058  1.266816
10206.556  10206.550  1.000  3.169975  98.5992  4.141621  1.180930
10206.795  10206.800  1.000  3.208292  98.5362  3.983388  1.134535
10207.048  10207.050  1.000  3.224352  98.5283  3.919606  1.115598
10207.296  10207.300  1.000  3.216262  98.5306  3.951540  1.121727
10207.540  10207.550  1.000  3.189842  98.486  4.055493  1.150943
10207.806  10207.800  1.000  3.143013  98.4618  4.248880  1.205958
10208.058  10208.050  1.000  3.084801  98.4364  4.502394  1.276659
10208.298  10208.300  1.000  3.019239  98.3696  4.804212  1.361968
10208.564  10208.550  1.000  2.943888  98.3653  5.179974  1.468443
10208.803  10208.800  1.000  2.870146  98.3613  5.576168  1.580782
10209.056  10209.050  1.000  2.790178  98.3449  6.039386  1.713460
10209.313  10209.300  1.000  2.707749  98.3074  6.555802  1.860544
10209.552  10209.550  1.000  2.632143  98.2889  7.069350  2.005935
10209.800  10209.800  1.000  2.556516  98.2169  7.619131  2.162698
10210.053  10210.050  1.000  2.481918  98.2149  8.209070  2.333617
10210.292  10210.300  1.000  2.413348  98.1769  8.788315  2.497879
10210.554  10210.550  1.000  2.344913  98.1636  9.409526  2.676770
10210.793  10210.800  1.000  2.285127  98.129  9.985713  2.841402
10211.046  10211.050  1.000  2.227030  98.1475  10.585  3.013550
10211.295  10211.300  1.000  2.172736  98.1333  11.174  3.183391
10211.538  10211.550  1.000  2.125322  98.1034  11.713  3.337492
10211.796  10211.800  1.000  2.077814  98.0804  12.28  3.500564
10212.049  10212.050  1.000  2.037250  98.0749  12.7877  3.647469
10212.288  10212.300  1.000  2.001070  98.0345  13.2533  3.781861
10212.545  10212.550  1.000  1.966483  98.0258  13.7185  3.916325
10212.785  10212.800  1.000  1.937673  98.0076  14.1169  4.032184
10213.051  10213.050  1.000  1.908112  97.9776  14.536  4.152095
10213.300  10213.300  1.000  1.882612  98.0166  14.9174  4.262722
10213.544  10213.550  1.000  1.861605  97.9013  15.2161  4.349925
10213.810  10213.800  1.000  1.840900  97.8964  15.5337  4.440209
10214.040  10214.050  1.000  1.823983  97.9041  15.7999  4.518034
10214.303  10214.300  1.000  1.807517  97.8929  16.0604  4.594482
10214.551  10214.550  1.000  1.793398  97.8755  16.2859  4.660564
10214.799  10214.800  1.000  1.780541  97.8781  16.4971  4.721558
10215.071  10215.050  1.000  1.768162  97.8698  16.7011  4.780748
10215.301  10215.300  1.000  1.758104  97.8533  16.8671  4.829589
10215.554  10215.550  1.000  1.748113  97.8259  17.0317  4.875694
10215.816  10215.800  1.000  1.738586  97.8209  17.1939  4.924790
10216.051  10216.050  1.000  1.729944  97.7777  17.3354  4.965768
10216.313  10216.300  1.000  1.720933  97.7497  17.4873  5.009602
10216.553  10216.550  1.000  1.712683  97.7614  17.6343  5.051627
10216.801  10216.800  1.000  1.704521  97.7809  17.7824  5.093465
10217.055  10217.050  1.000  1.696447  97.7267  17.9166  5.134795
10217.303  10217.300  1.000  1.688635  97.732  18.0581  5.176222
10217.552  10217.550  1.000  1.680580  97.6984  18.1979  5.215471
10217.800  10217.800  1.000  1.672363  97.6834  18.3452  5.259418
10218.040  10218.050  1.000  1.664034  97.6906  18.5  5.303455
10218.302  10218.300  1.000  1.654962  97.6695  18.6646  5.350873
10218.542  10218.550  1.000  1.646431  97.6735  18.8253  5.398288
10218.795  10218.800  1.000  1.637182  97.6436  18.9944  5.444648
10219.044  10219.050  1.000  1.627865  97.6216  19.1678  5.497570
10219.288  10219.300  1.000  1.618250  97.6494  19.3585  5.551968
10219.550  10219.550  1.000  1.608117  97.6034  19.5465  5.606146
10219.795  10219.800  1.000  1.598543  97.5901  19.7318  5.663236
10220.043  10220.050  1.000  1.588874  97.5816  19.9218  5.718481
10220.301  10220.300  1.000  1.579038  97.5501  20.1122  5.772834
10220.541  10220.550  1.000  1.570108  97.5363  20.2898  5.824976
10220.799  10220.800  1.000  1.560514  97.4875  20.4751  5.879886
10221.057  10221.050  1.000  1.551437  97.5189  20.6685  5.934436
10221.301  10221.300  1.000  1.543070  97.5178  20.8419  5.985874
10221.554  10221.550  1.000  1.534687  97.4923  21.0118  6.034517
10221.798  10221.800  1.000  1.527072  97.4519  21.1637  6.080177
10222.056  10222.050  1.000  1.519221  97.4567  21.3316  6.127724
10222.305  10222.300  1.000  1.511831  97.7953  21.5644  6.196556
10222.554  10222.550  1.000  1.505009  97.7971  21.7124  6.239543
10222.803  10222.800  1.000  1.498336  97.7764  21.8532  6.279653
10223.047  10223.050  1.000  1.492360  97.7522  21.9787  6.318345
10223.310  10223.300  1.000  1.486329  97.7558  22.1125  6.356647
10223.563  10223.550  1.000  1.480718  97.7534  22.2364  6.392823
10223.799  10223.800  1.000  1.475981  97.7647  22.3446  6.425263
10224.048  10224.050  1.000  1.471313  97.7604  22.4481  6.456140
10224.301  10224.300  1.000  1.466817  97.7563  22.5483  6.484686
10224.546  10224.550  1.000  1.462806  97.7945  22.6478  6.514333
10224.804  10224.800  1.000  1.458505  97.7689  22.7395  6.540562
10225.053  10225.050  1.000  1.454842  97.7038  22.8077  6.561059
10225.311  10225.300  1.000  1.450755  97.7189  22.9047  6.591105
10225.542  10225.550  1.000  1.446459  97.7326  23.0065  6.619243
10225.786  10225.800  1.000  1.442338  97.7078  23.0956  6.645980
10226.053  10226.050  1.000  1.437404  97.738  23.217  6.683106
10226.293  10226.300  1.000  1.432838  97.7137  23.3175  6.712190
10226.538  10226.550  1.000  1.428012  97.6588  23.4171  6.740513
10226.791  10226.800  1.000  1.423084  97.6251  23.5247  6.773849
10227.036  10227.050  1.000  1.418426  97.5899  23.626  6.803877
10227.303  10227.300  1.000  1.412839  97.5947  23.7596  6.843231
10227.552  10227.550  1.000  1.407753  97.6136  23.8853  6.877899
10227.797  10227.800  1.000  1.402924  97.5955  23.9965  6.912019
10228.060  10228.050  1.000  1.398017  97.6107  24.1183  6.946355
10228.300  10228.300  1.000  1.393852  97.6525  24.2293  6.979275
10228.554  10228.550  1.000  1.389575  97.6776  24.3394  7.014580
10228.803  10228.800  1.000  1.385894  97.5852  24.4061  7.032078
10229.047  10229.050  1.000  1.382695  97.5732  24.4813  7.056164
10229.315  10229.300  1.000  1.379480  97.5751  24.5606  7.078786
10229.550  10229.550  1.000  1.376972  97.5571  24.6177  7.096145
10229.804  10229.800  1.000  1.374865  97.5637  24.6713  7.113082
10230.058  10230.050  1.000  1.373069  97.475  24.6932  7.120849
10230.303  10230.300  1.000  1.371516  97.4592  24.7276  7.129341
10230.561  10230.550  1.000  1.370183  97.4408  24.7559  7.139748
10230.801  10230.800  1.000  1.369361  97.4287  24.7731  7.146276
10231.050  10231.050  1.000  1.368656  97.3939  24.7817  7.150946
10231.313  10231.300  1.000  1.368048  97.3627  24.7889  7.150563
10231.554  10231.550  1.000  1.367596  97.3749  24.8032  7.157775
10231.803  10231.800  1.000  1.367368  97.3594  24.8049  7.156866
10232.052  10232.050  1.000  1.367019  97.3447  24.8098  7.160959
10232.288  10232.300  1.000  1.366979  97.3014  24.7998  7.158865
10232.556  10232.550  1.000  1.366720  97.2972  24.8051  7.161283
10232.796  10232.800  1.000  1.366714  97.2486  24.7929  7.157356
10233.041  10233.050  1.000  1.366202  97.2708  24.8112  7.163462
10233.299  10233.300  1.000  1.365750  97.2937  24.8283  7.168993
10233.535  10233.550  1.000  1.365032  97.2948  24.8464  7.173864
10233.798  10233.800  1.000  1.364174  97.2921  24.8671  7.180297
10234.043  10234.050  1.000  1.362979  97.3218  24.9044  7.191311
10234.288  10234.300  1.000  1.361856  97.2838  24.9227  7.197724
10234.551  10234.550  1.000  1.360503  97.2488  24.9474  7.206742
10234.791  10234.800  1.000  1.358739  97.281  24.9997  7.222368
10235.055  10235.050  1.000  1.356988  97.255  25.0368  7.230296
10235.309  10235.300  1.000  1.355236  97.2589  25.0817  7.246691
10235.545  10235.550  1.000  1.353318  97.2801  25.1354  7.264439
10235.803  10235.800  1.000  1.351377  97.27  25.1816  7.276928
10236.053  10236.050  1.000  1.349822  97.1867  25.1992  7.281828
10236.293  10236.300  1.000  1.347913  97.1692  25.2428  7.295942
10236.565  10236.550  1.000  1.345912  97.1797  25.2961  7.311386
10236.801  10236.800  1.000  1.344409  97.1406  25.3239  7.321061
10237.904  10237.880  1.000  1.338964  97.105  25.4529  7.361369
10238.998  10238.980  1.000  1.336659  97.0617  25.5002  7.378471
10240.093  10240.090  1.000  1.336958  96.8509  25.4372  7.362749
10241.223  10241.230  1.000  1.337474  96.7323  25.393  7.353658
10242.400  10242.380  1.000  1.337012  96.9776  25.4692  7.377060
10243.590  10243.560  1.000  1.333516  96.9309  25.5461  7.402703
10244.772  10244.750  1.000  1.326449  96.8989  25.7187  7.456218
10245.972  10245.960  1.000  1.316283  96.8539  25.9694  7.532865
10247.200  10247.190  1.000  1.304105  96.7855  26.2691  7.623130
10248.446  10248.440  1.000  1.291836  96.7276  26.5775  7.715810
10249.720  10249.710  1.000  1.282756  96.6755  26.8054  7.787568
10251.021  10251.000  1.000  1.278987  96.6193  26.891  7.814674
10252.332  10252.310  1.000  1.281742  96.5722  26.8039  7.793676
10253.647  10253.630  1.000  1.290274  96.5094  26.5589  7.729348
10254.986  10254.980  1.000  1.301774  96.4571  26.241  7.638540
10256.348  10256.340  1.000  1.314398  96.4086  25.8988  7.541729
10257.738  10257.730  1.000  1.326607  96.3749  25.5756  7.449945
10259.151  10259.130  1.000  1.336567  96.374  25.3219  7.377995
10260.569  10260.550  1.000  1.343720  96.2881  25.119  7.323968
10262.001  10261.990  1.000  1.346759  96.1635  25.0104  7.295045
10263.465  10263.450  1.000  1.345351  96.1654  25.0461  7.309603
10264.934  10264.930  1.000  1.340635  96.1158  25.1515  7.342844
10266.449  10266.430  1.000  1.334740  96.0342  25.2788  7.386377
10267.956  10267.940  1.000  1.329505  95.9898  25.3997  7.424989
10269.490  10269.480  1.000  1.325479  95.9306  25.4864  7.455969
10271.044  10271.040  1.000  1.322250  95.8354  25.5435  7.477883
10272.638  10272.610  1.000  1.319788  95.7939  25.5954  7.493910
10274.216  10274.200  1.000  1.318569  95.4471  25.5338  7.482373
10275.816  10275.810  1.000  1.319044  95.5989  25.5623  7.498136
10277.463  10277.450  1.000  1.321033  95.6085  25.514  7.485921
10279.110  10279.100  1.000  1.324957  95.538  25.3954  7.456759
10280.780  10280.770  1.000  1.330285  95.6854  25.2994  7.433433
10282.461  10282.450  1.000  1.335415  95.7439  25.1853  7.404094
10284.178  10284.160  1.000  1.340297  95.6873  25.0479  7.368394
10285.901  10285.890  1.000  1.342690  95.6127  24.9685  7.348319
10287.647  10287.630  1.000  1.341135  95.5586  24.9932  7.359646
10289.417  10289.400  1.000  1.335023  95.4375  25.1146  7.401571
10291.187  10291.180  1.000  1.325811  95.3766  25.3308  7.470604
10292.986  10292.980  1.000  1.314505  95.3431  25.6099  7.556399
10294.822  10294.800  1.000  1.305092  95.2742  25.8334  7.631227
10296.659  10296.640  1.000  1.299002  95.1703  25.9628  7.672561
10298.510  10298.500  1.000  1.296642  95.0516  25.9917  7.687654
10300.393  10300.380  1.000  1.297579  94.9576  25.9417  7.678524
10302.292  10302.280  1.000  1.300493  94.8876  25.8471  7.656022
10304.218  10304.200  1.000  1.303648  94.8236  25.7483  7.631986
10306.132  10306.130  1.000  1.305358  94.7464  25.6834  7.617117
10308.092  10308.090  1.000  1.305335  94.68  25.666  7.617560
10310.086  10310.060  1.000  1.304537  94.5975  25.6641  7.623037
10312.075  10312.060  1.000  1.303796  94.5121  25.66  7.627094
10314.084  10314.070  1.000  1.304024  94.4147  25.6277  7.622043
10316.112  10316.100  1.000  1.305758  94.352  25.5663  7.608626
10318.168  10318.150  1.000  1.308770  94.2643  25.4657  7.583482
10320.230  10320.220  1.000  1.312398  94.202  25.3567  7.558680
10322.307  10322.310  1.000  1.316085  94.0766  25.2297  7.525064
10324.417  10324.410  1.000  1.319603  93.9181  25.0988  7.490422
10326.551  10326.540  1.000  1.323739  93.9316  24.9988  7.469950
10328.685  10328.690  1.000  1.327770  93.8623  24.8799  7.437710
10330.862  10330.850  1.000  1.332239  93.7549  24.7406  7.403076
10333.059  10333.030  1.000  1.336441  93.6876  24.6191  7.371343
10335.256  10335.240  1.000  1.339731  93.5857  24.5116  7.342595
10337.464  10337.460  1.000  1.340680  93.4997  24.4658  7.335301
10339.701  10339.700  1.000  1.339804  93.4083  24.4633  7.339530
10341.980  10341.960  1.000  1.337755  93.3077  24.4871  7.351966
10344.251  10344.240  1.000  1.333615  93.1817  24.5555  7.380040
10346.551  10346.540  1.000  1.325601  93.0928  24.7295  7.437418
10348.875  10348.850  1.000  1.314195  92.9634  24.9784  7.518074
10351.204  10351.190  1.000  1.302383  92.897  25.2571  7.606731
10353.545  10353.540  1.000  1.292862  92.8299  25.4803  7.682974
10355.942  10355.920  1.000  1.286868  92.794  25.6236  7.732477
10358.316  10358.310  1.000  1.283249  92.6791  25.6846  7.756058
10360.734  10360.720  1.000  1.281356  92.5551  25.6989  7.767156
10363.162  10363.150  1.000  1.280985  92.4703  25.6849  7.768635
10365.620  10365.600  1.000  1.281964  92.3216  25.6185  7.753894
10368.083  10368.070  1.000  1.283073  92.2581  25.5725  7.747424
10370.580  10370.560  1.000  1.282943  92.1924  25.5576  7.748715
10373.083  10373.070  1.000  1.282405  92.0396  25.529  7.746478
10375.592  10375.590  1.000  1.282220  91.9042  25.4961  7.744841
10378.167  10378.140  1.000  1.282617  91.7784  25.4511  7.735854
10380.716  10380.700  1.000  1.283087  91.6745  25.4104  7.728999
10383.303  10383.290  1.000  1.283386  91.5939  25.3804  7.726195
10385.910  10385.890  1.000  1.284333  91.4361  25.3127  7.713420
10388.519  10388.510  1.000  1.288247  91.3678  25.195  7.682694
10391.147  10391.150  1.000  1.297255  91.2369  24.9333  7.612650
10393.829  10393.810  1.000  1.310389  91.1431  24.5827  7.510591
10396.512  10396.490  1.000  1.325579  91.0412  24.185  7.397237
10399.206  10399.190  1.000  1.338944  90.9298  23.8347  7.298166
10401.934  10401.910  1.000  1.347568  90.8532  23.6102  7.230122
10404.649  10404.640  1.000  1.347274  90.7222  23.583  7.227866
10407.403  10407.400  1.000  1.336719  90.6255  23.8079  7.301769
10410.197  10410.170  1.000  1.315482  90.5266  24.2923  7.460717
10412.973  10412.970  1.000  1.289862  90.4092  24.8905  7.652448
10415.797  10415.780  1.000  1.267015  90.253  25.4217  7.824975
10418.638  10418.610  1.000  1.253733  90.1476  25.7315  7.928130
10421.465  10421.460  1.000  1.248990  90.0121  25.8149  7.961009
10424.356  10424.330  1.000  1.250263  89.9378  25.7608  7.951684
10427.243  10427.220  1.000  1.254380  89.8208  25.6216  7.918145
10430.137  10430.120  1.000  1.257729  89.6932  25.4997  7.886757
10433.075  10433.050  1.000  1.258992  89.5631  25.4305  7.872468
10436.015  10436.000  1.000  1.259079  89.3693  25.3733  7.861985
10438.966  10438.960  1.000  1.259486  89.2197  25.3205  7.857052
10441.965  10441.940  1.000  1.262191  89.1421  25.2302  7.832996
10444.962  10444.950  1.000  1.267798  89.0188  25.0544  7.788818
10448.003  10447.970  1.000  1.273146  88.9104  24.8904  7.741811
10451.032  10451.010  1.000  1.275856  88.8116  24.7955  7.717494
10454.081  10454.070  1.000  1.275852  88.7126  24.7679  7.719162
10457.184  10457.150  1.000  1.275283  88.5689  24.7419  7.720239
10460.261  10460.250  1.000  1.276060  88.4259  24.6828  7.707959
10463.378  10463.360  1.000  1.278921  88.2912  24.5748  7.684284
10466.529  10466.500  1.000  1.282048  88.2115  24.4759  7.659288
10469.669  10469.650  1.000  1.284452  88.0737  24.379  7.635717
10472.853  10472.830  1.000  1.285952  87.9627  24.3118  7.624177
10476.034  10476.020  1.000  1.286303  87.8448  24.2707  7.619562
10479.246  10479.230  1.000  1.284414  87.6757  24.2697  7.625978
10482.493  10482.460  1.000  1.278847  87.563  24.3739  7.664883
10485.733  10485.720  1.000  1.270329  87.3882  24.5333  7.726091
10489.008  10488.980  1.000  1.260758  87.2959  24.7431  7.798304
10492.275  10492.270  1.000  1.252660  87.2224  24.9232  7.860791
10495.602  10495.580  1.000  1.246367  87.0519  25.0316  7.904036
10498.932  10498.910  1.000  1.241458  86.895  25.1094  7.939600
10502.268  10502.250  1.000  1.236117  86.7854  25.212  7.979524
10505.649  10505.620  1.000  1.232719  86.602  25.2444  7.998327
10509.013  10509.000  1.000  1.232239  86.8425  25.3266  8.031451
10512.428  10512.400  1.000  1.234681  86.681  25.2179  8.008519
10515.845  10515.830  1.000  1.237401  86.57  25.1172  7.981613
10519.288  10519.270  1.000  1.240373  86.4122  24.997  7.953715
10522.757  10522.730  1.000  1.243692  86.2249  24.8602  7.916916
10526.214  10526.200  1.000  1.246821  86.0843  24.7421  7.886978
10529.726  10529.700  1.000  1.250139  85.9593  24.6243  7.859000
10533.232  10533.220  1.000  1.252658  85.8356  24.527  7.836957
10536.782  10536.760  1.000  1.254368  85.7087  24.4489  7.820302
10540.326  10540.310  1.000  1.255082  85.5801  24.3948  7.809428
10543.916  10543.890  1.000  1.253860  85.4175  24.3782  7.812261
10547.498  10547.480  1.000  1.250710  85.3328  24.4309  7.837460
10551.107  10551.090  1.000  1.246178  85.1799  24.4979  7.870251
10554.752  10554.720  1.000  1.240700  84.9536  24.567  7.900903
10558.395  10558.370  1.000  1.235488  84.8286  24.6591  7.938003
10562.060  10562.040  1.000  1.231242  84.8735  24.7771  7.985541
10565.747  10565.730  1.000  1.228371  84.7166  24.8024  8.001851
10569.465  10569.440  1.000  1.225351  84.5579  24.8308  8.021077
10573.186  10573.160  1.000  1.221237  84.3528  24.8727  8.042781
10576.930  10576.910  1.000  1.216116  84.2108  24.9583  8.080917
10580.695  10580.670  1.000  1.211511  84.0292  25.0194  8.110816
10584.473  10584.460  1.000  1.208862  83.7485  25.002  8.113772
10588.288  10588.260  1.000  1.209016  83.8747  25.0358  8.133291
10592.100  10592.080  1.000  1.210940  83.7108  24.9389  8.111480
10595.940  10595.920  1.000  1.212038  83.5588  24.8663  8.094884
10599.802  10599.780  1.000  1.212096  83.5104  24.8504  8.101185
10603.681  10603.660  1.000  1.211862  83.2677  24.784  8.088088
10607.588  10607.560  1.000  1.211807  83.2043  24.7665  8.093374
10611.493  10611.480  1.000  1.212119  82.9801  24.6921  8.077975
10615.440  10615.410  1.000  1.212105  82.8087  24.6414  8.071233
10619.380  10619.370  1.000  1.211014  82.4245  24.5539  8.050760
10623.367  10623.340  1.000  1.208745  82.4598  24.6202  8.080361
10627.367  10627.340  1.000  1.206897  82.3225  24.6246  8.094083
10631.384  10631.350  1.000  1.205762  82.122  24.5926  8.092938
10635.415  10635.380  1.000  1.205614  81.9405  24.5418  8.084931
10639.453  10639.430  1.000  1.205803  81.689  24.4619  8.067682
10643.530  10643.500  1.000  1.204353  81.612  24.4743  8.079294
10647.604  10647.590  1.000  1.201508  81.4922  24.508  8.100693
10651.736  10651.700  1.000  1.197807  81.3315  24.5504  8.126418
10655.846  10655.820  1.000  1.193672  81.1286  24.5906  8.146602
10659.999  10659.970  1.000  1.189453  80.9553  24.6418  8.174445
10664.160  10664.130  1.000  1.185940  80.755  24.6673  8.190841
10668.359  10668.320  1.000  1.182908  80.6401  24.7071  8.215904
10672.562  10672.520  1.000  1.179753  80.5426  24.7551  8.242882
10676.773  10676.740  1.000  1.177037  79.8377  24.6052  8.202175
10680.972  10680.980  1.000  1.174931  80.1599  24.7566  8.262413
10685.274  10685.240  1.000  1.173535  79.9549  24.7278  8.263831
10689.604  10689.520  1.000  1.171398  79.804  24.7339  8.273985
10693.838  10693.820  1.000  1.168312  79.6511  24.7628  8.293302
10698.180  10698.140  1.000  1.166354  78.9295  24.5866  8.244554
10702.501  10702.470  1.000  1.166706  79.3138  24.6976  8.292294
10706.875  10706.830  1.000  1.167766  79.1614  24.624  8.277287
10711.238  10711.200  1.000  1.168040  78.9653  24.5563  8.265807
10715.634  10715.600  1.000  1.167230  78.8731  24.5475  8.272282
10720.039  10720.010  1.000  1.165940  78.756  24.5427  8.281631
10724.463  10724.440  1.000  1.163684  78.5933  24.5473  8.292226
10728.915  10728.890  1.000  1.161675  78.4876  24.5636  8.308860
10733.396  10733.360  1.000  1.160691  78.2589  24.5161  8.302852
10737.886  10737.850  1.000  1.160076  78.0903  24.4784  8.298414
10742.394  10742.360  1.000  1.159119  77.913  24.4462  8.298663
10746.927  10746.880  1.000  1.156968  77.7432  24.4454  8.310882
10751.468  10751.430  1.000  1.153825  77.4721  24.4369  8.314629
10756.034  10755.990  1.000  1.150637  77.3012  24.4608  8.335821
10760.618  10760.580  1.000  1.148751  77.1806  24.4687  8.348971
10765.227  10765.180  1.000  1.149261  77.0197  24.4053  8.336789
10769.845  10769.800  1.000  1.150704  76.8122  24.3045  8.312502
10774.466  10774.440  1.000  1.150895  76.6182  24.2384  8.300239
10779.132  10779.100  1.000  1.148206  76.4926  24.2639  8.320118
10783.823  10783.780  1.000  1.141826  76.1799  24.3193  8.349068
10788.507  10788.480  1.000  1.132964  76.0732  24.5014  8.421282
10793.246  10793.200  1.000  1.124847  75.9766  24.6698  8.491949
10797.969  10797.930  1.000  1.119144  75.7387  24.7332  8.522573
10802.737  10802.690  1.000  1.115469  75.5429  24.7601  8.540913
10807.494  10807.460  1.000  1.112397  74.6614  24.5464  8.478984
10812.215  10812.260  1.000  1.111265  75.1596  24.7382  8.559601
10817.112  10817.070  1.000  1.111546  75.0992  24.7114  8.560536
10821.866  10821.900  1.000  1.112544  74.9225  24.6286  8.541849
10826.798  10826.750  1.000  1.114053  74.6902  24.5153  8.511719
10831.668  10831.620  1.000  1.116518  74.6199  24.4319  8.496197
10836.558  10836.510  1.000  1.119522  74.4829  24.3139  8.462181
10841.468  10841.420  1.000  1.122017  74.3438  24.208  8.436771
10846.418  10846.340  1.000  1.122739  73.8629  24.034  8.387255
10851.260  10851.290  1.000  1.121073  73.9423  24.1  8.418073
10856.234  10856.250  1.000  1.116005  73.7595  24.1626  8.452930
10861.285  10861.240  1.000  1.110811  73.6831  24.2632  8.499142
10866.253  10866.240  1.000  1.106460  73.5817  24.3355  8.535099
10871.211  10871.260  1.000  1.103636  73.6001  24.4104  8.573912
10876.368  10876.300  1.000  1.102098  73.313  24.3526  8.564404
10881.402  10881.360  1.000  1.101216  73.2167  24.3421  8.570891
10886.502  10886.440  1.000  1.100041  73.1117  24.3358  8.580801
10891.530  10891.540  1.000  1.097647  72.9253  24.3319  8.588873
10896.697  10896.660  1.000  1.094005  72.8596  24.3987  8.624639
10901.832  10901.790  1.000  1.089533  72.6894  24.4508  8.655709
10906.988  10906.950  1.000  1.082869  72.4615  24.5371  8.698010
10912.164  10912.120  1.000  1.075697  72.3017  24.6592  8.751602
10917.366  10917.320  1.000  1.070397  72.0824  24.715  8.782644
10922.579  10922.530  1.000  1.067312  71.8296  24.7045  8.792638
10927.806  10927.760  1.000  1.064537  71.7521  24.7464  8.814993
10933.049  10933.010  1.000  1.061956  71.6117  24.7618  8.833174
10938.241  10938.280  1.000  1.060945  71.4653  24.7362  8.838359
10943.608  10943.570  1.000  1.060564  71.347  24.7047  8.836970
10948.919  10948.880  1.000  1.060501  71.1566  24.6403  8.828251