File: xdidata/Cr/Cr-K-Cr2O3.xdi
# XDI/1.0 BlueSky/1.5.3
# Beamline.name: 6BM
# Beamline.xray_source: NSLS-II three-pole wiggler
# Beamline.collimation: paraboloid mirror, 5 nm Rh on 30 nm Pt
# Beamline.focusing: not in use
# Beamline.harmonic_rejection: flat mirror, Si stripe, pitch = 7.0 mrad relative to beam
# Detector.i0: 10 cm N2
# Detector.i1: 25 cm N2
# Detector.i2: 25 cm N2
# Element.symbol: Cr
# Element.edge: K
# Facility.name: NSLS-II
# Facility.energy: 3.0
# Facility.current: 400.5
# Facility.mode: top-off
# Facility.gup: 305882
# Facility.saf: 305422
# Facility.cycle: 2020-1
# Mono.name: Si(111)
# Mono.d_spacing: 3.13532
# Mono.encoder_resolution: 0.0000050 deg/ct
# Mono.angle_offset: 16.0581 deg
# Mono.scan_mode: fixed exit
# Mono.scan_type: step
# Mono.direction: forward in energy
# Sample.name: Cr2O3
# Sample.prep: powder on tape
# Sample.x_position: -74.438 mm
# Sample.y_position: 112.405 mm
# Scan.experimenters: Sarah Nicholas, Bruce Ravel
# Scan.edge_energy: 5989.0
# Scan.start_time: 2020-01-29T15:17:01
# Scan.end_time: 2020-01-29T20:16:54
# Scan.transient_id: 20487
# Scan.uid: d72a1d38-86fd-4137-9b32-218181245c06
# Scan.plot_hint: ln(I0/It)  --  ln($5/$6)
# Scan.sequence: merge of 9 scans
# Column.1: energy eV
# Column.2: requested_energy eV
# Column.3: measurement_time seconds
# Column.4: mutrans
# Column.5: i0
# Column.6: itrans
# Column.7: irefer
# /////
#  Fisher, ground in AW M&P
# -----
# energy   requested_energy   measurement_time   mutrans   i0   itrans   irefer
5789 5789 0.500000 1.816430 47.7308 7.761394 1.394561
5799.01 5799 0.500000 1.804119 47.6844 7.849818 1.422561
5809.01 5809 0.500000 1.791811 47.6662 7.943957 1.452589
5819.02 5819 0.500000 1.779475 47.5999 8.031374 1.481308
5829.01 5829 0.500000 1.767444 47.5257 8.115904 1.510032
5839.01 5839 0.500000 1.755370 47.4428 8.200159 1.538879
5849.01 5849 0.500000 1.743224 47.3173 8.278399 1.567310
5859.01 5859 0.500000 1.731187 47.1211 8.343907 1.592691
5869.01 5869 0.500000 1.719240 45.9702 8.237918 1.586378
5879.01 5879 0.500000 1.707368 47.4631 8.607084 1.671401
5889.01 5889 0.500000 1.695634 47.1698 8.654860 1.694696
5899.01 5899 0.500000 1.684139 46.9977 8.722957 1.722238
5909.01 5909 0.500000 1.672235 46.749 8.780720 1.747646
5919 5919 0.500000 1.661043 34.9354 6.635587 1.331305
5929 5929 0.500000 1.649110 45.1852 8.684742 1.757148
5939 5939 0.500000 1.637600 46.2761 8.998246 1.834467
5948.99 5949 0.500000 1.626334 46.8447 9.211952 1.893202
5959.01 5959 0.500000 1.615101 46.4977 9.247118 1.915346
5961 5961 0.500000 1.612896 46.4277 9.253515 1.919183
5963 5963 0.500000 1.610629 46.3762 9.264265 1.924599
5964.99 5965 0.500000 1.608392 46.3485 9.279370 1.930289
5966.99 5967 0.500000 1.606285 46.2921 9.287610 1.935513
5969 5969 0.500000 1.604087 46.2461 9.298855 1.940174
5971 5971 0.500000 1.602009 46.178 9.304464 1.944417
5973 5973 0.500000 1.599781 46.1197 9.313446 1.948672
5974.99 5975 0.500000 1.597678 46.0527 9.319459 1.952736
5977 5977 0.500000 1.595504 46.0028 9.329689 1.957058
5979 5979 0.500000 1.593411 45.9271 9.333834 1.960004
5979.24 5979.25 0.500000 1.593232 45.9363 9.337368 1.961079
5979.49 5979.5 0.500000 1.592924 45.9119 9.335280 1.961030
5979.74 5979.75 0.500000 1.592668 45.9084 9.336939 1.961922
5979.99 5980 0.500000 1.592408 45.9084 9.339387 1.962205
5980.24 5980.25 0.500000 1.592168 45.8947 9.338833 1.962597
5980.49 5980.5 0.500000 1.591873 45.8869 9.340004 1.963126
5980.74 5980.75 0.500000 1.591633 45.8829 9.341426 1.963406
5980.99 5981 0.500000 1.591440 45.866 9.339791 1.963468
5981.24 5981.25 0.500000 1.591164 45.8523 9.339572 1.963771
5981.49 5981.5 0.500000 1.590906 45.8398 9.339452 1.963392
5981.74 5981.75 0.500000 1.590623 45.8245 9.338963 1.963713
5981.99 5982 0.500000 1.590391 45.7951 9.335148 1.963170
5982.24 5982.25 0.500000 1.590149 45.7899 9.336357 1.963220
5982.49 5982.5 0.500000 1.589894 45.771 9.334897 1.963453
5982.74 5982.75 0.500000 1.589661 45.7665 9.336117 1.963775
5982.99 5983 0.500000 1.589404 45.7435 9.333831 1.963170
5983.24 5983.25 0.500000 1.589107 45.7166 9.331093 1.962511
5983.49 5983.5 0.500000 1.588862 45.6913 9.328225 1.962563
5983.74 5983.75 0.500000 1.588695 45.665 9.324424 1.961464
5983.99 5984 0.500000 1.588406 45.6425 9.322513 1.960875
5984.24 5984.25 0.500000 1.588218 45.6224 9.320149 1.960847
5984.49 5984.5 0.500000 1.587981 45.6037 9.318540 1.960038
5984.74 5984.75 0.500000 1.587676 45.5777 9.316073 1.959512
5985 5985 0.500000 1.587516 45.5441 9.310737 1.958234
5985.25 5985.25 0.500000 1.587297 45.5071 9.305206 1.956815
5985.5 5985.5 0.500000 1.587033 45.4736 9.300831 1.955214
5985.74 5985.75 0.500000 1.586807 45.4341 9.294814 1.953894
5986 5986 0.500000 1.586589 45.3998 9.289829 1.952214
5986.25 5986.25 0.500000 1.586366 45.3671 9.285210 1.950703
5986.5 5986.5 0.500000 1.586161 45.3184 9.277122 1.948055
5986.74 5986.75 0.500000 1.585993 45.2597 9.266664 1.944619
5987 5987 0.500000 1.585737 45.2036 9.257555 1.941587
5987.25 5987.25 0.500000 1.585611 45.1249 9.242607 1.936730
5987.5 5987.5 0.500000 1.585416 45.0602 9.231173 1.932341
5987.75 5987.75 0.500000 1.585253 44.9765 9.215503 1.926168
5988 5988 0.500000 1.585109 44.8759 9.196212 1.918344
5988.25 5988.25 0.500000 1.585006 44.7542 9.172222 1.906969
5988.5 5988.5 0.500000 1.584954 44.6049 9.142096 1.891351
5988.75 5988.75 0.500000 1.584943 44.4395 9.108297 1.870534
5988.99 5989 0.500000 1.584976 44.2385 9.066792 1.844403
5989.24 5989.25 0.500000 1.585196 43.9893 9.013762 1.811919
5989.49 5989.5 0.500000 1.585784 43.647 8.938430 1.774645
5989.74 5989.75 0.500000 1.586629 43.1889 8.837134 1.735995
5990 5990 0.500000 1.587881 42.5169 8.688756 1.693407
5990.25 5990.25 0.500000 1.589048 41.5373 8.478533 1.641202
5990.5 5990.5 0.500000 1.589750 40.0992 8.179286 1.572871
5990.75 5990.75 0.500000 1.589733 38.068 7.765127 1.483840
5991 5991 0.500000 1.589185 35.7712 7.300610 1.386891
5991.25 5991.25 0.500000 1.588250 33.9223 6.929726 1.308787
5991.5 5991.5 0.500000 1.587548 33.3269 6.812829 1.279692
5991.75 5991.75 0.500000 1.587423 34.454 7.044138 1.315475
5991.99 5992 0.500000 1.588051 37.3109 7.623513 1.417417
5992.25 5992.25 0.500000 1.588442 41.1285 8.400190 1.554824
5992.5 5992.5 0.500000 1.589365 44.065 8.991674 1.657793
5992.75 5992.75 0.500000 1.590526 45.5505 9.283877 1.704252
5993 5993 0.500000 1.591816 46.1384 9.391606 1.718205
5993.25 5993.25 0.500000 1.593018 46.3931 9.432173 1.719981
5993.5 5993.5 0.500000 1.594162 46.4769 9.438436 1.717082
5993.75 5993.75 0.500000 1.594919 46.5253 9.441139 1.713804
5994 5994 0.500000 1.595179 46.5269 9.439006 1.710215
5994.25 5994.25 0.500000 1.595044 46.5053 9.435883 1.708045
5994.5 5994.5 0.500000 1.594558 46.4819 9.435680 1.707048
5994.75 5994.75 0.500000 1.593905 46.448 9.434950 1.706569
5995 5995 0.500000 1.593386 46.4318 9.436582 1.707541
5995.25 5995.25 0.500000 1.593000 46.3912 9.432018 1.707477
5995.5 5995.5 0.500000 1.592777 46.3742 9.430655 1.708131
5995.75 5995.75 0.500000 1.592769 46.3549 9.426791 1.708564
5996 5996 0.500000 1.592853 46.3438 9.423764 1.708539
5996.25 5996.25 0.500000 1.592863 46.3091 9.416598 1.706152
5996.5 5996.5 0.500000 1.593043 46.2939 9.411825 1.703520
5996.75 5996.75 0.500000 1.593362 46.2864 9.407325 1.697693
5997 5997 0.500000 1.593959 46.2681 9.397980 1.689709
5997.25 5997.25 0.500000 1.595038 46.2358 9.381403 1.678092
5997.5 5997.5 0.500000 1.596529 46.2137 9.362815 1.663432
5997.75 5997.75 0.500000 1.598535 46.2045 9.342124 1.648458
5998 5998 0.500000 1.601131 46.1873 9.314669 1.631081
5998.25 5998.25 0.500000 1.604374 46.1723 9.281005 1.612188
5998.5 5998.5 0.500000 1.608499 46.1519 9.238429 1.592301
5998.75 5998.75 0.500000 1.613553 46.1396 9.189975 1.571996
5999 5999 0.500000 1.619594 46.1059 9.127724 1.549043
5999.25 5999.25 0.500000 1.626403 46.0817 9.061167 1.525770
5999.5 5999.5 0.500000 1.633886 46.0724 8.992257 1.503020
5999.75 5999.75 0.500000 1.641880 46.0629 8.919064 1.480359
6000 6000 0.500000 1.650001 46.054 8.845160 1.458896
6000.25 6000.25 0.500000 1.657943 46.0449 8.773259 1.437623
6000.5 6000.5 0.500000 1.665929 46.023 8.699230 1.417558
6000.75 6000.75 0.500000 1.673524 46.0155 8.631508 1.399167
6001 6001 0.500000 1.680483 45.9946 8.568198 1.382445
6001.25 6001.25 0.500000 1.686317 45.9839 8.516334 1.367654
6001.5 6001.5 0.500000 1.690257 45.9742 8.481298 1.355853
6001.75 6001.75 0.500000 1.692623 45.9657 8.459579 1.347252
6002 6002 0.500000 1.694159 45.9608 8.445576 1.339097
6002.25 6002.25 0.500000 1.695775 45.9321 8.426700 1.330975
6002.5 6002.5 0.500000 1.697967 45.9351 8.408718 1.323579
6002.75 6002.75 0.500000 1.701154 45.9212 8.379480 1.314219
6003 6003 0.500000 1.705391 45.9112 8.341953 1.304186
6003.25 6003.25 0.500000 1.710780 45.9044 8.296209 1.292565
6003.5 6003.5 0.500000 1.717237 45.8836 8.238825 1.279364
6003.75 6003.75 0.500000 1.724287 45.8707 8.179124 1.266306
6004 6004 0.500000 1.731489 45.8632 8.118853 1.253370
6004.25 6004.25 0.500000 1.738425 45.8455 8.060132 1.240624
6004.5 6004.5 0.500000 1.744814 45.833 8.006763 1.228641
6004.75 6004.75 0.500000 1.750743 45.8203 7.957001 1.217352
6005 6005 0.500000 1.756797 45.8119 7.907469 1.206112
6005.25 6005.25 0.500000 1.763565 45.8065 7.853321 1.193953
6005.5 6005.5 0.500000 1.771446 45.8037 7.791161 1.180816
6005.75 6005.75 0.500000 1.780900 45.7885 7.714613 1.164883
6006.01 6006 0.500000 1.791447 45.764 7.628981 1.148039
6006.25 6006.25 0.500000 1.802370 45.7595 7.546118 1.131946
6006.5 6006.5 0.500000 1.812550 45.7567 7.469390 1.116747
6006.75 6006.75 0.500000 1.820573 45.7479 7.409259 1.104130
6007 6007 0.500000 1.826143 45.75 7.368265 1.094843
6007.25 6007.25 0.500000 1.829446 45.7314 7.340797 1.087625
6007.5 6007.5 0.500000 1.830396 45.7097 7.330370 1.082760
6007.75 6007.75 0.500000 1.829755 45.7036 7.334027 1.079375
6008 6008 0.500000 1.827854 45.7033 7.348085 1.076933
6008.25 6008.25 0.500000 1.825475 45.7019 7.365323 1.075359
6008.5 6008.5 0.500000 1.823175 45.6755 7.378041 1.073432
6008.75 6008.75 0.500000 1.821202 45.653 7.388836 1.071736
6009 6009 0.500000 1.820183 45.6533 7.396370 1.070320
6009.25 6009.25 0.500000 1.820177 45.6546 7.396618 1.069153
6009.5 6009.5 0.500000 1.821670 45.647 7.384445 1.066892
6009.75 6009.75 0.500000 1.824431 45.6548 7.365456 1.065085
6009.99 6010 0.500000 1.827960 45.648 7.338796 1.063399
6010.25 6010.25 0.500000 1.832078 45.6425 7.307500 1.062088
6010.5 6010.5 0.500000 1.836266 45.635 7.275765 1.061859
6010.75 6010.75 0.500000 1.839935 45.6437 7.250361 1.063080
6011 6011 0.500000 1.842711 45.6371 7.229064 1.065728
6011.26 6011.25 0.500000 1.844414 45.6296 7.215618 1.069388
6011.5 6011.5 0.500000 1.845158 45.6187 7.208658 1.073598
6011.75 6011.75 0.500000 1.844731 45.631 7.213838 1.080383
6012 6012 0.500000 1.842742 45.6166 7.225811 1.087918
6012.25 6012.25 0.500000 1.839094 45.6095 7.251130 1.097020
6012.5 6012.5 0.500000 1.833885 45.6135 7.289149 1.108051
6012.75 6012.75 0.500000 1.827827 45.6117 7.333382 1.119363
6013 6013 0.500000 1.821393 45.6201 7.382051 1.130446
6013.25 6013.25 0.500000 1.815053 45.609 7.427189 1.141044
6013.5 6013.5 0.500000 1.808911 45.5999 7.471621 1.150382
6013.75 6013.75 0.500000 1.803295 45.5928 7.512605 1.158789
6014 6014 0.500000 1.798385 45.5894 7.548571 1.166479
6015 6014.99 0.500000 1.784927 45.566 7.646864 1.182470
6016.02 6015.99 0.500000 1.777792 45.5307 7.696061 1.184223
6017.01 6017.01 0.500000 1.769557 45.5074 7.755431 1.183728
6018.06 6018.06 0.500000 1.760063 45.486 7.825669 1.184140
6019.12 6019.12 0.500000 1.753336 45.4701 7.875667 1.185413
6020.2 6020.2 0.500000 1.751532 45.439 7.884506 1.187176
6021.31 6021.3 0.500000 1.755536 45.4076 7.847673 1.187293
6022.42 6022.42 0.500000 1.761008 45.3709 7.798692 1.187088
6023.57 6023.56 0.500000 1.763800 45.3469 7.772772 1.187177
6024.72 6024.71 0.500000 1.763520 45.3336 7.772701 1.184902
6025.9 6025.89 0.500000 1.759218 45.3084 7.801927 1.181338
6027.09 6027.08 0.500000 1.749278 45.2728 7.873567 1.184804
6028.3 6028.3 0.500000 1.737343 45.2453 7.963030 1.193080
6029.53 6029.53 0.500000 1.725999 45.2093 8.047414 1.201619
6030.79 6030.78 0.500000 1.716509 45.1766 8.118335 1.209452
6032.06 6032.05 0.500000 1.708920 45.1487 8.175045 1.217705
6033.35 6033.34 0.500000 1.702605 45.1179 8.221253 1.225014
6034.66 6034.65 0.500000 1.696627 45.0793 8.263484 1.231163
6035.99 6035.98 0.500000 1.690992 45.0419 8.303300 1.235194
6037.34 6037.33 0.500000 1.686961 44.9937 8.327829 1.235100
6038.71 6038.7 0.500000 1.684572 44.9519 8.340069 1.234042
6040.09 6040.08 0.500000 1.683096 44.9331 8.348834 1.236156
6041.5 6041.49 0.500000 1.683011 44.9048 8.344311 1.239163
6042.92 6042.91 0.500000 1.683906 44.8625 8.329001 1.242050
6044.36 6044.35 0.500000 1.683873 44.8113 8.319810 1.245489
6045.82 6045.81 0.500000 1.682359 44.7669 8.324124 1.249886
6047.3 6047.29 0.500000 1.681240 44.7223 8.325136 1.255981
6048.8 6048.79 0.500000 1.681594 44.6844 8.315133 1.262728
6050.32 6050.31 0.500000 1.683974 44.6398 8.287166 1.269057
6051.86 6051.85 0.500000 1.687884 44.5828 8.244261 1.274877
6053.42 6053.41 0.500000 1.691462 44.5264 8.204481 1.279901
6054.99 6054.98 0.500000 1.693523 44.4559 8.174638 1.285505
6056.59 6056.58 0.500000 1.695204 44.3819 8.147331 1.289107
6058.19 6058.19 0.500000 1.697798 44.3126 8.113636 1.290442
6059.84 6059.83 0.500000 1.700432 44.2379 8.078568 1.289379
6061.49 6061.48 0.500000 1.702625 44.1574 8.046269 1.285132
6063.15 6063.15 0.500000 1.704325 44.0956 8.021351 1.277859
6064.85 6064.84 0.500000 1.704356 44.0472 8.012316 1.269752
6066.56 6066.55 0.500000 1.703590 44.0041 8.010579 1.259301
6068.28 6068.28 0.500000 1.702699 43.9561 8.008956 1.247925
6070.04 6070.03 0.500000 1.701509 43.8945 8.007241 1.236978
6071.8 6071.79 0.500000 1.698995 43.8363 8.016709 1.234331
6073.59 6073.58 0.500000 1.695280 43.8009 8.039987 1.244185
6075.39 6075.38 0.500000 1.691411 43.7504 8.061891 1.259695
6077.22 6077.21 0.500000 1.687961 43.6815 8.076978 1.276474
6079.05 6079.05 0.500000 1.684741 43.6046 8.088717 1.293343
6080.92 6080.91 0.500000 1.680465 43.5543 8.114031 1.312747
6082.8 6082.79 0.500000 1.675379 43.4792 8.141300 1.330579
6084.7 6084.69 0.500000 1.670284 43.4271 8.173046 1.343441
6086.62 6086.61 0.500000 1.665710 43.3608 8.198036 1.345684
6088.56 6088.55 0.500000 1.661095 43.2931 8.223065 1.337452
6090.51 6090.51 0.500000 1.656294 43.2135 8.247363 1.321829
6092.49 6092.48 0.500000 1.651699 43.1417 8.271600 1.304483
6094.49 6094.48 0.500000 1.648125 43.0552 8.284573 1.286527
6096.5 6096.49 0.500000 1.646056 42.9947 8.290112 1.270307
6098.53 6098.52 0.500000 1.645126 42.9149 8.282379 1.258780
6100.59 6100.58 0.500000 1.643938 42.8281 8.275451 1.257576
6102.66 6102.65 0.500000 1.642114 42.7608 8.277603 1.269990
6104.75 6104.74 0.500000 1.639551 42.6705 8.281286 1.289928
6106.86 6106.85 0.500000 1.636419 42.5741 8.288510 1.314637
6108.98 6108.98 0.500000 1.633060 42.4899 8.299873 1.340612
6111.13 6111.12 0.500000 1.629744 42.3906 8.308010 1.362146
6113.3 6113.29 0.500000 1.626923 42.3002 8.313725 1.377327
6115.49 6115.48 0.500000 1.624760 42.1897 8.309927 1.383839
6117.69 6117.68 0.500000 1.623202 42.0885 8.302944 1.383713
6119.9 6119.9 0.500000 1.621141 41.9769 8.297963 1.381313
6122.16 6122.15 0.500000 1.618475 41.8508 8.295178 1.378858
6124.42 6124.41 0.500000 1.615655 41.7617 8.300879 1.380915
6126.7 6126.69 0.500000 1.612986 41.6573 8.302258 1.386437
6129 6128.99 0.500000 1.610443 41.5328 8.298503 1.394454
6131.31 6131.31 0.500000 1.608162 41.4068 8.292184 1.401061
6133.65 6133.65 0.500000 1.606441 41.2759 8.280207 1.405288
6136.01 6136 0.500000 1.605280 41.1522 8.264997 1.405212
6138.39 6138.38 0.500000 1.603971 41.0102 8.247269 1.402132
6140.78 6140.77 0.500000 1.602741 40.8828 8.231773 1.398986
6143.2 6143.19 0.500000 1.601294 40.7385 8.214585 1.395772
6145.63 6145.62 0.500000 1.599375 40.579 8.198130 1.390844
6148.08 6148.07 0.500000 1.596866 40.4111 8.184749 1.382985
6150.56 6150.55 0.500000 1.593657 40.2417 8.176616 1.377832
6153.05 6153.04 0.500000 1.589955 40.0324 8.164267 1.374872
6155.56 6155.55 0.500000 1.587112 39.7863 8.137160 1.370020
6158.08 6158.07 0.500000 1.585594 39.3916 8.068678 1.354627
6160.63 6160.62 0.500000 1.584641 38.6294 7.920094 1.321337
6163.2 6163.19 0.500000 1.582831 37.0897 7.618244 1.261415
6165.78 6165.77 0.500000 1.580896 36.6252 7.537396 1.244566
6168.39 6168.38 0.500000 1.577956 39.527 8.158502 1.352486
6171.01 6171 0.500000 1.573636 39.3731 8.161920 1.366163
6173.66 6173.65 0.500000 1.568457 39.1371 8.155181 1.380620
6176.32 6176.31 0.500000 1.563695 38.9203 8.148624 1.394505
6179 6178.99 0.500000 1.560286 38.6945 8.129029 1.404511
6181.7 6181.69 0.500000 1.557762 38.4734 8.102995 1.410732
6184.43 6184.41 0.500000 1.555090 38.2558 8.078854 1.414435
6187.17 6187.15 0.500000 1.551936 38.0326 8.057084 1.415649
6189.93 6189.9 0.500000 1.548638 37.813 8.037056 1.415761
6192.69 6192.68 0.500000 1.545190 37.5927 8.017740 1.416751
6195.48 6195.47 0.500000 1.540831 37.3598 8.002793 1.419169
6198.3 6198.29 0.500000 1.535898 37.1278 7.992403 1.422384
6201.13 6201.12 0.500000 1.530507 36.8975 7.985814 1.425943
6203.98 6203.97 0.500000 1.525663 36.6428 7.969214 1.426913
6206.86 6206.85 0.500000 1.521598 36.3951 7.947533 1.429014
6209.75 6209.74 0.500000 1.518501 36.1447 7.917370 1.431883
6212.64 6212.65 0.500000 1.515825 35.8922 7.883035 1.433750
6215.58 6215.57 0.500000 1.513209 35.6282 7.845655 1.432599
6218.53 6218.52 0.500000 1.511303 35.3801 7.805834 1.426642
6221.5 6221.49 0.500000 1.509924 35.1103 7.756992 1.415523
6224.48 6224.47 0.500000 1.508575 34.8316 7.705842 1.402472
6227.49 6227.48 0.500000 1.506865 34.5571 7.658183 1.389648
6230.51 6230.5 0.500000 1.504648 34.2746 7.612451 1.376230
6233.56 6233.55 0.500000 1.501563 33.9994 7.574723 1.364021
6236.62 6236.61 0.500000 1.497767 33.7085 7.538493 1.352253
6239.7 6239.69 0.500000 1.494017 33.4167 7.501259 1.341912
6242.8 6242.79 0.500000 1.490502 33.1193 7.460690 1.334026
6245.91 6245.91 0.500000 1.486951 32.8227 7.420139 1.328936
6249.06 6249.05 0.500000 1.483184 32.5237 7.380347 1.329785
6252.21 6252.2 0.500000 1.479561 32.2217 7.338355 1.334746
6255.38 6255.38 0.500000 1.476006 31.9117 7.293608 1.342268
6258.58 6258.57 0.500000 1.472963 31.6066 7.245919 1.347991
6261.79 6261.79 0.500000 1.470381 31.2902 7.191946 1.347247
6265.03 6265.02 0.500000 1.467582 30.9751 7.139514 1.342556
6268.28 6268.27 0.500000 1.463984 30.6513 7.090333 1.335952
6271.56 6271.55 0.500000 1.460142 30.3357 7.044356 1.330419
6274.85 6274.84 0.500000 1.456077 30.0064 6.996264 1.325484
6278.15 6278.15 0.500000 1.452039 29.6837 6.948972 1.320710
6281.47 6281.47 0.500000 1.448193 29.3585 6.899350 1.315230
6284.82 6284.82 0.500000 1.444689 29.0216 6.844119 1.307115
6288.19 6288.19 0.500000 1.441470 28.6957 6.789091 1.299113
6291.57 6291.57 0.500000 1.438328 28.3682 6.732752 1.290920
6294.99 6294.98 0.500000 1.435128 28.0422 6.676703 1.284716
6298.4 6298.4 0.500000 1.431935 27.7189 6.620831 1.279654
6301.85 6301.85 0.500000 1.428950 27.3909 6.562034 1.273793
6305.31 6305.31 0.500000 1.426025 27.0691 6.503955 1.266109
6308.8 6308.79 0.500000 1.422829 26.7354 6.444352 1.257809
6312.29 6312.29 0.500000 1.419204 26.4128 6.389734 1.249006
6315.81 6315.81 0.500000 1.415105 26.0887 6.337220 1.238982
6319.36 6319.35 0.500000 1.411208 25.7622 6.282382 1.227159
6322.91 6322.9 0.500000 1.407051 25.4427 6.230311 1.216335
6326.48 6326.48 0.500000 1.402734 25.12 6.177876 1.206847
6330.09 6330.08 0.500000 1.398295 24.8026 6.126967 1.198347
6333.69 6333.69 0.500000 1.394284 24.49 6.074050 1.189706
6337.32 6337.32 0.500000 1.390407 24.1743 6.019063 1.181512
6340.98 6340.98 0.500000 1.386813 23.8592 5.961972 1.174255
6344.65 6344.65 0.500000 1.383641 23.5471 5.902660 1.167389
6348.35 6348.34 0.500000 1.380563 23.2386 5.843342 1.161065
6352.06 6352.05 0.500000 1.377563 22.9368 5.784745 1.154116
6355.79 6355.78 0.500000 1.374336 22.6328 5.726563 1.147201
6359.53 6359.52 0.500000 1.371019 22.3355 5.670110 1.142119
6363.3 6363.29 0.500000 1.367729 22.038 5.613038 1.136940
6367.09 6367.08 0.500000 1.364440 21.7451 5.556663 1.131061
6370.89 6370.88 0.500000 1.360992 21.4533 5.501015 1.123935
6374.71 6374.71 0.500000 1.357275 21.1623 5.446588 1.116079
6378.56 6378.55 0.500000 1.353374 20.8802 5.395055 1.107884
6382.41 6382.41 0.500000 1.349559 20.5948 5.341604 1.099564
6386.3 6386.29 0.500000 1.346233 20.3147 5.286536 1.090848
6390.2 6390.19 0.500000 1.343064 20.0333 5.229851 1.082341
6394.12 6394.11 0.500000 1.339811 19.7594 5.175143 1.074521
6398.06 6398.05 0.500000 1.336508 19.4876 5.120839 1.065641
6402.03 6402.01 0.500000 1.332958 19.2217 5.068963 1.057116
6405.99 6405.98 0.500000 1.329239 18.9631 5.019389 1.049052
6410 6409.98 0.500000 1.325541 18.7058 4.969629 1.041228
6413.99 6413.99 0.500000 1.322104 18.4572 4.920428 1.034347
6418.01 6418.03 0.500000 1.318460 18.2091 4.871902 1.026914
6422.09 6422.08 0.500000 1.314850 17.9633 4.823631 1.020956
6426.16 6426.15 0.500000 1.311132 17.7237 4.777040 1.013097
6430.25 6430.24 0.500000 1.307278 17.483 4.730327 1.004603
6434.36 6434.35 0.500000 1.303661 17.2412 4.681791 0.995768
6438.49 6438.48 0.500000 1.300270 17.0081 4.634175 0.987254
6442.64 6442.63 0.500000 1.296661 16.7854 4.590039 0.980064
6446.8 6446.79 0.500000 1.292987 16.561 4.545374 0.974027
6450.99 6450.98 0.500000 1.288825 16.362 4.509434 0.970297
6455.18 6455.18 0.500000 1.284558 16.1565 4.471807 0.966454
6459.43 6459.41 0.500000 1.280476 15.8814 4.413677 0.957875
6463.66 6463.65 0.500000 1.276507 15.6012 4.353067 0.947957
6467.91 6467.91 0.500000 1.272694 15.5105 4.344255 0.949191
6472.22 6472.19 0.500000 1.269095 15.3189 4.306114 0.943285
6476.5 6476.49 0.500000 1.265437 15.1317 4.269032 0.938220
6480.8 6480.81 0.500000 1.261941 14.9438 4.230742 0.933351
6485.15 6485.15 0.500000 1.258230 14.7667 4.196140 0.928475
6489.53 6489.51 0.500000 1.254678 14.5867 4.159779 0.923279
6493.92 6493.89 0.500000 1.251280 14.412 4.123997 0.917289
6498.26 6498.28 0.500000 1.248006 14.2398 4.087926 0.911676
6502.68 6502.7 0.500000 1.244264 14.0651 4.052921 0.906351
6507.11 6507.13 0.500000 1.240552 13.9077 4.022489 0.902050
6511.56 6511.58 0.500000 1.236954 13.746 3.990047 0.898025
6516.07 6516.05 0.500000 1.233548 13.5855 3.957016 0.893609
6520.55 6520.54 0.500000 1.230186 13.4313 3.925271 0.889526
6525.08 6525.05 0.500000 1.226522 13.2787 3.894981 0.886034
6529.61 6529.58 0.500000 1.222800 13.1336 3.866785 0.882709
6534.17 6534.13 0.500000 1.218839 12.9842 3.838000 0.878636
6538.73 6538.7 0.500000 1.215054 12.8369 3.808802 0.874052
6543.28 6543.28 0.500000 1.211141 12.6945 3.781250 0.869923
6547.92 6547.89 0.500000 1.207232 12.5501 3.752933 0.865113
6552.55 6552.51 0.500000 1.203111 12.4121 3.727038 0.861343
6557.2 6557.16 0.500000 1.199356 12.2764 3.700195 0.857576
6561.8 6561.82 0.500000 1.195199 12.1436 3.675209 0.854360
6566.49 6566.5 0.500000 1.191004 12.0202 3.653153 0.851868
6571.19 6571.2 0.500000 1.186845 11.8923 3.629355 0.849096
6575.9 6575.92 0.500000 1.183004 11.7712 3.606225 0.846680
6580.65 6580.66 0.500000 1.179383 11.6523 3.582699 0.843731
6585.44 6585.41 0.500000 1.175662 11.5363 3.560402 0.841403
6590.2 6590.19 0.500000 1.171959 11.4193 3.537337 0.838729
6594.97 6594.99 0.500000 1.168470 11.3064 3.514502 0.836195
6599.79 6599.8 0.500000 1.164871 11.1929 3.491802 0.833096
6604.61 6604.63 0.500000 1.161209 11.0799 3.469221 0.830221
6609.53 6609.49 0.500000 1.157468 10.9689 3.447463 0.827560
6614.34 6614.36 0.500000 1.153580 10.8628 3.427303 0.825251
6619.24 6619.25 0.500000 1.149522 10.7614 3.409152 0.823453
6624.15 6624.16 0.500000 1.145519 10.6571 3.389666 0.820825
6629.07 6629.09 0.500000 1.141612 10.553 3.369651 0.818627
6634.01 6634.03 0.500000 1.137850 10.4545 3.350782 0.816551
6639.01 6639 0.500000 1.133733 10.3485 3.330586 0.814137
6643.98 6643.99 0.500000 1.129633 10.2514 3.312814 0.812401
6648.98 6648.99 0.500000 1.125634 10.1584 3.295905 0.811024
6654 6654.02 0.500000 1.121449 10.0618 3.278255 0.809462
6659.05 6659.06 0.500000 1.117674 9.963860 3.258629 0.807315
6664.11 6664.12 0.500000 1.113515 9.867039 3.240430 0.805278
6669.18 6669.2 0.500000 1.109561 9.773652 3.222462 0.803557
6674.28 6674.3 0.500000 1.105814 9.681892 3.204157 0.801333
6679.4 6679.42 0.500000 1.101923 9.590543 3.186315 0.799514
6684.54 6684.56 0.500000 1.097897 9.501626 3.169511 0.797350
6689.7 6689.72 0.500000 1.094077 9.411150 3.151347 0.795268
6694.89 6694.9 0.500000 1.090326 9.319354 3.132357 0.792778
6700.08 6700.09 0.500000 1.086405 9.228014 3.113823 0.790143
6705.29 6705.31 0.500000 1.082630 9.141855 3.096414 0.788336
6710.53 6710.54 0.500000 1.078702 9.054515 3.078931 0.786035
6715.78 6715.79 0.500000 1.074844 8.969949 3.061956 0.784147
6721.04 6721.06 0.500000 1.070688 8.887236 3.046339 0.782592
6726.33 6726.35 0.500000 1.066882 8.800760 3.028193 0.780415
6731.64 6731.66 0.500000 1.062792 8.716535 3.011474 0.778462
6736.97 6736.99 0.500000 1.058894 8.630780 2.993505 0.776134
6742.32 6742.34 0.500000 1.054975 8.544583 2.975235 0.773821
6747.69 6747.71 0.500000 1.050814 8.465162 2.959868 0.772333
6753.07 6753.09 0.500000 1.046853 8.380825 2.942042 0.770588
6758.48 6758.5 0.500000 1.042719 8.297025 2.924668 0.768115
6763.89 6763.92 0.500000 1.038650 8.212717 2.906762 0.765847
6769.35 6769.37 0.500000 1.034584 8.136057 2.891348 0.763947
6774.84 6774.83 0.500000 1.030565 8.057563 2.875040 0.762250
6780.32 6780.31 0.500000 1.026617 7.978690 2.858188 0.760051
6785.79 6785.81 0.500000 1.022703 7.897367 2.840064 0.758032
6791.32 6791.33 0.500000 1.018849 7.806874 2.818406 0.754767
6796.85 6796.87 0.500000 1.014621 7.751672 2.810292 0.755078
6802.39 6802.42 0.500000 1.010597 7.681237 2.795997 0.753661
6807.98 6808 0.500000 1.006516 7.617228 2.784005 0.752545
6813.58 6813.6 0.500000 1.002579 7.426601 2.725065 0.739153
6819.21 6819.21 0.500000 0.998443 7.435086 2.739524 0.745190
6824.87 6824.85 0.500000 0.994478 7.271925 2.690058 0.733990
6830.48 6830.5 0.500000 0.990556 7.144307 2.653198 0.726337
6836.18 6836.17 0.500000 0.986539 7.297960 2.721215 0.746921
6841.84 6841.86 0.500000 0.982574 7.094141 2.655665 0.731060