File: xdidata/Cr/Cr-K-CrO3.xdi
# XDI/1.0 BlueSky/1.5.3
# Beamline.name: 6BM
# Beamline.xray_source: NSLS-II three-pole wiggler
# Beamline.collimation: paraboloid mirror, 5 nm Rh on 30 nm Pt
# Beamline.focusing: not in use
# Beamline.harmonic_rejection: flat mirror, Si stripe, pitch = 7.0 mrad relative to beam
# Detector.i0: 10 cm N2
# Detector.i1: 25 cm N2
# Detector.i2: 25 cm N2
# Element.symbol: Cr
# Element.edge: K
# Facility.name: NSLS-II
# Facility.energy: 3.0
# Facility.current: 399.5
# Facility.mode: top-off
# Facility.gup: 305882
# Facility.saf: 305422
# Facility.cycle: 2020-1
# Mono.name: Si(111)
# Mono.d_spacing: 3.13532
# Mono.encoder_resolution: 0.0000050 deg/ct
# Mono.angle_offset: 16.0581 deg
# Mono.scan_mode: fixed exit
# Mono.scan_type: step
# Mono.direction: forward in energy
# Sample.name: CrO3
# Sample.prep: powder on tape 2x
# Sample.x_position: -74.438 mm
# Sample.y_position: 112.405 mm
# Scan.experimenters: Sarah Nicholas, Bruce Ravel
# Scan.edge_energy: 5989.0
# Scan.start_time: 2020-01-30T04:05:39
# Scan.end_time: 2020-01-30T06:21:35
# Scan.transient_id: 20574
# Scan.uid: f596814b-f7ea-4277-940d-597cfe298a50
# Scan.plot_hint: ln(I0/It)  --  ln($5/$6)
# Scan.sequence: merge of 16 scans
# Column.1: energy eV
# Column.2: requested_energy eV
# Column.3: measurement_time seconds
# Column.4: mutrans
# Column.5: i0
# Column.6: itrans
# Column.7: irefer
# /////
#  Sigma, ground in AW M&P
# -----
# energy   requested_energy   measurement_time   mutrans   i0   itrans   irefer
5789 5789 0.500000 3.184599 47.649 1.972487 0.351959
5799.01 5799 0.500000 3.166011 47.6384 2.008973 0.360845
5809.02 5809 0.500000 3.146631 47.5962 2.046534 0.371235
5819.01 5819 0.500000 3.127633 47.5443 2.083448 0.381171
5829.01 5829 0.500000 3.108603 47.4581 2.119623 0.391105
5839.01 5839 0.500000 3.089566 47.3719 2.156451 0.401279
5849.01 5849 0.500000 3.070802 47.2566 2.191949 0.411443
5859.01 5859 0.500000 3.052110 47.0818 2.225031 0.421466
5869.01 5869 0.500000 3.033630 45.9403 2.211585 0.422596
5879.01 5879 0.500000 3.015377 47.474 2.327515 0.448494
5889 5889 0.500000 2.997058 47.2219 2.357941 0.458166
5899.01 5899 0.500000 2.979255 47.0472 2.391440 0.468340
5909 5909 0.500000 2.960913 46.8114 2.423491 0.478807
5919 5919 0.500000 2.943120 34.7745 1.832643 0.364621
5928.97 5929 0.500000 2.925122 45.0619 2.417790 0.485160
5938.99 5939 0.500000 2.907792 46.3618 2.531147 0.512407
5948.99 5949 0.500000 2.890086 46.9031 2.606442 0.531605
5959 5959 0.500000 2.873179 46.5504 2.630938 0.540958
5961 5961 0.500000 2.869911 46.4957 2.636493 0.542774
5962.99 5963 0.500000 2.866493 46.4407 2.642368 0.544728
5964.99 5965 0.500000 2.863122 46.3902 2.648418 0.546944
5966.99 5967 0.500000 2.859915 46.3309 2.653528 0.548905
5968.99 5969 0.500000 2.856579 46.2793 2.659421 0.550929
5970.99 5971 0.500000 2.853436 46.2135 2.664003 0.552703
5973 5973 0.500000 2.850179 46.1611 2.669678 0.554269
5974.99 5975 0.500000 2.846991 46.092 2.674184 0.555968
5977 5977 0.500000 2.844153 46.0167 2.677403 0.557586
5978.99 5979 0.500000 2.841136 45.9358 2.680768 0.558908
5979.24 5979.25 0.500000 2.840937 45.926 2.680745 0.559107
5979.49 5979.5 0.500000 2.840479 45.9144 2.681291 0.559179
5979.74 5979.75 0.500000 2.840138 45.8921 2.680908 0.559358
5979.99 5980 0.500000 2.839884 45.8776 2.680743 0.559261
5980.24 5980.25 0.500000 2.839562 45.8712 2.681222 0.559593
5980.49 5980.5 0.500000 2.839309 45.8529 2.680839 0.559245
5980.74 5980.75 0.500000 2.838900 45.84 2.681182 0.559497
5980.99 5981 0.500000 2.838548 45.8361 2.681904 0.559417
5981.24 5981.25 0.500000 2.838259 45.8216 2.681828 0.559543
5981.49 5981.5 0.500000 2.837968 45.8068 2.681728 0.559816
5981.74 5981.75 0.500000 2.837746 45.7961 2.681699 0.559721
5981.99 5982 0.500000 2.837528 45.7718 2.680862 0.559668
5982.24 5982.25 0.500000 2.837208 45.7467 2.680250 0.559757
5982.49 5982.5 0.500000 2.836802 45.7386 2.680858 0.559587
5982.74 5982.75 0.500000 2.836695 45.7241 2.680305 0.559467
5982.99 5983 0.500000 2.836412 45.7105 2.680270 0.559538
5983.24 5983.25 0.500000 2.836210 45.6941 2.679852 0.559754
5983.49 5983.5 0.500000 2.835962 45.6694 2.679066 0.559388
5983.75 5983.75 0.500000 2.835653 45.6513 2.678823 0.559389
5984 5984 0.500000 2.835648 45.6328 2.677767 0.559274
5984.25 5984.25 0.500000 2.835272 45.6115 2.677513 0.559095
5984.49 5984.5 0.500000 2.835129 45.5849 2.676338 0.558689
5984.74 5984.75 0.500000 2.835001 45.5593 2.675172 0.558343
5984.99 5985 0.500000 2.835042 45.5249 2.673046 0.558274
5985.24 5985.25 0.500000 2.834845 45.4909 2.671564 0.557435
5985.49 5985.5 0.500000 2.834822 45.4696 2.670377 0.557468
5985.74 5985.75 0.500000 2.834880 45.4383 2.668390 0.557027
5986 5986 0.500000 2.834797 45.397 2.666186 0.556120
5986.25 5986.25 0.500000 2.834933 45.355 2.663353 0.555767
5986.5 5986.5 0.500000 2.835156 45.3067 2.659932 0.554560
5986.75 5986.75 0.500000 2.835013 45.2547 2.657249 0.553616
5987 5987 0.500000 2.835455 45.1941 2.652521 0.552697
5987.25 5987.25 0.500000 2.835666 45.1333 2.648393 0.550771
5987.49 5987.5 0.500000 2.836023 45.0617 2.643265 0.549477
5987.75 5987.75 0.500000 2.836592 44.9753 2.636684 0.547371
5987.99 5988 0.500000 2.837234 44.882 2.629545 0.544698
5988.25 5988.25 0.500000 2.838137 44.7614 2.620111 0.541179
5988.5 5988.5 0.500000 2.839250 44.6186 2.608854 0.536226
5988.75 5988.75 0.500000 2.840368 44.4601 2.596650 0.530379
5989 5989 0.500000 2.841992 44.283 2.582075 0.522111
5989.25 5989.25 0.500000 2.843941 44.0353 2.562588 0.512202
5989.5 5989.5 0.500000 2.846714 43.7128 2.536863 0.500797
5989.75 5989.75 0.500000 2.850415 43.2725 2.501938 0.488289
5989.99 5990 0.500000 2.854947 42.6574 2.455446 0.475578
5990.25 5990.25 0.500000 2.861300 41.7449 2.387713 0.459261
5990.5 5990.5 0.500000 2.870403 40.4011 2.290025 0.437411
5990.74 5990.75 0.500000 2.883053 38.4838 2.154200 0.408597
5991 5991 0.500000 2.902658 36.1614 1.984865 0.374312
5991.25 5991.25 0.500000 2.930883 34.1558 1.822067 0.341829
5991.5 5991.5 0.500000 2.965464 33.3316 1.716684 0.319746
5991.75 5991.75 0.500000 2.996313 34.1977 1.708174 0.316299
5992 5992 0.500000 3.020573 36.8547 1.796521 0.331456
5992.25 5992.25 0.500000 3.045309 40.6257 1.931728 0.354936
5992.5 5992.5 0.500000 3.081037 43.7231 2.007036 0.366901
5992.74 5992.75 0.500000 3.132120 45.407 1.982791 0.361013
5993 5993 0.500000 3.192663 46.1504 1.896209 0.343942
5993.25 5993.25 0.500000 3.246346 46.4166 1.807343 0.327162
5993.5 5993.5 0.500000 3.278333 46.5228 1.754354 0.316175
5993.75 5993.75 0.500000 3.283024 46.557 1.746678 0.314209
5994 5994 0.500000 3.261870 46.5529 1.785024 0.320535
5994.25 5994.25 0.500000 3.221451 46.5363 1.858976 0.333761
5994.5 5994.5 0.500000 3.168531 46.5123 1.958535 0.351302
5994.75 5994.75 0.500000 3.115291 46.4888 2.063561 0.370187
5995 5995 0.500000 3.069423 46.4639 2.157746 0.386933
5995.25 5995.25 0.500000 3.032650 46.4313 2.236680 0.401702
5995.49 5995.5 0.500000 3.004334 46.4052 2.299118 0.413093
5995.75 5995.75 0.500000 2.982040 46.3779 2.350339 0.422505
5996 5996 0.500000 2.963087 46.3508 2.393807 0.430924
5996.25 5996.25 0.500000 2.947038 46.3152 2.431170 0.437017
5996.5 5996.5 0.500000 2.933143 46.2936 2.464515 0.442742
5996.76 5996.75 0.500000 2.921657 46.273 2.492098 0.446340
5997 5997 0.500000 2.912327 46.2455 2.513655 0.448704
5997.25 5997.25 0.500000 2.905219 46.2215 2.530081 0.449174
5997.5 5997.5 0.500000 2.899891 46.1918 2.541810 0.448631
5997.75 5997.75 0.500000 2.896124 46.167 2.549929 0.446897
5998 5998 0.500000 2.893733 46.1639 2.555996 0.444642
5998.24 5998.25 0.500000 2.892656 46.1357 2.557160 0.441535
5998.5 5998.5 0.500000 2.892705 46.1158 2.556015 0.437760
5998.75 5998.75 0.500000 2.894011 46.0907 2.551301 0.433611
5999.01 5999 0.500000 2.896523 46.0717 2.543668 0.428893
5999.25 5999.25 0.500000 2.899935 46.0661 2.534698 0.424115
5999.5 5999.5 0.500000 2.904281 46.0455 2.522603 0.419022
5999.75 5999.75 0.500000 2.909382 46.0254 2.508746 0.413496
6000 6000 0.500000 2.915085 46.0229 2.494447 0.408454
6000.25 6000.25 0.500000 2.921498 46.0159 2.478297 0.403352
6000.5 6000.5 0.500000 2.928130 46.0043 2.461492 0.398456
6000.75 6000.75 0.500000 2.934904 45.9859 2.443778 0.393118
6001 6001 0.500000 2.941618 45.9726 2.426682 0.389031
6001.25 6001.25 0.500000 2.948553 45.9589 2.408934 0.384015
6001.5 6001.5 0.500000 2.955844 45.9509 2.390807 0.379490
6001.75 6001.75 0.500000 2.963206 45.946 2.372967 0.375084
6002.01 6002 0.500000 2.970813 45.9252 2.353716 0.370301
6002.25 6002.25 0.500000 2.978431 45.9241 2.336178 0.366267
6002.5 6002.5 0.500000 2.985962 45.9188 2.318479 0.362066
6002.75 6002.75 0.500000 2.993543 45.9089 2.300819 0.358355
6003 6003 0.500000 3.001465 45.9034 2.282312 0.354029
6003.24 6003.25 0.500000 3.009465 45.8989 2.264063 0.350049
6003.5 6003.5 0.500000 3.018010 45.8782 2.243546 0.345745
6003.75 6003.75 0.500000 3.026331 45.875 2.224621 0.341700
6004 6004 0.500000 3.034417 45.8638 2.206032 0.337792
6004.26 6004.25 0.500000 3.042655 45.8504 2.186940 0.333862
6004.5 6004.5 0.500000 3.051071 45.8398 2.168335 0.330180
6004.75 6004.75 0.500000 3.059416 45.8377 2.150317 0.326459
6005 6005 0.500000 3.067703 45.8248 2.132331 0.322838
6005.25 6005.25 0.500000 3.075558 45.8248 2.115644 0.318959
6005.49 6005.5 0.500000 3.083724 45.8162 2.098313 0.315438
6005.75 6005.75 0.500000 3.091925 45.8063 2.080472 0.311955
6006 6006 0.500000 3.100836 45.7999 2.061712 0.307807
6006.25 6006.25 0.500000 3.110473 45.7939 2.041552 0.304164
6006.5 6006.5 0.500000 3.121265 45.7859 2.018844 0.299382
6006.76 6006.75 0.500000 3.132915 45.7711 1.994752 0.294955
6007.01 6007 0.500000 3.145386 45.764 1.969541 0.290185
6007.25 6007.25 0.500000 3.159150 45.7577 1.942796 0.285649
6007.5 6007.5 0.500000 3.174730 45.7469 1.912199 0.280219
6007.75 6007.75 0.500000 3.190627 45.7421 1.882205 0.274392
6008 6008 0.500000 3.206555 45.7337 1.852415 0.268953
6008.24 6008.25 0.500000 3.221099 45.7239 1.825743 0.264117
6008.5 6008.5 0.500000 3.233905 45.715 1.801445 0.259666
6008.75 6008.75 0.500000 3.245285 45.7103 1.780735 0.256025
6009 6009 0.500000 3.254754 45.6966 1.763312 0.252644
6009.25 6009.25 0.500000 3.262455 45.6888 1.749436 0.250585
6009.5 6009.5 0.500000 3.268385 45.679 1.738767 0.249027
6009.75 6009.75 0.500000 3.272712 45.6641 1.730737 0.247753
6010 6010 0.500000 3.276222 45.6566 1.724467 0.247289
6010.25 6010.25 0.500000 3.279427 45.6493 1.718713 0.247761
6010.5 6010.5 0.500000 3.282512 45.6456 1.713340 0.247421
6010.75 6010.75 0.500000 3.286888 45.6381 1.705644 0.247622
6011 6011 0.500000 3.291718 45.6331 1.697243 0.247755
6011.25 6011.25 0.500000 3.297587 45.6169 1.686594 0.247285
6011.5 6011.5 0.500000 3.303550 45.6057 1.676074 0.247258
6011.75 6011.75 0.500000 3.310539 45.6007 1.664196 0.246753
6012 6012 0.500000 3.317627 45.5917 1.652094 0.246375
6012.25 6012.25 0.500000 3.324759 45.5801 1.640105 0.245725
6012.51 6012.5 0.500000 3.332169 45.5782 1.627708 0.244871
6012.75 6012.75 0.500000 3.339126 45.5645 1.616156 0.244326
6013 6013 0.500000 3.345427 45.5679 1.606067 0.243545
6013.25 6013.25 0.500000 3.351617 45.5591 1.596029 0.242780
6013.5 6013.5 0.500000 3.357382 45.5489 1.586302 0.242034
6013.75 6013.75 0.500000 3.362922 45.5393 1.577280 0.241061
6014 6014 0.500000 3.367989 45.5333 1.569040 0.239888
6015.01 6014.99 0.500000 3.384753 45.5098 1.542114 0.236106
6015.98 6015.99 0.500000 3.395177 45.4787 1.525404 0.232475
6017.01 6017.01 0.500000 3.399464 45.447 1.517538 0.229438
6018.06 6018.06 0.500000 3.396539 45.4336 1.521508 0.227824
6019.12 6019.12 0.500000 3.387447 45.4095 1.534615 0.228891
6020.2 6020.2 0.500000 3.378091 45.3833 1.548100 0.230881
6021.31 6021.3 0.500000 3.372403 45.3515 1.555902 0.233094
6022.42 6022.42 0.500000 3.369281 45.3207 1.559668 0.235023
6023.56 6023.56 0.500000 3.369836 45.286 1.557623 0.235566
6024.72 6024.71 0.500000 3.375457 45.26 1.547981 0.233380
6025.9 6025.89 0.500000 3.385837 45.2372 1.531181 0.229615
6027.09 6027.08 0.500000 3.399031 45.205 1.510103 0.224535
6028.3 6028.3 0.500000 3.410521 45.1711 1.491767 0.221152
6029.54 6029.53 0.500000 3.417789 45.139 1.479881 0.218808
6030.79 6030.78 0.500000 3.420843 45.1054 1.474272 0.217664
6032.06 6032.05 0.500000 3.420547 45.0737 1.473668 0.217392
6033.34 6033.34 0.500000 3.417194 45.0344 1.477310 0.217928
6034.66 6034.65 0.500000 3.411322 45.0002 1.484887 0.219052
6035.99 6035.98 0.500000 3.404359 44.9651 1.494118 0.219967
6037.34 6037.33 0.500000 3.396944 44.9308 1.504079 0.220880
6038.71 6038.7 0.500000 3.390231 44.8892 1.512806 0.221406
6040.09 6040.08 0.500000 3.383842 44.8624 1.521560 0.222660
6041.5 6041.49 0.500000 3.376312 44.8231 1.531740 0.224923
6042.92 6042.91 0.500000 3.368282 44.793 1.543063 0.227755
6044.36 6044.35 0.500000 3.359511 44.7574 1.555447 0.230518
6045.82 6045.81 0.500000 3.349201 44.7144 1.570009 0.233376
6047.3 6047.29 0.500000 3.339349 44.6764 1.584227 0.236732
6048.8 6048.79 0.500000 3.331365 44.6299 1.595284 0.239766
6050.31 6050.31 0.500000 3.321386 44.5868 1.609687 0.244130
6051.86 6051.85 0.500000 3.309400 44.5316 1.627177 0.248995
6053.42 6053.41 0.500000 3.296934 44.4688 1.645226 0.254472
6054.99 6054.98 0.500000 3.285960 44.3963 1.660620 0.258634
6056.59 6056.58 0.500000 3.276761 44.3278 1.673400 0.261916
6058.2 6058.19 0.500000 3.269317 44.2634 1.683450 0.265127
6059.84 6059.83 0.500000 3.263127 44.1835 1.690833 0.267226
6061.49 6061.48 0.500000 3.257521 44.0994 1.697113 0.268583
6063.15 6063.15 0.500000 3.252372 44.0438 1.703707 0.268982
6064.85 6064.84 0.500000 3.247593 43.9869 1.709655 0.268442
6066.56 6066.55 0.500000 3.243467 43.9281 1.714461 0.267309
6068.28 6068.28 0.500000 3.240052 43.8777 1.718329 0.265257
6070.03 6070.03 0.500000 3.236951 43.8202 1.721407 0.263063
6071.8 6071.79 0.500000 3.234309 43.7633 1.723732 0.262829
6073.59 6073.58 0.500000 3.231570 43.7053 1.726157 0.265223
6075.39 6075.38 0.500000 3.229135 43.6453 1.727990 0.267639
6077.22 6077.21 0.500000 3.227364 43.5889 1.728822 0.270766
6079.06 6079.05 0.500000 3.225979 43.5223 1.728570 0.273890
6080.91 6080.91 0.500000 3.225050 43.4544 1.727477 0.277085
6082.79 6082.79 0.500000 3.224059 43.3871 1.726513 0.279809
6084.7 6084.69 0.500000 3.222749 43.319 1.726065 0.281172
6086.61 6086.61 0.500000 3.220520 43.2533 1.727281 0.280760
6088.55 6088.55 0.500000 3.218278 43.1776 1.728131 0.278654
6090.52 6090.51 0.500000 3.215677 43.0995 1.729505 0.274710
6092.49 6092.48 0.500000 3.212911 43.024 1.731259 0.270512
6094.49 6094.48 0.500000 3.210252 42.9491 1.732840 0.266881
6096.5 6096.49 0.500000 3.208022 42.8568 1.732983 0.263468
6098.53 6098.52 0.500000 3.206415 42.7725 1.732355 0.260827
6100.59 6100.58 0.500000 3.205280 42.6915 1.731039 0.260545
6102.65 6102.65 0.500000 3.204091 42.6044 1.729555 0.262786
6104.75 6104.74 0.500000 3.203187 42.5276 1.728007 0.266534
6106.86 6106.85 0.500000 3.202001 42.437 1.726368 0.271188
6108.99 6108.98 0.500000 3.200727 42.3402 1.724635 0.275972
6111.13 6111.12 0.500000 3.198683 42.2424 1.724161 0.279898
6113.29 6113.29 0.500000 3.196411 42.1486 1.724239 0.282822
6115.49 6115.48 0.500000 3.194056 42.0365 1.723720 0.284589
6117.69 6117.68 0.500000 3.190926 41.946 1.725407 0.285144
6119.91 6119.9 0.500000 3.187501 41.8397 1.726940 0.285058
6122.16 6122.15 0.500000 3.183464 41.7167 1.728811 0.284774
6124.41 6124.41 0.500000 3.179152 41.6095 1.731810 0.285322
6126.7 6126.69 0.500000 3.174219 41.499 1.735770 0.287436
6129 6128.99 0.500000 3.169136 41.3722 1.739295 0.290018
6131.32 6131.31 0.500000 3.164086 41.2463 1.742784 0.292140
6133.65 6133.65 0.500000 3.158887 41.1211 1.746529 0.293638
6136 6136 0.500000 3.153513 40.9996 1.750741 0.295010
6138.38 6138.38 0.500000 3.148014 40.8529 1.754105 0.295774
6140.77 6140.77 0.500000 3.142599 40.7107 1.757501 0.296064
6143.2 6143.19 0.500000 3.137197 40.5567 1.760343 0.296513
6145.63 6145.62 0.500000 3.131928 40.3984 1.762732 0.296104
6148.08 6148.07 0.500000 3.126560 40.2382 1.765195 0.295652
6150.56 6150.55 0.500000 3.121302 40.058 1.766555 0.295325
6153.05 6153.04 0.500000 3.115872 39.8458 1.766743 0.295118
6155.56 6155.55 0.500000 3.110722 39.5893 1.764446 0.294216
6158.07 6158.07 0.500000 3.105247 39.1919 1.756311 0.292307
6160.62 6160.62 0.500000 3.100061 38.4234 1.730833 0.286263
6163.19 6163.19 0.500000 3.094496 37.0568 1.678587 0.275631
6165.78 6165.77 0.500000 3.089181 36.5276 1.663440 0.272342
6168.39 6168.38 0.500000 3.083991 39.2802 1.798099 0.295497
6171.01 6171 0.500000 3.078388 39.1189 1.800777 0.298881
6173.66 6173.65 0.500000 3.073043 38.8909 1.799875 0.302214
6176.32 6176.31 0.500000 3.068034 38.6618 1.798251 0.304832
6179 6178.99 0.500000 3.062812 38.4363 1.797124 0.307781
6181.7 6181.69 0.500000 3.057515 38.2054 1.795819 0.309769
6184.41 6184.41 0.500000 3.052778 37.9773 1.793571 0.311442
6187.15 6187.15 0.500000 3.047619 37.7411 1.791627 0.311921
6189.9 6189.9 0.500000 3.042811 37.5062 1.789064 0.312497
6192.68 6192.68 0.500000 3.037848 37.276 1.786921 0.313255
6195.48 6195.47 0.500000 3.033046 37.036 1.783982 0.313468
6198.29 6198.29 0.500000 3.028090 36.7916 1.781004 0.314217
6201.12 6201.12 0.500000 3.023262 36.544 1.777580 0.314736
6203.97 6203.97 0.500000 3.018181 36.2792 1.773687 0.315035
6206.86 6206.85 0.500000 3.013443 36.0139 1.769090 0.315708
6209.74 6209.74 0.500000 3.008629 35.7585 1.765012 0.316491
6212.65 6212.65 0.500000 3.003775 35.4935 1.760460 0.317789
6215.58 6215.57 0.500000 2.999108 35.2176 1.754948 0.317701
6218.52 6218.52 0.500000 2.994179 34.9346 1.749446 0.317051
6221.49 6221.49 0.500000 2.989737 34.6489 1.742860 0.315319
6224.47 6224.47 0.500000 2.984864 34.3656 1.737057 0.313519
6227.48 6227.48 0.500000 2.980125 34.0726 1.730427 0.311328
6230.51 6230.5 0.500000 2.974888 33.7753 1.724342 0.309157
6233.55 6233.55 0.500000 2.970055 33.4713 1.717084 0.306856
6236.61 6236.61 0.500000 2.965178 33.1676 1.709831 0.304438
6239.69 6239.69 0.500000 2.959906 32.8666 1.703269 0.302198
6242.8 6242.79 0.500000 2.954511 32.5557 1.696282 0.300717
6245.91 6245.91 0.500000 2.949251 32.2449 1.688946 0.300115
6249.06 6249.05 0.500000 2.943815 31.9299 1.681571 0.300511
6252.2 6252.2 0.500000 2.938570 31.611 1.673521 0.301976
6255.38 6255.38 0.500000 2.933381 31.2871 1.664997 0.303748
6258.57 6258.57 0.500000 2.928061 30.962 1.656486 0.305803
6261.8 6261.79 0.500000 2.922715 30.6327 1.647662 0.306438
6265.03 6265.02 0.500000 2.917101 30.3009 1.638990 0.305967
6268.27 6268.27 0.500000 2.911826 29.9721 1.629777 0.304871
6271.56 6271.55 0.500000 2.906628 29.6382 1.620025 0.303359
6274.84 6274.84 0.500000 2.901145 29.3034 1.610529 0.302688
6278.15 6278.15 0.500000 2.895869 28.9739 1.600834 0.301858
6281.47 6281.47 0.500000 2.890196 28.6399 1.591382 0.300734
6284.82 6284.82 0.500000 2.884681 28.3044 1.581430 0.299733
6288.19 6288.19 0.500000 2.879167 27.9736 1.571597 0.298178
6291.58 6291.57 0.500000 2.873502 27.6399 1.561677 0.296570
6294.99 6294.98 0.500000 2.868135 27.3066 1.551148 0.295922
6298.4 6298.4 0.500000 2.862792 26.9705 1.540261 0.295438
6301.85 6301.85 0.500000 2.856966 26.6453 1.530583 0.294575
6305.31 6305.31 0.500000 2.851475 26.3179 1.520096 0.293504
6308.79 6308.79 0.500000 2.845641 25.9867 1.509742 0.292214
6312.29 6312.29 0.500000 2.840122 25.6594 1.498979 0.290612
6315.81 6315.81 0.500000 2.834209 25.3351 1.488809 0.288854
6319.36 6319.35 0.500000 2.828700 25.01 1.477832 0.286291
6322.91 6322.9 0.500000 2.823029 24.691 1.467283 0.284137
6326.49 6326.48 0.500000 2.817197 24.3733 1.456870 0.282335
6330.08 6330.08 0.500000 2.811370 24.064 1.446786 0.280819
6333.69 6333.69 0.500000 2.805421 23.751 1.436481 0.278929
6337.32 6337.32 0.500000 2.799504 23.4358 1.425838 0.277463
6340.99 6340.98 0.500000 2.793758 23.1273 1.415182 0.276628
6344.66 6344.65 0.500000 2.787828 22.8213 1.404759 0.275510
6348.35 6348.34 0.500000 2.782020 22.5193 1.394247 0.274646
6352.05 6352.05 0.500000 2.776470 22.2215 1.383457 0.273755
6355.78 6355.78 0.500000 2.770064 21.9373 1.374548 0.273066
6359.53 6359.52 0.500000 2.764340 21.6415 1.363804 0.272597
6363.3 6363.29 0.500000 2.758746 21.3528 1.353154 0.272023
6367.09 6367.08 0.500000 2.752688 21.0676 1.343187 0.270968
6370.89 6370.88 0.500000 2.746927 20.788 1.333021 0.269934
6374.72 6374.71 0.500000 2.741239 20.5118 1.322818 0.268905
6378.56 6378.55 0.500000 2.735383 20.2442 1.313220 0.267278
6382.42 6382.41 0.500000 2.729063 19.9782 1.304185 0.266180
6386.3 6386.29 0.500000 2.723263 19.7116 1.294272 0.264779
6390.19 6390.19 0.500000 2.717353 19.4435 1.284230 0.263569
6394.12 6394.11 0.500000 2.711679 19.1832 1.274261 0.262375
6398.06 6398.05 0.500000 2.705703 18.9262 1.264723 0.261106
6402.02 6402.01 0.500000 2.700026 18.6763 1.255115 0.259629
6405.99 6405.98 0.500000 2.693574 18.4299 1.246579 0.258513
6409.99 6409.98 0.500000 2.687903 18.189 1.237277 0.256945
6414 6413.99 0.500000 2.681705 17.9572 1.229108 0.256112
6418.05 6418.03 0.500000 2.675573 17.728 1.220889 0.255275
6422.09 6422.08 0.500000 2.669916 17.4978 1.211868 0.254004
6426.16 6426.15 0.500000 2.663684 17.274 1.203846 0.253201
6430.26 6430.24 0.500000 2.657938 17.0458 1.194795 0.251544
6434.36 6434.35 0.500000 2.651666 16.8244 1.186686 0.250268
6438.49 6438.48 0.500000 2.646004 16.6085 1.178112 0.248846
6442.64 6442.63 0.500000 2.640138 16.3997 1.170142 0.247741
6446.8 6446.79 0.500000 2.634013 16.1937 1.162545 0.247120
6451 6450.98 0.500000 2.627812 16.0082 1.156379 0.246568
6455.19 6455.18 0.500000 2.622166 15.8183 1.149124 0.246025
6459.42 6459.41 0.500000 2.616504 15.5643 1.137093 0.244700
6463.66 6463.65 0.500000 2.610109 15.3208 1.126485 0.243429
6467.92 6467.91 0.500000 2.604069 15.23 1.126591 0.244051
6472.2 6472.19 0.500000 2.598052 15.0559 1.120440 0.243197
6476.5 6476.49 0.500000 2.591831 14.8838 1.114542 0.242736
6480.83 6480.81 0.500000 2.586334 14.7137 1.107882 0.242352
6485.16 6485.15 0.500000 2.580232 14.5444 1.101838 0.241975
6489.52 6489.51 0.500000 2.573542 14.3815 1.096803 0.241344
6493.9 6493.89 0.500000 2.567414 14.2266 1.091658 0.240869
6498.29 6498.28 0.500000 2.561055 14.0665 1.086262 0.240283
6502.73 6502.7 0.500000 2.554697 13.9123 1.081221 0.239596
6507.14 6507.13 0.500000 2.549008 13.7597 1.075451 0.239599
6511.6 6511.58 0.500000 2.542488 13.6123 1.070899 0.238911
6516.06 6516.05 0.500000 2.536108 13.4629 1.065902 0.238600
6520.55 6520.54 0.500000 2.529707 13.3271 1.061937 0.238901
6525.08 6525.05 0.500000 2.523263 13.1872 1.057602 0.238471
6529.56 6529.58 0.500000 2.517289 13.0502 1.052820 0.237978
6534.11 6534.13 0.500000 2.510939 12.9148 1.048538 0.238027
6538.74 6538.7 0.500000 2.504552 12.7744 1.043860 0.237559
6543.32 6543.28 0.500000 2.498161 12.6434 1.039785 0.237167
6547.93 6547.89 0.500000 2.491465 12.5161 1.036225 0.237114
6552.49 6552.51 0.500000 2.485520 12.3858 1.031474 0.236073
6557.14 6557.16 0.500000 2.478784 12.2582 1.027742 0.236050
6561.85 6561.82 0.500000 2.472484 12.1276 1.023297 0.235962
6566.49 6566.5 0.500000 2.466201 12.012 1.019869 0.235845
6571.18 6571.2 0.500000 2.459817 11.8958 1.016468 0.236007
6575.9 6575.92 0.500000 2.453332 11.7825 1.013329 0.235747
6580.7 6580.66 0.500000 2.446861 11.6655 1.009848 0.235895
6585.39 6585.41 0.500000 2.441169 11.5557 1.005979 0.235604
6590.21 6590.19 0.500000 2.434154 11.44 1.002992 0.236062
6595.03 6594.99 0.500000 2.427865 11.3323 0.999818 0.235843
6599.8 6599.8 0.500000 2.421456 11.2268 0.996844 0.235731
6604.65 6604.63 0.500000 2.414744 11.1184 0.993891 0.235873
6609.47 6609.49 0.500000 2.409137 11.0126 0.989927 0.235717
6614.37 6614.36 0.500000 2.401993 10.9086 0.987648 0.235934
6619.23 6619.25 0.500000 2.395686 10.8069 0.984605 0.235969
6624.14 6624.16 0.500000 2.389641 10.7016 0.980925 0.235523
6629.07 6629.09 0.500000 2.383443 10.5974 0.977427 0.235481
6634.02 6634.03 0.500000 2.377113 10.4992 0.974510 0.235505
6638.98 6639 0.500000 2.370495 10.4046 0.972130 0.235823
6643.97 6643.99 0.500000 2.364624 10.3045 0.968461 0.235601
6648.97 6648.99 0.500000 2.358018 10.2115 0.966079 0.235881
6654.01 6654.02 0.500000 2.351649 10.1177 0.963355 0.235995
6659.04 6659.06 0.500000 2.345910 10.0273 0.960296 0.236112
6664.11 6664.12 0.500000 2.339141 9.925757 0.956952 0.235830
6669.18 6669.2 0.500000 2.332686 9.831679 0.954007 0.236199
6674.28 6674.3 0.500000 2.326208 9.741394 0.951382 0.236104
6679.39 6679.42 0.500000 2.319691 9.652832 0.948896 0.236365
6684.54 6684.56 0.500000 2.313350 9.560770 0.945832 0.236140
6689.72 6689.72 0.500000 2.307446 9.469914 0.942422 0.235995
6694.88 6694.9 0.500000 2.300933 9.379491 0.939493 0.235522
6700.07 6700.09 0.500000 2.294459 9.284081 0.935970 0.235403
6705.29 6705.31 0.500000 2.288039 9.199417 0.933415 0.235499
6710.52 6710.54 0.500000 2.281457 9.109142 0.930361 0.235564
6715.77 6715.79 0.500000 2.274966 9.020489 0.927307 0.235391
6721.03 6721.06 0.500000 2.268396 8.937151 0.924795 0.235988
6726.34 6726.35 0.500000 2.261621 8.849924 0.922008 0.236062
6731.64 6731.66 0.500000 2.255325 8.765875 0.919004 0.235687
6736.96 6736.99 0.500000 2.248759 8.678730 0.915839 0.235883
6742.34 6742.34 0.500000 2.242026 8.593818 0.913038 0.235876
6747.73 6747.71 0.500000 2.235627 8.507623 0.909706 0.235476
6753.11 6753.09 0.500000 2.228985 8.425842 0.906940 0.235520
6758.52 6758.5 0.500000 2.222709 8.341086 0.903524 0.235613
6763.94 6763.92 0.500000 2.215746 8.255917 0.900501 0.235218
6769.36 6769.37 0.500000 2.209081 8.177533 0.897893 0.235927
6774.81 6774.83 0.500000 2.202448 8.098302 0.895115 0.235520
6780.33 6780.31 0.500000 2.195867 8.019518 0.892281 0.235430
6785.8 6785.81 0.500000 2.189479 7.939061 0.888971 0.235606
6791.36 6791.33 0.500000 2.182878 7.845621 0.884376 0.235114
6796.87 6796.87 0.500000 2.176197 7.788979 0.883831 0.235595
6802.4 6802.42 0.500000 2.169726 7.719268 0.881597 0.235860
6808.02 6808 0.500000 2.163108 7.650100 0.879511 0.236192
6813.61 6813.6 0.500000 2.156341 7.452376 0.862608 0.232152
6819.2 6819.21 0.500000 2.150001 7.462821 0.869282 0.234592
6824.87 6824.85 0.500000 2.143237 7.297881 0.855871 0.231665
6830.48 6830.5 0.500000 2.137066 7.173121 0.846423 0.229793
6836.19 6836.17 0.500000 2.130245 7.329421 0.870809 0.237421
6841.84 6841.86 0.500000 2.123858 7.116393 0.850895 0.232633