File: xdidata/Cr/Cr-K-YCrO3.xdi
# XDI/1.0 BlueSky/1.5.3
# Beamline.name: 6BM
# Beamline.xray_source: NSLS-II three-pole wiggler
# Beamline.collimation: paraboloid mirror, 5 nm Rh on 30 nm Pt
# Beamline.focusing: not in use
# Beamline.harmonic_rejection: flat mirror, Si stripe, pitch = 7.0 mrad relative to beam
# Detector.i0: 10 cm N2
# Detector.I1: 25 cm N2
# Detector.I2: 25 cm N2
# Element.symbol: Cr
# Element.edge: K
# Facility.name: NSLS-II
# Facility.energy: 3.0
# Facility.current: 400.0
# Facility.mode: top-off
# Facility.GUP: 305832
# Facility.SAF: 305669
# Facility.cycle: 2020-1
# Mono.name: Si(111)
# Mono.d_spacing: 3.13532
# Mono.encoder_resolution: 0.0000050 deg/ct
# Mono.angle_offset: 16.0581 deg
# Mono.scan_mode: fixed exit
# Mono.scan_type: step
# Mono.direction: forward in energy
# Sample.name: YCrO3
# Sample.prep: Powder in polyethylene glycol pellet
# Sample.x_position: -2.590 mm
# Sample.y_position: 103.444 mm
# Scan.experimenters: Neil Hyatt, Martin Stennett, Dan Austin, Seb Lawson
# Scan.edge_energy: 5989.2
# Scan.start_time: 2020-03-04T02:31:25
# Scan.end_time: 2020-03-04T02:42:58
# Scan.transient_id: 22728
# Scan.uid: 666a0165-5bbd-4a16-b1b7-2e28700b09cd
# Scan.plot_hint: ln(i0/itrans)  --  ln($5/$6)
# Column.1: energy eV
# Column.2: requested_energy eV
# Column.3: measurement_time seconds
# Column.4: mutrans
# Column.5: i0
# Column.6: itrans
# Column.7: irefer
# ///////////
#
# -----------
#  energy  requested_energy  measurement_time  mutrans  i0  itrans  irefer
5789.220  5789.200  1.000  2.449319  82.2612  7.103448  1.027889
5799.205  5799.200  1.000  2.434737  82.404  7.220299  1.052541
5809.209  5809.200  1.000  2.420445  82.5658  7.338613  1.081538
5819.212  5819.200  1.000  2.406372  82.6502  7.450231  1.107219
5829.210  5829.200  1.000  2.392017  82.7375  7.565938  1.136282
5839.212  5839.200  1.000  2.377943  82.8286  7.681621  1.165686
5849.210  5849.200  1.000  2.363709  82.8478  7.793542  1.194021
5859.208  5859.200  1.000  2.349766  82.7774  7.896255  1.220452
5869.205  5869.200  1.000  2.335807  81.5557  7.889073  1.231648
5879.204  5879.200  1.000  2.322153  83.263  8.164960  1.281411
5889.207  5889.200  1.000  2.308267  83.0245  8.255404  1.308727
5899.204  5899.200  1.000  2.295019  82.778  8.340663  1.336453
5909.197  5909.200  1.000  2.281451  82.2783  8.403574  1.359275
5919.196  5919.200  1.000  2.270239  62.7393  6.480183  1.056188
5929.195  5929.200  1.000  2.255662  79.8185  8.365307  1.376640
5939.194  5939.200  1.000  2.241868  80.8681  8.593028  1.429983
5949.199  5949.200  1.000  2.228842  82.7481  8.908084  1.494390
5959.203  5959.200  1.000  2.216053  82.0544  8.947101  1.512238
5961.193  5961.200  1.000  2.213559  81.9645  8.959613  1.517261
5963.193  5963.200  1.000  2.211092  81.8555  8.969797  1.517905
5965.193  5965.200  1.000  2.208720  81.7752  8.982287  1.527016
5967.200  5967.200  1.000  2.206137  81.6766  8.994654  1.532285
5969.204  5969.200  1.000  2.203583  81.5985  9.009030  1.533459
5971.202  5971.200  1.000  2.201113  81.513  9.021851  1.538292
5973.201  5973.200  1.000  2.198734  81.7245  9.066800  1.546882
5975.200  5975.200  1.000  2.196474  81.612  9.074806  1.555317
5977.204  5977.200  1.000  2.194237  81.5398  9.087087  1.557390
5979.205  5979.200  1.000  2.191966  81.4238  9.094787  1.561805
5979.443  5979.450  1.000  2.191755  81.4172  9.095977  1.561192
5979.690  5979.700  1.000  2.191495  81.4244  9.099136  1.558041
5979.939  5979.950  1.000  2.191078  81.3916  9.099266  1.561420
5980.191  5980.200  1.000  2.191029  81.3649  9.096730  1.563820
5980.438  5980.450  1.000  2.190602  81.3457  9.098471  1.560055
5980.690  5980.700  1.000  2.190153  81.3302  9.100822  1.560382
5980.942  5980.950  1.000  2.190048  81.3041  9.098850  1.563887
5981.190  5981.200  1.000  2.189710  81.2905  9.100403  1.563729
5981.441  5981.450  1.000  2.189570  81.2511  9.097268  1.561904
5981.691  5981.700  1.000  2.189111  81.2445  9.100706  1.565065
5981.945  5981.950  1.000  2.188975  81.219  9.099085  1.564966
5982.195  5982.200  1.000  2.188609  81.1761  9.097609  1.564298
5982.446  5982.450  1.000  2.188384  81.1559  9.097396  1.564252
5982.696  5982.700  1.000  2.188251  81.0971  9.092010  1.561731
5982.946  5982.950  1.000  2.187798  81.1048  9.097000  1.562058
5983.194  5983.200  1.000  2.187748  81.0687  9.093396  1.561876
5983.446  5983.450  1.000  2.187330  81.0248  9.092282  1.561142
5983.694  5983.700  1.000  2.187137  81.0088  9.092234  1.562125
5983.947  5983.950  1.000  2.186872  80.9265  9.085405  1.562676
5984.199  5984.200  1.000  2.186649  80.9025  9.084739  1.561269
5984.450  5984.450  1.000  2.186583  80.9053  9.085652  1.561499
5984.701  5984.700  1.000  2.186362  80.8597  9.082532  1.561679
5984.950  5984.950  1.000  2.186035  80.8129  9.080248  1.558171
5985.200  5985.200  1.000  2.185877  80.7704  9.076906  1.559814
5985.451  5985.450  1.000  2.185754  80.7362  9.074177  1.559576
5985.699  5985.700  1.000  2.185533  80.6871  9.070668  1.557160
5985.947  5985.950  1.000  2.185501  80.6497  9.066755  1.555082
5986.196  5986.200  1.000  2.185286  80.5996  9.063065  1.557179
5986.445  5986.450  1.000  2.185133  80.54  9.057760  1.555960
5986.698  5986.700  1.000  2.184996  80.4472  9.048556  1.549647
5986.945  5986.950  1.000  2.184812  80.3973  9.044601  1.548450
5987.199  5987.200  1.000  2.184816  80.3343  9.037479  1.549705
5987.450  5987.450  1.000  2.184785  80.2171  9.024582  1.544166
5987.703  5987.700  1.000  2.184720  80.1244  9.014740  1.538589
5987.951  5987.950  1.000  2.184637  80.0455  9.006607  1.531769
5988.202  5988.200  1.000  2.184753  79.8939  8.988509  1.531516
5988.450  5988.450  1.000  2.184995  79.703  8.964852  1.520911
5988.702  5988.700  1.000  2.185355  79.5227  8.941362  1.506461
5988.947  5988.950  1.000  2.185831  79.3207  8.914400  1.491114
5989.200  5989.200  1.000  2.186682  79.0208  8.873141  1.471108
5989.445  5989.450  1.000  2.187779  78.6486  8.821668  1.443813
5989.699  5989.700  1.000  2.189553  78.1059  8.745275  1.414345
5989.951  5989.950  1.000  2.192398  77.3488  8.635891  1.384028
5990.204  5990.200  1.000  2.195959  76.198  8.477169  1.351258
5990.454  5990.450  1.000  2.198756  74.4287  8.257206  1.304994
5990.705  5990.700  1.000  2.199867  71.4948  7.922904  1.248550
5990.953  5990.950  1.000  2.199607  67.17  7.445576  1.168316
5991.203  5991.200  1.000  2.197911  62.5793  6.948485  1.080375
5991.450  5991.450  1.000  2.196398  59.8163  6.651747  1.028622
5991.699  5991.700  1.000  2.196122  60.0826  6.683213  1.025085
5991.949  5991.950  1.000  2.197525  63.5713  7.061353  1.074599
5992.198  5992.200  1.000  2.199369  69.838  7.743160  1.170912
5992.450  5992.450  1.000  2.200655  75.9916  8.414597  1.270100
5992.700  5992.700  1.000  2.202630  79.326  8.766484  1.318072
5992.953  5992.950  1.000  2.205620  80.5909  8.879684  1.334535
5993.205  5993.200  1.000  2.209479  81.0096  8.891437  1.330844
5993.452  5993.450  1.000  2.214442  81.1396  8.861613  1.321246
5993.701  5993.700  1.000  2.219670  81.2535  8.827783  1.313454
5993.950  5993.950  1.000  2.224819  81.2556  8.782674  1.303820
5994.201  5994.200  1.000  2.228563  81.2582  8.750128  1.297921
5994.447  5994.450  1.000  2.230706  81.2299  8.728368  1.292296
5994.702  5994.700  1.000  2.231182  81.2283  8.724029  1.295112
5994.952  5994.950  1.000  2.231237  81.1883  8.719260  1.291779
5995.202  5995.200  1.000  2.231734  81.1513  8.710951  1.289915
5995.452  5995.450  1.000  2.233683  81.1044  8.688966  1.293028
5995.706  5995.700  1.000  2.237574  81.0801  8.652629  1.287176
5995.955  5995.950  1.000  2.242962  80.9959  8.597195  1.276703
5996.204  5996.200  1.000  2.248685  80.9515  8.543451  1.269227
5996.449  5996.450  1.000  2.253644  80.934  8.499353  1.262581
5996.700  5996.700  1.000  2.257099  80.8912  8.465558  1.256046
5996.950  5996.950  1.000  2.259058  80.8605  8.445787  1.247440
5997.199  5997.200  1.000  2.260594  80.8209  8.428692  1.239707
5997.450  5997.450  1.000  2.261552  80.7837  8.416747  1.231846
5997.702  5997.700  1.000  2.263041  80.764  8.402177  1.221263
5997.953  5997.950  1.000  2.265316  80.7451  8.381110  1.207862
5998.204  5998.200  1.000  2.268306  80.6727  8.348608  1.196103
5998.452  5998.450  1.000  2.271929  80.6878  8.319969  1.183546
5998.702  5998.700  1.000  2.276006  80.6366  8.280856  1.167298
5998.951  5998.950  1.000  2.279984  80.613  8.245565  1.152066
5999.200  5999.200  1.000  2.284134  80.5961  8.209705  1.138638
5999.445  5999.450  1.000  2.288446  80.5591  8.170617  1.125964
5999.700  5999.700  1.000  2.293941  80.5127  8.121165  1.114317
5999.950  5999.950  1.000  2.300794  80.8012  8.094605  1.101011
6000.204  6000.200  1.000  2.310067  80.7871  8.018495  1.085939
6000.453  6000.450  1.000  2.321406  80.7706  7.926464  1.063001
6000.705  6000.700  1.000  2.334840  80.714  7.815205  1.046541
6000.955  6000.950  1.000  2.349174  80.716  7.704176  1.024109
6001.203  6001.200  1.000  2.364936  80.7013  7.582309  1.005202
6001.452  6001.450  1.000  2.381080  80.6788  7.458805  0.984102
6001.698  6001.700  1.000  2.397630  80.6644  7.335075  0.963317
6001.947  6001.950  1.000  2.414609  80.6655  7.211688  0.945277
6002.200  6002.200  1.000  2.432554  80.6196  7.079386  0.924282
6002.452  6002.450  1.000  2.452494  80.6181  6.939497  0.901655
6002.701  6002.700  1.000  2.473028  80.607  6.797521  0.883566
6002.953  6002.950  1.000  2.494474  80.6047  6.653096  0.860319
6003.206  6003.200  1.000  2.516609  80.5913  6.506372  0.841683
6003.452  6003.450  1.000  2.538548  80.6163  6.367154  0.819666
6003.704  6003.700  1.000  2.561060  80.5534  6.220565  0.800432
6003.951  6003.950  1.000  2.583036  80.535  6.083959  0.779543
6004.200  6004.200  1.000  2.605953  80.5195  5.944975  0.757274
6004.445  6004.450  1.000  2.628958  80.5302  5.810548  0.739309
6004.700  6004.700  1.000  2.653244  80.5026  5.669186  0.716451
6004.951  6004.950  1.000  2.676825  80.4735  5.535062  0.702260
6005.204  6005.200  1.000  2.699266  80.4966  5.413787  0.683678
6005.453  6005.450  1.000  2.721405  80.4623  5.292990  0.666765
6005.704  6005.700  1.000  2.742779  80.4469  5.180070  0.651046
6005.954  6005.950  1.000  2.762532  80.4295  5.077652  0.637053
6006.205  6006.200  1.000  2.779188  80.4487  4.994970  0.621397
6006.450  6006.450  1.000  2.792862  80.4169  4.925186  0.614598
6006.698  6006.700  1.000  2.801776  80.3778  4.879105  0.607227
6006.948  6006.950  1.000  2.806594  80.3691  4.855127  0.599207
6007.197  6007.200  1.000  2.807537  80.3655  4.850333  0.599077
6007.450  6007.450  1.000  2.805457  80.3459  4.859253  0.598020
6007.701  6007.700  1.000  2.801131  80.3586  4.881085  0.596695
6007.954  6007.950  1.000  2.795614  80.3099  4.905114  0.598916
6008.205  6008.200  1.000  2.789966  80.3234  4.933728  0.600510
6008.455  6008.450  1.000  2.783563  80.3193  4.965165  0.602820
6008.703  6008.700  1.000  2.776379  80.2469  4.996457  0.604028
6008.947  6008.950  1.000  2.768811  80.2542  5.034871  0.607520
6009.198  6009.200  1.000  2.760351  80.2466  5.077166  0.609324
6009.445  6009.450  1.000  2.751716  80.1909  5.117643  0.611073
6009.701  6009.700  1.000  2.743248  80.2026  5.161920  0.620618
6009.953  6009.950  1.000  2.735116  80.19  5.203245  0.624389
6010.204  6010.200  1.000  2.727474  80.1824  5.242664  0.633424
6010.455  6010.450  1.000  2.719431  80.1674  5.284009  0.638487
6010.707  6010.700  1.000  2.711241  80.1818  5.328424  0.646660
6010.954  6010.950  1.000  2.702940  80.1663  5.371803  0.656465
6011.204  6011.200  1.000  2.695099  80.1549  5.413321  0.665490
6011.452  6011.450  1.000  2.687767  80.1689  5.454107  0.670338
6011.699  6011.700  1.000  2.681035  80.0873  5.485355  0.678580
6011.948  6011.950  1.000  2.674695  80.0674  5.518875  0.686271
6012.200  6012.200  1.000  2.669078  80.0518  5.548879  0.698281
6012.453  6012.450  1.000  2.664783  80.0737  5.574286  0.700629
6012.704  6012.700  1.000  2.661678  80.0735  5.591612  0.707315
6012.956  6012.950  1.000  2.660219  80.0538  5.598396  0.708365
6013.205  6013.200  1.000  2.660658  79.9941  5.591764  0.713735
6013.453  6013.450  1.000  2.662358  80.0264  5.584526  0.711171
6013.704  6013.700  1.000  2.664992  80.0059  5.568407  0.709045
6013.951  6013.950  1.000  2.668631  79.9776  5.546216  0.711112
6014.201  6014.200  1.000  2.672130  79.9785  5.526908  0.707790
6014.445  6014.450  1.000  2.675801  79.9627  5.505567  0.707042
6014.700  6014.700  1.000  2.678910  79.9544  5.487907  0.703791
6014.950  6014.950  1.000  2.681844  79.9593  5.472163  0.700318
6015.202  6015.200  1.000  2.684861  79.9467  5.454819  0.699977
6015.454  6015.450  1.000  2.686778  79.8967  5.440964  0.697474
6015.708  6015.700  1.000  2.688562  79.9195  5.432821  0.695422
6015.955  6015.950  1.000  2.689072  79.9033  5.428947  0.690881
6016.204  6016.200  1.000  2.688936  79.8713  5.427509  0.691961
6016.451  6016.450  1.000  2.688344  79.844  5.428870  0.691609
6016.697  6016.700  1.000  2.686987  79.8276  5.435128  0.692640
6016.949  6016.950  1.000  2.685576  79.7964  5.440673  0.690708
6017.198  6017.200  1.000  2.683828  79.8192  5.451743  0.692065
6017.452  6017.450  1.000  2.682595  79.8123  5.458003  0.688742
6017.704  6017.700  1.000  2.681674  79.8041  5.462466  0.689040
6017.955  6017.950  1.000  2.681110  79.7807  5.463950  0.684086
6018.205  6018.200  1.000  2.680847  79.7555  5.463660  0.684962
6018.457  6018.450  1.000  2.681328  79.7737  5.462279  0.683508
6018.705  6018.700  1.000  2.682011  79.7505  5.456964  0.681550
6018.953  6018.950  1.000  2.683383  79.7325  5.448244  0.682103
6019.205  6019.200  1.000  2.684256  79.7517  5.444804  0.682569
6020.300  6020.280  1.000  2.687077  79.6787  5.424498  0.678058
6021.385  6021.380  1.000  2.684863  79.6647  5.435567  0.683550
6022.499  6022.490  1.000  2.682165  79.5931  5.445351  0.688228
6023.643  6023.630  1.000  2.678254  79.5517  5.463847  0.692572
6024.790  6024.780  1.000  2.666296  79.5245  5.527687  0.699250
6025.972  6025.960  1.000  2.641195  79.4689  5.664230  0.712568
6027.157  6027.150  1.000  2.608815  79.3925  5.845016  0.728907
6028.371  6028.360  1.000  2.577282  79.3359  6.027962  0.747507
6029.595  6029.590  1.000  2.551795  79.2855  6.179643  0.764136
6030.849  6030.840  1.000  2.534053  79.3719  6.297117  0.776934
6032.119  6032.110  1.000  2.522146  79.4633  6.379882  0.787202
6033.410  6033.400  1.000  2.513683  79.4026  6.429188  0.794745
6034.721  6034.710  1.000  2.508131  79.3328  6.459301  0.797538
6036.036  6036.030  1.000  2.504892  79.2254  6.471477  0.797867
6037.390  6037.380  1.000  2.502639  79.1761  6.482042  0.796717
6038.745  6038.740  1.000  2.499954  79.1379  6.496334  0.793061
6040.140  6040.130  1.000  2.496816  79.0894  6.512759  0.798517
6041.537  6041.530  1.000  2.496767  78.9825  6.504266  0.801716
6042.956  6042.950  1.000  2.500063  78.9039  6.476413  0.801771
6044.399  6044.390  1.000  2.506798  78.8244  6.426468  0.798219
6045.851  6045.850  1.000  2.517123  78.746  6.354123  0.790017
6047.340  6047.330  1.000  2.530030  78.6711  6.266675  0.783564
6048.835  6048.830  1.000  2.542603  78.6108  6.183629  0.779546
6050.346  6050.340  1.000  2.551186  78.5227  6.123915  0.781218
6051.884  6051.880  1.000  2.555683  78.4209  6.088533  0.780944
6053.444  6053.440  1.000  2.555962  78.3087  6.078123  0.789135
6055.018  6055.010  1.000  2.553356  78.1771  6.083746  0.795629
6056.607  6056.600  1.000  2.548414  78.0438  6.103465  0.805630
6058.218  6058.210  1.000  2.543506  77.9355  6.124984  0.804215
6059.858  6059.850  1.000  2.540877  77.7946  6.129999  0.814318
6061.506  6061.500  1.000  2.540882  77.6221  6.116377  0.813622
6063.177  6063.170  1.000  2.542714  77.4999  6.095574  0.807622
6064.857  6064.850  1.000  2.545943  77.4282  6.070304  0.811567
6066.564  6066.560  1.000  2.549378  77.3508  6.043435  0.785088
6068.297  6068.290  1.000  2.552583  77.2318  6.014831  0.777396
6070.038  6070.030  1.000  2.555315  77.1165  5.989464  0.770918
6071.801  6071.800  1.000  2.557205  76.9969  5.968887  0.764191
6073.586  6073.580  1.000  2.558138  76.9219  5.957514  0.765829
6075.386  6075.380  1.000  2.557402  76.8062  5.952931  0.774643
6077.211  6077.200  1.000  2.555196  76.6781  5.956124  0.784600
6079.044  6079.040  1.000  2.551706  76.5584  5.967623  0.795825
6080.908  6080.900  1.000  2.547391  76.4248  5.982965  0.807392
6082.787  6082.780  1.000  2.542136  76.3022  6.004836  0.811095
6084.687  6084.680  1.000  2.535926  76.1969  6.033910  0.825704
6086.608  6086.600  1.000  2.528923  76.0266  6.062730  0.828472
6088.537  6088.530  1.000  2.520460  75.8945  6.103631  0.827403
6090.496  6090.490  1.000  2.510838  75.8006  6.155022  0.821447
6092.466  6092.460  1.000  2.500415  75.6361  6.206015  0.811438
6094.470  6094.460  1.000  2.490718  75.4716  6.252861  0.808842
6096.473  6096.470  1.000  2.483099  75.3157  6.287659  0.807989
6098.511  6098.500  1.000  2.477296  75.1817  6.313006  0.797992
6100.557  6100.550  1.000  2.472167  74.9893  6.329229  0.801737
6102.627  6102.620  1.000  2.468511  74.8069  6.336958  0.808305
6104.703  6104.710  1.000  2.466104  74.65  6.338909  0.818616
6106.817  6106.810  1.000  2.463709  74.4793  6.339576  0.837100
6108.951  6108.940  1.000  2.461533  74.3302  6.340670  0.852327
6111.098  6111.090  1.000  2.458837  74.1152  6.339397  0.865571
6113.263  6113.250  1.000  2.455751  73.9872  6.348009  0.874336
6115.443  6115.430  1.000  2.454032  73.7952  6.342430  0.877324
6117.648  6117.640  1.000  2.453767  73.5599  6.323878  0.879711
6119.865  6119.860  1.000  2.453724  73.3865  6.309245  0.873595
6122.091  6122.100  1.000  2.453273  73.1813  6.294440  0.871777
6124.355  6124.360  1.000  2.452173  72.9913  6.285011  0.872798
6126.655  6126.640  1.000  2.450739  72.7768  6.275533  0.873897
6128.953  6128.940  1.000  2.449020  72.5296  6.264969  0.881468
6131.264  6131.250  1.000  2.445427  72.3041  6.267977  0.882481
6133.609  6133.590  1.000  2.439873  72.0832  6.283634  0.890414
6135.952  6135.940  1.000  2.433125  71.8686  6.307341  0.894259
6138.311  6138.320  1.000  2.428037  71.5945  6.315335  0.896756
6140.698  6140.710  1.000  2.425336  71.3141  6.307614  0.897915
6143.136  6143.120  1.000  2.424906  71.0743  6.289113  0.893856
6145.540  6145.550  1.000  2.425548  70.772  6.258340  0.887554
6147.999  6148.000  1.000  2.425795  70.4448  6.227876  0.878393
6150.467  6150.470  1.000  2.425879  70.1303  6.199542  0.872222
6152.947  6152.960  1.000  2.425237  69.7411  6.169096  0.867734
6155.455  6155.470  1.000  2.424092  69.2781  6.135164  0.866526
6157.979  6157.990  1.000  2.423097  68.5542  6.077101  0.853259
6160.533  6160.540  1.000  2.421411  67.1037  5.958563  0.831663
6163.093  6163.100  1.000  2.418824  65.5172  5.832749  0.810595
6165.684  6165.690  1.000  2.415338  64.5897  5.770258  0.799458
6168.277  6168.290  1.000  2.412064  69.1027  6.193678  0.858830
6170.894  6170.910  1.000  2.406788  68.703  6.190437  0.869455
6173.536  6173.550  1.000  2.401020  68.2695  6.186955  0.876465
6176.194  6176.210  1.000  2.394298  67.8157  6.187283  0.885554
6178.875  6178.890  1.000  2.387890  67.3749  6.186581  0.895195
6181.579  6181.590  1.000  2.381163  66.9841  6.192208  0.903356
6184.301  6184.310  1.000  2.375080  66.5736  6.191815  0.910296
6187.029  6187.040  1.000  2.369406  66.1582  6.188192  0.909286
6189.787  6189.800  1.000  2.364758  65.7548  6.179109  0.911149
6192.561  6192.570  1.000  2.361076  65.3716  6.165764  0.915854
6195.363  6195.370  1.000  2.356894  64.9322  6.149984  0.913664
6198.166  6198.180  1.000  2.352183  64.4898  6.136927  0.919524
6200.998  6201.010  1.000  2.346974  64.0916  6.130883  0.917770
6203.853  6203.860  1.000  2.341957  63.6312  6.117458  0.921277
6206.719  6206.730  1.000  2.337793  63.1898  6.100374  0.921824
6209.609  6209.620  1.000  2.334041  62.7361  6.079341  0.924434
6212.511  6212.520  1.000  2.330663  62.3376  6.061163  0.928093
6215.440  6215.450  1.000  2.327941  62.0364  6.048312  0.928053
6218.393  6218.400  1.000  2.325902  61.5844  6.016503  0.926523
6221.349  6221.360  1.000  2.324305  61.1154  5.980224  0.918857
6224.341  6224.340  1.000  2.321947  60.6312  5.946854  0.909439
6227.339  6227.350  1.000  2.318767  60.1345  5.916921  0.904758
6230.356  6230.370  1.000  2.314387  59.6099  5.891051  0.894681
6233.400  6233.410  1.000  2.309435  59.1365  5.873279  0.891179
6236.460  6236.470  1.000  2.304738  58.6338  5.850770  0.882808
6239.538  6239.550  1.000  2.300209  58.1174  5.825569  0.879095
6242.645  6242.650  1.000  2.295615  57.5929  5.799575  0.873455
6245.754  6245.760  1.000  2.292043  57.0744  5.767926  0.871109
6248.885  6248.900  1.000  2.288628  56.5407  5.733536  0.867519
6252.044  6252.050  1.000  2.285836  56.0477  5.699436  0.878070
6255.220  6255.230  1.000  2.283350  55.5038  5.658174  0.882485
6258.406  6258.420  1.000  2.281013  54.9739  5.617270  0.882984
6261.612  6261.630  1.000  2.278803  54.4448  5.575515  0.880766
6264.842  6264.860  1.000  2.276189  53.8936  5.533513  0.878433
6268.105  6268.120  1.000  2.272465  53.3376  5.496857  0.874415
6271.362  6271.380  1.000  2.268266  52.7868  5.462986  0.871009
6274.656  6274.670  1.000  2.263588  52.2511  5.432905  0.868198
6277.970  6277.980  1.000  2.258524  51.7262  5.405627  0.868133
6281.298  6281.310  1.000  2.253847  51.1501  5.370483  0.864284
6284.646  6284.650  1.000  2.248363  50.5885  5.340723  0.862195
6288.008  6288.020  1.000  2.243345  50.0629  5.311823  0.857177
6291.388  6291.400  1.000  2.238225  49.5292  5.282168  0.857555
6294.788  6294.800  1.000  2.233851  48.9931  5.247900  0.855287
6298.214  6298.230  1.000  2.229305  48.4302  5.211247  0.849588
6301.657  6301.670  1.000  2.224735  47.8797  5.175610  0.848983
6305.118  6305.130  1.000  2.219841  47.3264  5.140891  0.845819
6308.589  6308.600  1.000  2.214814  46.796  5.108894  0.842226
6312.086  6312.100  1.000  2.210038  46.2583  5.074373  0.838099
6315.605  6315.620  1.000  2.205377  45.6872  5.035139  0.835488
6319.145  6319.160  1.000  2.201278  45.1601  4.997492  0.816943
6322.696  6322.710  1.000  2.197333  44.6396  4.959416  0.815342
6326.272  6326.290  1.000  2.194075  44.1232  4.918041  0.813056
6329.872  6329.880  1.000  2.190255  43.6249  4.881114  0.808172
6333.473  6333.490  1.000  2.186353  43.0961  4.840794  0.802159
6337.103  6337.120  1.000  2.182409  42.5793  4.801649  0.800425
6340.756  6340.770  1.000  2.177636  42.0696  4.766873  0.796666
6344.425  6344.440  1.000  2.172609  41.5709  4.734098  0.794560
6348.114  6348.130  1.000  2.168090  41.077  4.699037  0.791904
6351.818  6351.840  1.000  2.163956  40.5708  4.660355  0.787968
6355.552  6355.560  1.000  2.160152  40.0899  4.622669  0.783627
6359.295  6359.310  1.000  2.156097  39.5906  4.583650  0.784043
6363.062  6363.070  1.000  2.151433  39.1212  4.550470  0.778014
6366.845  6366.860  1.000  2.146604  38.6609  4.518706  0.779322
6370.645  6370.660  1.000  2.142043  38.1937  4.484501  0.776273
6374.465  6374.480  1.000  2.137632  37.7431  4.451187  0.773699
6378.304  6378.320  1.000  2.133638  37.2881  4.415122  0.770675
6382.162  6382.180  1.000  2.129347  36.8378  4.380570  0.765275
6386.052  6386.060  1.000  2.125428  36.4037  4.345948  0.759698
6389.948  6389.960  1.000  2.121612  35.9628  4.309716  0.756127
6393.866  6393.880  1.000  2.118113  35.5171  4.271231  0.753701
6397.797  6397.810  1.000  2.114660  35.0955  4.235127  0.746707
6401.760  6401.770  1.000  2.111636  34.6761  4.197191  0.742079
6405.731  6405.740  1.000  2.107419  34.2629  4.164704  0.738553
6409.732  6409.740  1.000  2.103571  33.873  4.133183  0.737116
6413.743  6413.750  1.000  2.098739  33.4746  4.104354  0.734033
6417.772  6417.780  1.000  2.093966  33.0687  4.073977  0.730680
6421.820  6421.830  1.000  2.089043  32.7024  4.048736  0.729477
6425.885  6425.900  1.000  2.083947  32.3266  4.022663  0.725820
6429.978  6429.990  1.000  2.079054  31.9529  3.995659  0.719994
6434.089  6434.100  1.000  2.074604  31.5645  3.964692  0.716569
6438.218  6438.220  1.000  2.069533  31.2088  3.939943  0.714325
6442.354  6442.370  1.000  2.064650  30.8569  3.914589  0.710903
6446.515  6446.530  1.000  2.059551  30.5187  3.891480  0.707659
6450.704  6450.720  1.000  2.054534  30.1327  3.861582  0.706999
6454.913  6454.920  1.000  2.048958  29.8126  3.841922  0.705099
6459.125  6459.140  1.000  2.044648  29.2519  3.785946  0.699583
6463.371  6463.380  1.000  2.039385  29.0981  3.785910  0.701806
6467.628  6467.640  1.000  2.035360  28.8428  3.767832  0.697200
6471.906  6471.920  1.000  2.030531  28.5545  3.748225  0.700236
6476.206  6476.220  1.000  2.026550  28.2067  3.717343  0.693189
6480.527  6480.540  1.000  2.022612  27.9409  3.696840  0.693070
6484.864  6484.870  1.000  2.018146  27.6493  3.674636  0.690267
6489.221  6489.230  1.000  2.014000  27.3653  3.652001  0.687533
6493.588  6493.600  1.000  2.009712  27.0806  3.629540  0.688809
6497.998  6498.000  1.000  2.004929  26.7995  3.609083  0.684513
6502.396  6502.410  1.000  2.000537  26.5234  3.587630  0.683393
6506.831  6506.840  1.000  1.995842  26.2524  3.567675  0.682229
6511.280  6511.290  1.000  1.991493  25.9849  3.546723  0.680536
6515.751  6515.760  1.000  1.987088  25.7255  3.526810  0.677206
6520.245  6520.250  1.000  1.982253  25.4659  3.508146  0.677393
6524.743  6524.760  1.000  1.977483  25.2084  3.489281  0.676550
6529.266  6529.280  1.000  1.972513  24.9504  3.470770  0.672182
6533.822  6533.830  1.000  1.967617  24.7068  3.453756  0.671654
6538.373  6538.390  1.000  1.962642  24.4586  3.436110  0.670266
6542.964  6542.980  1.000  1.957984  24.2456  3.422082  0.668720
6547.575  6547.580  1.000  1.953165  24.0284  3.407823  0.670646
6552.196  6552.200  1.000  1.949062  23.7885  3.387659  0.668962
6556.826  6556.840  1.000  1.944678  23.5598  3.369834  0.667741
6561.491  6561.500  1.000  1.940126  23.2769  3.344565  0.662195
6566.164  6566.180  1.000  1.935566  23.1066  3.335273  0.665552
6570.864  6570.880  1.000  1.930266  22.8851  3.320844  0.665880
6575.592  6575.600  1.000  1.925766  22.6682  3.304215  0.661972
6580.326  6580.330  1.000  1.920915  22.4579  3.289478  0.661985
6585.080  6585.090  1.000  1.916063  22.2408  3.273523  0.660002
6589.856  6589.860  1.000  1.911271  22.0237  3.257135  0.659685
6594.644  6594.660  1.000  1.906213  21.813  3.242335  0.661663
6599.471  6599.470  1.000  1.901364  21.6114  3.227984  0.656754
6604.287  6604.300  1.000  1.896736  21.4002  3.211264  0.656403
6609.147  6609.150  1.000  1.891754  21.1968  3.196632  0.658037
6614.004  6614.020  1.000  1.887094  20.9974  3.181343  0.656291
6618.905  6618.910  1.000  1.882334  20.8024  3.166848  0.655235
6623.815  6623.820  1.000  1.877275  20.6026  3.152332  0.651337
6628.748  6628.740  1.000  1.872445  20.3727  3.132248  0.649943
6633.674  6633.690  1.000  1.867701  20.2192  3.123423  0.653287
6638.650  6638.650  1.000  1.862234  20.0313  3.111373  0.650848
6643.649  6643.640  1.000  1.857336  19.8321  3.095553  0.650894
6648.632  6648.640  1.000  1.852441  19.6412  3.080797  0.648925
6653.656  6653.660  1.000  1.847626  19.4591  3.066969  0.648147
6658.709  6658.700  1.000  1.843016  19.2694  3.051099  0.648841
6663.754  6663.760  1.000  1.838306  19.0926  3.037387  0.648382
6668.847  6668.840  1.000  1.833588  18.9019  3.021262  0.647186
6673.939  6673.940  1.000  1.828545  18.7229  3.007788  0.645734
6679.047  6679.060  1.000  1.823952  18.5441  2.992773  0.643885
6684.194  6684.190  1.000  1.818862  18.3623  2.978555  0.643433
6689.362  6689.350  1.000  1.813816  18.1856  2.964812  0.644000
6694.520  6694.520  1.000  1.809155  18.0075  2.949489  0.641564
6699.725  6699.720  1.000  1.804488  17.8259  2.933406  0.639955
6704.929  6704.930  1.000  1.799978  17.65  2.917589  0.637570
6710.151  6710.160  1.000  1.795109  17.4769  2.903070  0.636746
6715.412  6715.410  1.000  1.790771  17.3033  2.886735  0.638019
6720.678  6720.680  1.000  1.786217  17.1348  2.871667  0.633679
6725.971  6725.970  1.000  1.781437  16.9632  2.856529  0.636706
6731.285  6731.280  1.000  1.776315  16.7946  2.842661  0.632731