File: xdidata/Cr/Cr-K-chromite.xdi
# XDI/1.0 BlueSky/1.5.3
# Beamline.name: 6BM
# Beamline.xray_source: NSLS-II three-pole wiggler
# Beamline.collimation: paraboloid mirror, 5 nm Rh on 30 nm Pt
# Beamline.focusing: not in use
# Beamline.harmonic_rejection: flat mirror, Si stripe, pitch = 7.0 mrad relative to beam
# Detector.i0: 10 cm N2
# Detector.i1: 25 cm N2
# Detector.i2: 25 cm N2
# Element.symbol: Cr
# Element.edge: K
# Facility.name: NSLS-II
# Facility.energy: 3.0
# Facility.current: 400.8
# Facility.mode: top-off
# Facility.gup: 305882
# Facility.saf: 305422
# Facility.cycle: 2020-1
# Mono.name: Si(111)
# Mono.d_spacing: 3.13532
# Mono.encoder_resolution: 0.0000050 deg/ct
# Mono.angle_offset: 16.0581 deg
# Mono.scan_mode: fixed exit
# Mono.scan_type: step
# Mono.direction: forward in energy
# Sample.name: FeCrO4
# Sample.prep: powder on tape 2x
# Sample.x_position: -74.438 mm
# Sample.y_position: 112.405 mm
# Scan.experimenters: Sarah Nicholas, Bruce Ravel
# Scan.edge_energy: 5989.0
# Scan.start_time: 2020-01-29T16:34:15
# Scan.end_time: 2020-01-30T00:23:43
# Scan.transient_id: 20496
# Scan.uid: c57f7b22-7156-491c-b46a-93e3ae364d4c
# Scan.plot_hint: ln(I0/It)  --  ln($5/$6)
# Scan.sequence: merge of 16 scans
# Column.1: energy eV
# Column.2: requested_energy eV
# Column.3: measurement_time seconds
# Column.4: mutrans
# Column.5: i0
# Column.6: itrans
# Column.7: irefer
# /////
#  Ryan Tappero, ground in AW M&P
# -----
# energy   requested_energy   measurement_time   mutrans   i0   itrans   irefer
5789 5789 0.500000 4.985929 47.6751 0.325838 0.057144
5799.01 5799 0.500000 4.959080 47.6836 0.334750 0.059183
5809.01 5809 0.500000 4.931476 47.6473 0.343857 0.061390
5819.02 5819 0.500000 4.903826 47.584 0.353035 0.063778
5829.02 5829 0.500000 4.875885 47.5116 0.362482 0.066041
5839.01 5839 0.500000 4.849801 47.4211 0.371346 0.068236
5849.01 5849 0.500000 4.821684 47.2901 0.380882 0.070737
5859.01 5859 0.500000 4.794795 47.1143 0.389808 0.072930
5869.01 5869 0.500000 4.768180 45.9575 0.390494 0.073587
5879.01 5879 0.500000 4.740727 47.4727 0.414590 0.079231
5889.01 5889 0.500000 4.714640 47.2252 0.423334 0.081189
5899 5899 0.500000 4.689009 47.0574 0.432776 0.083915
5909.01 5909 0.500000 4.662784 46.8031 0.441873 0.086336
5919 5919 0.500000 4.635623 34.8921 0.338491 0.066490
5929 5929 0.500000 4.609651 45.1935 0.449955 0.089661
5939.78 5939 0.500000 4.582980 46.3538 0.474842 0.095389
5948.99 5949 0.500000 4.557933 46.8512 0.491213 0.099499
5958.99 5959 0.500000 4.532289 46.5011 0.500201 0.101957
5960.99 5961 0.500000 4.528220 46.4575 0.501774 0.102669
5962.99 5963 0.500000 4.523017 46.4066 0.503840 0.103145
5964.99 5965 0.500000 4.517941 46.3453 0.505740 0.103666
5966.99 5967 0.500000 4.513090 46.2829 0.507512 0.104172
5968.99 5969 0.500000 4.507149 46.2354 0.510007 0.104891
5970.99 5971 0.500000 4.502446 46.1814 0.511813 0.105176
5973 5973 0.500000 4.498500 46.1301 0.513277 0.105633
5974.99 5975 0.500000 4.492500 46.0597 0.515568 0.106317
5976.99 5977 0.500000 4.488266 45.9851 0.516926 0.106691
5979 5979 0.500000 4.482268 45.9082 0.519157 0.107274
5979.24 5979.25 0.500000 4.483174 45.8897 0.518495 0.107199
5979.49 5979.5 0.500000 4.482583 45.8848 0.518739 0.107327
5979.74 5979.75 0.500000 4.481451 45.8593 0.519040 0.107699
5979.99 5980 0.500000 4.479974 45.8503 0.519695 0.107301
5980.23 5980.25 0.500000 4.480655 45.8366 0.519201 0.107581
5980.49 5980.5 0.500000 4.479757 45.8209 0.519485 0.107489
5980.74 5980.75 0.500000 4.479526 45.8021 0.519392 0.107516
5980.99 5981 0.500000 4.477903 45.7853 0.520045 0.107595
5981.24 5981.25 0.500000 4.477751 45.7689 0.519943 0.107827
5981.49 5981.5 0.500000 4.477134 45.7535 0.520086 0.107590
5981.74 5981.75 0.500000 4.476564 45.7331 0.520154 0.107836
5981.99 5982 0.500000 4.475230 45.7205 0.520698 0.107897
5982.24 5982.25 0.500000 4.475067 45.6949 0.520488 0.107659
5982.49 5982.5 0.500000 4.474745 45.6825 0.520516 0.108049
5982.74 5982.75 0.500000 4.474589 45.659 0.520330 0.107846
5982.99 5983 0.500000 4.473375 45.647 0.520823 0.107686
5983.24 5983.25 0.500000 4.472408 45.6224 0.521047 0.107850
5983.49 5983.5 0.500000 4.472999 45.5981 0.520469 0.108057
5983.74 5983.75 0.500000 4.472064 45.5819 0.520761 0.108370
5983.99 5984 0.500000 4.471913 45.5536 0.520531 0.107830
5984.24 5984.25 0.500000 4.470034 45.5224 0.521140 0.108157
5984.5 5984.5 0.500000 4.469910 45.492 0.520869 0.107968
5984.74 5984.75 0.500000 4.469335 45.456 0.520749 0.108111
5985 5985 0.500000 4.468713 45.4393 0.520886 0.107936
5985.25 5985.25 0.500000 4.467823 45.4042 0.520948 0.108237
5985.5 5985.5 0.500000 4.467341 45.3628 0.520720 0.107894
5985.74 5985.75 0.500000 4.466953 45.319 0.520417 0.107982
5986 5986 0.500000 4.466593 45.2892 0.520266 0.107715
5986.24 5986.25 0.500000 4.465915 45.2479 0.520138 0.107567
5986.49 5986.5 0.500000 4.465876 45.2002 0.519611 0.107480
5986.74 5986.75 0.500000 4.465370 45.1479 0.519272 0.107528
5987 5987 0.500000 4.464586 45.0915 0.519029 0.107391
5987.25 5987.25 0.500000 4.463680 45.0239 0.518722 0.107129
5987.5 5987.5 0.500000 4.462805 44.9464 0.518284 0.106682
5987.75 5987.75 0.500000 4.462661 44.8877 0.517674 0.106431
5988 5988 0.500000 4.463059 44.7876 0.516323 0.106212
5988.25 5988.25 0.500000 4.461989 44.6629 0.515433 0.105485
5988.5 5988.5 0.500000 4.461556 44.5276 0.514094 0.104998
5988.74 5988.75 0.500000 4.460493 44.3606 0.512703 0.103675
5989 5989 0.500000 4.460609 44.1842 0.510611 0.102679
5989.24 5989.25 0.500000 4.460032 43.9437 0.508122 0.100681
5989.5 5989.5 0.500000 4.460747 43.6089 0.503890 0.098539
5989.75 5989.75 0.500000 4.460638 43.1436 0.498575 0.096591
5990 5990 0.500000 4.460276 42.4964 0.491261 0.094170
5990.25 5990.25 0.500000 4.461705 41.5463 0.479595 0.091209
5990.5 5990.5 0.500000 4.461466 40.1623 0.463732 0.087747
5990.75 5990.75 0.500000 4.461666 38.1579 0.440496 0.082667
5991 5991 0.500000 4.460894 35.8674 0.414372 0.077289
5991.25 5991.25 0.500000 4.459558 33.9756 0.393044 0.072734
5991.5 5991.5 0.500000 4.457157 33.2739 0.385859 0.070871
5991.74 5991.75 0.500000 4.456104 34.2653 0.397774 0.072727
5991.99 5992 0.500000 4.455747 37.0229 0.429953 0.078494
5992.25 5992.25 0.500000 4.454513 40.8518 0.475003 0.086509
5992.5 5992.5 0.500000 4.455042 43.8741 0.509869 0.092504
5992.75 5992.75 0.500000 4.456094 45.4665 0.527820 0.095403
5993 5993 0.500000 4.455472 46.1148 0.535667 0.096588
5993.25 5993.25 0.500000 4.455502 46.3604 0.538509 0.096544
5993.5 5993.5 0.500000 4.455405 46.4483 0.539578 0.096498
5993.75 5993.75 0.500000 4.454601 46.4737 0.540306 0.096523
5994 5994 0.500000 4.455687 46.4636 0.539614 0.096204
5994.25 5994.25 0.500000 4.455882 46.4558 0.539407 0.095881
5994.5 5994.5 0.500000 4.454919 46.4336 0.539669 0.096279
5994.75 5994.75 0.500000 4.455518 46.402 0.538983 0.095925
5995.01 5995 0.500000 4.455390 46.3735 0.538725 0.095801
5995.25 5995.25 0.500000 4.455073 46.3427 0.538526 0.095768
5995.5 5995.5 0.500000 4.456166 46.3142 0.537614 0.095707
5995.75 5995.75 0.500000 4.456080 46.2843 0.537314 0.095783
5996 5996 0.500000 4.457002 46.2557 0.536487 0.095797
5996.25 5996.25 0.500000 4.458277 46.2334 0.535552 0.095420
5996.5 5996.5 0.500000 4.459010 46.207 0.534855 0.095049
5996.75 5996.75 0.500000 4.460254 46.1836 0.533914 0.094770
5997 5997 0.500000 4.461691 46.1612 0.532882 0.094662
5997.25 5997.25 0.500000 4.463205 46.1272 0.531683 0.093544
5997.5 5997.5 0.500000 4.465461 46.1023 0.530192 0.092800
5997.75 5997.75 0.500000 4.468526 46.0794 0.528297 0.091721
5998 5998 0.500000 4.471808 46.057 0.526318 0.090799
5998.25 5998.25 0.500000 4.474118 46.036 0.524869 0.089629
5998.5 5998.5 0.500000 4.477900 46.0109 0.522625 0.088465
5998.75 5998.75 0.500000 4.480355 45.9986 0.521195 0.087484
5999 5999 0.500000 4.484123 45.9755 0.519000 0.086358
5999.25 5999.25 0.500000 4.486285 45.9561 0.517639 0.085380
5999.5 5999.5 0.500000 4.489835 45.9366 0.515585 0.084315
5999.75 5999.75 0.500000 4.492336 45.9288 0.514208 0.083884
6000 6000 0.500000 4.494690 45.9126 0.512812 0.082935
6000.25 6000.25 0.500000 4.497987 45.9001 0.510967 0.082035
6000.5 6000.5 0.500000 4.501887 45.8878 0.508835 0.081374
6000.75 6000.75 0.500000 4.505575 45.8762 0.506825 0.080980
6001 6001 0.500000 4.510346 45.8621 0.504304 0.080011
6001.25 6001.25 0.500000 4.514512 45.8479 0.502051 0.079103
6001.5 6001.5 0.500000 4.519952 45.8341 0.499201 0.078339
6001.75 6001.75 0.500000 4.525259 45.8249 0.496439 0.077521
6002 6002 0.500000 4.530602 45.8066 0.493574 0.076971
6002.25 6002.25 0.500000 4.535421 45.7952 0.491106 0.076262
6002.5 6002.5 0.500000 4.539529 45.7927 0.489039 0.075789
6002.75 6002.75 0.500000 4.543930 45.7879 0.486838 0.075022
6003 6003 0.500000 4.547370 45.7738 0.485011 0.074420
6003.25 6003.25 0.500000 4.549127 45.7587 0.484008 0.073947
6003.5 6003.5 0.500000 4.551598 45.7412 0.482625 0.073518
6003.75 6003.75 0.500000 4.553885 45.7263 0.481376 0.072967
6004 6004 0.500000 4.554722 45.7294 0.480999 0.072816
6004.25 6004.25 0.500000 4.557375 45.7264 0.479690 0.072519
6004.5 6004.5 0.500000 4.559574 45.72 0.478574 0.072279
6004.75 6004.75 0.500000 4.561082 45.7037 0.477675 0.071723
6005 6005 0.500000 4.563230 45.7007 0.476623 0.071570
6005.25 6005.25 0.500000 4.565038 45.7089 0.475842 0.070890
6005.5 6005.5 0.500000 4.567590 45.7052 0.474589 0.070339
6005.75 6005.75 0.500000 4.571839 45.6961 0.472498 0.070161
6006 6006 0.500000 4.575319 45.7049 0.470948 0.069389
6006.25 6006.25 0.500000 4.582530 45.6856 0.467384 0.069013
6006.5 6006.5 0.500000 4.590301 45.681 0.463732 0.067791
6006.75 6006.75 0.500000 4.600547 45.6616 0.458819 0.067059
6007 6007 0.500000 4.610740 45.6656 0.454181 0.066090
6007.25 6007.25 0.500000 4.623646 45.6577 0.448276 0.064786
6007.5 6007.5 0.500000 4.637543 45.6532 0.442047 0.064308
6007.75 6007.75 0.500000 4.651211 45.6438 0.435928 0.062993
6008 6008 0.500000 4.665225 45.638 0.429823 0.061689
6008.25 6008.25 0.500000 4.677034 45.6303 0.424700 0.060821
6008.5 6008.5 0.500000 4.687001 45.6184 0.420366 0.059758
6008.75 6008.75 0.500000 4.693582 45.607 0.417515 0.059172
6009 6009 0.500000 4.696614 45.6122 0.416301 0.058982
6009.25 6009.25 0.500000 4.698088 45.6052 0.415630 0.058460
6009.5 6009.5 0.500000 4.696579 45.5935 0.416151 0.058728
6009.75 6009.75 0.500000 4.690782 45.5813 0.418442 0.058907
6010 6010 0.500000 4.684507 45.576 0.421062 0.059356
6010.25 6010.25 0.500000 4.676273 45.571 0.424466 0.060303
6010.5 6010.5 0.500000 4.666403 45.5663 0.428645 0.061014
6010.75 6010.75 0.500000 4.656187 45.5486 0.432865 0.061874
6011 6011 0.500000 4.644642 45.5394 0.437823 0.063059
6011.25 6011.25 0.500000 4.634486 45.5354 0.442219 0.064088
6011.5 6011.5 0.500000 4.625525 45.5331 0.446194 0.064835
6011.75 6011.75 0.500000 4.615555 45.5202 0.450565 0.066057
6012 6012 0.500000 4.607195 45.5122 0.454222 0.066703
6012.25 6012.25 0.500000 4.599377 45.498 0.457696 0.067921
6012.5 6012.5 0.500000 4.592106 45.4829 0.460861 0.068656
6012.76 6012.75 0.500000 4.586286 45.4754 0.463501 0.069266
6013 6013 0.500000 4.582071 45.4686 0.465373 0.069865
6013.25 6013.25 0.500000 4.576573 45.4635 0.467869 0.070582
6013.5 6013.5 0.500000 4.572938 45.4583 0.469514 0.070794
6013.75 6013.75 0.500000 4.569641 45.4433 0.470904 0.071193
6014 6014 0.500000 4.565873 45.4387 0.472614 0.071501
6015.01 6014.99 0.500000 4.556889 45.4122 0.476632 0.072216
6015.99 6015.99 0.500000 4.553032 45.356 0.477849 0.072072
6017.01 6017.01 0.500000 4.554996 45.3335 0.476698 0.071401
6018.06 6018.06 0.500000 4.559495 45.3036 0.474237 0.070478
6019.13 6019.12 0.500000 4.566463 45.2749 0.470643 0.069455
6020.21 6020.2 0.500000 4.570932 45.2426 0.468220 0.068968
6021.31 6021.3 0.500000 4.573316 45.2113 0.466784 0.069235
6022.43 6022.42 0.500000 4.572475 45.1775 0.466829 0.069422
6023.57 6023.56 0.500000 4.566481 45.1544 0.469410 0.070199
6024.71 6024.71 0.500000 4.554778 45.127 0.474622 0.071050
6025.9 6025.89 0.500000 4.543564 45.0932 0.479640 0.071194
6027.08 6027.08 0.500000 4.530212 45.0612 0.485720 0.071471
6028.31 6028.3 0.500000 4.517345 45.0299 0.491686 0.072233
6029.54 6029.53 0.500000 4.506648 44.9955 0.496582 0.072731
6030.79 6030.78 0.500000 4.497418 44.9529 0.500718 0.073193
6032.06 6032.05 0.500000 4.490135 44.9274 0.504086 0.073805
6033.35 6033.34 0.500000 4.483267 44.8934 0.507173 0.074122
6034.65 6034.65 0.500000 4.478545 44.8577 0.509168 0.074366
6035.99 6035.98 0.500000 4.472552 44.8338 0.511957 0.074708
6037.34 6037.33 0.500000 4.467637 44.7968 0.514058 0.074762
6038.71 6038.7 0.500000 4.464355 44.7472 0.515172 0.074675
6040.09 6040.08 0.500000 4.463031 44.7087 0.515415 0.074859
6041.5 6041.49 0.500000 4.460937 44.6719 0.516069 0.075321
6042.92 6042.91 0.500000 4.460031 44.6609 0.516408 0.075555
6044.36 6044.35 0.500000 4.459468 44.6168 0.516188 0.075915
6045.82 6045.81 0.500000 4.458582 44.5659 0.516053 0.075921
6047.3 6047.29 0.500000 4.458882 44.5327 0.515513 0.076532
6048.8 6048.79 0.500000 4.459407 44.4948 0.514807 0.076916
6050.32 6050.31 0.500000 4.459565 44.4497 0.514207 0.077194
6051.86 6051.85 0.500000 4.457126 44.4017 0.514902 0.078298
6053.42 6053.41 0.500000 4.454776 44.3357 0.515354 0.079001
6054.99 6054.98 0.500000 4.451233 44.2663 0.516361 0.079944
6056.59 6056.58 0.500000 4.449865 44.1961 0.516252 0.080319
6058.2 6058.19 0.500000 4.450300 44.1294 0.515250 0.080408
6059.84 6059.83 0.500000 4.450932 44.0382 0.513860 0.080361
6061.49 6061.48 0.500000 4.450235 43.9703 0.513424 0.080198
6063.16 6063.15 0.500000 4.447437 43.9047 0.514096 0.080279
6064.85 6064.84 0.500000 4.443556 43.8514 0.515467 0.080180
6066.56 6066.55 0.500000 4.438549 43.8101 0.517570 0.079745
6068.29 6068.28 0.500000 4.433825 43.7566 0.519385 0.079248
6070.03 6070.03 0.500000 4.429838 43.6967 0.520749 0.079096
6071.8 6071.79 0.500000 4.423414 43.6335 0.523352 0.079292
6073.59 6073.58 0.500000 4.417375 43.5798 0.525870 0.080022
6075.39 6075.38 0.500000 4.412709 43.5211 0.527610 0.080731
6077.21 6077.21 0.500000 4.407487 43.4676 0.529721 0.082099
6079.06 6079.05 0.500000 4.403416 43.401 0.531075 0.083274
6080.92 6080.91 0.500000 4.397334 43.3324 0.533465 0.084774
6082.79 6082.79 0.500000 4.391732 43.2619 0.535584 0.085966
6084.7 6084.69 0.500000 4.385129 43.1833 0.538167 0.087222
6086.62 6086.61 0.500000 4.379569 43.1203 0.540371 0.087323
6088.56 6088.55 0.500000 4.374141 43.0442 0.542353 0.086933
6090.52 6090.51 0.500000 4.369161 42.9719 0.544142 0.085664
6092.49 6092.48 0.500000 4.364365 42.8961 0.545798 0.084630
6094.49 6094.48 0.500000 4.359042 42.8259 0.547813 0.083578
6096.5 6096.49 0.500000 4.352619 42.7353 0.550174 0.082833
6098.52 6098.52 0.500000 4.346617 42.6554 0.552448 0.082604
6100.59 6100.58 0.500000 4.340972 42.5676 0.554433 0.082949
6102.66 6102.65 0.500000 4.336546 42.4833 0.555793 0.083995
6104.75 6104.74 0.500000 4.331849 42.3902 0.557187 0.085384
6106.85 6106.85 0.500000 4.327145 42.3024 0.558649 0.087188
6108.99 6108.98 0.500000 4.321849 42.2215 0.560542 0.089198
6111.13 6111.12 0.500000 4.316379 42.1217 0.562290 0.090735
6113.3 6113.29 0.500000 4.310984 42.0244 0.564026 0.092107
6115.49 6115.48 0.500000 4.305268 41.919 0.565835 0.092623
6117.69 6117.68 0.500000 4.299491 41.8127 0.567669 0.093274
6119.91 6119.9 0.500000 4.293084 41.7181 0.570023 0.093169
6122.16 6122.15 0.500000 4.286337 41.6074 0.572363 0.093674
6124.42 6124.41 0.500000 4.279409 41.495 0.574786 0.094111
6126.7 6126.69 0.500000 4.273419 41.3829 0.576676 0.094887
6129 6128.99 0.500000 4.268349 41.2597 0.577882 0.095598
6131.31 6131.31 0.500000 4.264442 41.1448 0.578524 0.096223
6133.66 6133.65 0.500000 4.261411 41.0174 0.578490 0.096463
6136.01 6136 0.500000 4.256856 40.8896 0.579313 0.096978
6138.39 6138.38 0.500000 4.253475 40.7536 0.579350 0.096973
6140.78 6140.77 0.500000 4.248530 40.6182 0.580283 0.096840
6143.2 6143.19 0.500000 4.244218 40.4768 0.580767 0.097083
6145.63 6145.62 0.500000 4.239347 40.3168 0.581290 0.097082
6148.08 6148.07 0.500000 4.235001 40.1601 0.581554 0.096659
6150.56 6150.55 0.500000 4.230458 39.9808 0.581596 0.096401
6153.05 6153.04 0.500000 4.224489 39.7744 0.582056 0.096623
6155.56 6155.55 0.500000 4.219091 39.5273 0.581572 0.096192
6158.08 6158.07 0.500000 4.213803 39.1461 0.579023 0.095663
6160.62 6160.62 0.500000 4.208256 38.3923 0.571023 0.093681
6163.2 6163.19 0.500000 4.202240 36.9396 0.552730 0.089900
6165.77 6165.77 0.500000 4.197106 36.4331 0.547959 0.088985
6168.39 6168.38 0.500000 4.190179 39.2757 0.594826 0.097012
6171.01 6171 0.500000 4.182165 39.1471 0.597641 0.098550
6173.66 6173.65 0.500000 4.175027 38.9245 0.598506 0.099973
6176.32 6176.31 0.500000 4.167691 38.6964 0.599380 0.100908
6179 6178.99 0.500000 4.159771 38.479 0.600754 0.102370
6181.7 6181.69 0.500000 4.152471 38.2501 0.601558 0.103333
6184.42 6184.41 0.500000 4.145166 38.0352 0.602568 0.103888
6187.16 6187.15 0.500000 4.137104 37.8126 0.603880 0.104667
6189.91 6189.9 0.500000 4.129614 37.5939 0.604902 0.104919
6192.69 6192.68 0.500000 4.122649 37.3733 0.605552 0.105602
6195.48 6195.47 0.500000 4.116990 37.1393 0.605179 0.105780
6198.29 6198.29 0.500000 4.110967 36.9074 0.605031 0.105994
6201.12 6201.12 0.500000 4.104846 36.6707 0.604843 0.106368
6203.97 6203.97 0.500000 4.098483 36.422 0.604575 0.106606
6206.86 6206.85 0.500000 4.093218 36.1704 0.603578 0.107271
6209.75 6209.74 0.500000 4.086531 35.9164 0.603358 0.107577
6212.66 6212.65 0.500000 4.080638 35.6699 0.602759 0.108064
6215.58 6215.57 0.500000 4.074200 35.4021 0.602098 0.108604
6218.53 6218.52 0.500000 4.067767 35.1341 0.601403 0.108089
6221.49 6221.49 0.500000 4.061207 34.8658 0.600735 0.108028
6224.47 6224.47 0.500000 4.055168 34.5918 0.599625 0.107724
6227.48 6227.48 0.500000 4.047573 34.3081 0.599241 0.107055
6230.5 6230.5 0.500000 4.042247 34.0175 0.597343 0.106550
6233.55 6233.55 0.500000 4.035077 33.7282 0.596524 0.106190
6236.61 6236.61 0.500000 4.028390 33.4378 0.595360 0.105400
6239.69 6239.69 0.500000 4.021287 33.1486 0.594419 0.104919
6242.79 6242.79 0.500000 4.014164 32.8459 0.593198 0.104515
6245.91 6245.91 0.500000 4.006863 32.5411 0.592000 0.104571
6249.06 6249.05 0.500000 4.000155 32.2277 0.590251 0.104617
6252.2 6252.2 0.500000 3.993590 31.9189 0.588445 0.105403
6255.38 6255.38 0.500000 3.986283 31.6033 0.586897 0.106815
6258.57 6258.57 0.500000 3.979599 31.2919 0.585013 0.107456
6261.79 6261.79 0.500000 3.972519 30.9726 0.583159 0.107444
6265.02 6265.02 0.500000 3.965125 30.6462 0.581299 0.107547
6268.27 6268.27 0.500000 3.957819 30.3258 0.579437 0.107474
6271.55 6271.55 0.500000 3.950850 30.0019 0.577261 0.107449
6274.84 6274.84 0.500000 3.943665 29.6772 0.575124 0.107455
6278.15 6278.15 0.500000 3.936649 29.3597 0.572985 0.107553
6281.47 6281.47 0.500000 3.930100 29.0256 0.570189 0.107233
6284.82 6284.82 0.500000 3.922163 28.6878 0.568043 0.106873
6288.19 6288.19 0.500000 3.915661 28.3575 0.565171 0.106611
6291.57 6291.57 0.500000 3.908339 28.0285 0.562723 0.106528
6294.98 6294.98 0.500000 3.900946 27.7045 0.560340 0.106267
6298.41 6298.4 0.500000 3.894250 27.3741 0.557387 0.106202
6301.85 6301.85 0.500000 3.886007 27.0465 0.555271 0.106307
6305.31 6305.31 0.500000 3.878622 26.7158 0.552549 0.106144
6308.79 6308.79 0.500000 3.871557 26.388 0.549640 0.105498
6312.29 6312.29 0.500000 3.863862 26.0711 0.547235 0.105519
6315.81 6315.81 0.500000 3.855716 25.746 0.544826 0.104965
6319.36 6319.35 0.500000 3.847512 25.4169 0.542295 0.104373
6322.91 6322.9 0.500000 3.840110 25.0929 0.539369 0.103694
6326.48 6326.48 0.500000 3.832483 24.7752 0.536615 0.103246
6330.09 6330.08 0.500000 3.825060 24.4614 0.533763 0.103093
6333.69 6333.69 0.500000 3.817761 24.1496 0.530821 0.102515
6337.32 6337.32 0.500000 3.809990 23.8324 0.527935 0.101877
6340.99 6340.98 0.500000 3.802739 23.5172 0.524748 0.101698
6344.66 6344.65 0.500000 3.794981 23.213 0.521995 0.101778
6348.35 6348.34 0.500000 3.787379 22.9174 0.519274 0.101526
6352.06 6352.05 0.500000 3.779604 22.6134 0.516395 0.101700
6355.78 6355.78 0.500000 3.771714 22.3122 0.513548 0.101209
6359.53 6359.52 0.500000 3.764797 22.0104 0.510123 0.101286
6363.3 6363.29 0.500000 3.757537 21.722 0.507107 0.101136
6367.09 6367.08 0.500000 3.749631 21.4339 0.504356 0.101146
6370.89 6370.88 0.500000 3.742229 21.154 0.501462 0.101102
6374.72 6374.71 0.500000 3.734896 20.8645 0.498239 0.100711
6378.56 6378.55 0.500000 3.727422 20.5856 0.495264 0.100276
6382.42 6382.41 0.500000 3.719851 20.3125 0.492410 0.099764
6386.3 6386.29 0.500000 3.712384 20.0362 0.489358 0.099418
6390.19 6390.19 0.500000 3.705021 19.7627 0.486238 0.099355
6394.12 6394.11 0.500000 3.698111 19.4972 0.483042 0.098699
6398.08 6398.05 0.500000 3.689332 19.2342 0.480732 0.098624
6402.02 6402.01 0.500000 3.681732 18.973 0.477813 0.098291
6405.99 6405.98 0.500000 3.673424 18.721 0.475397 0.097891
6409.99 6409.98 0.500000 3.666151 18.4705 0.472466 0.097608
6413.99 6413.99 0.500000 3.657716 18.2277 0.470188 0.097270
6418.06 6418.03 0.500000 3.650100 17.985 0.467497 0.097005
6422.1 6422.08 0.500000 3.642215 17.7471 0.464956 0.097027
6426.16 6426.15 0.500000 3.634012 17.5106 0.462531 0.096681
6430.27 6430.24 0.500000 3.625796 17.2694 0.459933 0.096092
6434.36 6434.35 0.500000 3.618221 17.0397 0.457259 0.095665
6438.5 6438.48 0.500000 3.609667 16.8223 0.455311 0.095472
6442.64 6442.63 0.500000 3.602014 16.6068 0.452921 0.095106
6446.8 6446.79 0.500000 3.593343 16.3867 0.450815 0.095296
6450.99 6450.98 0.500000 3.585430 16.1872 0.448859 0.095264
6455.19 6455.18 0.500000 3.577021 15.9873 0.447056 0.095052
6459.42 6459.41 0.500000 3.568693 15.7198 0.443257 0.094990
6463.64 6463.65 0.500000 3.561169 15.4584 0.439156 0.093987
6467.92 6467.91 0.500000 3.552516 15.3711 0.440483 0.094680
6472.2 6472.19 0.500000 3.546154 15.1837 0.437898 0.094837
6476.5 6476.49 0.500000 3.537797 15.0014 0.436265 0.094435
6480.84 6480.81 0.500000 3.530136 14.8166 0.434219 0.094507
6485.16 6485.15 0.500000 3.522126 14.6432 0.432578 0.094283
6489.49 6489.51 0.500000 3.513249 14.4693 0.431221 0.094264
6493.91 6493.89 0.500000 3.505125 14.3017 0.429735 0.094238
6498.29 6498.28 0.500000 3.497440 14.1342 0.427974 0.094160
6502.67 6502.7 0.500000 3.488982 13.9683 0.426512 0.093986
6507.17 6507.13 0.500000 3.480568 13.8087 0.425242 0.094089
6511.6 6511.58 0.500000 3.472450 13.6538 0.423882 0.093960
6516.06 6516.05 0.500000 3.465169 13.4993 0.422145 0.094062
6520.52 6520.54 0.500000 3.456174 13.3542 0.421360 0.094117
6525.03 6525.05 0.500000 3.447323 13.205 0.420350 0.094317
6529.57 6529.58 0.500000 3.440336 13.0625 0.418734 0.093936
6534.11 6534.13 0.500000 3.432039 12.9188 0.417575 0.094175
6538.74 6538.7 0.500000 3.424038 12.7712 0.416171 0.094106
6543.25 6543.28 0.500000 3.415524 12.6393 0.415349 0.094239
6547.86 6547.89 0.500000 3.407407 12.5061 0.414313 0.094127
6552.48 6552.51 0.500000 3.399434 12.3703 0.413089 0.093972
6557.2 6557.16 0.500000 3.390482 12.2354 0.412317 0.094190
6561.81 6561.82 0.500000 3.382300 12.1024 0.411153 0.094122
6566.47 6566.5 0.500000 3.373644 11.9857 0.410707 0.094290
6571.17 6571.2 0.500000 3.366008 11.8644 0.409667 0.094424
6575.9 6575.92 0.500000 3.356841 11.7483 0.409398 0.095013
6580.63 6580.66 0.500000 3.348856 11.6315 0.408562 0.095020
6585.39 6585.41 0.500000 3.340753 11.5152 0.407782 0.095192
6590.17 6590.19 0.500000 3.332237 11.4006 0.407185 0.095196
6594.97 6594.99 0.500000 3.323591 11.2938 0.406866 0.095263
6599.78 6599.8 0.500000 3.315079 11.1835 0.406339 0.095700
6604.61 6604.63 0.500000 3.306601 11.0736 0.405775 0.095886
6609.47 6609.49 0.500000 3.299043 10.9664 0.404900 0.095806
6614.34 6614.36 0.500000 3.289410 10.8625 0.404937 0.096372
6619.24 6619.25 0.500000 3.281661 10.7583 0.404183 0.096173
6624.14 6624.16 0.500000 3.272968 10.6565 0.403852 0.096490
6629.07 6629.09 0.500000 3.264164 10.5533 0.403476 0.096925
6634.01 6634.03 0.500000 3.255360 10.4581 0.403371 0.096797
6638.98 6639 0.500000 3.246913 10.3631 0.403101 0.097212
6643.97 6643.99 0.500000 3.238996 10.2648 0.402452 0.097496
6648.97 6648.99 0.500000 3.230386 10.1701 0.402181 0.097682
6654.01 6654.02 0.500000 3.221511 10.0772 0.402063 0.097843
6659.04 6659.06 0.500000 3.214103 9.983805 0.401295 0.097996
6664.1 6664.12 0.500000 3.204267 9.892728 0.401564 0.098167
6669.19 6669.2 0.500000 3.195875 9.796673 0.401020 0.098680
6674.27 6674.3 0.500000 3.186949 9.705830 0.400851 0.098788
6679.4 6679.42 0.500000 3.179035 9.614059 0.400223 0.099025
6684.54 6684.56 0.500000 3.170250 9.525568 0.400033 0.099148
6689.7 6689.72 0.500000 3.161755 9.434048 0.399568 0.099266
6694.89 6694.9 0.500000 3.153929 9.345895 0.398951 0.099661
6700.06 6700.09 0.500000 3.145892 9.258076 0.398388 0.099906
6705.3 6705.31 0.500000 3.136578 9.169994 0.398297 0.100177
6710.52 6710.54 0.500000 3.128480 9.081041 0.397645 0.100285
6715.76 6715.79 0.500000 3.119788 8.996985 0.397393 0.100346
6721.04 6721.06 0.500000 3.110311 8.913095 0.397442 0.100606
6726.33 6726.35 0.500000 3.103305 8.826469 0.396350 0.100703
6731.64 6731.66 0.500000 3.094524 8.742217 0.396022 0.101066
6736.97 6736.99 0.500000 3.085592 8.658794 0.395768 0.101612
6742.31 6742.34 0.500000 3.076530 8.574356 0.395467 0.101759
6747.7 6747.71 0.500000 3.067180 8.492526 0.395381 0.101684
6753.08 6753.09 0.500000 3.059095 8.411472 0.394784 0.102045
6758.48 6758.5 0.500000 3.050834 8.325392 0.393982 0.102169
6763.9 6763.92 0.500000 3.042107 8.242570 0.393482 0.102203
6769.34 6769.37 0.500000 3.033193 8.162487 0.393142 0.102726
6774.81 6774.83 0.500000 3.024330 8.083865 0.392835 0.102530
6780.28 6780.31 0.500000 3.015094 8.004975 0.392596 0.103035
6785.78 6785.81 0.500000 3.007377 7.925569 0.391719 0.103247
6791.3 6791.33 0.500000 2.997887 7.834271 0.390896 0.103064
6796.85 6796.87 0.500000 2.989842 7.779064 0.391278 0.103590
6802.39 6802.42 0.500000 2.981201 7.707797 0.391060 0.104095
6808.02 6808 0.500000 2.972543 7.639221 0.390964 0.104369
6813.59 6813.6 0.500000 2.963270 7.444784 0.384559 0.102903
6819.19 6819.21 0.500000 2.954709 7.458658 0.388577 0.104410
6824.82 6824.85 0.500000 2.946596 7.293794 0.383079 0.103205
6830.5 6830.5 0.500000 2.938040 7.168354 0.379745 0.102797
6836.18 6836.17 0.500000 2.928895 7.325077 0.391617 0.106115
6841.84 6841.86 0.500000 2.920512 7.116824 0.383666 0.104187