File: xdidata/Cr/Cr-K-ChromiumFoil.xdi
# XDI/1.0 BlueSky/1.10.0 BMM/2023-1.0-py310-tiled
# Beamline.name: BMM (06BM) -- Beamline for Materials Measurement (NIST)
# Beamline.xray_source: NSLS-II three-pole wiggler
# Beamline.collimation: paraboloid mirror, 5 nm Rh on 30 nm Pt
# Beamline.focusing: not in use
# Beamline.harmonic_rejection: flat mirror, Si stripe, pitch = 7.0 mrad relative to beam
# Beamline.software: Bluesky 1.10.0, Ophyd 1.7.0, DataBroker 2.0.0b13, Python 3.10.8, 2023-1.0-py310-tiled
# Detector.I0: 10 cm N2
# Detector.I1: 25 cm N2
# Detector.I2: 25 cm N2
# Element.symbol: Cr
# Element.edge: K
# Element.reference: Cr
# Element.reference_material: Cr foil
# Facility.name: NSLS-II
# Facility.energy: 3.0
# Facility.current: 400.5
# Facility.mode: top-off
# Facility.GUP: 301027
# Facility.SAF: 310583
# Facility.cycle: 2023-2
# Mono.name: Si(111)
# Mono.d_spacing: 3.13519
# Mono.encoder_resolution: 0.0000050 deg/ct
# Mono.angle_offset: 16.0754 deg
# Mono.scan_mode: pseudo channel cut
# Mono.scan_type: step
# Mono.direction: forward in energy
# Sample.name: Cr foil
# Sample.prep: reference foil
# Sample.x: 109.138 mm
# Sample.y: 153.150 mm
# Sample.SDD_position: 205.000 mm
# Scan.experimenters: Bruce Ravel
# Scan.edge_energy: 5989.2
# Scan.start_time: 2023-05-28T11:54:06
# Scan.end_time: 2023-05-28T12:02:14
# Scan.transient_id: 78658
# Scan.uid: c9882daa-5210-4e33-a77c-930512531ec7
# Scan.plot_hint: ln(It/Ir)  --  ln($6/$7)
# Column.1: energy eV
# Column.2: requested_energy eV
# Column.3: measurement_time seconds
# Column.4: xmu
# Column.5: I0 nA
# Column.6: It nA
# Column.7: Ir nA
# ///////////
# standard reference foil
# -----------
# energy  requested_energy  measurement_time  xmu  I0  It  Ir
  5789.197  5789.200  0.500  3.008692  113.454  61.9444  3.057338
  5799.210  5799.200  0.500  2.993373  113.646  62.4698  3.130868
  5809.220  5809.200  0.500  2.978157  113.801  62.9642  3.204029
  5819.230  5819.200  0.500  2.962833  113.943  63.4409  3.278136
  5829.221  5829.200  0.500  2.947890  114.056  63.8933  3.351221
  5839.209  5839.200  0.500  2.932855  114.1  64.3479  3.426191
  5849.208  5849.200  0.500  2.918085  114.132  64.7819  3.500627
  5859.204  5859.200  0.500  2.903438  114.045  65.1646  3.573260
  5869.211  5869.200  0.500  2.888887  113.061  65.0115  3.617116
  5879.207  5879.200  0.500  2.874372  114.999  66.5269  3.755546
  5889.211  5889.200  0.500  2.859991  114.58  66.7078  3.820309
  5900.811  5899.200  0.500  2.844226  114.041  66.8777  3.890896
  5909.188  5909.200  0.500  2.831631  113.342  66.789  3.934985
  5919.187  5919.200  0.500  2.817641  113.84  67.4827  4.031870
  5929.193  5929.200  0.500  2.803674  112.338  67.0024  4.059474
  5939.193  5939.200  0.500  2.789664  113.578  68.1709  4.188545
  5949.190  5949.200  0.500  2.775730  115.217  69.5482  4.333132
  5959.190  5959.200  0.500  2.762472  114.281  69.3976  4.381452
  5961.195  5961.200  0.500  2.759551  114.148  69.4189  4.395618
  5963.194  5963.200  0.500  2.757003  114.039  69.4062  4.406023
  5965.192  5965.200  0.500  2.754383  113.943  69.4454  4.420077
  5967.198  5967.200  0.500  2.751834  113.851  69.4453  4.431357
  5969.194  5969.200  0.500  2.749124  113.762  69.4973  4.446710
  5971.193  5971.200  0.500  2.746709  113.66  69.5414  4.460286
  5973.194  5973.200  0.500  2.744018  113.51  69.5128  4.470465
  5975.195  5975.200  0.500  2.741519  113.429  69.5192  4.482064
  5977.193  5977.200  0.500  2.739186  113.292  69.538  4.493752
  5979.192  5979.200  0.500  2.736905  113.124  69.495  4.501229
  5979.488  5979.500  0.500  2.736532  113.127  69.4971  4.503037
  5979.787  5979.800  0.500  2.736255  113.061  69.4685  4.502434
  5980.087  5980.100  0.500  2.735935  113.031  69.4729  4.504165
  5980.386  5980.400  0.500  2.735485  113  69.4968  4.507741
  5980.688  5980.700  0.500  2.735068  112.965  69.4949  4.509499
  5980.988  5981.000  0.500  2.734765  112.935  69.483  4.510088
  5981.289  5981.300  0.500  2.734483  112.906  69.4748  4.510826
  5981.590  5981.600  0.500  2.734225  112.856  69.4587  4.510946
  5981.885  5981.900  0.500  2.734080  112.831  69.4555  4.511394
  5982.189  5982.200  0.500  2.733785  112.757  69.422  4.510552
  5982.487  5982.500  0.500  2.733443  112.738  69.4297  4.512594
  5982.788  5982.800  0.500  2.733242  112.701  69.4229  4.513056
  5983.091  5983.100  0.500  2.732894  112.641  69.3969  4.512937
  5983.392  5983.400  0.500  2.732781  112.597  69.3839  4.512604
  5983.695  5983.700  0.500  2.732690  112.545  69.362  4.511591
  5983.996  5984.000  0.500  2.732379  112.46  69.3142  4.509880
  5984.295  5984.300  0.500  2.732108  112.397  69.2917  4.509642
  5984.592  5984.600  0.500  2.732089  112.328  69.2601  4.507671
  5984.891  5984.900  0.500  2.732040  112.259  69.2238  4.505526
  5985.191  5985.200  0.500  2.731842  112.163  69.1901  4.504226
  5985.494  5985.500  0.500  2.731854  112.059  69.1361  4.500656
  5985.793  5985.800  0.500  2.731932  111.938  69.0545  4.494992
  5986.096  5986.100  0.500  2.731884  111.831  69.0105  4.492346
  5986.396  5986.400  0.500  2.732075  111.688  68.9519  4.487668
  5986.694  5986.700  0.500  2.732365  111.5  68.8253  4.478137
  5986.996  5987.000  0.500  2.732556  111.322  68.7358  4.471459
  5987.296  5987.300  0.500  2.732919  111.081  68.5901  4.460361
  5987.595  5987.600  0.500  2.733782  110.798  68.4299  4.446106
  5987.894  5987.900  0.500  2.734885  110.421  68.1893  4.425587
  5988.192  5988.200  0.500  2.736429  109.939  67.8956  4.399723
  5988.497  5988.500  0.500  2.738979  109.291  67.518  4.364114
  5988.797  5988.800  0.500  2.742948  108.401  66.9778  4.312052
  5989.096  5989.100  0.500  2.749786  107.054  66.1831  4.231848
  5989.398  5989.400  0.500  2.760578  104.834  64.8632  4.102935
  5989.697  5989.700  0.500  2.774773  101.045  62.4734  3.896067
  5989.996  5990.000  0.500  2.788408  95.1177  58.8266  3.618959
  5990.296  5990.300  0.500  2.799742  88.2525  54.5991  3.321030
  5990.592  5990.600  0.500  2.808842  84.0385  51.9998  3.134277
  5990.896  5990.900  0.500  2.818083  85.3636  52.8281  3.154912
  5991.197  5991.200  0.500  2.826400  93.1006  57.6201  3.412591
  5991.497  5991.500  0.500  2.833049  103.862  64.2698  3.781196
  5991.804  5991.800  0.500  2.838887  110.457  68.3809  3.999649
  5992.098  5992.100  0.500  2.844431  112.878  69.9093  4.066441
  5992.398  5992.400  0.500  2.850007  113.652  70.3999  4.072207
  5992.695  5992.700  0.500  2.855512  113.918  70.5748  4.059909
  5992.996  5993.000  0.500  2.860394  113.99  70.6119  4.042262
  5993.298  5993.300  0.500  2.864952  114.003  70.635  4.025195
  5993.601  5993.600  0.500  2.868785  113.97  70.6413  4.010159
  5993.902  5993.900  0.500  2.871968  113.946  70.6124  3.995776
  5994.201  5994.200  0.500  2.874494  113.888  70.6072  3.985401
  5994.500  5994.500  0.500  2.876129  113.854  70.5981  3.978382
  5994.797  5994.800  0.500  2.877035  113.814  70.5985  3.974802
  5995.099  5995.100  0.500  2.877315  113.751  70.567  3.971914
  5995.397  5995.400  0.500  2.877214  113.708  70.5406  3.970826
  5995.703  5995.700  0.500  2.876424  113.643  70.4858  3.970877
  5995.999  5996.000  0.500  2.875456  113.617  70.4844  3.974642
  5996.305  5996.300  0.500  2.874585  113.572  70.4944  3.978673
  5996.602  5996.600  0.500  2.874577  113.54  70.4951  3.978745
  5996.898  5996.900  0.500  2.875857  113.489  70.4769  3.972633
  5997.197  5997.200  0.500  2.878656  113.452  70.4663  3.960932
  5997.499  5997.500  0.500  2.883151  113.414  70.4354  3.941439
  5997.797  5997.800  0.500  2.889794  113.395  70.4088  3.913860
  5998.102  5998.100  0.500  2.897842  113.338  70.4068  3.882375
  5998.402  5998.400  0.500  2.907033  113.302  70.3818  3.845494
  5998.698  5998.700  0.500  2.916582  113.279  70.3766  3.808669
  5999.001  5999.000  0.500  2.925510  113.234  70.3909  3.775579
  5999.300  5999.300  0.500  2.934425  113.201  70.3869  3.741858
  5999.601  5999.600  0.500  2.943499  113.173  70.3813  3.707761
  5999.898  5999.900  0.500  2.952491  113.142  70.3762  3.674307
  6000.204  6000.200  0.500  2.961111  113.104  70.3758  3.642750
  6000.498  6000.500  0.500  2.968769  113.07  70.3422  3.613234
  6000.803  6000.800  0.500  2.975810  113.049  70.3624  3.588913
  6001.103  6001.100  0.500  2.982030  113.008  70.3595  3.566513
  6001.400  6001.400  0.500  2.988085  112.98  70.3383  3.543910
  6001.699  6001.700  0.500  2.993493  112.969  70.2934  3.522550
  6002.002  6002.000  0.500  2.998202  112.941  70.2817  3.505420
  6002.301  6002.300  0.500  3.002958  112.912  70.2797  3.488687
  6002.601  6002.600  0.500  3.007454  112.895  70.3323  3.475636
  6002.901  6002.900  0.500  3.011877  112.854  70.3159  3.459488
  6003.205  6003.200  0.500  3.015899  112.834  70.2903  3.444349
  6003.499  6003.500  0.500  3.019798  112.811  70.3154  3.432171
  6003.799  6003.800  0.500  3.023257  112.804  70.3155  3.420327
  6004.098  6004.100  0.500  3.026994  112.769  70.3024  3.406930
  6004.403  6004.400  0.500  3.030541  112.751  70.2989  3.394699
  6004.701  6004.700  0.500  3.033898  112.698  70.2764  3.382240
  6005.004  6005.000  0.500  3.037204  112.694  70.2706  3.370797
  6005.299  6005.300  0.500  3.040698  112.667  70.2704  3.359029
  6005.603  6005.600  0.500  3.044389  112.665  70.279  3.347066
  6005.899  6005.900  0.500  3.048078  112.641  70.2656  3.334107
  6006.199  6006.200  0.500  3.052112  112.613  70.2838  3.321541
  6006.500  6006.500  0.500  3.055857  112.938  70.5024  3.319419
  6006.801  6006.800  0.500  3.059295  112.95  70.5224  3.308964
  6007.103  6007.100  0.500  3.062958  112.961  70.5426  3.297809
  6007.402  6007.400  0.500  3.066631  112.932  70.5471  3.285928
  6007.703  6007.700  0.500  3.070206  112.934  70.5902  3.276205
  6008.001  6008.000  0.500  3.073984  112.91  70.5527  3.262115
  6008.305  6008.300  0.500  3.077941  112.894  70.5702  3.250040
  6008.600  6008.600  0.500  3.082488  112.883  70.5807  3.235775
  6008.902  6008.900  0.500  3.086836  112.869  70.5562  3.220617
  6009.205  6009.200  0.500  3.090351  112.86  70.543  3.208718
  6009.504  6009.500  0.500  3.092966  112.819  70.5505  3.200676
  6009.804  6009.800  0.500  3.093844  112.809  70.5547  3.198063
  6010.108  6010.100  0.500  3.093170  112.795  70.5404  3.199570
  6010.404  6010.400  0.500  3.090845  112.769  70.5293  3.206511
  6010.701  6010.700  0.500  3.086956  112.763  70.566  3.220677
  6011.004  6011.000  0.500  3.082026  112.745  70.5866  3.237542
  6011.305  6011.300  0.500  3.076251  112.729  70.5899  3.256444
  6011.605  6011.600  0.500  3.069819  112.688  70.5798  3.276991
  6011.906  6011.900  0.500  3.062749  112.693  70.5871  3.300578
  6012.207  6012.200  0.500  3.056266  112.663  70.584  3.321902
  6012.507  6012.500  0.500  3.049941  112.647  70.5845  3.343003
  6012.805  6012.800  0.500  3.044318  112.62  70.5825  3.361757
  6013.108  6013.100  0.500  3.038815  112.623  70.592  3.380766
  6013.401  6013.400  0.500  3.034245  112.589  70.5897  3.396138
  6013.704  6013.700  0.500  3.030301  112.562  70.5836  3.409267
  6014.000  6014.000  0.500  3.027273  112.549  70.5769  3.419277
  6014.199  6014.200  0.500  3.025411  112.543  70.5917  3.426371
  6015.211  6015.190  0.500  3.022232  112.478  70.5945  3.437416
  6016.186  6016.190  0.500  3.025348  112.405  70.5752  3.425785
  6017.204  6017.210  0.500  3.032699  112.348  70.5859  3.401210
  6018.256  6018.260  0.500  3.041409  112.28  70.5906  3.371941
  6019.319  6019.320  0.500  3.047021  112.246  70.5977  3.353407
  6020.400  6020.400  0.500  3.047129  112.147  70.5909  3.352718
  6021.500  6021.500  0.500  3.042522  112.113  70.6125  3.369234
  6022.624  6022.620  0.500  3.035562  112.053  70.6064  3.392472
  6023.765  6023.760  0.500  3.030800  111.973  70.5949  3.408108
  6024.916  6024.910  0.500  3.031059  111.911  70.6276  3.408805
  6026.092  6026.090  0.500  3.036152  111.837  70.5847  3.389430
  6027.281  6027.280  0.500  3.042473  111.785  70.6089  3.369229
  6028.504  6028.500  0.500  3.046742  111.706  70.6325  3.355995
  6029.731  6029.730  0.500  3.049396  111.624  70.6334  3.347143
  6030.982  6030.980  0.500  3.051224  111.554  70.6333  3.341026
  6032.253  6032.250  0.500  3.051423  111.45  70.6181  3.339640
  6033.543  6033.540  0.500  3.050246  111.383  70.6429  3.344752
  6034.855  6034.850  0.500  3.049135  111.287  70.622  3.347476
  6036.182  6036.180  0.500  3.049937  111.212  70.6067  3.344068
  6037.530  6037.530  0.500  3.051830  111.126  70.6176  3.338255
  6038.903  6038.900  0.500  3.053999  111.031  70.6267  3.331453
  6040.280  6040.280  0.500  3.053135  110.951  70.6304  3.334511
  6041.695  6041.690  0.500  3.049434  110.838  70.6133  3.346061
  6043.110  6043.110  0.500  3.044604  110.752  70.6329  3.363199
  6044.556  6044.550  0.500  3.039916  110.653  70.5811  3.376523
  6046.014  6046.010  0.500  3.035863  110.567  70.6056  3.391409
  6047.495  6047.490  0.500  3.030569  110.471  70.6077  3.409519
  6048.998  6048.990  0.500  3.023776  110.349  70.5891  3.431852
  6050.515  6050.510  0.500  3.014419  110.255  70.5884  3.464080
  6052.059  6052.050  0.500  3.003997  110.141  70.5977  3.500829
  6053.620  6053.610  0.500  2.994117  110.013  70.5662  3.534012
  6055.184  6055.180  0.500  2.985159  109.817  70.5076  3.562855
  6056.789  6056.780  0.500  2.977933  109.634  70.4453  3.585519
  6058.396  6058.390  0.500  2.971845  109.447  70.4088  3.605544
  6060.037  6060.030  0.500  2.967020  109.255  70.3255  3.618697
  6061.687  6061.680  0.500  2.964672  109.077  70.2334  3.622451
  6063.359  6063.350  0.500  2.966024  108.916  70.1934  3.615500
  6065.052  6065.040  0.500  2.970425  108.771  70.1822  3.599051
  6066.760  6066.750  0.500  2.976641  108.633  70.1283  3.573999
  6068.488  6068.480  0.500  2.984794  108.5  70.1068  3.543895
  6070.235  6070.230  0.500  2.993033  108.34  70.0796  3.513449
  6071.996  6071.990  0.500  2.996239  108.215  70.091  3.502773
  6073.783  6073.780  0.500  2.991132  108.067  70.0471  3.518504
  6075.590  6075.580  0.500  2.980852  107.908  70.0037  3.552660
  6077.412  6077.410  0.500  2.968580  107.747  69.9683  3.594704
  6079.257  6079.250  0.500  2.955928  107.579  69.9469  3.639364
  6081.119  6081.110  0.500  2.943229  107.424  69.9178  3.684339
  6083.001  6082.990  0.500  2.931800  107.234  69.8728  3.724293
  6084.898  6084.890  0.500  2.924097  107.021  69.8063  3.749516
  6086.820  6086.810  0.500  2.923373  106.841  69.7595  3.749719
  6088.761  6088.750  0.500  2.930762  106.644  69.7185  3.719927
  6090.722  6090.710  0.500  2.944022  106.459  69.6779  3.668787
  6092.688  6092.680  0.500  2.959112  106.26  69.6335  3.611537
  6094.694  6094.680  0.500  2.973698  106.041  69.5341  3.554160
  6096.701  6096.690  0.500  2.986259  105.834  69.4909  3.507615
  6098.729  6098.720  0.500  2.994153  105.623  69.4388  3.477428
  6100.785  6100.780  0.500  2.994137  105.402  69.3813  3.474602
  6102.873  6102.850  0.500  2.984761  105.177  69.2881  3.502623
  6104.953  6104.940  0.500  2.968925  104.929  69.187  3.553343
  6107.056  6107.050  0.500  2.949974  104.663  69.0683  3.615106
  6109.194  6109.180  0.500  2.930858  104.407  69.0081  3.681668
  6111.331  6111.320  0.500  2.913725  104.129  68.9095  3.739937
  6113.503  6113.490  0.500  2.901800  103.884  68.8328  3.780590
  6115.692  6115.680  0.500  2.895064  103.599  68.7215  3.799988
  6117.891  6117.880  0.500  2.892250  103.308  68.584  3.803071
  6120.109  6120.100  0.500  2.892086  103.013  68.4639  3.797034
  6122.362  6122.350  0.500  2.892333  102.717  68.3489  3.789722
  6124.624  6124.610  0.500  2.890855  102.408  68.2293  3.788686
  6126.905  6126.890  0.500  2.886088  102.099  68.1386  3.801729
  6129.203  6129.190  0.500  2.879212  101.773  68.0006  3.820207
  6131.523  6131.510  0.500  2.872184  101.433  67.8481  3.838522
  6133.864  6133.850  0.500  2.866285  101.096  67.7011  3.852865
  6136.214  6136.200  0.500  2.862838  100.749  67.558  3.857998
  6138.593  6138.580  0.500  2.861602  100.374  67.3908  3.853209
  6140.981  6140.970  0.500  2.860519  99.9805  67.2328  3.848344
  6143.412  6143.390  0.500  2.859423  99.5572  67.0306  3.840974
  6145.834  6145.820  0.500  2.859759  99.1288  66.8153  3.827351
  6148.295  6148.270  0.500  2.862156  98.7007  66.595  3.805600
  6150.773  6150.750  0.500  2.864073  98.2254  66.3367  3.783577
  6153.263  6153.240  0.500  2.863500  97.6549  66.0317  3.768340
  6155.775  6155.750  0.500  2.862337  96.943  65.6432  3.750528
  6158.292  6158.270  0.500  2.863618  95.8021  64.9824  3.708022
  6160.843  6160.820  0.500  2.868712  89.2697  60.6371  3.442488
  6163.414  6163.390  0.500  2.874787  96.2043  65.4267  3.691906
  6165.982  6165.970  0.500  2.876883  94.4719  64.2956  3.620487
  6168.593  6168.580  0.500  2.871922  93.6372  63.8453  3.613009
  6171.228  6171.200  0.500  2.861525  96.5409  65.934  3.770206
  6173.845  6173.850  0.500  2.848770  95.5804  65.3606  3.785391
  6176.505  6176.510  0.500  2.836238  94.9052  64.9894  3.811360
  6179.182  6179.190  0.500  2.825498  94.3171  64.6831  3.834358
  6181.904  6181.890  0.500  2.816256  93.7558  64.3766  3.851623
  6184.601  6184.610  0.500  2.808977  93.1772  64.0493  3.860031
  6187.341  6187.350  0.500  2.804040  92.6007  63.7601  3.861622
  6190.097  6190.100  0.500  2.799897  92.0473  63.477  3.860435
  6192.876  6192.880  0.500  2.795331  91.4682  63.1625  3.858890
  6195.692  6195.670  0.500  2.790521  90.8869  62.8617  3.859031
  6198.481  6198.490  0.500  2.785539  90.3127  62.5514  3.859162
  6201.309  6201.320  0.500  2.780940  89.7337  62.2206  3.856443
  6204.174  6204.170  0.500  2.776420  89.1471  61.8859  3.853080
  6207.041  6207.050  0.500  2.770880  88.5497  61.5757  3.855063
  6209.970  6209.940  0.500  2.763832  87.9366  61.2554  3.862137
  6212.854  6212.850  0.500  2.756742  87.3385  60.9047  3.867343
  6215.758  6215.770  0.500  2.751297  86.7138  60.5485  3.865718
  6218.724  6218.720  0.500  2.748734  86.0954  60.187  3.852503
  6221.684  6221.690  0.500  2.748374  85.4617  59.8537  3.832548
  6224.663  6224.670  0.500  2.749343  84.839  59.5306  3.808165
  6227.672  6227.680  0.500  2.751050  84.2147  59.1864  3.779688
  6230.684  6230.700  0.500  2.753355  83.5737  58.8233  3.747852
  6233.736  6233.750  0.500  2.755916  82.9333  58.4349  3.713582
  6236.798  6236.810  0.500  2.757956  82.2836  58.0599  3.682232
  6239.903  6239.890  0.500  2.759431  81.652  57.6919  3.653500
  6243.003  6242.990  0.500  2.758962  80.9911  57.3256  3.632005
  6246.119  6246.110  0.500  2.755558  80.3233  56.9432  3.620081
  6249.259  6249.250  0.500  2.748834  79.6623  56.5651  3.620304
  6252.408  6252.400  0.500  2.737938  79.0018  56.1825  3.635213
  6255.588  6255.580  0.500  2.724520  78.3464  55.8422  3.662000
  6258.780  6258.770  0.500  2.712052  77.689  55.4427  3.681417
  6262.002  6261.990  0.500  2.703178  77.0231  55.0606  3.688635
  6265.230  6265.220  0.500  2.698100  76.3625  54.6466  3.679539
  6268.464  6268.470  0.500  2.694245  75.72  54.2584  3.667505
  6271.775  6271.750  0.500  2.690483  75.0553  53.8738  3.655238
  6275.049  6275.040  0.500  2.685713  74.3971  53.4855  3.646247
  6278.364  6278.350  0.500  2.680713  73.7607  53.1033  3.638334
  6281.688  6281.670  0.500  2.676324  73.1203  52.7715  3.631504
  6285.035  6285.020  0.500  2.672941  72.4699  52.3732  3.616308
  6288.383  6288.390  0.500  2.669568  71.8219  51.9871  3.601780
  6291.767  6291.770  0.500  2.665721  71.1769  51.5788  3.587267
  6295.197  6295.180  0.500  2.660809  70.7228  51.3385  3.588136
  6298.595  6298.600  0.500  2.654582  70.106  50.9822  3.585491
  6302.036  6302.050  0.500  2.648702  69.4652  50.5788  3.578099
  6305.502  6305.510  0.500  2.643922  68.8492  50.2246  3.570060
  6308.991  6308.990  0.500  2.639970  68.2227  49.8517  3.557589
  6312.476  6312.490  0.500  2.636616  67.6024  49.482  3.543072
  6316.012  6316.010  0.500  2.634292  66.9804  49.1116  3.524730
  6319.537  6319.550  0.500  2.633542  66.3562  48.7319  3.500103
  6323.089  6323.100  0.500  2.632857  65.724  48.3346  3.473941
  6326.684  6326.680  0.500  2.630860  65.1134  47.9642  3.454215
  6330.261  6330.280  0.500  2.627830  64.5144  47.6081  3.438971
  6333.866  6333.890  0.500  2.624591  63.9197  47.2552  3.424556
  6337.499  6337.520  0.500  2.620647  63.3183  46.8935  3.411773
  6341.169  6341.180  0.500  2.616066  62.7295  46.5136  3.399669
  6344.837  6344.850  0.500  2.610061  62.1408  46.1552  3.393797
  6348.531  6348.540  0.500  2.603856  61.5573  45.8017  3.388766
  6352.239  6352.250  0.500  2.598017  60.9757  45.4534  3.382685
  6355.957  6355.980  0.500  2.592077  60.402  45.1152  3.377520
  6359.701  6359.720  0.500  2.585254  59.8419  44.7805  3.375416
  6363.478  6363.490  0.500  2.577964  59.2704  44.4289  3.373418
  6367.267  6367.280  0.500  2.571095  58.7133  44.0924  3.370944
  6371.074  6371.080  0.500  2.565397  58.1601  43.7389  3.363026
  6374.895  6374.910  0.500  2.560928  57.6182  43.3925  3.351334
  6378.744  6378.750  0.500  2.557009  57.0708  43.0559  3.338393
  6382.596  6382.610  0.500  2.553383  56.537  42.7343  3.325495
  6386.476  6386.490  0.500  2.548840  56.0092  42.4198  3.316057
  6390.371  6390.390  0.500  2.543991  55.4803  42.0836  3.305763
  6394.315  6394.310  0.500  2.539365  54.9631  41.7704  3.296373
  6398.266  6398.250  0.500  2.535289  54.443  41.4505  3.284490
  6402.192  6402.210  0.500  2.531347  53.9253  41.1273  3.271751
  6406.172  6406.180  0.500  2.527584  53.409  40.8087  3.258648
  6410.168  6410.180  0.500  2.522987  52.9122  40.4976  3.248703
  6414.173  6414.190  0.500  2.518311  52.4153  40.1944  3.239494
  6418.221  6418.230  0.500  2.513195  51.9156  39.8817  3.230777
  6422.280  6422.280  0.500  2.508230  51.4134  39.5628  3.220896
  6426.330  6426.350  0.500  2.503904  50.9141  39.2438  3.208775
  6430.424  6430.440  0.500  2.500545  50.4176  38.9282  3.193681
  6434.530  6434.550  0.500  2.497337  49.9216  38.6169  3.178316
  6438.678  6438.680  0.500  2.494025  49.4352  38.3201  3.164354
  6442.827  6442.830  0.500  2.489719  48.9594  38.0169  3.152870
  6446.976  6446.990  0.500  2.484644  48.4978  37.7293  3.144935
  6451.164  6451.180  0.500  2.478712  48.0037  37.4121  3.137046
  6455.387  6455.380  0.500  2.472837  47.5809  37.1524  3.133627
  6459.585  6459.610  0.500  2.466942  46.991  36.74  3.117162
  6463.834  6463.850  0.500  2.461681  46.6395  36.5232  3.115120
  6468.089  6468.110  0.500  2.456668  46.1609  36.2339  3.105970
  6472.378  6472.390  0.500  2.451925  45.7376  35.9716  3.098151
  6476.673  6476.690  0.500  2.447069  45.2762  35.6593  3.086199
  6481.000  6481.010  0.500  2.441609  44.8666  35.3939  3.080003
  6485.332  6485.350  0.500  2.436163  44.4335  35.1236  3.073167
  6489.693  6489.710  0.500  2.431462  44.0074  34.852  3.063774
  6494.124  6494.090  0.500  2.427205  43.5802  34.5758  3.052460
  6498.460  6498.480  0.500  2.423082  43.1633  34.3173  3.042161
  6502.880  6502.900  0.500  2.418798  42.7506  34.043  3.030797
  6507.318  6507.330  0.500  2.413895  42.3411  33.7838  3.022502
  6511.812  6511.780  0.500  2.408396  41.9351  33.52  3.015440
  6516.240  6516.250  0.500  2.402768  41.5309  33.2516  3.008177
  6520.743  6520.740  0.500  2.397625  41.1479  33.0035  3.001126
  6525.231  6525.250  0.500  2.392337  40.7468  32.7378  2.992754
  6529.766  6529.780  0.500  2.387111  40.3596  32.4891  2.985582
  6534.321  6534.330  0.500  2.382442  39.9723  32.2471  2.977207
  6538.888  6538.900  0.500  2.377748  39.5808  31.9859  2.966989
  6543.478  6543.480  0.500  2.373274  39.2049  31.7463  2.957972
  6548.067  6548.090  0.500  2.368983  38.8248  31.504  2.948013
  6552.695  6552.710  0.500  2.364708  38.4526  31.2652  2.938204
  6557.348  6557.360  0.500  2.360386  38.0812  31.0135  2.927170
  6562.027  6562.020  0.500  2.355662  37.6736  30.7356  2.914679
  6566.684  6566.700  0.500  2.350676  37.3595  30.5374  2.910358
  6571.385  6571.400  0.500  2.345555  37.0041  30.297  2.902266
  6576.105  6576.120  0.500  2.340619  36.6616  30.0866  2.896377
  6580.832  6580.860  0.500  2.335076  36.3186  29.8616  2.890694
  6585.588  6585.610  0.500  2.330029  35.9653  29.6265  2.882450
  6590.375  6590.390  0.500  2.324495  35.6237  29.3965  2.875941
  6595.199  6595.190  0.500  2.319480  35.2884  29.1825  2.869358
  6599.981  6600.000  0.500  2.314315  34.9566  28.9651  2.862732
  6604.832  6604.830  0.500  2.309349  34.6223  28.7393  2.854562
  6609.671  6609.690  0.500  2.304419  34.3067  28.524  2.847178
  6614.543  6614.560  0.500  2.299119  33.9817  28.3132  2.841150
  6619.435  6619.450  0.500  2.294649  33.6549  28.096  2.831986
  6624.350  6624.360  0.500  2.289765  33.3322  27.8703  2.822993
  6629.267  6629.290  0.500  2.284905  33.0134  27.657  2.815035
  6634.215  6634.230  0.500  2.279772  32.701  27.4477  2.808107
  6639.181  6639.200  0.500  2.274621  32.3948  27.2435  2.801610
  6644.173  6644.190  0.500  2.269377  32.0774  27.0184  2.793066
  6649.175  6649.190  0.500  2.264082  31.7696  26.8187  2.787143
  6654.205  6654.220  0.500  2.259120  31.4627  26.6195  2.780203
  6659.245  6659.260  0.500  2.253889  31.1572  26.4096  2.772751
  6664.301  6664.320  0.500  2.248647  30.8519  26.1983  2.765019
  6669.385  6669.400  0.500  2.243549  30.5485  25.9876  2.756795
  6674.480  6674.500  0.500  2.238874  30.2501  25.7823  2.747839
  6679.601  6679.620  0.500  2.233914  29.9508  25.5808  2.739924
  6684.745  6684.760  0.500  2.228978  29.657  25.3802  2.731885
  6689.900  6689.920  0.500  2.224147  29.3669  25.1779  2.723238
  6695.094  6695.100  0.500  2.219203  29.0619  24.9564  2.712656
  6700.277  6700.290  0.500  2.214525  28.7717  24.7557  2.703451
  6705.491  6705.510  0.500  2.209699  28.4832  24.5588  2.694925
  6710.730  6710.740  0.500  2.204745  28.1871  24.3516  2.685467
  6715.973  6715.990  0.500  2.199980  27.9069  24.1596  2.677017
  6721.239  6721.260  0.500  2.195044  27.62  23.9577  2.667779
  6726.533  6726.550  0.500  2.190317  27.3329  23.7509  2.657276
  6731.840  6731.860  0.500  2.184910  27.0378  23.5428  2.648273
  6737.173  6737.190  0.500  2.179802  26.757  23.3435  2.639308
  6742.522  6742.540  0.500  2.174488  26.4737  23.1434  2.630631
  6747.886  6747.910  0.500  2.169449  26.1877  22.9426  2.620975
  6753.270  6753.290  0.500  2.164663  25.9182  22.7455  2.610927
  6758.677  6758.700  0.500  2.159233  25.6441  22.5448  2.601981
  6764.105  6764.120  0.500  2.154442  25.3603  22.3408  2.590810
  6769.557  6769.570  0.500  2.148999  25.0932  22.1479  2.582463
  6775.012  6775.030  0.500  2.143987  24.816  21.9486  2.572087
  6780.493  6780.510  0.500  2.138587  24.5393  21.7424  2.561720
  6785.992  6786.010  0.500  2.133633  24.2656  21.5419  2.550703
  6791.508  6791.530  0.500  2.128614  23.9881  21.337  2.539146
  6797.055  6797.070  0.500  2.123406  23.6727  21.0939  2.523325
  6802.606  6802.620  0.500  2.118335  23.4768  20.9597  2.520015
  6808.188  6808.200  0.500  2.113289  23.2339  20.7817  2.511259
  6813.782  6813.800  0.500  2.108143  22.7461  20.3833  2.475826
  6819.395  6819.410  0.500  2.102996  22.6082  20.2951  2.477827
  6825.033  6825.050  0.500  2.098021  21.918  19.7219  2.419858
  6830.691  6830.700  0.500  2.093017  21.6549  19.5248  2.407690
  6836.355  6836.370  0.500  2.087871  22.0688  19.9363  2.471120
  6842.040  6842.060  0.500  2.083063  21.5481  19.5036  2.429138