File: xdidata/Cr/Cr-K-K2CrO4.xdi
# XDI/1.0 BlueSky/1.5.3
# Beamline.name: 6BM
# Beamline.xray_source: NSLS-II three-pole wiggler
# Beamline.collimation: paraboloid mirror, 5 nm Rh on 30 nm Pt
# Beamline.focusing: not in use
# Beamline.harmonic_rejection: flat mirror, Si stripe, pitch = 7.0 mrad relative to beam
# Detector.i0: 10 cm N2
# Detector.i1: 25 cm N2
# Detector.i2: 25 cm N2
# Element.symbol: Cr
# Element.edge: K
# Facility.name: NSLS-II
# Facility.energy: 3.0
# Facility.current: 400.1
# Facility.mode: top-off
# Facility.gup: 305832
# Facility.saf: 305669
# Facility.cycle: 2020-1
# Mono.name: Si(111)
# Mono.d_spacing: 3.13532
# Mono.encoder_resolution: 0.0000050 deg/ct
# Mono.angle_offset: 16.0581 deg
# Mono.scan_mode: fixed exit
# Mono.scan_type: step
# Mono.direction: forward in energy
# Sample.name: K2CrO4
# Sample.prep: Powder in polyethylene glycol pellet
# Sample.x_position: -3.945 mm
# Sample.y_position: 103.894 mm
# Scan.experimenters: Neil Hyatt, Martin Stennett, Dan Austin, Seb Lawson
# Scan.edge_energy: 5989.2
# Scan.start_time: 2020-03-02T23:18:07
# Scan.end_time: 2020-03-03T03:41:44
# Scan.transient_id: 22521
# Scan.uid: f8c83910-4adb-4207-a465-9ff0ff0e9cd2
# Scan.plot_hint: (DTC1 + DTC2 + DTC3 + DTC4) / I0  --  ($8+$9+$10+$11) / $5
# Scan.sequence: merge of 2 scans
# Column.1: energy eV
# Column.2: requested_energy eV
# Column.3: measurement_time seconds
# Column.4: mutrans
# Column.5: i0
# Column.6: itrans
# Column.7: irefer
# /////
#  -200  -30  -10 30 14k
# -----
# energy   requested_energy   measurement_time   mutrans   i0   itrans   irefer
5789.2 5789.2 1.000000 0.013947 83.2833 6.873608 1.093140
5799.21 5799.2 1.000000 0.007422 83.3178 6.984501 1.120928
5809.22 5809.2 1.000000 0.032203 83.3099 7.092089 1.148710
5819.21 5819.2 1.000000 0.018128 83.2307 7.193532 1.173646
5829.21 5829.2 1.000000 0.012874 83.3273 7.311326 1.204182
5839.21 5839.2 1.000000 0.007460 83.2561 7.414406 1.228570
5849.21 5849.2 1.000000 0.037013 83.1339 7.515439 1.256537
5859.21 5859.2 1.000000 0.042435 82.9545 7.610227 1.282443
5869.21 5869.2 1.000000 0.033651 81.2678 7.566477 1.285461
5879.21 5879.2 1.000000 0.024969 83.4468 7.881159 1.350839
5889.2 5889.2 1.000000 0.018981 83.0719 7.962244 1.376566
5899.2 5899.2 1.000000 0.027041 82.7616 8.044992 1.401464
5909.18 5909.2 1.000000 0.032813 82.3525 8.121716 1.426096
5919.19 5919.2 1.000000 0.041316 63.9379 6.395324 1.127489
5929.2 5929.2 1.000000 0.031491 80.7555 8.190799 1.460264
5939.2 5939.2 1.000000 0.024740 81.5014 8.380529 1.506710
5949.2 5949.2 1.000000 0.050225 82.9065 8.641899 1.566804
5959.2 5959.2 1.000000 0.037962 82.2814 8.693710 1.588107
5961.19 5961.2 1.000000 0.024338 82.176 8.705099 1.590645
5963.19 5963.2 1.000000 0.020521 82.0485 8.716684 1.596374
5965.19 5965.2 1.000000 0.012440 81.9456 8.728870 1.602331
5967.19 5967.2 1.000000 0.040811 81.8541 8.741371 1.606214
5969.19 5969.2 1.000000 0.038002 81.7561 8.752943 1.611369
5971.2 5971.2 1.000000 0.024773 81.6421 8.763773 1.615332
5973.2 5973.2 1.000000 0.025808 81.5295 8.773916 1.618184
5975.19 5975.2 1.000000 0.037582 81.4091 8.784790 1.623511
5977.2 5977.2 1.000000 0.038191 81.3018 8.793608 1.625818
5979.21 5979.2 1.000000 0.062941 81.18 8.801808 1.629064
5979.44 5979.45 1.000000 0.037025 81.1177 8.797624 1.628975
5979.69 5979.7 1.000000 0.026233 81.1491 8.803150 1.629229
5979.94 5979.95 1.000000 0.045733 81.0914 8.798533 1.629232
5980.19 5980.2 1.000000 0.018606 81.0587 8.798887 1.629948
5980.44 5980.45 1.000000 0.007983 81.044 8.799667 1.629083
5980.69 5980.7 1.000000 0.038300 81.0166 8.799035 1.630615
5980.94 5980.95 1.000000 0.025785 81.0195 8.801946 1.631462
5981.19 5981.2 1.000000 0.038186 80.9554 8.796761 1.629203
5981.44 5981.45 1.000000 0.021693 80.9677 8.799753 1.630995
5981.69 5981.7 1.000000 0.037247 80.9148 8.797772 1.632342
5981.94 5981.95 1.000000 0.072286 81.0358 8.813422 1.633800
5982.19 5982.2 1.000000 0.027487 81.0065 8.812173 1.634343
5982.44 5982.45 1.000000 0.039268 80.9857 8.810693 1.634073
5982.69 5982.7 1.000000 0.040279 80.9476 8.808627 1.632403
5982.94 5982.95 1.000000 0.031639 80.9113 8.808217 1.632896
5983.19 5983.2 1.000000 0.019700 80.8963 8.809386 1.631820
5983.45 5983.45 1.000000 0.019972 80.8787 8.808559 1.633448
5983.7 5983.7 1.000000 0.018695 80.8472 8.807474 1.634757
5983.95 5983.95 1.000000 0.057560 80.777 8.802612 1.632189
5984.2 5984.2 1.000000 0.013804 80.7416 8.798869 1.631436
5984.45 5984.45 1.000000 0.019939 80.7232 8.798055 1.632256
5984.7 5984.7 1.000000 0.048428 80.6986 8.797368 1.630202
5984.95 5984.95 1.000000 0.037341 80.6309 8.790756 1.630209
5985.2 5985.2 1.000000 0.019789 80.5705 8.786005 1.628548
5985.45 5985.45 1.000000 0.050542 80.5172 8.782383 1.628226
5985.7 5985.7 1.000000 0.044324 80.4689 8.776874 1.625823
5985.95 5985.95 1.000000 0.057892 80.3987 8.769247 1.623599
5986.2 5986.2 1.000000 0.020844 80.3569 8.766219 1.624462
5986.44 5986.45 1.000000 0.032236 80.2772 8.759038 1.620742
5986.7 5986.7 1.000000 0.013617 80.2076 8.751810 1.618770
5986.95 5986.95 1.000000 0.048073 80.1099 8.740380 1.618593
5987.2 5987.2 1.000000 0.025954 80.0318 8.731766 1.616147
5987.45 5987.45 1.000000 0.053640 79.9315 8.719502 1.610931
5987.7 5987.7 1.000000 0.012531 79.8065 8.703681 1.604627
5987.95 5987.95 1.000000 0.018890 79.6633 8.687603 1.599766
5988.2 5988.2 1.000000 0.012665 79.502 8.667347 1.594625
5988.44 5988.45 1.000000 0.047329 79.2855 8.641055 1.578259
5988.7 5988.7 1.000000 0.058647 79.0578 8.611569 1.565964
5988.95 5988.95 1.000000 0.032921 78.7811 8.576950 1.546884
5989.2 5989.2 1.000000 0.059858 78.4155 8.532213 1.520824
5989.45 5989.45 1.000000 0.046052 77.9268 8.469937 1.492717
5989.7 5989.7 1.000000 0.038722 77.2815 8.389095 1.461694
5989.95 5989.95 1.000000 0.055485 76.3228 8.271373 1.429916
5990.21 5990.2 1.000000 0.006679 74.9303 8.103708 1.390552
5990.45 5990.45 1.000000 0.049686 72.8259 7.857711 1.341140
5990.7 5990.7 1.000000 0.036561 69.5497 7.479358 1.273061
5990.95 5990.95 1.000000 0.025181 65.2784 6.989758 1.181821
5991.2 5991.2 1.000000 0.027218 61.2305 6.512804 1.093270
5991.45 5991.45 1.000000 0.038580 59.1868 6.230560 1.038099
5991.7 5991.7 1.000000 0.000000 60.1256 6.236607 1.030978
5991.95 5991.95 1.000000 0.051183 64.1313 6.521756 1.066502
5992.2 5992.2 1.000000 0.006990 70.5871 6.989316 1.138629
5992.45 5992.45 1.000000 0.054800 76.3828 7.263307 1.183255
5992.7 5992.7 1.000000 0.019321 79.5453 7.114981 1.158467
5992.95 5992.95 1.000000 0.057180 80.8088 6.683572 1.083998
5993.2 5993.2 1.000000 0.050827 81.2925 6.250537 1.011239
5993.45 5993.45 1.000000 0.024490 81.5135 6.051624 0.972366
5993.7 5993.7 1.000000 0.042921 81.592 6.188238 0.988110
5993.95 5993.95 1.000000 0.012297 81.614 6.613356 1.053104
5994.2 5994.2 1.000000 0.044525 81.6258 7.155780 1.139881
5994.45 5994.45 1.000000 0.037680 81.6546 7.654805 1.219794
5994.7 5994.7 1.000000 0.039357 81.7263 8.030930 1.278672
5994.95 5994.95 1.000000 0.050139 81.6958 8.265099 1.317096
5995.2 5995.2 1.000000 0.018660 81.665 8.418669 1.344195
5995.45 5995.45 1.000000 0.043104 81.629 8.516166 1.359955
5995.7 5995.7 1.000000 0.024614 81.5881 8.582641 1.371430
5995.95 5995.95 1.000000 0.028057 81.5704 8.631816 1.379289
5996.2 5996.2 1.000000 0.006147 81.5222 8.665184 1.384705
5996.45 5996.45 1.000000 0.032317 81.4788 8.688154 1.387209
5996.7 5996.7 1.000000 0.039516 81.459 8.703817 1.391619
5996.95 5996.95 1.000000 0.049813 81.4166 8.707211 1.384778
5997.2 5997.2 1.000000 0.030897 81.3855 8.704263 1.376758
5997.45 5997.45 1.000000 0.062228 81.3608 8.693851 1.367205
5997.7 5997.7 1.000000 0.024773 81.3211 8.678516 1.355229
5997.95 5997.95 1.000000 0.063938 81.2774 8.659892 1.343387
5998.2 5998.2 1.000000 0.026413 81.2675 8.640465 1.329200
5998.45 5998.45 1.000000 0.038733 81.2178 8.609806 1.315718
5998.7 5998.7 1.000000 0.025486 81.181 8.572837 1.298884
5998.95 5998.95 1.000000 0.038235 81.1475 8.529920 1.282085
5999.2 5999.2 1.000000 0.026144 81.1347 8.483393 1.265090
5999.45 5999.45 1.000000 0.046475 81.1054 8.436596 1.250752
5999.7 5999.7 1.000000 0.059583 81.0826 8.394141 1.233782
5999.95 5999.95 1.000000 0.037029 81.0554 8.356043 1.220277
6000.2 6000.2 1.000000 0.056507 81.0386 8.324331 1.207519
6000.46 6000.45 1.000000 0.049862 81.0318 8.300570 1.199455
6000.7 6000.7 1.000000 0.031624 81.0057 8.284206 1.188483
6000.95 6000.95 1.000000 0.037611 81.0016 8.278845 1.177841
6001.2 6001.2 1.000000 0.070138 80.9558 8.279219 1.175187
6001.45 6001.45 1.000000 0.039245 80.962 8.291558 1.172221
6001.7 6001.7 1.000000 0.050767 80.929 8.305844 1.169675
6001.95 6001.95 1.000000 0.031187 80.9059 8.320495 1.166916
6002.2 6002.2 1.000000 0.057878 80.8765 8.331758 1.164487
6002.45 6002.45 1.000000 0.059301 80.8831 8.341595 1.161353
6002.71 6002.7 1.000000 0.047511 80.8578 8.346350 1.158279
6002.95 6002.95 1.000000 0.032187 80.8353 8.347568 1.149841
6003.2 6003.2 1.000000 0.038136 80.8132 8.344159 1.149632
6003.45 6003.45 1.000000 0.020386 80.8039 8.337726 1.143684
6003.7 6003.7 1.000000 0.064162 80.7813 8.324296 1.138439
6003.95 6003.95 1.000000 0.057090 80.7702 8.306833 1.134671
6004.2 6004.2 1.000000 0.030966 80.8235 8.288600 1.129080
6004.45 6004.45 1.000000 0.033249 80.8669 8.265543 1.119724
6004.7 6004.7 1.000000 0.045422 80.8514 8.230827 1.113537
6004.95 6004.95 1.000000 0.019713 80.8124 8.190185 1.106063
6005.2 6005.2 1.000000 0.018737 80.8081 8.146092 1.094181
6005.45 6005.45 1.000000 0.050901 80.8036 8.093267 1.085784
6005.7 6005.7 1.000000 0.026160 80.785 8.028004 1.070350
6005.95 6005.95 1.000000 0.073323 80.7773 7.949529 1.059881
6006.2 6006.2 1.000000 0.066055 80.7294 7.846905 1.041341
6006.45 6006.45 1.000000 0.064522 80.7331 7.734031 1.023621
6006.7 6006.7 1.000000 0.031081 80.6985 7.609850 1.004354
6006.95 6006.95 1.000000 0.030993 80.6763 7.481061 0.984453
6007.2 6007.2 1.000000 0.049731 80.6635 7.354874 0.965293
6007.45 6007.45 1.000000 0.025751 80.6712 7.232780 0.946381
6007.7 6007.7 1.000000 0.038227 80.6429 7.115453 0.927790
6007.95 6007.95 1.000000 0.031061 80.6185 7.011690 0.909736
6008.2 6008.2 1.000000 0.019817 80.5952 6.921307 0.895885
6008.45 6008.45 1.000000 0.084444 80.573 6.845877 0.881842
6008.7 6008.7 1.000000 0.063696 80.5743 6.782400 0.873013
6008.95 6008.95 1.000000 0.012424 80.5775 6.729058 0.864327
6009.2 6009.2 1.000000 0.061383 80.5587 6.683672 0.854217
6009.45 6009.45 1.000000 0.044943 80.5458 6.649014 0.848088
6009.7 6009.7 1.000000 0.064010 80.5248 6.622712 0.847490
6009.96 6009.95 1.000000 0.049760 80.5009 6.603641 0.844075
6010.2 6010.2 1.000000 0.051628 80.4972 6.590697 0.845998
6010.45 6010.45 1.000000 0.045618 80.4722 6.578951 0.847104
6010.7 6010.7 1.000000 0.044898 80.463 6.572003 0.850933
6010.95 6010.95 1.000000 0.021062 80.4578 6.567101 0.854912
6011.2 6011.2 1.000000 0.043486 80.4395 6.564159 0.857534
6011.45 6011.45 1.000000 0.044764 80.426 6.565081 0.861733
6011.7 6011.7 1.000000 0.025685 80.4026 6.567569 0.867029
6011.95 6011.95 1.000000 0.034003 80.3789 6.572373 0.871737
6012.2 6012.2 1.000000 0.047338 80.3684 6.581953 0.877585
6012.46 6012.45 1.000000 0.025587 80.3635 6.592978 0.884974
6012.7 6012.7 1.000000 0.044236 80.3456 6.602524 0.889164
6012.95 6012.95 1.000000 0.067371 80.3287 6.610927 0.891372
6013.2 6013.2 1.000000 0.032677 80.3238 6.618952 0.899223
6013.45 6013.45 1.000000 0.024903 80.3142 6.622296 0.900503
6013.7 6013.7 1.000000 0.037756 80.2989 6.623425 0.902892
6013.95 6013.95 1.000000 0.051424 80.2765 6.620664 0.903207
6014.2 6014.2 1.000000 0.050744 80.2637 6.615347 0.903598
6014.45 6014.45 1.000000 0.025562 80.2629 6.609795 0.904302
6014.7 6014.7 1.000000 0.083639 80.2378 6.599117 0.899628
6014.95 6014.95 1.000000 0.050327 80.2239 6.586090 0.901309
6015.2 6015.2 1.000000 0.051501 80.2013 6.569460 0.897427
6015.45 6015.45 1.000000 0.089135 80.1842 6.549525 0.894260
6015.7 6015.7 1.000000 0.051118 80.1687 6.526808 0.889758
6015.95 6015.95 1.000000 0.031856 80.1607 6.505912 0.886439
6016.2 6016.2 1.000000 0.018682 80.153 6.484727 0.881034
6016.45 6016.45 1.000000 0.057492 80.1476 6.463604 0.878587
6016.7 6016.7 1.000000 0.025236 80.0921 6.439955 0.871772
6016.95 6016.95 1.000000 0.051331 80.2058 6.434218 0.868370
6017.2 6017.2 1.000000 0.006354 80.2101 6.422909 0.865462
6017.45 6017.45 1.000000 0.012528 80.1883 6.412222 0.862160
6017.7 6017.7 1.000000 0.057896 80.1695 6.403814 0.859651
6017.95 6017.95 1.000000 0.012509 80.1565 6.395777 0.855939
6018.2 6018.2 1.000000 0.057575 80.1581 6.392359 0.855806
6018.45 6018.45 1.000000 0.067080 80.1485 6.385406 0.852810
6018.7 6018.7 1.000000 0.026252 80.1272 6.376370 0.850693
6018.95 6018.95 1.000000 0.039567 80.1072 6.366886 0.847274
6019.2 6019.2 1.000000 0.059001 80.1051 6.357636 0.846256
6020.3 6020.28 1.000000 0.025279 80.0397 6.299668 0.838102
6021.38 6021.38 1.000000 0.032087 79.9871 6.242056 0.835018
6022.5 6022.49 1.000000 0.031272 79.9083 6.219675 0.837389
6023.64 6023.63 1.000000 0.051910 79.8735 6.228767 0.838423
6024.79 6024.78 1.000000 0.056786 79.8021 6.235304 0.841601
6025.96 6025.96 1.000000 0.054816 79.7496 6.234546 0.837421
6027.16 6027.15 1.000000 0.058076 79.6686 6.217845 0.825575
6028.36 6028.36 1.000000 0.033431 79.6043 6.206359 0.822118
6029.6 6029.59 1.000000 0.018806 79.5848 6.203431 0.818949
6030.85 6030.84 1.000000 0.039955 79.5165 6.196059 0.815854
6032.12 6032.11 1.000000 0.040339 79.4325 6.185055 0.815900
6033.4 6033.4 1.000000 0.031672 79.383 6.163435 0.811168
6034.72 6034.71 1.000000 0.051525 79.2942 6.119104 0.805833
6036.03 6036.03 1.000000 0.051948 79.2399 6.072958 0.801595
6037.39 6037.38 1.000000 0.039690 79.1625 6.032953 0.793842
6038.74 6038.74 1.000000 0.045394 79.104 6.017596 0.788767
6040.14 6040.13 1.000000 0.040054 79.0121 6.034169 0.791715
6041.53 6041.53 1.000000 0.052483 78.9551 6.088733 0.797992
6042.96 6042.95 1.000000 0.044489 78.8906 6.165577 0.814167
6044.4 6044.39 1.000000 0.059827 78.794 6.254857 0.829596
6045.85 6045.85 1.000000 0.053914 78.7423 6.351966 0.842699
6047.34 6047.33 1.000000 0.044872 78.6788 6.413716 0.855308
6048.84 6048.83 1.000000 0.012875 78.5748 6.447031 0.866202
6050.34 6050.34 1.000000 0.045170 78.5371 6.500955 0.880338
6051.89 6051.88 1.000000 0.034107 78.5489 6.555921 0.896278
6053.44 6053.44 1.000000 0.044774 78.4416 6.588622 0.908973
6055.02 6055.01 1.000000 0.091640 78.3218 6.614860 0.920381
6056.61 6056.6 1.000000 0.053490 78.1647 6.645862 0.929583
6058.22 6058.21 1.000000 0.065280 78.0348 6.684130 0.941833
6059.86 6059.85 1.000000 0.048293 77.9049 6.721625 0.949728
6061.51 6061.5 1.000000 0.051321 77.7606 6.754239 0.956447
6063.18 6063.17 1.000000 0.045542 77.6583 6.786718 0.957429
6064.86 6064.85 1.000000 0.065238 77.5649 6.813606 0.955558
6066.57 6066.56 1.000000 0.067384 77.4556 6.829980 0.949860
6068.3 6068.29 1.000000 0.046588 77.3499 6.836465 0.942472
6070.03 6070.03 1.000000 0.060467 77.2469 6.835805 0.934010
6071.81 6071.8 1.000000 0.039634 77.1398 6.828007 0.930375
6073.59 6073.58 1.000000 0.060011 77.0604 6.820109 0.933619
6075.39 6075.38 1.000000 0.055824 76.9328 6.807853 0.941207
6077.2 6077.2 1.000000 0.053598 76.8325 6.797322 0.949036
6079.05 6079.04 1.000000 0.048252 76.7046 6.787614 0.959874
6080.91 6080.9 1.000000 0.034820 76.5814 6.781043 0.970136
6082.79 6082.78 1.000000 0.020349 76.4522 6.777708 0.979974
6084.68 6084.68 1.000000 0.061298 76.3169 6.778067 0.986429
6086.61 6086.6 1.000000 0.053397 76.2002 6.784855 0.986444
6088.55 6088.53 1.000000 0.053453 76.0364 6.790055 0.975290
6090.5 6090.49 1.000000 0.033592 75.9271 6.798627 0.966107
6092.47 6092.46 1.000000 0.069595 75.7819 6.799693 0.950378
6094.47 6094.46 1.000000 0.047764 75.6345 6.796729 0.936385
6096.47 6096.47 1.000000 0.074915 75.4497 6.788528 0.922932
6098.53 6098.5 1.000000 0.022518 75.313 6.780063 0.910904
6100.56 6100.55 1.000000 0.048919 75.1601 6.770523 0.912639
6102.63 6102.62 1.000000 0.033335 75.0116 6.757910 0.916871
6104.72 6104.71 1.000000 0.075324 74.8122 6.741205 0.928659
6106.81 6106.81 1.000000 0.033517 74.6576 6.729464 0.943666
6108.95 6108.94 1.000000 0.053505 74.4917 6.719721 0.958913
6111.12 6111.09 1.000000 0.084438 74.3184 6.709715 0.972411
6113.26 6113.25 1.000000 0.033817 74.1223 6.694807 0.979902
6115.44 6115.43 1.000000 0.055968 73.9297 6.680312 0.986123
6117.65 6117.64 1.000000 0.020445 73.7262 6.663335 0.985248
6119.88 6119.86 1.000000 0.054830 73.5407 6.648882 0.982343
6122.11 6122.1 1.000000 0.042867 73.303 6.635821 0.979653
6124.37 6124.36 1.000000 0.049548 73.1177 6.634908 0.978883
6126.63 6126.64 1.000000 0.050340 72.903 6.636755 0.982946
6128.94 6128.94 1.000000 0.057118 72.6725 6.641838 0.989196
6131.24 6131.25 1.000000 0.081104 72.416 6.650859 0.999502
6133.6 6133.59 1.000000 0.022781 72.1705 6.663144 1.003169
6135.93 6135.94 1.000000 0.020899 71.9265 6.676075 1.008209
6138.31 6138.32 1.000000 0.099062 71.6635 6.687828 1.011535
6140.72 6140.71 1.000000 0.035259 71.3891 6.697801 1.012492
6143.13 6143.12 1.000000 0.035196 71.0969 6.704563 1.008347
6145.54 6145.55 1.000000 0.036402 70.7812 6.708080 1.012807
6148 6148 1.000000 0.096190 70.5015 6.712827 1.007872
6150.46 6150.47 1.000000 0.079794 70.2479 6.721739 1.006018
6152.97 6152.96 1.000000 0.057928 69.861 6.715193 1.006305
6155.46 6155.47 1.000000 0.028828 69.3774 6.698831 1.002313
6157.98 6157.99 1.000000 0.044340 68.6558 6.657849 0.994034
6160.53 6160.54 1.000000 0.069172 67.226 6.547204 0.973121
6163.09 6163.1 1.000000 0.031882 65.3426 6.390647 0.943548
6165.68 6165.69 1.000000 0.057441 64.4603 6.331486 0.931239
6168.28 6168.29 1.000000 0.076488 68.8893 6.794895 1.003074
6170.9 6170.91 1.000000 0.061072 68.5274 6.790928 1.009110
6173.54 6173.55 1.000000 0.062060 68.0293 6.771060 1.021064
6176.2 6176.21 1.000000 0.038975 67.5752 6.753868 1.030365
6178.88 6178.89 1.000000 0.069587 67.1357 6.738379 1.036634
6181.59 6181.59 1.000000 0.076958 66.6944 6.719887 1.043238
6184.3 6184.31 1.000000 0.038672 66.2513 6.700107 1.044740
6187.04 6187.04 1.000000 0.055295 65.8084 6.680635 1.047971
6189.79 6189.8 1.000000 0.049701 65.3585 6.659700 1.045719
6192.56 6192.57 1.000000 0.055809 64.9315 6.638653 1.045254
6195.36 6195.37 1.000000 0.041721 64.4635 6.611732 1.046936
6198.17 6198.18 1.000000 0.048327 63.9868 6.584152 1.046481
6200.99 6201.01 1.000000 0.043053 63.5096 6.555408 1.046044
6203.85 6203.86 1.000000 0.041386 63.005 6.523954 1.044215
6206.72 6206.73 1.000000 0.093397 62.5216 6.495172 1.043601
6209.63 6209.62 1.000000 0.068714 62.0232 6.462207 1.045493
6212.51 6212.52 1.000000 0.024515 61.5116 6.428985 1.046375
6215.43 6215.45 1.000000 0.075774 61.0036 6.395663 1.044714
6218.39 6218.4 1.000000 0.067618 60.471 6.360464 1.040774
6221.35 6221.36 1.000000 0.069363 59.9462 6.325819 1.034001
6224.32 6224.34 1.000000 0.077814 59.3981 6.286843 1.027608
6227.35 6227.35 1.000000 0.088606 58.8429 6.246758 1.015733
6230.36 6230.37 1.000000 0.079601 58.2951 6.209259 1.006936
6233.41 6233.41 1.000000 0.017407 57.7497 6.170336 0.996539
6236.48 6236.47 1.000000 0.063500 57.1803 6.129078 0.986454
6239.56 6239.55 1.000000 0.090843 56.6224 6.089574 0.978953
6242.66 6242.65 1.000000 0.068431 56.0655 6.050258 0.970560
6245.77 6245.76 1.000000 0.046103 55.4888 6.009013 0.965889
6248.91 6248.9 1.000000 0.074046 55.0003 5.977627 0.965257
6252.06 6252.05 1.000000 0.095748 54.4283 5.937961 0.969509
6255.24 6255.23 1.000000 0.071748 53.8342 5.895576 0.972137
6258.43 6258.42 1.000000 0.107612 53.2496 5.855135 0.978930
6261.64 6261.63 1.000000 0.076926 52.6633 5.814551 0.978236
6264.86 6264.86 1.000000 0.050405 52.068 5.771849 0.974123
6268.13 6268.12 1.000000 0.081343 51.4642 5.730167 0.969816
6271.39 6271.38 1.000000 0.099117 50.8686 5.687846 0.965156
6274.68 6274.67 1.000000 0.093492 50.2982 5.648985 0.960963
6277.99 6277.98 1.000000 0.040280 49.7017 5.606690 0.957637
6281.32 6281.31 1.000000 0.098797 49.1032 5.563369 0.955466
6284.66 6284.65 1.000000 0.075579 48.4965 5.519985 0.947943
6288.03 6288.02 1.000000 0.010420 47.8878 5.475757 0.942484
6291.41 6291.4 1.000000 0.079680 47.3064 5.433998 0.936287
6294.81 6294.8 1.000000 0.070898 46.7319 5.392288 0.933430
6298.24 6298.23 1.000000 0.045181 46.1347 5.346874 0.928862
6301.68 6301.67 1.000000 0.067414 45.5641 5.306051 0.928004
6305.14 6305.13 1.000000 0.057668 44.9767 5.261594 0.920473
6308.61 6308.6 1.000000 0.079849 44.4075 5.217219 0.915775
6312.09 6312.1 1.000000 0.059776 43.8377 5.173880 0.909448
6315.6 6315.62 1.000000 0.082418 43.2789 5.130885 0.900415
6319.15 6319.16 1.000000 0.023461 42.7205 5.087850 0.894253
6322.72 6322.71 1.000000 0.074651 42.1635 5.044261 0.886061
6326.28 6326.29 1.000000 0.051267 41.6139 5.001125 0.879086
6329.87 6329.88 1.000000 0.078170 41.0775 4.958181 0.871735
6333.48 6333.49 1.000000 0.095522 40.5259 4.913647 0.865307
6337.11 6337.12 1.000000 0.081168 39.9935 4.870399 0.859338
6340.75 6340.77 1.000000 0.096158 39.4704 4.827760 0.854029
6344.43 6344.44 1.000000 0.108132 38.9535 4.785024 0.849934
6348.12 6348.13 1.000000 0.026336 38.4404 4.741516 0.845304
6351.83 6351.84 1.000000 0.013367 37.9363 4.699874 0.841636
6355.55 6355.56 1.000000 0.056921 37.4492 4.658412 0.837169
6359.31 6359.31 1.000000 0.098268 36.9559 4.617335 0.834742
6363.06 6363.07 1.000000 0.073266 36.4743 4.576370 0.832286
6366.85 6366.86 1.000000 0.046237 35.9974 4.536147 0.827322
6370.64 6370.66 1.000000 0.075138 35.5387 4.496882 0.824521
6374.47 6374.48 1.000000 0.091513 35.0782 4.457535 0.819296
6378.31 6378.32 1.000000 0.061544 34.6277 4.418908 0.814144
6382.16 6382.18 1.000000 0.048890 34.1842 4.381748 0.811851
6386.05 6386.06 1.000000 0.031331 33.7288 4.341291 0.802720
6389.94 6389.96 1.000000 0.066023 33.2838 4.303274 0.799040
6393.87 6393.88 1.000000 0.030439 32.8508 4.264995 0.790946
6397.8 6397.81 1.000000 0.112940 32.4307 4.229320 0.789059
6401.76 6401.77 1.000000 0.101212 32.0292 4.195868 0.783309
6405.72 6405.74 1.000000 0.087201 31.6202 4.159458 0.779133
6409.72 6409.74 1.000000 0.000000 31.2279 4.127012 0.774156
6413.74 6413.75 1.000000 0.064989 30.8335 4.092300 0.769436
6417.77 6417.78 1.000000 0.065675 30.4529 4.060637 0.767152
6421.82 6421.83 1.000000 0.074520 30.0759 4.028741 0.764928
6425.89 6425.9 1.000000 0.021608 29.7013 3.997301 0.757863
6429.97 6429.99 1.000000 0.017251 29.3467 3.967592 0.754943
6434.09 6434.1 1.000000 0.058259 29.0281 3.943749 0.751017
6438.21 6438.22 1.000000 0.040259 28.6685 3.912552 0.745858
6442.36 6442.37 1.000000 0.077186 28.3425 3.886241 0.741814
6446.52 6446.53 1.000000 0.059746 28.0016 3.857568 0.737327
6450.71 6450.72 1.000000 0.054433 27.6613 3.829523 0.738675
6454.9 6454.92 1.000000 0.060880 27.3693 3.809078 0.734649
6459.13 6459.14 1.000000 0.119151 26.8527 3.754821 0.728758
6463.38 6463.38 1.000000 0.060113 26.6685 3.747978 0.729217
6467.62 6467.64 1.000000 0.061033 26.399 3.728143 0.728987
6471.9 6471.92 1.000000 0.089339 26.1232 3.707512 0.723459
6476.2 6476.22 1.000000 0.126051 25.8175 3.681673 0.720568
6480.53 6480.54 1.000000 0.093217 25.5537 3.662932 0.720132
6484.86 6484.87 1.000000 0.195898 25.2812 3.641547 0.719555
6489.22 6489.23 1.000000 0.083719 24.997 3.618225 0.714483
6493.58 6493.6 1.000000 0.000000 24.7327 3.597540 0.712603
6497.98 6498 1.000000 0.112704 24.4717 3.577535 0.713280
6502.4 6502.41 1.000000 0.020728 24.2185 3.558366 0.712350
6506.83 6506.84 1.000000 0.121392 23.959 3.536430 0.706570
6511.28 6511.29 1.000000 0.021005 23.7051 3.516556 0.705309
6515.76 6515.76 1.000000 0.168683 23.4624 3.497125 0.704965
6520.24 6520.25 1.000000 0.046968 23.227 3.479399 0.703784
6524.75 6524.76 1.000000 0.127146 22.9861 3.459494 0.698964
6529.26 6529.28 1.000000 0.043756 22.7464 3.439849 0.699793
6533.82 6533.83 1.000000 0.105626 22.5248 3.422544 0.697363
6538.37 6538.39 1.000000 0.067399 22.2912 3.403859 0.697148
6542.96 6542.98 1.000000 0.055503 22.0597 3.383504 0.694430
6547.56 6547.58 1.000000 0.053762 21.8387 3.365519 0.691909
6552.19 6552.2 1.000000 0.081406 21.6109 3.346953 0.689134
6556.84 6556.84 1.000000 0.023633 21.3919 3.327524 0.686607
6561.49 6561.5 1.000000 0.153783 21.1426 3.304900 0.684137
6566.18 6566.18 1.000000 0.104312 20.9718 3.293924 0.685462
6570.88 6570.88 1.000000 0.109794 20.7674 3.277120 0.683581
6575.59 6575.6 1.000000 0.024185 20.5653 3.261646 0.681546
6580.32 6580.33 1.000000 0.126592 20.3586 3.244217 0.681521
6585.09 6585.09 1.000000 0.080406 20.1604 3.227358 0.679027
6589.85 6589.86 1.000000 0.057925 19.9778 3.213546 0.679648
6594.65 6594.66 1.000000 0.083765 19.806 3.200707 0.679549
6599.47 6599.47 1.000000 0.089844 19.6189 3.185840 0.677935
6604.28 6604.3 1.000000 0.149647 19.4192 3.169148 0.678910
6609.14 6609.15 1.000000 0.000000 19.2286 3.152819 0.674480
6614.02 6614.02 1.000000 0.065067 19.0406 3.137116 0.672925
6618.9 6618.91 1.000000 0.224091 18.8543 3.121068 0.671114
6623.81 6623.82 1.000000 0.085380 18.6678 3.105694 0.666093
6628.74 6628.74 1.000000 0.027273 18.4654 3.086814 0.670229
6633.68 6633.69 1.000000 0.098646 18.3185 3.077102 0.669267
6638.64 6638.65 1.000000 0.067489 18.1397 3.062132 0.666786
6643.65 6643.64 1.000000 0.150228 17.9602 3.046942 0.666262
6648.63 6648.64 1.000000 0.000000 17.7889 3.033698 0.667049
6653.65 6653.66 1.000000 0.028189 17.6159 3.018816 0.668105
6658.7 6658.7 1.000000 0.102514 17.4423 3.004751 0.662946
6663.75 6663.76 1.000000 0.029133 17.2743 2.989488 0.664332
6668.83 6668.84 1.000000 0.077912 17.1183 2.977081 0.662845
6673.95 6673.94 1.000000 0.102210 16.9469 2.962626 0.662853
6679.05 6679.06 1.000000 0.094869 16.7769 2.947426 0.661817
6684.2 6684.19 1.000000 0.066803 16.6147 2.933501 0.660715
6689.34 6689.35 1.000000 0.150682 16.4452 2.918432 0.658642
6694.52 6694.52 1.000000 0.126812 16.2828 2.904750 0.658815
6699.73 6699.72 1.000000 0.076058 16.121 2.889082 0.658090
6704.94 6704.93 1.000000 0.136815 15.9725 2.877969 0.655989
6710.17 6710.16 1.000000 0.143177 15.8027 2.861534 0.654152
6715.42 6715.41 1.000000 0.032174 15.6425 2.846581 0.652291
6720.67 6720.68 1.000000 0.032573 15.4887 2.832604 0.654110
6725.96 6725.97 1.000000 0.089500 15.3388 2.820066 0.651925
6731.29 6731.28 1.000000 0.042966 15.1785 2.804724 0.649438