File: xdidata/Cr/Cr-K-Cr2Na2O7.xdi
# XDI/1.0 BlueSky/1.5.3
# Beamline.name: 6BM
# Beamline.xray_source: NSLS-II three-pole wiggler
# Beamline.collimation: paraboloid mirror, 5 nm Rh on 30 nm Pt
# Beamline.focusing: not in use
# Beamline.harmonic_rejection: flat mirror, Si stripe, pitch = 7.0 mrad relative to beam
# Detector.i0: 10 cm N2
# Detector.i1: 25 cm N2
# Detector.i2: 25 cm N2
# Element.symbol: Cr
# Element.edge: K
# Facility.name: NSLS-II
# Facility.energy: 3.0
# Facility.current: 400.1
# Facility.mode: top-off
# Facility.gup: 305882
# Facility.saf: 305422
# Facility.cycle: 2020-1
# Mono.name: Si(111)
# Mono.d_spacing: 3.13532
# Mono.encoder_resolution: 0.0000050 deg/ct
# Mono.angle_offset: 16.0581 deg
# Mono.scan_mode: fixed exit
# Mono.scan_type: step
# Mono.direction: forward in energy
# Sample.name: Cr2Na2O7.2H2O
# Sample.prep: powder on tape 2x
# Sample.x_position: -74.438 mm
# Sample.y_position: 112.405 mm
# Scan.experimenters: Sarah Nicholas, Bruce Ravel
# Scan.edge_energy: 5989.0
# Scan.start_time: 2020-01-29T14:14:53
# Scan.end_time: 2020-01-29T19:26:07
# Scan.transient_id: 20480
# Scan.uid: e9af1afd-96c9-4ade-8cc2-cc3330142606
# Scan.plot_hint: ln(I0/It)  --  ln($5/$6)
# Scan.sequence: merge of 12 scans
# Column.1: energy eV
# Column.2: requested_energy eV
# Column.3: measurement_time seconds
# Column.4: mutrans
# Column.5: i0
# Column.6: itrans
# Column.7: irefer
# /////
#  Alpha Aesar, ground in AW M&P
# -----
# energy   requested_energy   measurement_time   mutrans   i0   itrans   irefer
5789.01 5789 0.500000 2.971815 47.7419 2.445095 0.504428
5799.02 5799 0.500000 2.954758 47.7773 2.488973 0.517460
5809.01 5809 0.500000 2.936526 47.7716 2.534420 0.531079
5819.01 5819 0.500000 2.918367 47.733 2.578780 0.544651
5829.01 5829 0.500000 2.900883 47.6754 2.621097 0.558172
5839.01 5839 0.500000 2.882853 47.6006 2.664591 0.571654
5849.01 5849 0.500000 2.865154 47.4727 2.704893 0.584952
5859.01 5859 0.500000 2.847549 47.2927 2.742505 0.597285
5869.01 5869 0.500000 2.829967 46.1424 2.723268 0.597738
5879 5879 0.500000 2.812906 47.6506 2.860674 0.633274
5889.01 5889 0.500000 2.795409 47.3793 2.894470 0.645398
5899.01 5899 0.500000 2.778674 47.1821 2.931250 0.658716
5909.02 5909 0.500000 2.761166 46.9146 2.966117 0.671217
5919.01 5919 0.500000 2.743441 35.6569 2.294507 0.522331
5929.01 5929 0.500000 2.726922 45.3824 2.969147 0.682218
5939.01 5939 0.500000 2.710614 46.4383 3.088097 0.714605
5949.01 5949 0.500000 2.694037 46.9971 3.177673 0.740544
5959 5959 0.500000 2.677426 46.6651 3.208030 0.752990
5961 5961 0.500000 2.674199 46.6122 3.214754 0.755620
5963 5963 0.500000 2.671083 46.5603 3.221225 0.758451
5965.01 5965 0.500000 2.667872 46.4977 3.227289 0.760965
5967.01 5967 0.500000 2.664521 46.4392 3.234030 0.763415
5969.01 5969 0.500000 2.661266 46.3892 3.241089 0.766222
5971.01 5971 0.500000 2.658024 46.331 3.247543 0.768859
5973.01 5973 0.500000 2.654870 46.265 3.253131 0.771374
5975 5975 0.500000 2.651785 46.1973 3.258391 0.773186
5977.01 5977 0.500000 2.648649 46.1257 3.263583 0.775452
5979 5979 0.500000 2.645504 46.0521 3.268622 0.777544
5979.24 5979.25 0.500000 2.645119 46.0411 3.269086 0.777686
5979.49 5979.5 0.500000 2.644754 46.0188 3.268692 0.778080
5979.74 5979.75 0.500000 2.644374 46.0054 3.268993 0.777871
5979.99 5980 0.500000 2.644119 45.9998 3.269448 0.778078
5980.24 5980.25 0.500000 2.643601 45.9872 3.270239 0.778614
5980.49 5980.5 0.500000 2.643218 45.9639 3.269828 0.778523
5980.74 5980.75 0.500000 2.642876 45.946 3.269674 0.778675
5980.99 5981 0.500000 2.642450 45.9293 3.269863 0.778711
5981.24 5981.25 0.500000 2.642317 45.9189 3.269564 0.779058
5981.49 5981.5 0.500000 2.641931 45.8947 3.269097 0.778912
5981.74 5981.75 0.500000 2.641527 45.8851 3.269754 0.779233
5981.99 5982 0.500000 2.641109 45.8879 3.271326 0.779465
5982.24 5982.25 0.500000 2.640675 45.8836 3.272447 0.779926
5982.49 5982.5 0.500000 2.640311 45.8639 3.272238 0.779664
5982.74 5982.75 0.500000 2.640016 45.8346 3.271106 0.779678
5983 5983 0.500000 2.639618 45.8223 3.271539 0.779953
5983.24 5983.25 0.500000 2.639283 45.8038 3.271298 0.779679
5983.49 5983.5 0.500000 2.639052 45.7855 3.270765 0.779761
5983.74 5983.75 0.500000 2.638619 45.7659 3.270774 0.779568
5983.99 5984 0.500000 2.638323 45.7409 3.269953 0.779464
5984.24 5984.25 0.500000 2.637823 45.7176 3.269906 0.779303
5984.49 5984.5 0.500000 2.637646 45.7097 3.269925 0.779840
5984.74 5984.75 0.500000 2.637191 45.682 3.269414 0.779390
5984.99 5985 0.500000 2.636879 45.6592 3.268805 0.779278
5985.24 5985.25 0.500000 2.636670 45.6248 3.267032 0.779232
5985.49 5985.5 0.500000 2.636309 45.5958 3.266144 0.779127
5985.74 5985.75 0.500000 2.636147 45.554 3.263675 0.778060
5986 5986 0.500000 2.635847 45.5148 3.261860 0.777506
5986.25 5986.25 0.500000 2.635375 45.4693 3.260111 0.777047
5986.5 5986.5 0.500000 2.635184 45.4234 3.257434 0.776326
5986.75 5986.75 0.500000 2.635015 45.3828 3.255084 0.775664
5987 5987 0.500000 2.634759 45.3237 3.251665 0.774267
5987.25 5987.25 0.500000 2.634533 45.2566 3.247579 0.773131
5987.49 5987.5 0.500000 2.634388 45.1787 3.242454 0.771288
5987.74 5987.75 0.500000 2.634275 45.0934 3.236700 0.769218
5987.99 5988 0.500000 2.634223 44.9976 3.229983 0.766501
5988.25 5988.25 0.500000 2.634288 44.8832 3.221552 0.762959
5988.5 5988.5 0.500000 2.634160 44.7333 3.211192 0.757675
5988.75 5988.75 0.500000 2.634224 44.5644 3.198864 0.751564
5989 5989 0.500000 2.634565 44.3595 3.183068 0.742979
5989.25 5989.25 0.500000 2.634774 44.0964 3.163519 0.732481
5989.5 5989.5 0.500000 2.635254 43.7446 3.136781 0.720552
5989.75 5989.75 0.500000 2.635820 43.2733 3.101227 0.707687
5990 5990 0.500000 2.636847 42.5937 3.049358 0.692653
5990.25 5990.25 0.500000 2.638220 41.6044 2.974472 0.672512
5990.5 5990.5 0.500000 2.640329 40.1497 2.864414 0.645090
5990.75 5990.75 0.500000 2.643228 38.0921 2.709694 0.607452
5991 5991 0.500000 2.647631 35.7561 2.532267 0.565942
5991.25 5991.25 0.500000 2.653831 33.9424 2.388890 0.531701
5991.5 5991.5 0.500000 2.662340 33.4569 2.334706 0.517978
5991.75 5991.75 0.500000 2.672161 34.7371 2.400135 0.530982
5992 5992 0.500000 2.683170 37.7424 2.579141 0.568986
5992.25 5992.25 0.500000 2.697836 41.4795 2.793380 0.614622
5992.5 5992.5 0.500000 2.718921 44.3018 2.920264 0.640539
5992.75 5992.75 0.500000 2.746704 45.7016 2.931588 0.641254
5992.99 5993 0.500000 2.778324 46.2707 2.876917 0.627721
5993.25 5993.25 0.500000 2.804207 46.4932 2.816167 0.613004
5993.5 5993.5 0.500000 2.813214 46.5754 2.795425 0.607702
5993.75 5993.75 0.500000 2.798843 46.5955 2.836705 0.616104
5994 5994 0.500000 2.766818 46.5897 2.928501 0.635519
5994.25 5994.25 0.500000 2.731023 46.5673 3.033815 0.658312
5994.5 5994.5 0.500000 2.702009 46.5416 3.122006 0.677228
5994.75 5994.75 0.500000 2.682317 46.517 3.182228 0.690579
5995 5995 0.500000 2.669592 46.4895 3.221025 0.699117
5995.25 5995.25 0.500000 2.660998 46.4622 3.246931 0.704982
5995.5 5995.5 0.500000 2.655022 46.4285 3.263883 0.708909
5995.75 5995.75 0.500000 2.650539 46.3972 3.276310 0.712059
5996 5996 0.500000 2.646951 46.3773 3.286766 0.714435
5996.25 5996.25 0.500000 2.644288 46.3542 3.293922 0.716156
5996.5 5996.5 0.500000 2.642196 46.326 3.298861 0.716004
5996.75 5996.75 0.500000 2.640646 46.2931 3.301657 0.715737
5997.01 5997 0.500000 2.639726 46.2764 3.303532 0.714534
5997.26 5997.25 0.500000 2.638852 46.2556 3.304898 0.712434
5997.5 5997.5 0.500000 2.638395 46.2375 3.305078 0.709621
5997.76 5997.75 0.500000 2.638676 46.2131 3.302400 0.705985
5998 5998 0.500000 2.638968 46.1898 3.299781 0.702326
5998.25 5998.25 0.500000 2.639642 46.1662 3.295882 0.697800
5998.5 5998.5 0.500000 2.640559 46.1463 3.291437 0.693928
5998.75 5998.75 0.500000 2.641666 46.1395 3.287316 0.689666
5999 5999 0.500000 2.642870 46.1297 3.282645 0.685419
5999.25 5999.25 0.500000 2.644295 46.1106 3.276577 0.680661
5999.5 5999.5 0.500000 2.645778 46.0902 3.270281 0.676881
5999.76 5999.75 0.500000 2.647320 46.0881 3.265025 0.672388
6000 6000 0.500000 2.649080 46.0816 3.258927 0.668643
6000.25 6000.25 0.500000 2.650801 46.0692 3.252434 0.665049
6000.5 6000.5 0.500000 2.652460 46.0576 3.246223 0.661169
6000.75 6000.75 0.500000 2.653849 46.0354 3.240176 0.658332
6001 6001 0.500000 2.655532 46.0418 3.235220 0.655402
6001.25 6001.25 0.500000 2.656726 46.0235 3.230052 0.653065
6001.5 6001.5 0.500000 2.657720 46.0175 3.226403 0.650268
6001.75 6001.75 0.500000 2.658711 46.0173 3.223153 0.647972
6002 6002 0.500000 2.659650 46.0159 3.220034 0.645827
6002.25 6002.25 0.500000 2.660296 46.0048 3.217151 0.643594
6002.5 6002.5 0.500000 2.660818 45.993 3.214634 0.641548
6002.75 6002.75 0.500000 2.661572 45.9855 3.211697 0.639738
6003 6003 0.500000 2.662418 45.9771 3.208369 0.637836
6003.25 6003.25 0.500000 2.663644 45.9675 3.203813 0.636159
6003.5 6003.5 0.500000 2.664787 45.9583 3.199517 0.633893
6003.75 6003.75 0.500000 2.666488 45.9618 3.194307 0.631564
6004 6004 0.500000 2.667892 45.9496 3.189013 0.629771
6004.25 6004.25 0.500000 2.670070 45.9406 3.181435 0.627171
6004.5 6004.5 0.500000 2.672129 45.9343 3.174464 0.624689
6004.75 6004.75 0.500000 2.674636 45.9208 3.165500 0.621578
6005 6005 0.500000 2.677933 45.9119 3.154353 0.618551
6005.25 6005.25 0.500000 2.681231 45.8986 3.143108 0.615147
6005.5 6005.5 0.500000 2.684909 45.8898 3.130933 0.611733
6005.75 6005.75 0.500000 2.688853 45.878 3.117893 0.607867
6006 6006 0.500000 2.692897 45.8744 3.105110 0.604260
6006.25 6006.25 0.500000 2.697293 45.8608 3.090476 0.600350
6006.5 6006.5 0.500000 2.701803 45.8515 3.076085 0.596189
6006.75 6006.75 0.500000 2.706171 45.8398 3.061956 0.592498
6007 6007 0.500000 2.710309 45.8362 3.049000 0.589045
6007.25 6007.25 0.500000 2.714624 45.8239 3.034891 0.585186
6007.5 6007.5 0.500000 2.718636 45.8234 3.022693 0.582194
6007.75 6007.75 0.500000 2.722568 45.8167 3.010336 0.577953
6008.01 6008 0.500000 2.726650 45.8056 2.997336 0.574657
6008.26 6008.25 0.500000 2.730367 45.7964 2.985615 0.571035
6008.5 6008.5 0.500000 2.734136 45.7866 2.973855 0.567791
6008.75 6008.75 0.500000 2.738119 45.7773 2.961501 0.564224
6009 6009 0.500000 2.741977 45.7747 2.949969 0.561561
6009.25 6009.25 0.500000 2.746220 45.7686 2.937173 0.558470
6009.5 6009.5 0.500000 2.750218 45.7552 2.924400 0.555825
6009.75 6009.75 0.500000 2.754050 45.7502 2.912927 0.554013
6010 6010 0.500000 2.757609 45.7357 2.901668 0.553024
6010.25 6010.25 0.500000 2.760885 45.7273 2.891619 0.551651
6010.5 6010.5 0.500000 2.764111 45.7237 2.882049 0.551325
6010.76 6010.75 0.500000 2.766979 45.711 2.872966 0.550891
6011.01 6011 0.500000 2.769780 45.7039 2.864486 0.551218
6011.25 6011.25 0.500000 2.771998 45.6961 2.857689 0.551622
6011.5 6011.5 0.500000 2.774129 45.6924 2.851427 0.552000
6011.75 6011.75 0.500000 2.776224 45.6827 2.844875 0.552529
6012 6012 0.500000 2.777845 45.6756 2.839824 0.553084
6012.25 6012.25 0.500000 2.779317 45.6608 2.834746 0.553722
6012.5 6012.5 0.500000 2.780491 45.6485 2.830581 0.554536
6012.75 6012.75 0.500000 2.781605 45.6405 2.826967 0.554991
6013 6013 0.500000 2.782642 45.6298 2.823383 0.555245
6013.25 6013.25 0.500000 2.783033 45.6329 2.822460 0.556385
6013.51 6013.5 0.500000 2.783402 45.6157 2.820347 0.556581
6013.75 6013.75 0.500000 2.783541 45.6006 2.819039 0.557161
6014 6014 0.500000 2.783244 45.5927 2.819384 0.557548
6015 6014.99 0.500000 2.781009 45.5708 2.824337 0.559091
6016.01 6015.99 0.500000 2.777681 45.5535 2.832689 0.559069
6017.01 6017.01 0.500000 2.774868 45.5443 2.840068 0.558068
6018.06 6018.06 0.500000 2.771682 45.524 2.847871 0.556954
6019.12 6019.12 0.500000 2.769672 45.4967 2.851897 0.556167
6020.2 6020.2 0.500000 2.769646 45.492 2.851682 0.556726
6021.31 6021.3 0.500000 2.771387 45.4587 2.844646 0.557219
6022.42 6022.42 0.500000 2.773854 45.4293 2.835826 0.557402
6023.57 6023.56 0.500000 2.776860 45.3892 2.824795 0.556313
6024.71 6024.71 0.500000 2.779778 45.3598 2.814758 0.554366
6025.9 6025.89 0.500000 2.782836 45.3326 2.804460 0.549715
6027.08 6027.08 0.500000 2.785286 45.2966 2.795391 0.546253
6028.3 6028.3 0.500000 2.787296 45.2715 2.788234 0.543472
6029.53 6029.53 0.500000 2.787796 45.2288 2.784185 0.541913
6030.78 6030.78 0.500000 2.787371 45.2098 2.784184 0.541427
6032.06 6032.05 0.500000 2.785461 45.1739 2.787296 0.541775
6033.34 6033.34 0.500000 2.783341 45.1372 2.790933 0.542958
6034.66 6034.65 0.500000 2.780589 45.0931 2.795900 0.543701
6035.98 6035.98 0.500000 2.777353 45.0575 2.802725 0.545137
6037.34 6037.33 0.500000 2.774184 45.0153 2.809005 0.545455
6038.7 6038.7 0.500000 2.770464 44.9709 2.816672 0.546795
6040.09 6040.08 0.500000 2.766122 44.9407 2.827055 0.548656
6041.49 6041.49 0.500000 2.761294 44.9 2.838140 0.551751
6042.92 6042.91 0.500000 2.756624 44.8639 2.849168 0.555562
6044.35 6044.35 0.500000 2.751146 44.8154 2.861697 0.559494
6045.82 6045.81 0.500000 2.745115 44.7711 2.876164 0.563471
6047.29 6047.29 0.500000 2.740188 44.7141 2.886666 0.567293
6048.8 6048.79 0.500000 2.735944 44.6649 2.895787 0.571684
6050.32 6050.31 0.500000 2.730122 44.6235 2.909998 0.577650
6051.85 6051.85 0.500000 2.723927 44.5703 2.924581 0.584014
6053.41 6053.41 0.500000 2.718211 44.506 2.937112 0.589693
6054.99 6054.98 0.500000 2.713058 44.4243 2.946893 0.594616
6056.59 6056.58 0.500000 2.708664 44.3364 2.954039 0.598615
6058.19 6058.19 0.500000 2.704461 44.2855 2.963042 0.602400
6059.84 6059.83 0.500000 2.700333 44.21 2.970257 0.605628
6061.49 6061.48 0.500000 2.695844 44.1256 2.977911 0.607283
6063.16 6063.15 0.500000 2.691658 44.0564 2.985734 0.608506
6064.85 6064.84 0.500000 2.687854 43.9938 2.992850 0.608162
6066.56 6066.55 0.500000 2.684055 43.9443 3.000840 0.607096
6068.29 6068.28 0.500000 2.680670 43.8816 3.006751 0.605671
6070.04 6070.03 0.500000 2.677835 43.8227 3.011235 0.603428
6071.8 6071.79 0.500000 2.674940 43.7621 3.015771 0.603747
6073.59 6073.58 0.500000 2.672239 43.6998 3.019633 0.606791
6075.39 6075.38 0.500000 2.669576 43.6417 3.023659 0.611078
6077.22 6077.21 0.500000 2.667240 43.5812 3.026525 0.615486
6079.06 6079.05 0.500000 2.664878 43.5068 3.028520 0.620830
6080.91 6080.91 0.500000 2.662790 43.4458 3.030578 0.625327
6082.8 6082.79 0.500000 2.660757 43.3643 3.031074 0.629852
6084.7 6084.69 0.500000 2.658989 43.2932 3.031448 0.632135
6086.62 6086.61 0.500000 2.657081 43.2214 3.032184 0.631983
6088.56 6088.55 0.500000 2.655077 43.1479 3.033107 0.629051
6090.52 6090.51 0.500000 2.653173 43.0725 3.033577 0.624066
6092.49 6092.48 0.500000 2.651044 42.9924 3.034403 0.618604
6094.48 6094.48 0.500000 2.648697 42.9099 3.035673 0.613496
6096.5 6096.49 0.500000 2.646138 42.8283 3.037664 0.609838
6098.52 6098.52 0.500000 2.643523 42.7444 3.039648 0.607512
6100.59 6100.58 0.500000 2.640844 42.6688 3.042417 0.608280
6102.65 6102.65 0.500000 2.638015 42.5832 3.044919 0.612355
6104.75 6104.74 0.500000 2.635358 42.4915 3.046450 0.618573
6106.86 6106.85 0.500000 2.632495 42.3964 3.048345 0.625405
6108.99 6108.98 0.500000 2.629606 42.3035 3.050469 0.632754
6111.13 6111.12 0.500000 2.626909 42.2071 3.051726 0.639189
6113.3 6113.29 0.500000 2.624091 42.1056 3.052989 0.643768
6115.49 6115.48 0.500000 2.621432 42.0131 3.054400 0.645987
6117.69 6117.68 0.500000 2.618629 41.9138 3.055735 0.646829
6119.91 6119.9 0.500000 2.615797 41.8135 3.057066 0.647061
6122.16 6122.15 0.500000 2.612828 41.7103 3.058590 0.647224
6124.42 6124.41 0.500000 2.609855 41.6083 3.060215 0.648225
6126.7 6126.69 0.500000 2.606547 41.4993 3.062290 0.650638
6129 6128.99 0.500000 2.603251 41.3723 3.062991 0.653141
6131.32 6131.31 0.500000 2.599731 41.2434 3.064216 0.655878
6133.66 6133.65 0.500000 2.595947 41.1235 3.066897 0.658837
6136.01 6136 0.500000 2.592151 41.0005 3.069354 0.659870
6138.39 6138.38 0.500000 2.588036 40.8833 3.073210 0.661123
6140.78 6140.77 0.500000 2.583727 40.7389 3.075592 0.662142
6143.2 6143.19 0.500000 2.579478 40.5944 3.077716 0.662762
6145.63 6145.62 0.500000 2.574705 40.4389 3.080562 0.663022
6148.1 6148.07 0.500000 2.570237 40.284 3.082631 0.662478
6150.56 6150.55 0.500000 2.565518 40.1113 3.083839 0.661697
6153.04 6153.04 0.500000 2.560950 39.9039 3.081911 0.661497
6155.56 6155.55 0.500000 2.556167 39.6651 3.078179 0.661215
6158.1 6158.07 0.500000 2.551780 39.2691 3.060925 0.656920
6160.63 6160.62 0.500000 2.547213 38.5199 3.016172 0.644974
6163.22 6163.19 0.500000 2.542854 36.9426 2.905388 0.618733
6165.78 6165.77 0.500000 2.538529 36.5039 2.883248 0.613270
6168.4 6168.38 0.500000 2.533810 39.4195 3.128344 0.667579
6171.01 6171 0.500000 2.529558 39.2661 3.129362 0.671802
6173.68 6173.65 0.500000 2.525223 39.0369 3.124718 0.675615
6176.31 6176.31 0.500000 2.521070 38.8184 3.120041 0.679400
6179.02 6178.99 0.500000 2.516725 38.5948 3.115676 0.682310
6181.72 6181.69 0.500000 2.512566 38.3721 3.110607 0.685160
6184.44 6184.41 0.500000 2.508521 38.1568 3.105692 0.686707
6187.16 6187.15 0.500000 2.504322 37.9439 3.101277 0.687538
6189.91 6189.9 0.500000 2.500277 37.7258 3.095959 0.687935
6192.71 6192.68 0.500000 2.496228 37.5125 3.091042 0.688543
6195.48 6195.47 0.500000 2.492003 37.2863 3.085308 0.688795
6198.28 6198.29 0.500000 2.488070 37.0457 3.077400 0.689145
6201.13 6201.12 0.500000 2.483753 36.8107 3.071174 0.689170
6203.98 6203.97 0.500000 2.479563 36.5718 3.064078 0.689294
6206.86 6206.85 0.500000 2.475407 36.3369 3.057073 0.690097
6209.75 6209.74 0.500000 2.471259 36.0832 3.048338 0.690646
6212.66 6212.65 0.500000 2.466778 35.8348 3.040955 0.691754
6215.59 6215.57 0.500000 2.462534 35.5747 3.031772 0.691648
6218.53 6218.52 0.500000 2.458228 35.3098 3.022127 0.690076
6221.5 6221.49 0.500000 2.453868 35.052 3.013175 0.688301
6224.48 6224.47 0.500000 2.449656 34.781 3.002523 0.685177
6227.49 6227.48 0.500000 2.445128 34.5057 2.992266 0.682021
6230.51 6230.5 0.500000 2.440835 34.2279 2.980946 0.678122
6233.56 6233.55 0.500000 2.436575 33.9425 2.968688 0.673988
6236.62 6236.61 0.500000 2.432401 33.6581 2.956127 0.670128
6239.7 6239.69 0.500000 2.428251 33.3774 2.943667 0.666976
6242.8 6242.79 0.500000 2.423665 33.0808 2.930917 0.663979
6245.92 6245.91 0.500000 2.419481 32.7852 2.916920 0.661825
6249.06 6249.05 0.500000 2.415079 32.4835 2.902821 0.661627
6252.21 6252.2 0.500000 2.410625 32.181 2.888623 0.662553
6255.38 6255.38 0.500000 2.406099 31.8753 2.874157 0.664244
6258.58 6258.57 0.500000 2.401585 31.5621 2.858803 0.665371
6261.8 6261.79 0.500000 2.397166 31.2511 2.843170 0.664869
6265.03 6265.02 0.500000 2.392515 30.9356 2.827585 0.662897
6268.27 6268.27 0.500000 2.387841 30.6231 2.812115 0.660655
6271.55 6271.55 0.500000 2.382916 30.3106 2.797161 0.658173
6274.84 6274.84 0.500000 2.378205 29.9846 2.780151 0.656172
6278.16 6278.15 0.500000 2.373375 29.6758 2.764854 0.654801
6281.48 6281.47 0.500000 2.368600 29.3537 2.747924 0.651578
6284.82 6284.82 0.500000 2.363667 29.0255 2.730639 0.648776
6288.2 6288.19 0.500000 2.358681 28.7 2.713533 0.645585
6291.58 6291.57 0.500000 2.353577 28.3909 2.698048 0.643715
6294.99 6294.98 0.500000 2.348565 28.0742 2.681370 0.641210
6298.41 6298.4 0.500000 2.343660 27.7489 2.663327 0.638836
6301.86 6301.85 0.500000 2.338715 27.4215 2.644951 0.636969
6305.32 6305.31 0.500000 2.333380 27.1059 2.628494 0.634377
6308.8 6308.79 0.500000 2.328450 26.7836 2.610082 0.631425
6312.3 6312.29 0.500000 2.323416 26.4675 2.592282 0.628157
6315.83 6315.81 0.500000 2.318410 26.1406 2.573132 0.623874
6319.36 6319.35 0.500000 2.313406 25.8209 2.554394 0.619335
6322.91 6322.9 0.500000 2.308277 25.5042 2.536050 0.615686
6326.49 6326.48 0.500000 2.303218 25.1888 2.517385 0.611321
6330.09 6330.08 0.500000 2.298398 24.8699 2.497512 0.607423
6333.7 6333.69 0.500000 2.293271 24.5543 2.478504 0.603679
6337.33 6337.32 0.500000 2.287973 24.2429 2.460077 0.600062
6340.99 6340.98 0.500000 2.282998 23.9295 2.440366 0.597351
6344.66 6344.65 0.500000 2.277958 23.6284 2.421812 0.594477
6348.35 6348.34 0.500000 2.272777 23.3236 2.402986 0.591897
6352.06 6352.05 0.500000 2.267847 23.0262 2.384191 0.588934
6355.79 6355.78 0.500000 2.262608 22.7131 2.364018 0.585433
6359.53 6359.52 0.500000 2.257538 22.4111 2.344442 0.583132
6363.3 6363.29 0.500000 2.252011 22.1171 2.326507 0.581063
6367.09 6367.08 0.500000 2.247203 21.8292 2.307272 0.578267
6370.89 6370.88 0.500000 2.241962 21.5373 2.288354 0.575536
6374.72 6374.71 0.500000 2.236959 21.2476 2.268908 0.572045
6378.56 6378.55 0.500000 2.231583 20.9668 2.251025 0.569030
6382.42 6382.41 0.500000 2.226587 20.6826 2.231628 0.564680
6386.3 6386.29 0.500000 2.221659 20.4021 2.212209 0.561098
6390.19 6390.19 0.500000 2.216390 20.1214 2.193291 0.557526
6394.11 6394.11 0.500000 2.211187 19.8449 2.174447 0.554005
6398.06 6398.05 0.500000 2.206151 19.5707 2.155245 0.550865
6402.02 6402.01 0.500000 2.200861 19.3055 2.137306 0.546855
6406 6405.98 0.500000 2.195701 19.0443 2.119308 0.543360
6409.99 6409.98 0.500000 2.190639 18.7888 2.101465 0.540046
6414 6413.99 0.500000 2.185525 18.5353 2.083750 0.536708
6418.04 6418.03 0.500000 2.180173 18.2896 2.067168 0.533901
6422.09 6422.08 0.500000 2.175260 18.0427 2.049318 0.530619
6426.17 6426.15 0.500000 2.169614 17.8018 2.033399 0.528109
6430.22 6430.24 0.500000 2.164641 17.5567 2.015311 0.523821
6434.36 6434.35 0.500000 2.159278 17.3127 1.998080 0.520338
6438.49 6438.48 0.500000 2.154028 17.0793 1.981527 0.516665
6442.64 6442.63 0.500000 2.148704 16.8534 1.965745 0.513668
6446.81 6446.79 0.500000 2.143311 16.6282 1.949977 0.511147
6450.99 6450.98 0.500000 2.137831 16.4247 1.936668 0.509334
6455.19 6455.18 0.500000 2.132561 16.2204 1.922697 0.507160
6459.42 6459.41 0.500000 2.127199 15.947 1.900450 0.503155
6463.67 6463.65 0.500000 2.121817 15.6546 1.875692 0.497873
6467.92 6467.91 0.500000 2.116166 15.569 1.875986 0.499177
6472.2 6472.19 0.500000 2.110817 15.3754 1.862602 0.496905
6476.5 6476.49 0.500000 2.105095 15.1878 1.850430 0.494701
6480.83 6480.81 0.500000 2.099649 14.9979 1.837304 0.492696
6485.16 6485.15 0.500000 2.094506 14.8152 1.824263 0.490857
6489.52 6489.51 0.500000 2.088594 14.633 1.812511 0.488525
6493.9 6493.89 0.500000 2.083260 14.4583 1.800443 0.486185
6498.29 6498.28 0.500000 2.077620 14.2843 1.788858 0.484458
6502.72 6502.7 0.500000 2.072079 14.1087 1.776688 0.482105
6507.15 6507.13 0.500000 2.066871 13.948 1.765615 0.480503
6511.59 6511.58 0.500000 2.061037 13.7874 1.755506 0.478623
6516.06 6516.05 0.500000 2.055405 13.6262 1.744769 0.477315
6520.55 6520.54 0.500000 2.049974 13.4692 1.734063 0.475998
6525.06 6525.05 0.500000 2.044322 13.3165 1.724109 0.474563
6529.59 6529.58 0.500000 2.038669 13.1703 1.714866 0.473137
6534.12 6534.13 0.500000 2.032964 13.02 1.704955 0.471556
6538.71 6538.7 0.500000 2.027774 12.8734 1.694546 0.469965
6543.26 6543.28 0.500000 2.021856 12.7359 1.686342 0.468435
6547.9 6547.89 0.500000 2.016605 12.5952 1.676577 0.466859
6552.53 6552.51 0.500000 2.010661 12.4541 1.667662 0.465311
6557.14 6557.16 0.500000 2.005423 12.314 1.657503 0.463451
6561.8 6561.82 0.500000 1.999876 12.1829 1.648994 0.462203
6566.48 6566.5 0.500000 1.994220 12.0557 1.641025 0.461394
6571.18 6571.2 0.500000 1.988696 11.9347 1.633540 0.460391
6575.89 6575.92 0.500000 1.983079 11.8166 1.626481 0.459428
6580.64 6580.66 0.500000 1.977459 11.6924 1.618470 0.458339
6585.39 6585.41 0.500000 1.972226 11.5701 1.609920 0.457465
6590.18 6590.19 0.500000 1.966310 11.4514 1.602888 0.456760
6595.02 6594.99 0.500000 1.960756 11.3443 1.596814 0.456557
6599.79 6599.8 0.500000 1.955131 11.2338 1.590104 0.455373
6604.62 6604.63 0.500000 1.949759 11.1187 1.582288 0.454400
6609.47 6609.49 0.500000 1.943804 11.0125 1.576517 0.453774
6614.34 6614.36 0.500000 1.938532 10.9005 1.568731 0.452928
6619.23 6619.25 0.500000 1.933010 10.7942 1.562033 0.452345
6624.14 6624.16 0.500000 1.927268 10.6916 1.556108 0.451644
6629.07 6629.09 0.500000 1.921674 10.5852 1.549263 0.450890
6634.01 6634.03 0.500000 1.916105 10.4855 1.543237 0.450176
6638.98 6639 0.500000 1.910710 10.3871 1.537034 0.449653
6643.97 6643.99 0.500000 1.904919 10.2864 1.530959 0.449098
6648.97 6648.99 0.500000 1.899041 10.1881 1.525281 0.448546
6654.06 6654.02 0.500000 1.893454 10.0904 1.519221 0.448102
6659.04 6659.06 0.500000 1.887996 9.991889 1.512526 0.447381
6664.1 6664.12 0.500000 1.882008 9.897339 1.507220 0.446920
6669.18 6669.2 0.500000 1.876562 9.802838 1.500974 0.446487
6674.28 6674.3 0.500000 1.870737 9.712501 1.495845 0.445740
6679.41 6679.42 0.500000 1.865383 9.619764 1.489518 0.445185
6684.54 6684.56 0.500000 1.859539 9.526130 1.483653 0.444435
6689.7 6689.72 0.500000 1.854225 9.434650 1.477223 0.443759
6694.88 6694.9 0.500000 1.848434 9.344781 1.471662 0.443587
6700.09 6700.09 0.500000 1.842717 9.255091 1.465918 0.442534
6705.3 6705.31 0.500000 1.836867 9.175425 1.461864 0.442346
6710.52 6710.54 0.500000 1.831022 9.080537 1.455170 0.441957
6715.77 6715.79 0.500000 1.825551 8.992100 1.448897 0.440682
6721.05 6721.06 0.500000 1.819763 8.903898 1.443024 0.439936
6726.34 6726.35 0.500000 1.813950 8.824105 1.438436 0.440042
6731.64 6731.66 0.500000 1.808268 8.739580 1.432770 0.439438
6736.97 6736.99 0.500000 1.802222 8.653891 1.427328 0.438753
6742.32 6742.34 0.500000 1.796857 8.566426 1.420499 0.438423
6747.72 6747.71 0.500000 1.791219 8.482115 1.414512 0.437482
6753.07 6753.09 0.500000 1.785274 8.400725 1.409252 0.436670
6758.47 6758.5 0.500000 1.779638 8.319100 1.403441 0.436356
6763.9 6763.92 0.500000 1.773833 8.238570 1.397963 0.435850
6769.36 6769.37 0.500000 1.768273 8.154848 1.391484 0.435056
6774.81 6774.83 0.500000 1.762219 8.078198 1.386757 0.434606
6780.29 6780.31 0.500000 1.756555 8.000158 1.381159 0.433800
6785.78 6785.81 0.500000 1.751062 7.917469 1.374403 0.433266
6791.31 6791.33 0.500000 1.745379 7.822417 1.365661 0.431828
6796.85 6796.87 0.500000 1.739729 7.769070 1.364030 0.432116
6802.4 6802.42 0.500000 1.734017 7.702842 1.360144 0.432285
6807.98 6808 0.500000 1.728290 7.637144 1.356307 0.432106
6813.58 6813.6 0.500000 1.722623 7.446510 1.329945 0.425048
6819.19 6819.21 0.500000 1.717008 7.452821 1.338568 0.428574
6824.83 6824.85 0.500000 1.711233 7.289540 1.316826 0.423081
6830.48 6830.5 0.500000 1.705905 7.162999 1.300890 0.419209
6836.15 6836.17 0.500000 1.699935 7.322987 1.337908 0.431998
6841.84 6841.86 0.500000 1.694309 7.118781 1.307947 0.423345