File: xdidata/Nb/Nb-K-NiobiumDioxide.xdi
# XDI/1.0 BlueSky/1.10.0 BMM/2023-1.0-py310-tiled
# Beamline.name: BMM (06BM) -- Beamline for Materials Measurement (NIST)
# Beamline.xray_source: NSLS-II three-pole wiggler
# Beamline.collimation: paraboloid mirror, 5 nm Rh on 30 nm Pt
# Beamline.focusing: not in use
# Beamline.harmonic_rejection: flat mirror, Pt stripe, pitch = 7.0 mrad relative to beam
# Beamline.software: Bluesky 1.10.0, Ophyd 1.7.0, DataBroker 2.0.0b13, Python 3.10.8, 2023-1.0-py310-tiled
# Detector.I0: 10 cm N2
# Detector.I1: 25 cm N2
# Detector.I2: 25 cm N2
# Element.symbol: Nb
# Element.edge: K
# Element.reference: Nb
# Element.reference_material: Nb foil
# Facility.name: NSLS-II
# Facility.energy: 3.0
# Facility.current: 400.3
# Facility.mode: top-off
# Facility.GUP: 301027
# Facility.SAF: 310583
# Facility.cycle: 2023-2
# Mono.name: Si(111)
# Mono.d_spacing: 3.13519
# Mono.encoder_resolution: 0.0000050 deg/ct
# Mono.angle_offset: 16.0754 deg
# Mono.scan_mode: pseudo channel cut
# Mono.scan_type: step
# Mono.direction: forward in energy
# Sample.name: NbO2
# Sample.prep: powder on tape
# Sample.x: 117.785 mm
# Sample.y: 114.695 mm
# Sample.SDD_position: 205.000 mm
# Scan.experimenters: Bruce Ravel
# Scan.edge_energy: 18985.6
# Scan.start_time: 2023-06-23T20:07:41
# Scan.end_time: 2023-06-23T20:15:08
# Scan.transient_id: 84996
# Scan.uid: 821c02aa-c903-4a0c-b8db-6ca8157c4395
# Scan.plot_hint: ln(I0/It)  --  ln($5/$6)
# Column.1: energy eV
# Column.2: requested_energy eV
# Column.3: measurement_time seconds
# Column.4: xmu
# Column.5: I0 nA
# Column.6: It nA
# Column.7: Ir nA
# ///////////
# BMM standards collection
# -----------
# energy  requested_energy  measurement_time  xmu  I0  It  Ir
  18785.634  18785.600  0.500  -0.471172  9.992523  16.0067  13.8522
  18795.676  18795.600  0.500  -0.471433  9.968039  15.9717  13.8259
  18805.729  18805.600  0.500  -0.471777  9.953513  15.9539  13.8139
  18815.668  18815.600  0.500  -0.471909  9.934746  15.9259  13.7921
  18825.695  18825.600  0.500  -0.472215  9.894064  15.8656  13.7414
  18835.703  18835.600  0.500  -0.472588  9.873609  15.8387  13.7197
  18845.720  18845.600  0.500  -0.472642  9.848866  15.7998  13.689
  18855.687  18855.600  0.500  -0.472978  9.819065  15.7573  13.654
  18865.679  18865.600  0.500  -0.473219  9.792166  15.7179  13.6207
  18875.713  18875.600  0.500  -0.473382  9.771379  15.6871  13.5964
  18885.711  18885.600  0.500  -0.473373  9.748335  15.65  13.5622
  18895.689  18895.600  0.500  -0.473937  9.717746  15.6097  13.5287
  18905.677  18905.600  0.500  -0.473889  9.693927  15.5707  13.4958
  18915.722  18915.600  0.500  -0.474030  9.656270  15.5124  13.4435
  18925.700  18925.600  0.500  -0.473916  9.642028  15.4877  13.419
  18935.768  18935.600  0.500  -0.474046  9.618847  15.4525  13.3855
  18945.530  18945.600  0.500  -0.473753  9.580420  15.3863  13.319
  18955.524  18955.600  0.500  -0.473032  9.563196  15.3475  13.2731
  18957.480  18957.600  0.500  -0.473001  9.549054  15.3244  13.2501
  18959.468  18959.600  0.500  -0.472749  9.552700  15.3263  13.245
  18961.472  18961.600  0.500  -0.472387  9.543864  15.3066  13.226
  18963.445  18963.600  0.500  -0.472288  9.535754  15.2921  13.203
  18965.450  18965.600  0.500  -0.472180  9.527058  15.2765  13.183
  18967.486  18967.600  0.500  -0.471459  9.524375  15.2612  13.1646
  18969.476  18969.600  0.500  -0.471419  9.516143  15.2474  13.1397
  18971.483  18971.600  0.500  -0.470947  9.509664  15.2298  13.1097
  18973.489  18973.600  0.500  -0.470263  9.508163  15.217  13.0816
  18975.528  18975.600  0.500  -0.469343  9.508340  15.2033  13.0497
  18975.796  18975.900  0.500  -0.469410  9.504513  15.1982  13.0397
  18976.081  18976.200  0.500  -0.469211  9.490981  15.1735  13.0166
  18976.381  18976.500  0.500  -0.469245  9.502037  15.1917  13.0262
  18976.682  18976.800  0.500  -0.469093  9.493839  15.1763  13.0077
  18976.982  18977.100  0.500  -0.469100  9.486880  15.1653  12.9952
  18977.266  18977.400  0.500  -0.468684  9.487518  15.16  12.9862
  18977.598  18977.700  0.500  -0.468626  9.477185  15.1426  12.9626
  18977.930  18978.000  0.500  -0.468740  9.481310  15.1509  12.9641
  18978.231  18978.300  0.500  -0.468316  9.472027  15.1297  12.9413
  18978.515  18978.600  0.500  -0.468333  9.464288  15.1176  12.9238
  18978.816  18978.900  0.500  -0.468042  9.458009  15.1032  12.9036
  18979.116  18979.200  0.500  -0.467677  9.451031  15.0865  12.8857
  18979.416  18979.500  0.500  -0.467914  9.448083  15.0854  12.872
  18979.733  18979.800  0.500  -0.467652  9.440902  15.07  12.8525
  18980.049  18980.100  0.500  -0.467312  9.449474  15.0785  12.8502
  18980.397  18980.400  0.500  -0.467166  9.436632  15.0558  12.8202
  18980.681  18980.700  0.500  -0.466992  9.433223  15.0478  12.8053
  18980.935  18981.000  0.500  -0.466833  9.438658  15.054  12.8028
  18981.219  18981.300  0.500  -0.466561  9.437778  15.0485  12.7848
  18981.520  18981.600  0.500  -0.466263  9.443613  15.0534  12.7767
  18981.836  18981.900  0.500  -0.466023  9.444090  15.0505  12.759
  18982.152  18982.200  0.500  -0.465755  9.443674  15.0458  12.7361
  18982.437  18982.500  0.500  -0.465360  9.448373  15.0474  12.7202
  18982.737  18982.800  0.500  -0.465407  9.450360  15.0512  12.703
  18983.070  18983.100  0.500  -0.464579  9.462503  15.0581  12.688
  18983.354  18983.400  0.500  -0.464482  9.457738  15.0491  12.6554
  18983.671  18983.700  0.500  -0.463933  9.468352  15.0577  12.6385
  18983.955  18984.000  0.500  -0.463863  9.458370  15.0408  12.5894
  18984.272  18984.300  0.500  -0.463335  9.467090  15.0467  12.5611
  18984.572  18984.600  0.500  -0.462868  9.467458  15.0402  12.5171
  18984.873  18984.900  0.500  -0.462546  9.461871  15.0265  12.4564
  18985.189  18985.200  0.500  -0.461780  9.464458  15.0191  12.4029
  18985.506  18985.500  0.500  -0.461185  9.466193  15.0129  12.3455
  18985.775  18985.800  0.500  -0.460842  9.459740  14.9976  12.2791
  18986.075  18986.100  0.500  -0.460046  9.468623  14.9997  12.2185
  18986.360  18986.400  0.500  -0.459532  9.465556  14.9871  12.1441
  18986.661  18986.700  0.500  -0.458887  9.470918  14.9859  12.0685
  18986.977  18987.000  0.500  -0.457983  9.464602  14.9624  11.9758
  18987.262  18987.300  0.500  -0.457152  9.461936  14.9458  11.8848
  18987.579  18987.600  0.500  -0.456030  9.457939  14.9227  11.7927
  18987.879  18987.900  0.500  -0.454864  9.462625  14.9127  11.7127
  18988.133  18988.200  0.500  -0.453803  9.467332  14.9043  11.6411
  18988.449  18988.500  0.500  -0.452441  9.458993  14.8709  11.5444
  18988.766  18988.800  0.500  -0.451084  9.456222  14.8464  11.4666
  18989.051  18989.100  0.500  -0.449417  9.462200  14.831  11.3941
  18989.383  18989.400  0.500  -0.447753  9.471085  14.8203  11.3253
  18989.699  18989.700  0.500  -0.445760  9.460987  14.775  11.2385
  18990.000  18990.000  0.500  -0.443920  9.458636  14.7442  11.1736
  18990.269  18990.300  0.500  -0.441846  9.463053  14.7205  11.1164
  18990.570  18990.600  0.500  -0.439598  9.467971  14.6951  11.0619
  18990.855  18990.900  0.500  -0.437623  9.462579  14.6577  10.9983
  18991.140  18991.200  0.500  -0.435478  9.469984  14.6378  10.9538
  18991.472  18991.500  0.500  -0.433388  9.459489  14.591  10.8815
  18991.773  18991.800  0.500  -0.430703  9.459352  14.5517  10.8219
  18992.074  18992.100  0.500  -0.428288  9.461221  14.5195  10.7633
  18992.359  18992.400  0.500  -0.426215  9.460359  14.4881  10.7128
  18992.644  18992.700  0.500  -0.423508  9.463967  14.4544  10.6551
  18992.961  18993.000  0.500  -0.421505  9.460861  14.4208  10.5941
  18993.246  18993.300  0.500  -0.418683  9.460522  14.3796  10.5286
  18993.547  18993.600  0.500  -0.416173  9.463482  14.348  10.4688
  18993.863  18993.900  0.500  -0.413365  9.463507  14.3078  10.3946
  18994.212  18994.200  0.500  -0.410493  9.463789  14.2672  10.3192
  18994.481  18994.500  0.500  -0.408084  9.472045  14.2453  10.2645
  18994.782  18994.800  0.500  -0.405531  9.457762  14.1876  10.1814
  18995.083  18995.100  0.500  -0.402805  9.463056  14.1569  10.1155
  18995.368  18995.400  0.500  -0.400534  9.470547  14.1359  10.0573
  18995.669  18995.700  0.500  -0.397403  9.461127  14.0777  9.966679
  18995.986  18996.000  0.500  -0.394449  9.457282  14.0305  9.882186
  18996.287  18996.300  0.500  -0.391196  9.454995  13.9816  9.801626
  18996.587  18996.600  0.500  -0.388007  9.491153  13.9903  9.756237
  18996.888  18996.900  0.500  -0.384814  9.495876  13.9527  9.680169
  18997.174  18997.200  0.500  -0.381465  9.498141  13.9093  9.598150
  18997.475  18997.500  0.500  -0.377915  9.493297  13.853  9.507081
  18997.776  18997.800  0.500  -0.373986  9.496851  13.8038  9.418844
  18998.092  18998.100  0.500  -0.369713  9.498450  13.7473  9.320542
  18998.409  18998.400  0.500  -0.365108  9.494997  13.6792  9.213037
  18998.710  18998.700  0.500  -0.360424  9.486461  13.603  9.100917
  18999.011  18999.000  0.500  -0.355190  9.490448  13.5377  8.997873
  18999.312  18999.300  0.500  -0.350250  9.489915  13.4702  8.897830
  18999.582  18999.600  0.500  -0.345069  9.498343  13.4125  8.803189
  18999.867  18999.900  0.500  -0.340327  9.493030  13.3416  8.703450
  19000.200  19000.200  0.500  -0.334209  9.487406  13.2523  8.584086
  19000.517  19000.500  0.500  -0.327980  9.488937  13.1722  8.475454
  19000.802  19000.800  0.500  -0.321676  9.491022  13.0923  8.371256
  19001.119  19001.100  0.500  -0.314821  9.496802  13.0108  8.267421
  19001.420  19001.400  0.500  -0.308161  9.489750  12.9148  8.161103
  19001.705  19001.700  0.500  -0.302143  9.489719  12.8373  8.072474
  19001.991  19002.000  0.500  -0.295655  9.488550  12.7527  7.980676
  19002.323  19002.300  0.500  -0.288411  9.487281  12.6589  7.884810
  19002.609  19002.600  0.500  -0.281503  9.482973  12.5661  7.795391
  19002.942  19002.900  0.500  -0.273914  9.490262  12.4807  7.717927
  19003.259  19003.200  0.500  -0.266542  9.492694  12.3922  7.638514
  19003.528  19003.500  0.500  -0.259562  9.492930  12.3063  7.571090
  19003.845  19003.800  0.500  -0.252798  9.482338  12.2097  7.500584
  19004.115  19004.100  0.500  -0.246047  9.489141  12.1362  7.447254
  19004.416  19004.400  0.500  -0.239546  9.478146  12.0436  7.384839
  19004.717  19004.700  0.500  -0.232294  9.482643  11.9623  7.335668
  19005.018  19005.000  0.500  -0.225228  9.483131  11.8786  7.288283
  19005.319  19005.300  0.500  -0.218992  9.477116  11.7973  7.241751
  19005.621  19005.600  0.500  -0.212431  9.478093  11.7214  7.205713
  19005.906  19005.900  0.500  -0.206587  9.473407  11.6473  7.170719
  19006.191  19006.200  0.500  -0.201110  9.478633  11.5901  7.147580
  19006.509  19006.500  0.500  -0.195657  9.480618  11.5295  7.120461
  19006.842  19006.800  0.500  -0.189855  9.474225  11.455  7.091079
  19007.095  19007.100  0.500  -0.184304  9.474165  11.3916  7.065664
  19007.412  19007.400  0.500  -0.179478  9.469404  11.331  7.040323
  19007.730  19007.700  0.500  -0.174765  9.471317  11.28  7.023422
  19008.015  19008.000  0.500  -0.170615  9.468292  11.2297  6.998634
  19008.301  19008.300  0.500  -0.166739  9.466354  11.184  6.980322
  19008.602  19008.600  0.500  -0.162755  9.468078  11.1415  6.959722
  19008.903  19008.900  0.500  -0.158726  9.467736  11.0963  6.937767
  19009.221  19009.200  0.500  -0.154855  9.466273  11.0518  6.915210
  19009.506  19009.500  0.500  -0.150961  9.463606  11.0057  6.887849
  19009.823  19009.800  0.500  -0.147200  9.463732  10.9645  6.864000
  19010.109  19010.100  0.500  -0.144286  9.463204  10.932  6.844448
  19010.378  19010.400  0.500  -0.141627  9.458380  10.8974  6.818829
  19010.585  19010.600  0.500  -0.139658  9.465577  10.8843  6.809416
  19011.632  19011.590  0.500  -0.131741  9.464957  10.7977  6.742841
  19012.615  19012.590  0.500  -0.128422  9.453349  10.7488  6.695324
  19013.615  19013.610  0.500  -0.128942  9.448319  10.7486  6.681891
  19014.663  19014.660  0.500  -0.132192  9.445583  10.7805  6.693714
  19015.710  19015.720  0.500  -0.136212  9.451974  10.8312  6.723023
  19016.789  19016.800  0.500  -0.139248  9.443024  10.8539  6.736465
  19017.885  19017.900  0.500  -0.139783  9.441143  10.8575  6.738720
  19019.012  19019.020  0.500  -0.138546  9.438103  10.8406  6.721472
  19020.171  19020.160  0.500  -0.136531  9.435098  10.8154  6.690387
  19021.330  19021.310  0.500  -0.133996  9.431527  10.7839  6.651794
  19022.474  19022.490  0.500  -0.132720  9.425292  10.763  6.614520
  19023.761  19023.680  0.500  -0.133900  9.424082  10.7743  6.593472
  19024.920  19024.900  0.500  -0.137858  9.418752  10.811  6.591102
  19026.160  19026.130  0.500  -0.144573  9.422629  10.8883  6.612317
  19027.431  19027.380  0.500  -0.153596  9.415682  10.9789  6.645187
  19028.671  19028.650  0.500  -0.163167  9.412004  11.0801  6.690731
  19029.974  19029.940  0.500  -0.172982  9.409545  11.1865  6.757773
  19031.309  19031.250  0.500  -0.182530  9.401986  11.2847  6.833728
  19032.581  19032.580  0.500  -0.190145  9.402647  11.3718  6.921814
  19033.949  19033.930  0.500  -0.196887  9.396079  11.4407  7.008377
  19035.317  19035.300  0.500  -0.201788  9.391990  11.4919  7.090029
  19036.701  19036.680  0.500  -0.205068  9.384894  11.521  7.145350
  19038.085  19038.090  0.500  -0.206927  9.384572  11.542  7.185648
  19039.517  19039.510  0.500  -0.208822  9.382852  11.5618  7.211804
  19040.965  19040.950  0.500  -0.209621  9.378187  11.5653  7.217508
  19042.429  19042.410  0.500  -0.211051  9.365889  11.5666  7.213917
  19043.893  19043.890  0.500  -0.212863  9.362197  11.5831  7.212740
  19045.438  19045.390  0.500  -0.214435  9.360196  11.5988  7.213281
  19046.982  19046.910  0.500  -0.216313  9.357960  11.6178  7.215243
  19048.479  19048.450  0.500  -0.217713  9.349940  11.6241  7.218331
  19050.072  19050.010  0.500  -0.219071  9.342131  11.6302  7.225009
  19051.602  19051.580  0.500  -0.219860  9.331901  11.6266  7.230437
  19053.243  19053.180  0.500  -0.220093  9.328047  11.6245  7.239846
  19054.868  19054.790  0.500  -0.218915  9.330463  11.6139  7.246065
  19056.446  19056.430  0.500  -0.216442  9.336209  11.5923  7.240962
  19058.073  19058.080  0.500  -0.213662  9.334973  11.5586  7.222292
  19059.747  19059.750  0.500  -0.209658  9.325969  11.5013  7.183404
  19061.453  19061.440  0.500  -0.205470  9.322824  11.4494  7.137256
  19063.176  19063.150  0.500  -0.201552  9.318625  11.3995  7.082967
  19064.915  19064.880  0.500  -0.197757  9.313382  11.3499  7.022293
  19066.670  19066.630  0.500  -0.194275  9.311382  11.308  6.972981
  19068.457  19068.390  0.500  -0.190791  9.301102  11.2563  6.924404
  19070.213  19070.180  0.500  -0.187597  9.295958  11.2142  6.896132
  19072.017  19071.980  0.500  -0.184384  9.295054  11.1771  6.889430
  19073.870  19073.810  0.500  -0.181816  9.289570  11.1418  6.891411
  19075.659  19075.650  0.500  -0.180610  9.289886  11.1288  6.914362
  19077.512  19077.510  0.500  -0.180777  9.287013  11.1272  6.938759
  19079.429  19079.390  0.500  -0.182055  9.273747  11.1255  6.954807
  19081.299  19081.290  0.500  -0.183737  9.267805  11.1371  6.969451
  19083.217  19083.210  0.500  -0.185103  9.267501  11.152  6.978701
  19085.151  19085.150  0.500  -0.186957  9.259316  11.1628  6.981712
  19087.134  19087.110  0.500  -0.188060  9.258624  11.1743  6.988668
  19089.101  19089.080  0.500  -0.189226  9.248674  11.1753  6.990248
  19091.149  19091.080  0.500  -0.190746  9.244792  11.1876  6.996772
  19093.117  19093.090  0.500  -0.192337  9.237761  11.1969  7.001919
  19095.166  19095.120  0.500  -0.193732  9.243000  11.2189  7.012838
  19097.231  19097.180  0.500  -0.195544  9.224172  11.2163  7.003984
  19099.296  19099.250  0.500  -0.197149  9.224738  11.235  7.005188
  19101.314  19101.340  0.500  -0.199022  9.220999  11.2515  7.001729
  19103.460  19103.450  0.500  -0.200632  9.214834  11.2621  6.996230
  19105.591  19105.580  0.500  -0.201714  9.205777  11.2632  6.988170
  19107.739  19107.720  0.500  -0.203000  9.197391  11.2675  6.990238
  19109.935  19109.890  0.500  -0.203936  9.196177  11.2765  7.001230
  19112.147  19112.080  0.500  -0.204605  9.193104  11.2803  7.017399
  19114.328  19114.280  0.500  -0.205704  9.182841  11.2801  7.033071
  19116.542  19116.500  0.500  -0.206766  9.172525  11.2794  7.053091
  19118.772  19118.750  0.500  -0.207401  9.170229  11.2838  7.078691
  19121.034  19121.010  0.500  -0.208438  9.163308  11.2869  7.100615
  19123.298  19123.290  0.500  -0.209099  9.164396  11.2957  7.121369
  19125.626  19125.590  0.500  -0.209431  9.159859  11.2939  7.131481
  19127.906  19127.910  0.500  -0.210337  9.146341  11.2874  7.132801
  19130.251  19130.250  0.500  -0.210410  9.145093  11.2867  7.137124
  19132.661  19132.600  0.500  -0.210694  9.127866  11.2687  7.129114
  19135.040  19134.980  0.500  -0.210908  9.128329  11.2717  7.128679
  19137.435  19137.370  0.500  -0.210435  9.124946  11.2621  7.115419
  19139.831  19139.790  0.500  -0.209991  9.120527  11.2517  7.100106
  19142.259  19142.220  0.500  -0.209712  9.118155  11.2456  7.090346
  19144.721  19144.670  0.500  -0.209060  9.111377  11.2299  7.075952
  19147.151  19147.150  0.500  -0.209000  9.098571  11.2135  7.062485
  19149.678  19149.640  0.500  -0.208562  9.096559  11.2061  7.057225
  19152.205  19152.150  0.500  -0.208240  9.086969  11.1907  7.047695
  19154.718  19154.670  0.500  -0.207526  9.080670  11.1749  7.034822
  19157.263  19157.220  0.500  -0.206978  9.072848  11.1592  7.011572
  19159.857  19159.790  0.500  -0.206527  9.070175  11.1509  6.985215
  19162.387  19162.370  0.500  -0.205907  9.067694  11.1409  6.959926
  19164.999  19164.980  0.500  -0.205692  9.058982  11.1278  6.939307
  19167.612  19167.600  0.500  -0.205450  9.051548  11.116  6.927436
  19170.289  19170.250  0.500  -0.205713  9.042718  11.1081  6.929847
  19172.935  19172.910  0.500  -0.205970  9.032917  11.0989  6.944293
  19175.631  19175.590  0.500  -0.206737  9.026733  11.0998  6.974506
  19178.311  19178.290  0.500  -0.207341  9.018154  11.096  7.010571
  19181.088  19181.010  0.500  -0.208823  9.014895  11.1084  7.055702
  19183.770  19183.750  0.500  -0.209604  8.996463  11.0943  7.076037
  19186.516  19186.500  0.500  -0.210579  8.991734  11.0993  7.097879
  19189.296  19189.280  0.500  -0.211075  8.998026  11.1126  7.114119
  19192.142  19192.070  0.500  -0.211864  8.990076  11.1115  7.107781
  19194.956  19194.890  0.500  -0.212573  8.989887  11.1192  7.107691
  19197.771  19197.720  0.500  -0.213382  8.975807  11.1108  7.097566
  19200.635  19200.570  0.500  -0.214125  8.966111  11.107  7.092103
  19203.467  19203.450  0.500  -0.214943  8.962212  11.1113  7.087491
  19206.349  19206.340  0.500  -0.214994  8.956579  11.1049  7.076875
  19209.281  19209.250  0.500  -0.215601  8.947042  11.0998  7.061388
  19212.246  19212.170  0.500  -0.216052  8.951458  11.1103  7.052166
  19215.195  19215.120  0.500  -0.216453  8.941161  11.1019  7.031615
  19218.130  19218.090  0.500  -0.216745  8.922598  11.0821  7.007144
  19221.113  19221.070  0.500  -0.216572  8.917599  11.074  6.991028
  19224.098  19224.080  0.500  -0.216659  8.902415  11.0561  6.972387
  19227.116  19227.100  0.500  -0.217173  8.899369  11.058  6.971048
  19230.184  19230.150  0.500  -0.217346  8.888952  11.047  6.964128
  19233.269  19233.210  0.500  -0.217988  8.882427  11.0459  6.962791
  19236.355  19236.290  0.500  -0.218718  8.877772  11.0482  6.967898
  19239.426  19239.390  0.500  -0.218691  8.872344  11.0412  6.971542
  19242.498  19242.510  0.500  -0.218549  8.867990  11.0342  6.978082
  19245.652  19245.650  0.500  -0.218039  8.854077  11.0112  6.978412
  19248.856  19248.800  0.500  -0.217331  8.852229  11.0012  6.991808
  19252.077  19251.980  0.500  -0.217253  8.840390  10.9856  6.999833
  19255.201  19255.170  0.500  -0.217086  8.834917  10.977  7.011345
  19258.441  19258.390  0.500  -0.216746  8.827133  10.9635  7.015234
  19261.633  19261.620  0.500  -0.216973  8.819871  10.957  7.022282
  19264.907  19264.870  0.500  -0.217034  8.810112  10.9456  7.022905
  19268.215  19268.150  0.500  -0.217078  8.800369  10.9339  7.021013
  19271.557  19271.440  0.500  -0.217190  8.792389  10.9252  7.011045
  19274.819  19274.750  0.500  -0.217369  8.787409  10.921  6.999390
  19278.098  19278.070  0.500  -0.217305  8.779028  10.9099  6.982572
  19281.410  19281.420  0.500  -0.217420  8.768884  10.8985  6.963467
  19284.838  19284.790  0.500  -0.217632  8.765631  10.8968  6.952867
  19288.219  19288.170  0.500  -0.218020  8.755047  10.8879  6.939192
  19291.600  19291.580  0.500  -0.218748  8.739556  10.8765  6.924604
  19295.016  19295.000  0.500  -0.219514  8.738187  10.8832  6.924580
  19298.481  19298.450  0.500  -0.220026  8.737366  10.8877  6.925737
  19301.932  19301.910  0.500  -0.221068  8.719877  10.8773  6.916912
  19305.400  19305.390  0.500  -0.221659  8.717330  10.8805  6.921543
  19308.902  19308.890  0.500  -0.222450  8.705217  10.874  6.921553
  19312.487  19312.410  0.500  -0.223028  8.711130  10.8877  6.938702
  19316.009  19315.950  0.500  -0.223709  8.699297  10.8803  6.936529
  19319.531  19319.500  0.500  -0.224074  8.690363  10.8731  6.937401
  19323.071  19323.080  0.500  -0.224112  8.682910  10.8642  6.935046
  19326.744  19326.680  0.500  -0.224119  8.656602  10.8313  6.922191
  19330.352  19330.290  0.500  -0.223768  8.671375  10.846  6.942532
  19333.995  19333.920  0.500  -0.223582  8.653823  10.822  6.935247
  19337.622  19337.580  0.500  -0.223301  8.648798  10.8127  6.937993
  19341.300  19341.250  0.500  -0.223295  8.640543  10.8023  6.935509
  19344.980  19344.940  0.500  -0.223201  8.638662  10.7989  6.936671
  19348.726  19348.650  0.500  -0.223822  8.620280  10.7827  6.929212
  19352.458  19352.380  0.500  -0.224207  8.618453  10.7845  6.935749
  19356.142  19356.120  0.500  -0.224911  8.604736  10.7749  6.928911
  19359.926  19359.890  0.500  -0.224909  8.597544  10.7659  6.924157
  19363.744  19363.680  0.500  -0.225183  8.586872  10.7555  6.914114
  19367.531  19367.480  0.500  -0.225006  8.576351  10.7404  6.902259
  19371.369  19371.310  0.500  -0.225487  8.563589  10.7296  6.893189
  19375.209  19375.150  0.500  -0.225964  8.556327  10.7256  6.891223
  19379.066  19379.010  0.500  -0.226306  8.545506  10.7157  6.886221
  19382.941  19382.890  0.500  -0.227050  8.535292  10.7109  6.885670
  19386.901  19386.790  0.500  -0.227598  8.528497  10.7082  6.882470
  19390.763  19390.710  0.500  -0.228497  8.517657  10.7042  6.880289
  19394.660  19394.650  0.500  -0.228901  8.519411  10.7108  6.882889
  19398.657  19398.610  0.500  -0.229279  8.497987  10.6879  6.867335
  19402.689  19402.580  0.500  -0.229551  8.493949  10.6857  6.864371
  19406.657  19406.580  0.500  -0.229650  8.474900  10.6628  6.850875
  19410.610  19410.590  0.500  -0.229664  8.468442  10.6548  6.847132
  19414.663  19414.630  0.500  -0.229451  8.456101  10.637  6.842144
  19418.718  19418.680  0.500  -0.229944  8.450426  10.6351  6.843278
  19422.776  19422.750  0.500  -0.230150  8.440384  10.6247  6.840722
  19426.934  19426.840  0.500  -0.230537  8.422187  10.6059  6.834903
  19430.978  19430.950  0.500  -0.230342  8.415325  10.5951  6.834008
  19435.073  19435.080  0.500  -0.230642  8.414150  10.5968  6.839221
  19439.303  19439.230  0.500  -0.230527  8.397333  10.5745  6.829902
  19443.418  19443.390  0.500  -0.230652  8.390927  10.5677  6.828013
  19447.635  19447.580  0.500  -0.230855  8.375572  10.5505  6.817270
  19451.804  19451.780  0.500  -0.231272  8.365616  10.5424  6.813950
  19456.008  19456.010  0.500  -0.231320  8.356928  10.5319  6.806900
  19460.280  19460.250  0.500  -0.231474  8.349080  10.5236  6.806485
  19464.571  19464.510  0.500  -0.231687  8.328667  10.5002  6.792614
  19468.797  19468.790  0.500  -0.232246  8.229842  10.3814  6.718277
  19473.125  19473.090  0.500  -0.232960  8.299558  10.4768  6.780082
  19477.421  19477.410  0.500  -0.233377  8.299512  10.4811  6.785029
  19481.820  19481.750  0.500  -0.233536  8.289553  10.4702  6.777987
  19486.153  19486.110  0.500  -0.233924  8.278188  10.4599  6.772996
  19490.522  19490.490  0.500  -0.234351  8.269305  10.4531  6.770277
  19494.927  19494.880  0.500  -0.235021  8.263881  10.4533  6.769893
  19499.383  19499.300  0.500  -0.235266  8.252975  10.442  6.766606
  19503.775  19503.730  0.500  -0.235495  8.237109  10.4244  6.755469
  19508.202  19508.180  0.500  -0.235829  8.224236  10.4115  6.747712
  19512.681  19512.650  0.500  -0.236290  8.218917  10.4096  6.746131
  19517.145  19517.140  0.500  -0.236893  8.206165  10.3997  6.737206
  19521.746  19521.650  0.500  -0.237223  8.195788  10.39  6.731731
  19526.231  19526.180  0.500  -0.237344  8.181527  10.3732  6.722564
  19530.769  19530.730  0.500  -0.237120  8.171551  10.3582  6.715937
  19535.292  19535.300  0.500  -0.237323  8.162182  10.3484  6.711816
  19539.952  19539.880  0.500  -0.237724  8.145837  10.3318  6.708042
  19544.529  19544.490  0.500  -0.237874  8.139714  10.3256  6.710444
  19549.176  19549.110  0.500  -0.238159  8.128882  10.3148  6.705942
  19553.758  19553.760  0.500  -0.238052  8.117651  10.2995  6.701910
  19558.460  19558.420  0.500  -0.238265  8.101577  10.2813  6.694070
  19563.164  19563.100  0.500  -0.238698  8.090122  10.2712  6.689076
  19567.820  19567.800  0.500  -0.239046  8.077578  10.2588  6.681595
  19572.546  19572.520  0.500  -0.239264  8.071181  10.2529  6.683076
  19577.307  19577.260  0.500  -0.239977  8.058403  10.244  6.678531
  19582.071  19582.010  0.500  -0.240291  8.046192  10.2317  6.671837
  19586.854  19586.790  0.500  -0.240429  8.034374  10.2181  6.662573
  19591.673  19591.590  0.500  -0.241041  8.018108  10.2036  6.654207
  19596.460  19596.400  0.500  -0.241125  8.007354  10.1908  6.647199
  19601.284  19601.230  0.500  -0.241536  7.993899  10.1779  6.639209
  19606.178  19606.090  0.500  -0.242262  7.946454  10.1248  6.606229
  19611.057  19610.960  0.500  -0.242160  7.925660  10.0973  6.589538
  19615.938  19615.850  0.500  -0.242479  7.969171  10.156  6.627705
  19620.890  19620.760  0.500  -0.242609  7.959942  10.1455  6.623533
  19625.743  19625.690  0.500  -0.243159  7.940069  10.1257  6.611115
  19630.733  19630.630  0.500  -0.243674  7.931551  10.1201  6.610099
  19635.693  19635.600  0.500  -0.243751  7.897616  10.0776  6.584135
  19640.722  19640.590  0.500  -0.244323  7.906342  10.0945  6.596277
  19645.737  19645.590  0.500  -0.244917  7.888952  10.0783  6.588668
  19650.704  19650.620  0.500  -0.245203  7.877266  10.0662  6.584098
  19655.758  19655.660  0.500  -0.245520  7.863961  10.0524  6.578754
  19660.798  19660.720  0.500  -0.245657  7.846989  10.0321  6.569439
  19665.908  19665.800  0.500  -0.245941  7.829561  10.0126  6.560909
  19671.021  19670.900  0.500  -0.246162  7.820338  10.0031  6.556862
  19676.086  19676.020  0.500  -0.246718  7.701623  9.856676  6.465034
  19681.272  19681.160  0.500  -0.246820  7.802298  9.986540  6.553425
  19686.376  19686.320  0.500  -0.247084  7.795654  9.980670  6.550798
  19691.517  19691.500  0.500  -0.247587  7.766434  9.948262  6.532293
  19696.729  19696.690  0.500  -0.247892  7.771907  9.958311  6.540565
  19701.960  19701.910  0.500  -0.248188  7.763326  9.950264  6.539403
  19707.160  19707.140  0.500  -0.248709  7.744304  9.931059  6.526289
  19712.431  19712.390  0.500  -0.249096  7.730997  9.917822  6.519182
  19717.756  19717.660  0.500  -0.249277  7.711285  9.894331  6.505166
  19722.982  19722.950  0.500  -0.249342  7.698417  9.878460  6.496777
  19728.261  19728.260  0.500  -0.249570  7.691058  9.871272  6.491598
  19733.612  19733.590  0.500  -0.249796  7.674894  9.852748  6.482131
  19739.000  19738.940  0.500  -0.250225  7.658724  9.836208  6.473007
  19744.408  19744.310  0.500  -0.250638  7.568826  9.724771  6.403135
  19749.768  19749.690  0.500  -0.251282  7.635849  9.817198  6.464305
  19755.113  19755.100  0.500  -0.251693  7.629603  9.813206  6.463669
  19760.547  19760.520  0.500  -0.252138  7.619929  9.805121  6.460814
  19766.036  19765.970  0.500  -0.252726  7.599555  9.784654  6.450599
  19771.476  19771.430  0.500  -0.253047  7.589751  9.775173  6.445575
  19776.971  19776.910  0.500  -0.253275  7.574440  9.757681  6.436714
  19782.451  19782.410  0.500  -0.253938  7.561657  9.747675  6.434109
  19787.935  19787.930  0.500  -0.254013  7.547152  9.729700  6.426659
  19793.490  19793.470  0.500  -0.254367  7.534145  9.716370  6.419810
  19799.066  19799.020  0.500  -0.254463  7.520886  9.700204  6.412363
  19804.662  19804.600  0.500  -0.254977  7.509084  9.689962  6.408205
  19810.262  19810.200  0.500  -0.255103  7.497097  9.675709  6.400717
  19815.847  19815.810  0.500  -0.255576  7.478738  9.656582  6.390755
  19821.470  19821.450  0.500  -0.256119  7.466490  9.646004  6.383246
  19827.096  19827.100  0.500  -0.256141  7.453663  9.629646  6.375289
  19832.812  19832.770  0.500  -0.256668  7.440605  9.617841  6.368866
  19838.514  19838.460  0.500  -0.256847  7.426381  9.601172  6.360839