File: xdidata/Nb/Nb-K-Niobiumfoil.xdi
# XDI/1.0 BlueSky/1.10.0 BMM/2023-1.0-py310-tiled
# Beamline.name: BMM (06BM) -- Beamline for Materials Measurement (NIST)
# Beamline.xray_source: NSLS-II three-pole wiggler
# Beamline.collimation: paraboloid mirror, 5 nm Rh on 30 nm Pt
# Beamline.focusing: not in use
# Beamline.harmonic_rejection: flat mirror, Pt stripe, pitch = 7.0 mrad relative to beam
# Beamline.software: Bluesky 1.10.0, Ophyd 1.7.0, DataBroker 2.0.0b13, Python 3.10.8, 2023-1.0-py310-tiled
# Detector.I0: 10 cm N2
# Detector.I1: 25 cm N2
# Detector.I2: 25 cm N2
# Element.symbol: Nb
# Element.edge: K
# Element.reference: Nb
# Element.reference_material: Nb foil
# Facility.name: NSLS-II
# Facility.energy: 3.0
# Facility.current: 400.8
# Facility.mode: top-off
# Facility.GUP: 301027
# Facility.SAF: 310583
# Facility.cycle: 2023-2
# Mono.name: Si(111)
# Mono.d_spacing: 3.13519
# Mono.encoder_resolution: 0.0000050 deg/ct
# Mono.angle_offset: 16.0754 deg
# Mono.scan_mode: pseudo channel cut
# Mono.scan_type: step
# Mono.direction: forward in energy
# Sample.name: Nb foil
# Sample.prep: reference foil
# Sample.x: 109.138 mm
# Sample.y: 153.150 mm
# Sample.SDD_position: 205.000 mm
# Scan.experimenters: Bruce Ravel
# Scan.edge_energy: 18985.6
# Scan.start_time: 2023-05-28T22:29:09
# Scan.end_time: 2023-05-28T22:36:22
# Scan.transient_id: 79071
# Scan.uid: 0e664a0a-1f56-47cd-8356-9b6d0ab5ae10
# Scan.plot_hint: ln(It/Ir)  --  ln($6/$7)
# Column.1: energy eV
# Column.2: requested_energy eV
# Column.3: measurement_time seconds
# Column.4: xmu
# Column.5: I0 nA
# Column.6: It nA
# Column.7: Ir nA
# ///////////
# standard reference foil
# -----------
# energy  requested_energy  measurement_time  xmu  I0  It  Ir
  18785.526  18785.600  0.500  0.155024  10.1777  19.1277  16.3808
  18795.645  18795.600  0.500  0.154899  10.1529  19.0882  16.349
  18805.651  18805.600  0.500  0.154645  10.1294  19.0383  16.3105
  18815.621  18815.600  0.500  0.154566  10.1067  18.9986  16.2777
  18825.633  18825.600  0.500  0.154451  10.0792  18.949  16.2371
  18835.609  18835.600  0.500  0.154104  10.0526  18.8989  16.1998
  18845.689  18845.600  0.500  0.154065  10.0259  18.8532  16.1613
  18855.640  18855.600  0.500  0.153783  9.992998  18.7939  16.115
  18865.710  18865.600  0.500  0.153711  9.969199  18.7513  16.0796
  18875.635  18875.600  0.500  0.153657  9.948293  18.7152  16.0495
  18885.680  18885.600  0.500  0.153447  9.924282  18.6643  16.0092
  18895.642  18895.600  0.500  0.153530  9.897413  18.6158  15.9663
  18905.708  18905.600  0.500  0.153472  9.865604  18.558  15.9177
  18915.644  18915.600  0.500  0.153681  9.829306  18.4945  15.8599
  18925.716  18925.600  0.500  0.153759  9.815764  18.4679  15.8359
  18935.673  18935.600  0.500  0.154001  9.787978  18.4146  15.7863
  18945.672  18945.600  0.500  0.154629  9.754992  18.3546  15.725
  18955.619  18955.600  0.500  0.155582  9.729201  18.3087  15.6707
  18957.543  18957.600  0.500  0.155847  9.733461  18.3144  15.6714
  18959.531  18959.600  0.500  0.156209  9.726457  18.3009  15.6542
  18961.567  18961.600  0.500  0.156547  9.717428  18.2852  15.6355
  18963.587  18963.600  0.500  0.157077  9.711362  18.2749  15.6184
  18965.607  18965.600  0.500  0.157656  9.705043  18.2685  15.6039
  18967.613  18967.600  0.500  0.158409  9.703319  18.2614  15.5861
  18969.619  18969.600  0.500  0.158975  9.690709  18.2334  15.5534
  18971.577  18971.600  0.500  0.160172  9.688060  18.2347  15.5359
  18973.615  18973.600  0.500  0.161282  9.686267  18.2285  15.5134
  18975.575  18975.600  0.500  0.162678  9.678619  18.2161  15.4812
  18975.844  18975.900  0.500  0.163041  9.676787  18.2081  15.4688
  18976.176  18976.200  0.500  0.163544  9.680919  18.2216  15.4725
  18976.476  18976.500  0.500  0.163783  9.671280  18.2011  15.4514
  18976.761  18976.800  0.500  0.164054  9.673409  18.2081  15.4531
  18977.061  18977.100  0.500  0.164454  9.673822  18.2037  15.4432
  18977.345  18977.400  0.500  0.164787  9.672266  18.2004  15.4353
  18977.646  18977.700  0.500  0.165220  9.669587  18.1987  15.4272
  18977.946  18978.000  0.500  0.165464  9.663169  18.1858  15.4125
  18978.231  18978.300  0.500  0.166093  9.657067  18.1752  15.3938
  18978.531  18978.600  0.500  0.166222  9.655743  18.1684  15.386
  18978.863  18978.900  0.500  0.167026  9.645514  18.1555  15.3628
  18979.164  18979.200  0.500  0.167367  9.638128  18.1415  15.3457
  18979.448  18979.500  0.500  0.167790  9.632547  18.1277  15.3275
  18979.717  18979.800  0.500  0.168479  9.630585  18.1277  15.317
  18980.049  18980.100  0.500  0.169145  9.627128  18.1172  15.2979
  18980.349  18980.400  0.500  0.169569  9.622815  18.1127  15.2876
  18980.666  18980.700  0.500  0.170296  9.624081  18.1094  15.2737
  18980.966  18981.000  0.500  0.171480  9.617915  18.0995  15.2473
  18981.282  18981.300  0.500  0.172011  9.615419  18.0973  15.2374
  18981.567  18981.600  0.500  0.172986  9.622543  18.1117  15.2346
  18981.868  18981.900  0.500  0.174086  9.621279  18.1082  15.2149
  18982.168  18982.200  0.500  0.175026  9.627321  18.1129  15.2046
  18982.453  18982.500  0.500  0.176028  9.631198  18.1206  15.1958
  18982.769  18982.800  0.500  0.177593  9.630322  18.1248  15.1756
  18983.054  18983.100  0.500  0.178818  9.635983  18.1355  15.166
  18983.370  18983.400  0.500  0.180515  9.639691  18.1405  15.1444
  18983.671  18983.700  0.500  0.182631  9.638682  18.1395  15.1116
  18983.955  18984.000  0.500  0.184433  9.642784  18.1485  15.0919
  18984.256  18984.300  0.500  0.186505  9.639360  18.1418  15.055
  18984.572  18984.600  0.500  0.188988  9.643529  18.1472  15.0222
  18984.857  18984.900  0.500  0.191980  9.647523  18.1564  14.9849
  18985.189  18985.200  0.500  0.195454  9.647463  18.1562  14.9328
  18985.474  18985.500  0.500  0.199048  9.645500  18.155  14.8782
  18985.806  18985.800  0.500  0.203396  9.645322  18.156  14.8145
  18986.107  18986.100  0.500  0.207771  9.644902  18.1551  14.7491
  18986.376  18986.400  0.500  0.212254  9.646273  18.1521  14.6807
  18986.661  18986.700  0.500  0.217760  9.646827  18.158  14.6048
  18986.962  18987.000  0.500  0.223255  9.643892  18.1533  14.521
  18987.278  18987.300  0.500  0.229599  9.644806  18.1529  14.4288
  18987.579  18987.600  0.500  0.235487  9.643957  18.1514  14.343
  18987.895  18987.900  0.500  0.242295  9.640678  18.143  14.2391
  18988.180  18988.200  0.500  0.248335  9.645768  18.1576  14.1647
  18988.465  18988.500  0.500  0.254653  9.647399  18.1556  14.074
  18988.766  18988.800  0.500  0.260440  9.641497  18.1479  13.9868
  18989.051  18989.100  0.500  0.266294  9.640687  18.1438  13.902
  18989.383  18989.400  0.500  0.271991  9.640573  18.1429  13.8224
  18989.715  18989.700  0.500  0.277382  9.640685  18.1452  13.7498
  18990.016  18990.000  0.500  0.282233  9.637311  18.1422  13.681
  18990.317  18990.300  0.500  0.286577  9.636416  18.139  13.6193
  18990.618  18990.600  0.500  0.290239  9.640282  18.143  13.5725
  18990.918  18990.900  0.500  0.293654  9.633871  18.1339  13.5194
  18991.203  18991.200  0.500  0.296602  9.633898  18.1345  13.4801
  18991.488  18991.500  0.500  0.299778  9.636931  18.1381  13.44
  18991.837  18991.800  0.500  0.302853  9.629779  18.1304  13.393
  18992.122  18992.100  0.500  0.305656  9.630615  18.1261  13.3524
  18992.454  18992.400  0.500  0.308784  9.631772  18.1284  13.3124
  18992.739  18992.700  0.500  0.311887  9.626890  18.1243  13.2681
  18993.008  18993.000  0.500  0.314534  9.630592  18.1262  13.2345
  18993.293  18993.300  0.500  0.317689  9.626656  18.1217  13.1895
  18993.626  18993.600  0.500  0.321403  9.629119  18.1263  13.144
  18993.911  18993.900  0.500  0.324923  9.623212  18.1141  13.0889
  18994.228  18994.200  0.500  0.328863  9.629174  18.1223  13.0434
  18994.528  18994.500  0.500  0.333383  9.621271  18.1153  12.9795
  18994.829  18994.800  0.500  0.337088  9.622841  18.1125  12.9296
  18995.114  18995.100  0.500  0.341334  9.622903  18.1156  12.877
  18995.384  18995.400  0.500  0.345233  9.622234  18.1145  12.8261
  18995.685  18995.700  0.500  0.349758  9.624702  18.1168  12.7698
  18996.017  18996.000  0.500  0.354474  9.621677  18.1096  12.7047
  18996.318  18996.300  0.500  0.359544  9.617836  18.1064  12.6381
  18996.635  18996.600  0.500  0.364311  9.613767  18.0991  12.573
  18996.920  18996.900  0.500  0.369418  9.618023  18.1051  12.5131
  18997.221  18997.200  0.500  0.374538  9.614137  18.0995  12.4453
  18997.490  18997.500  0.500  0.379434  9.619671  18.1066  12.3894
  18997.791  18997.800  0.500  0.385048  9.615458  18.0999  12.3155
  18998.077  18998.100  0.500  0.391190  9.614674  18.0984  12.239
  18998.409  18998.400  0.500  0.397230  9.616559  18.104  12.1691
  18998.710  18998.700  0.500  0.403541  9.610600  18.092  12.0846
  18999.027  18999.000  0.500  0.410321  9.612577  18.0925  12.0033
  18999.328  18999.300  0.500  0.416934  9.609091  18.0905  11.9228
  18999.629  18999.600  0.500  0.423242  9.609669  18.0923  11.849
  18999.899  18999.900  0.500  0.429417  9.609151  18.0912  11.7754
  19000.168  19000.200  0.500  0.435690  9.608093  18.0875  11.6993
  19000.501  19000.500  0.500  0.442899  9.602776  18.0818  11.6117
  19000.786  19000.800  0.500  0.449150  9.601057  18.0779  11.5368
  19001.103  19001.100  0.500  0.455900  9.601338  18.073  11.4561
  19001.388  19001.400  0.500  0.461961  9.602146  18.0775  11.3897
  19001.689  19001.700  0.500  0.467638  9.600957  18.0715  11.3214
  19001.975  19002.000  0.500  0.472731  9.598623  18.0707  11.2634
  19002.260  19002.300  0.500  0.477690  9.598231  18.072  11.2085
  19002.561  19002.600  0.500  0.482405  9.601702  18.0761  11.1584
  19002.878  19002.900  0.500  0.486307  9.595666  18.0651  11.1081
  19003.195  19003.200  0.500  0.490182  9.595132  18.0676  11.0667
  19003.528  19003.500  0.500  0.493373  9.601973  18.0784  11.038
  19003.797  19003.800  0.500  0.495635  9.598204  18.068  11.0067
  19004.099  19004.100  0.500  0.497527  9.596684  18.0675  10.9856
  19004.384  19004.400  0.500  0.498553  9.592168  18.057  10.968
  19004.669  19004.700  0.500  0.499473  9.591979  18.0599  10.9597
  19004.971  19005.000  0.500  0.499578  9.591064  18.0559  10.9561
  19005.272  19005.300  0.500  0.499499  9.589514  18.0542  10.9559
  19005.605  19005.600  0.500  0.498921  9.588340  18.0531  10.9616
  19005.890  19005.900  0.500  0.497581  9.582258  18.0408  10.9688
  19006.176  19006.200  0.500  0.496574  9.586920  18.0479  10.9841
  19006.445  19006.500  0.500  0.494741  9.583153  18.0439  11.0019
  19006.762  19006.800  0.500  0.493092  9.587707  18.0491  11.0232
  19007.064  19007.100  0.500  0.491169  9.584129  18.0445  11.0416
  19007.365  19007.400  0.500  0.489094  9.583344  18.0418  11.0629
  19007.682  19007.700  0.500  0.487332  9.580662  18.0376  11.0798
  19007.999  19008.000  0.500  0.485524  9.581316  18.0427  11.103
  19008.285  19008.300  0.500  0.483951  9.578949  18.0374  11.1173
  19008.586  19008.600  0.500  0.482520  9.582295  18.042  11.136
  19008.856  19008.900  0.500  0.481377  9.578788  18.031  11.1419
  19009.173  19009.200  0.500  0.480414  9.582147  18.0413  11.159
  19009.458  19009.500  0.500  0.479546  9.573364  18.0247  11.1585
  19009.776  19009.800  0.500  0.478967  9.571598  18.0182  11.1609
  19010.109  19010.100  0.500  0.478703  9.567927  18.014  11.1612
  19010.378  19010.400  0.500  0.478594  9.574431  18.028  11.1711
  19010.616  19010.600  0.500  0.478768  9.572717  18.0232  11.1662
  19011.584  19011.590  0.500  0.480214  9.573369  18.0266  11.1522
  19012.647  19012.590  0.500  0.482687  9.582421  18.0452  11.1361
  19013.615  19013.610  0.500  0.484914  9.601871  18.0767  11.1307
  19014.742  19014.660  0.500  0.486441  9.595243  18.0643  11.1061
  19015.742  19015.720  0.500  0.487247  9.590510  18.0565  11.0924
  19016.885  19016.800  0.500  0.487466  9.589970  18.0565  11.0899
  19017.948  19017.900  0.500  0.487441  9.585912  18.049  11.0856
  19019.076  19019.020  0.500  0.487798  9.583642  18.043  11.078
  19020.219  19020.160  0.500  0.489682  9.580587  18.0405  11.0556
  19021.362  19021.310  0.500  0.492415  9.577633  18.0333  11.021
  19022.553  19022.490  0.500  0.495712  9.575633  18.0268  10.9808
  19023.729  19023.680  0.500  0.499945  9.573167  18.0255  10.9336
  19024.952  19024.900  0.500  0.503699  9.564726  18.0074  10.8817
  19026.160  19026.130  0.500  0.507742  9.563948  18.0082  10.8383
  19027.352  19027.380  0.500  0.511007  9.564114  18.0082  10.8029
  19028.702  19028.650  0.500  0.514044  9.557713  17.9957  10.7627
  19029.942  19029.940  0.500  0.514943  9.553749  17.9913  10.7504
  19031.262  19031.250  0.500  0.513438  9.559163  17.9997  10.7716
  19032.581  19032.580  0.500  0.508894  9.548059  17.9762  10.8066
  19033.949  19033.930  0.500  0.502793  9.539191  17.9617  10.864
  19035.301  19035.300  0.500  0.495864  9.540108  17.963  10.9403
  19036.732  19036.680  0.500  0.489633  9.535977  17.9542  11.0033
  19038.132  19038.090  0.500  0.485547  9.530212  17.9473  11.044
  19039.564  19039.510  0.500  0.482957  9.530341  17.9446  11.0711
  19040.965  19040.950  0.500  0.481777  9.525495  17.9371  11.0794
  19042.445  19042.410  0.500  0.482239  9.523687  17.933  11.0718
  19043.973  19043.890  0.500  0.483589  9.522546  17.9336  11.0572
  19045.454  19045.390  0.500  0.485326  9.513752  17.9121  11.0249
  19046.903  19046.910  0.500  0.486744  9.509057  17.905  11.0048
  19048.464  19048.450  0.500  0.487276  9.504389  17.8962  10.9936
  19050.040  19050.010  0.500  0.486915  9.497452  17.8883  10.9927
  19051.586  19051.580  0.500  0.485809  9.488262  17.8678  10.9923
  19053.163  19053.180  0.500  0.484547  9.473078  17.8403  10.9892
  19054.805  19054.790  0.500  0.482711  9.478276  17.8509  11.0159
  19056.431  19056.430  0.500  0.481295  9.478345  17.8529  11.0328
  19058.120  19058.080  0.500  0.480424  9.477169  17.8494  11.0402
  19059.811  19059.750  0.500  0.480691  9.471012  17.8397  11.0313
  19061.485  19061.440  0.500  0.482461  9.468393  17.8336  11.008
  19063.192  19063.150  0.500  0.485389  9.461807  17.8228  10.9692
  19064.931  19064.880  0.500  0.489308  9.456970  17.8166  10.9225
  19066.654  19066.630  0.500  0.493191  9.455214  17.8063  10.8739
  19068.394  19068.390  0.500  0.495792  9.452057  17.8026  10.8433
  19070.181  19070.180  0.500  0.496414  9.445648  17.794  10.8314
  19071.985  19071.980  0.500  0.495179  9.440598  17.7826  10.8378
  19073.822  19073.810  0.500  0.491650  9.438437  17.7774  10.8729
  19075.674  19075.650  0.500  0.487308  9.431806  17.7653  10.9128
  19077.512  19077.510  0.500  0.483348  9.426273  17.7554  10.95
  19079.445  19079.390  0.500  0.480376  9.419493  17.743  10.975
  19081.315  19081.290  0.500  0.479185  9.416838  17.7401  10.9862
  19083.281  19083.210  0.500  0.478936  9.413936  17.735  10.9858
  19085.183  19085.150  0.500  0.479484  9.404830  17.7162  10.9681
  19087.166  19087.110  0.500  0.479290  9.401385  17.704  10.9627
  19089.101  19089.080  0.500  0.479731  9.396795  17.7013  10.9562
  19091.085  19091.080  0.500  0.479750  9.394222  17.697  10.9534
  19093.085  19093.090  0.500  0.479666  9.385507  17.679  10.9431
  19095.118  19095.120  0.500  0.479878  9.381616  17.6703  10.9354
  19097.167  19097.180  0.500  0.480754  9.375111  17.6596  10.9192
  19099.248  19099.250  0.500  0.481958  9.375081  17.662  10.9076
  19101.362  19101.340  0.500  0.483972  9.369302  17.6495  10.8779
  19103.476  19103.450  0.500  0.486028  9.355307  17.6242  10.84
  19105.655  19105.580  0.500  0.487620  9.349353  17.6141  10.8166
  19107.771  19107.720  0.500  0.487784  9.347246  17.6077  10.8109
  19109.967  19109.890  0.500  0.487190  9.344020  17.6036  10.8148
  19112.067  19112.080  0.500  0.485927  9.334799  17.5898  10.82
  19114.264  19114.280  0.500  0.483402  9.325005  17.5705  10.8354
  19116.493  19116.500  0.500  0.480611  9.319768  17.5582  10.8581
  19118.788  19118.750  0.500  0.477336  9.305855  17.5314  10.8771
  19121.066  19121.010  0.500  0.474514  9.307982  17.5364  10.9109
  19123.314  19123.290  0.500  0.471922  9.306437  17.5348  10.9383
  19125.610  19125.590  0.500  0.470545  9.302685  17.5249  10.9471
  19127.986  19127.910  0.500  0.469492  9.293952  17.5108  10.9498
  19130.283  19130.250  0.500  0.468801  9.288358  17.5046  10.9535
  19132.613  19132.600  0.500  0.468177  9.275896  17.4766  10.9429
  19134.976  19134.980  0.500  0.468351  9.278757  17.4799  10.943
  19137.419  19137.370  0.500  0.469293  9.270169  17.4729  10.9283
  19139.799  19139.790  0.500  0.470069  9.264382  17.4555  10.909
  19142.243  19142.220  0.500  0.471310  9.255200  17.4399  10.8857
  19144.769  19144.670  0.500  0.471966  9.242739  17.4137  10.8622
  19147.183  19147.150  0.500  0.472611  9.240845  17.414  10.8554
  19149.694  19149.640  0.500  0.472772  9.237444  17.407  10.8493
  19152.205  19152.150  0.500  0.472494  9.229811  17.3955  10.8451
  19154.685  19154.670  0.500  0.472885  9.223578  17.381  10.8319
  19157.247  19157.220  0.500  0.474557  9.218055  17.3705  10.8072
  19159.825  19159.790  0.500  0.477314  9.211836  17.3603  10.7712
  19162.404  19162.370  0.500  0.480285  9.202256  17.3405  10.727
  19165.080  19164.980  0.500  0.482256  9.200106  17.3383  10.7045
  19167.628  19167.600  0.500  0.483430  9.192273  17.323  10.6825
  19170.273  19170.250  0.500  0.482422  9.180833  17.3042  10.6816
  19172.935  19172.910  0.500  0.479719  9.175505  17.292  10.703
  19175.598  19175.590  0.500  0.475729  9.169104  17.2783  10.7373
  19178.294  19178.290  0.500  0.470655  9.155656  17.2567  10.7784
  19181.024  19181.010  0.500  0.465309  9.151494  17.25  10.832
  19183.834  19183.750  0.500  0.460350  9.137072  17.2184  10.8659
  19186.565  19186.500  0.500  0.457406  9.128780  17.2034  10.8884
  19189.329  19189.280  0.500  0.456598  9.130133  17.2104  10.9016
  19192.142  19192.070  0.500  0.456628  9.128302  17.207  10.8992
  19194.891  19194.890  0.500  0.457583  9.121252  17.1951  10.8812
  19197.771  19197.720  0.500  0.458305  9.110089  17.1723  10.859
  19200.554  19200.570  0.500  0.458826  9.097836  17.1499  10.8392
  19203.532  19203.450  0.500  0.459547  9.095059  17.146  10.8289
  19206.382  19206.340  0.500  0.460490  9.096349  17.1452  10.8182
  19209.313  19209.250  0.500  0.462086  9.082325  17.1183  10.784
  19212.213  19212.170  0.500  0.464254  9.072789  17.1045  10.752
  19215.179  19215.120  0.500  0.466570  9.067100  17.0903  10.7182
  19218.130  19218.090  0.500  0.468373  9.059948  17.0794  10.692
  19221.065  19221.070  0.500  0.470093  9.048991  17.0582  10.6604
  19224.114  19224.080  0.500  0.470950  9.041496  17.0467  10.6441
  19227.133  19227.100  0.500  0.471564  9.033995  17.031  10.6278
  19230.217  19230.150  0.500  0.471695  9.019414  17.0061  10.6108
  19233.285  19233.210  0.500  0.471627  9.014957  16.9935  10.6037
  19236.290  19236.290  0.500  0.471046  9.012465  16.9885  10.6067
  19239.377  19239.390  0.500  0.470286  9.004127  16.9754  10.6067
  19242.514  19242.510  0.500  0.468729  8.994133  16.9598  10.6134
  19245.700  19245.650  0.500  0.466653  8.985712  16.9414  10.6239
  19248.856  19248.800  0.500  0.464040  8.978155  16.9264  10.6423
  19252.044  19251.980  0.500  0.461015  8.972486  16.9144  10.6669
  19255.201  19255.170  0.500  0.458817  8.968041  16.9074  10.686
  19258.425  19258.390  0.500  0.456825  8.957913  16.89  10.6963
  19261.584  19261.620  0.500  0.455367  8.949906  16.8787  10.7047
  19264.924  19264.870  0.500  0.453712  8.940527  16.8595  10.7103
  19268.232  19268.150  0.500  0.453377  8.931323  16.8398  10.7014
  19271.459  19271.440  0.500  0.453332  8.921418  16.824  10.6918
  19274.770  19274.750  0.500  0.454594  8.915874  16.8124  10.6709
  19278.114  19278.070  0.500  0.456156  8.908146  16.799  10.6458
  19281.427  19281.420  0.500  0.457659  8.895743  16.7778  10.6164
  19284.822  19284.790  0.500  0.459075  8.884051  16.7539  10.5863
  19288.219  19288.170  0.500  0.460417  8.875990  16.7427  10.565
  19291.649  19291.580  0.500  0.461589  8.867585  16.7263  10.5423
  19295.081  19295.000  0.500  0.462191  8.858570  16.7079  10.5244
  19298.465  19298.450  0.500  0.462721  8.849896  16.6888  10.5067
  19301.883  19301.910  0.500  0.462950  8.842979  16.6766  10.4966
  19305.416  19305.390  0.500  0.462430  8.833639  16.6594  10.4913
  19308.951  19308.890  0.500  0.461709  8.825762  16.6455  10.4901
  19312.471  19312.410  0.500  0.460966  8.814981  16.6259  10.4855
  19315.992  19315.950  0.500  0.460137  8.808434  16.6157  10.4878
  19319.547  19319.500  0.500  0.459489  8.795584  16.5893  10.4779
  19323.120  19323.080  0.500  0.458906  8.783603  16.5687  10.471
  19326.711  19326.680  0.500  0.457740  8.756435  16.517  10.4505
  19330.368  19330.290  0.500  0.456612  8.768876  16.5393  10.4764
  19334.011  19333.920  0.500  0.455122  8.760707  16.5204  10.4801
  19337.622  19337.580  0.500  0.453926  8.747737  16.5034  10.4818
  19341.284  19341.250  0.500  0.453234  8.743932  16.4936  10.4829
  19344.947  19344.940  0.500  0.452777  8.733232  16.4741  10.4752
  19348.677  19348.650  0.500  0.452401  8.723033  16.453  10.4657
  19352.442  19352.380  0.500  0.451973  8.712365  16.4348  10.4586
  19356.175  19356.120  0.500  0.451273  8.703097  16.4157  10.4538
  19359.926  19359.890  0.500  0.451186  8.693556  16.4027  10.4465
  19363.744  19363.680  0.500  0.451520  8.683846  16.3839  10.431
  19367.515  19367.480  0.500  0.451898  8.675008  16.3637  10.4142
  19371.353  19371.310  0.500  0.452435  8.660923  16.3438  10.3959
  19375.192  19375.150  0.500  0.452320  8.651595  16.3226  10.3836
  19379.066  19379.010  0.500  0.452155  8.643874  16.3081  10.3761
  19382.941  19382.890  0.500  0.451896  8.631562  16.2839  10.3634
  19386.818  19386.790  0.500  0.451875  8.619890  16.2678  10.3534
  19390.713  19390.710  0.500  0.451707  8.611117  16.2454  10.3408
  19394.693  19394.650  0.500  0.451991  8.600459  16.2314  10.329
  19398.657  19398.610  0.500  0.452196  8.587170  16.2059  10.3107
  19402.640  19402.580  0.500  0.452528  8.575927  16.1858  10.2944
  19406.574  19406.580  0.500  0.452345  8.564540  16.1627  10.2816
  19410.593  19410.590  0.500  0.452089  8.559373  16.1562  10.2801
  19414.647  19414.630  0.500  0.451443  8.542922  16.1216  10.2648
  19418.718  19418.680  0.500  0.450807  8.535609  16.1073  10.2622
  19422.809  19422.750  0.500  0.449993  8.523612  16.0857  10.2568
  19426.867  19426.840  0.500  0.449047  8.509831  16.0592  10.2495
  19430.928  19430.950  0.500  0.448505  8.500899  16.0461  10.2468
  19435.139  19435.080  0.500  0.447486  8.493326  16.031  10.2476
  19439.286  19439.230  0.500  0.447060  8.507037  16.0569  10.2685
  19443.468  19443.390  0.500  0.446689  8.498798  16.0399  10.2614
  19447.619  19447.580  0.500  0.446504  8.488044  16.0194  10.2502
  19451.804  19451.780  0.500  0.446272  8.477849  16.0019  10.2414
  19456.025  19456.010  0.500  0.446098  8.465268  15.9799  10.229
  19460.297  19460.250  0.500  0.445642  8.456943  15.9614  10.2219
  19464.554  19464.510  0.500  0.445669  8.444001  15.9415  10.2089
  19468.830  19468.790  0.500  0.445270  8.341018  15.7433  10.086
  19473.108  19473.090  0.500  0.444860  8.406234  15.8683  10.1702
  19477.421  19477.410  0.500  0.444671  8.410918  15.8778  10.1782
  19481.786  19481.750  0.500  0.444529  8.399976  15.8594  10.1679
  19486.120  19486.110  0.500  0.444307  8.391094  15.8433  10.1598
  19490.522  19490.490  0.500  0.444358  8.378898  15.8184  10.1433
  19494.910  19494.880  0.500  0.444027  8.365747  15.7958  10.1322
  19499.333  19499.300  0.500  0.443956  8.354705  15.7763  10.1204
  19503.791  19503.730  0.500  0.443488  8.340950  15.7484  10.1072
  19508.218  19508.180  0.500  0.443700  8.335851  15.7417  10.1008
  19512.698  19512.650  0.500  0.443625  8.322098  15.7132  10.0832
  19517.145  19517.140  0.500  0.443641  8.307420  15.6866  10.066
  19521.662  19521.650  0.500  0.443433  8.300562  15.6718  10.0586
  19526.215  19526.180  0.500  0.443619  8.286262  15.6492  10.0422
  19530.786  19530.730  0.500  0.443389  8.271510  15.6206  10.0262
  19535.326  19535.300  0.500  0.442614  8.259982  15.6024  10.0223
  19539.885  19539.880  0.500  0.441792  8.251471  15.5837  10.0185
  19544.496  19544.490  0.500  0.440988  8.236923  15.5578  10.0099
  19549.160  19549.110  0.500  0.440199  8.225776  15.5387  10.0055
  19553.809  19553.760  0.500  0.439648  8.214858  15.5136  9.994872
  19558.511  19558.420  0.500  0.439068  8.203232  15.4935  9.987660
  19563.198  19563.100  0.500  0.438713  8.188639  15.469  9.975406
  19567.871  19567.800  0.500  0.438376  8.178605  15.4497  9.966363
  19572.579  19572.520  0.500  0.437741  8.162839  15.4218  9.954679
  19577.341  19577.260  0.500  0.437407  8.151889  15.3985  9.942935
  19582.121  19582.010  0.500  0.437500  8.141101  15.3805  9.930401
  19586.921  19586.790  0.500  0.437240  8.126433  15.3523  9.914735
  19591.656  19591.590  0.500  0.437122  8.116006  15.3311  9.902278
  19596.460  19596.400  0.500  0.437211  8.101277  15.3032  9.883364
  19601.284  19601.230  0.500  0.436812  8.089694  15.2846  9.875286
  19606.161  19606.090  0.500  0.436417  8.045027  15.1971  9.822627
  19611.107  19610.960  0.500  0.436349  8.009292  15.1348  9.783017
  19615.955  19615.850  0.500  0.436363  8.054170  15.2168  9.835900
  19620.907  19620.760  0.500  0.436216  8.042842  15.1954  9.823462
  19625.777  19625.690  0.500  0.435935  8.030679  15.1736  9.812160
  19630.700  19630.630  0.500  0.435535  8.014773  15.1439  9.796864
  19635.709  19635.600  0.500  0.435416  7.982001  15.087  9.761235
  19640.705  19640.590  0.500  0.435257  7.987857  15.0947  9.767739
  19645.737  19645.590  0.500  0.434691  7.975423  15.0718  9.758471
  19650.653  19650.620  0.500  0.434243  7.963085  15.0497  9.748484
  19655.741  19655.660  0.500  0.433447  7.949477  15.0221  9.738351
  19660.730  19660.720  0.500  0.432980  7.932880  14.9872  9.720296
  19665.840  19665.800  0.500  0.432231  7.914762  14.9512  9.704188
  19670.970  19670.900  0.500  0.431805  7.904113  14.9373  9.699320
  19676.086  19676.020  0.500  0.431463  7.784261  14.7112  9.555754
  19681.238  19681.160  0.500  0.430791  7.882117  14.8968  9.682865
  19686.444  19686.320  0.500  0.430449  7.874760  14.8838  9.677675
  19691.517  19691.500  0.500  0.430216  7.845509  14.8296  9.644673
  19696.729  19696.690  0.500  0.429765  7.849461  14.8367  9.653683
  19701.960  19701.910  0.500  0.429353  7.833993  14.8079  9.638900
  19707.194  19707.140  0.500  0.429195  7.820459  14.7863  9.626353
  19712.414  19712.390  0.500  0.428791  7.807530  14.7574  9.611434
  19717.756  19717.660  0.500  0.428741  7.784598  14.7166  9.585364
  19722.999  19722.950  0.500  0.428548  7.772294  14.6966  9.574175
  19728.244  19728.260  0.500  0.428505  7.768840  14.686  9.567697
  19733.664  19733.590  0.500  0.427919  7.755426  14.6579  9.554979
  19739.000  19738.940  0.500  0.427798  7.736810  14.6243  9.534230
  19744.340  19744.310  0.500  0.427480  7.644834  14.4556  9.427197
  19749.734  19749.690  0.500  0.427572  7.706583  14.5744  9.503847
  19755.199  19755.100  0.500  0.427232  7.702499  14.5658  9.501421
  19760.530  19760.520  0.500  0.426795  7.689642  14.5416  9.489816
  19765.985  19765.970  0.500  0.426217  7.673308  14.5107  9.475118
  19771.459  19771.430  0.500  0.425797  7.659737  14.4861  9.463058
  19776.988  19776.910  0.500  0.425522  7.645278  14.4592  9.448063
  19782.503  19782.410  0.500  0.424760  7.632148  14.434  9.438780
  19788.021  19787.930  0.500  0.424331  7.619048  14.4103  9.427339
  19793.456  19793.470  0.500  0.423731  7.602560  14.3795  9.412811
  19799.066  19799.020  0.500  0.423241  7.588186  14.3535  9.400427
  19804.628  19804.600  0.500  0.423093  7.574255  14.3272  9.384596
  19810.262  19810.200  0.500  0.422562  7.562506  14.3017  9.372826
  19815.864  19815.810  0.500  0.422245  7.548206  14.2776  9.360041
  19821.539  19821.450  0.500  0.421983  7.531757  14.2492  9.343860
  19827.148  19827.100  0.500  0.421601  7.518901  14.2255  9.331873
  19832.829  19832.770  0.500  0.421448  7.502448  14.1936  9.312393
  19838.514  19838.460  0.500  0.420988  7.490506  14.1706  9.301544