File: xdidata/Nb/Nb-K-NiobiumCarbide.xdi
# XDI/1.0 BlueSky/1.10.0 BMM/2023-1.0-py310-tiled
# Beamline.name: BMM (06BM) -- Beamline for Materials Measurement (NIST)
# Beamline.xray_source: NSLS-II three-pole wiggler
# Beamline.collimation: paraboloid mirror, 5 nm Rh on 30 nm Pt
# Beamline.focusing: not in use
# Beamline.harmonic_rejection: flat mirror, Pt stripe, pitch = 7.0 mrad relative to beam
# Beamline.software: Bluesky 1.10.0, Ophyd 1.7.0, DataBroker 2.0.0b13, Python 3.10.8, 2023-1.0-py310-tiled
# Detector.I0: 10 cm N2
# Detector.I1: 25 cm N2
# Detector.I2: 25 cm N2
# Element.symbol: Nb
# Element.edge: K
# Element.reference: Nb
# Element.reference_material: Nb foil
# Facility.name: NSLS-II
# Facility.energy: 3.0
# Facility.current: 400.2
# Facility.mode: top-off
# Facility.GUP: 301027
# Facility.SAF: 310583
# Facility.cycle: 2023-2
# Mono.name: Si(111)
# Mono.d_spacing: 3.13519
# Mono.encoder_resolution: 0.0000050 deg/ct
# Mono.angle_offset: 16.0754 deg
# Mono.scan_mode: pseudo channel cut
# Mono.scan_type: step
# Mono.direction: forward in energy
# Sample.name: NbC
# Sample.prep: powder on tape
# Sample.x: 117.785 mm
# Sample.y: 114.695 mm
# Sample.SDD_position: 205.000 mm
# Scan.experimenters: Bruce Ravel
# Scan.edge_energy: 18985.6
# Scan.start_time: 2023-06-23T20:31:44
# Scan.end_time: 2023-06-23T20:39:24
# Scan.transient_id: 85011
# Scan.uid: 3b3232ec-8769-407f-bae0-1b7477bf5faa
# Scan.plot_hint: ln(I0/It)  --  ln($5/$6)
# Column.1: energy eV
# Column.2: requested_energy eV
# Column.3: measurement_time seconds
# Column.4: xmu
# Column.5: I0 nA
# Column.6: It nA
# Column.7: Ir nA
# ///////////
# BMM standards collection
# -----------
# energy  requested_energy  measurement_time  xmu  I0  It  Ir
  18785.464  18785.600  0.500  -0.447605  10.0227  15.6811  13.5701
  18795.645  18795.600  0.500  -0.447827  10.0014  15.6513  13.5489
  18805.636  18805.600  0.500  -0.448210  9.986364  15.6337  13.5366
  18815.668  18815.600  0.500  -0.448207  9.966939  15.6033  13.5118
  18825.649  18825.600  0.500  -0.448667  9.942259  15.5718  13.485
  18835.687  18835.600  0.500  -0.449260  9.914641  15.5378  13.4569
  18845.674  18845.600  0.500  -0.449368  9.891284  15.5028  13.4307
  18855.718  18855.600  0.500  -0.449569  9.864268  15.4636  13.3981
  18865.710  18865.600  0.500  -0.449702  9.843861  15.4337  13.374
  18875.729  18875.600  0.500  -0.450083  9.811851  15.3893  13.3328
  18885.727  18885.600  0.500  -0.450503  9.787885  15.3582  13.3082
  18895.704  18895.600  0.500  -0.450544  9.762847  15.3195  13.2767
  18905.724  18905.600  0.500  -0.450544  9.737698  15.2801  13.2434
  18915.738  18915.600  0.500  -0.450800  9.695757  15.2181  13.1879
  18925.700  18925.600  0.500  -0.450769  9.686191  15.2027  13.1713
  18935.705  18935.600  0.500  -0.450910  9.665239  15.1719  13.1424
  18945.625  18945.600  0.500  -0.450489  9.639325  15.1249  13.0934
  18955.682  18955.600  0.500  -0.450031  9.608546  15.0697  13.0303
  18957.669  18957.600  0.500  -0.449655  9.604912  15.0583  13.0158
  18959.626  18959.600  0.500  -0.449681  9.595373  15.0437  12.9977
  18961.645  18961.600  0.500  -0.449393  9.594579  15.0382  12.9884
  18963.634  18963.600  0.500  -0.449011  9.588548  15.023  12.9706
  18965.655  18965.600  0.500  -0.448751  9.585047  15.0136  12.9531
  18967.660  18967.600  0.500  -0.448311  9.573592  14.9891  12.9227
  18969.682  18969.600  0.500  -0.447726  9.572603  14.9787  12.9039
  18971.577  18971.600  0.500  -0.447117  9.562640  14.954  12.8713
  18973.584  18973.600  0.500  -0.446655  9.562765  14.9473  12.8457
  18975.591  18975.600  0.500  -0.445742  9.559592  14.9287  12.8065
  18975.844  18975.900  0.500  -0.445659  9.552707  14.9167  12.7917
  18976.144  18976.200  0.500  -0.445534  9.554006  14.9169  12.7869
  18976.460  18976.500  0.500  -0.445128  9.550221  14.9049  12.7757
  18976.729  18976.800  0.500  -0.445129  9.550754  14.9058  12.7687
  18977.061  18977.100  0.500  -0.444804  9.542982  14.8888  12.7509
  18977.409  18977.400  0.500  -0.444673  9.541677  14.8848  12.7392
  18977.662  18977.700  0.500  -0.444732  9.530307  14.868  12.7188
  18977.978  18978.000  0.500  -0.444420  9.527644  14.8592  12.708
  18978.278  18978.300  0.500  -0.444039  9.521902  14.8446  12.6914
  18978.594  18978.600  0.500  -0.444133  9.521327  14.8451  12.6811
  18978.895  18978.900  0.500  -0.443864  9.508771  14.8215  12.6542
  18979.164  18979.200  0.500  -0.443392  9.509401  14.8155  12.6429
  18979.464  18979.500  0.500  -0.443134  9.508067  14.8096  12.631
  18979.828  18979.800  0.500  -0.443007  9.503101  14.8  12.6133
  18980.112  18980.100  0.500  -0.442634  9.502321  14.7932  12.5988
  18980.381  18980.400  0.500  -0.442653  9.498452  14.7875  12.5815
  18980.697  18980.700  0.500  -0.442349  9.497361  14.7813  12.5662
  18981.014  18981.000  0.500  -0.442013  9.504108  14.7868  12.5576
  18981.282  18981.300  0.500  -0.441592  9.509615  14.7892  12.5466
  18981.583  18981.600  0.500  -0.441471  9.508935  14.7863  12.5284
  18981.899  18981.900  0.500  -0.441052  9.506950  14.7771  12.5029
  18982.200  18982.200  0.500  -0.440696  9.510035  14.7766  12.4854
  18982.484  18982.500  0.500  -0.440453  9.517475  14.7845  12.4752
  18982.801  18982.800  0.500  -0.439670  9.517558  14.7731  12.4445
  18983.117  18983.100  0.500  -0.439195  9.517910  14.7666  12.4114
  18983.402  18983.400  0.500  -0.438761  9.519974  14.7634  12.3812
  18983.702  18983.700  0.500  -0.438008  9.525049  14.7602  12.3501
  18984.035  18984.000  0.500  -0.437688  9.526723  14.758  12.3069
  18984.303  18984.300  0.500  -0.436972  9.521404  14.7392  12.2559
  18984.588  18984.600  0.500  -0.436238  9.530696  14.7428  12.2192
  18984.905  18984.900  0.500  -0.435616  9.523434  14.7224  12.1542
  18985.189  18985.200  0.500  -0.434816  9.523289  14.7104  12.0911
  18985.490  18985.500  0.500  -0.433812  9.526880  14.7012  12.0282
  18985.791  18985.800  0.500  -0.432828  9.524800  14.6835  11.9562
  18986.075  18986.100  0.500  -0.431671  9.524656  14.6663  11.8771
  18986.392  18986.400  0.500  -0.430475  9.522958  14.6462  11.7857
  18986.661  18986.700  0.500  -0.429246  9.523010  14.6283  11.7035
  18986.946  18987.000  0.500  -0.427819  9.528373  14.6157  11.6237
  18987.246  18987.300  0.500  -0.426255  9.526356  14.5897  11.5273
  18987.563  18987.600  0.500  -0.424591  9.546442  14.5962  11.4627
  18987.848  18987.900  0.500  -0.422479  9.547768  14.5674  11.3742
  18988.164  18988.200  0.500  -0.420480  9.547399  14.5377  11.2812
  18988.465  18988.500  0.500  -0.418197  9.546491  14.5032  11.1869
  18988.718  18988.800  0.500  -0.415910  9.547572  14.4717  11.1094
  18989.066  18989.100  0.500  -0.413307  9.543715  14.4283  11.0188
  18989.383  18989.400  0.500  -0.410304  9.541481  14.3816  10.9394
  18989.652  18989.700  0.500  -0.407772  9.541090  14.3447  10.867
  18989.953  18990.000  0.500  -0.405228  9.540003  14.3066  10.8002
  18990.301  18990.300  0.500  -0.401580  9.533940  14.2455  10.7094
  18990.602  18990.600  0.500  -0.398596  9.533552  14.2024  10.6476
  18990.871  18990.900  0.500  -0.395941  9.532565  14.1633  10.5906
  18991.203  18991.200  0.500  -0.392244  9.539149  14.1208  10.5245
  18991.520  18991.500  0.500  -0.388947  9.533021  14.0653  10.4495
  18991.789  18991.800  0.500  -0.385643  9.529756  14.0141  10.3835
  18992.090  18992.100  0.500  -0.382220  9.531267  13.9684  10.3176
  18992.391  18992.400  0.500  -0.378699  9.539633  13.9315  10.2577
  18992.723  18992.700  0.500  -0.374595  9.529872  13.8603  10.1683
  18992.992  18993.000  0.500  -0.371379  9.528734  13.8141  10.1001
  18993.293  18993.300  0.500  -0.367945  9.535259  13.7762  10.0374
  18993.610  18993.600  0.500  -0.363765  9.524080  13.7026  9.940225
  18993.911  18993.900  0.500  -0.359506  9.521294  13.6404  9.853684
  18994.212  18994.200  0.500  -0.355943  9.523157  13.5946  9.785805
  18994.497  18994.500  0.500  -0.351784  9.525677  13.5417  9.703489
  18994.829  18994.800  0.500  -0.347128  9.520273  13.4712  9.609722
  18994.940  18995.100  0.500  -0.345547  9.518630  13.4476  9.574807
  18995.590  18995.400  0.500  -0.336040  9.516399  13.3172  9.385189
  18995.558  18995.700  0.500  -0.336180  9.511611  13.3124  9.381154
  18995.859  18996.000  0.500  -0.332065  9.512255  13.2586  9.304332
  18996.176  18996.300  0.500  -0.327369  9.510996  13.1947  9.212731
  18996.445  18996.600  0.500  -0.322407  9.513834  13.1333  9.117961
  18996.762  18996.900  0.500  -0.317608  9.511361  13.0671  9.024245
  18997.094  18997.200  0.500  -0.312095  9.510313  12.9938  8.921426
  18997.411  18997.500  0.500  -0.306889  9.509915  12.9258  8.822376
  18997.696  18997.800  0.500  -0.301865  9.517053  12.8707  8.733582
  18997.981  18998.100  0.500  -0.296496  9.506576  12.7876  8.620998
  18998.298  18998.400  0.500  -0.290900  9.504218  12.7131  8.518488
  18998.599  18998.700  0.500  -0.285256  9.509326  12.6484  8.420681
  18998.900  18999.000  0.500  -0.278928  9.502474  12.5595  8.305132
  18999.186  18999.300  0.500  -0.273015  9.510690  12.4963  8.206588
  18999.487  18999.600  0.500  -0.266764  9.508454  12.4155  8.100670
  18999.835  18999.900  0.500  -0.260156  9.504283  12.3283  7.989833
  19000.120  19000.200  0.500  -0.253152  9.500309  12.2371  7.878875
  19000.422  19000.500  0.500  -0.247175  9.498504  12.1619  7.781511
  19000.707  19000.800  0.500  -0.240556  9.500480  12.0842  7.686870
  19000.976  19001.100  0.500  -0.234209  9.505607  12.0142  7.600471
  19001.293  19001.400  0.500  -0.226809  9.497465  11.9154  7.497498
  19001.594  19001.700  0.500  -0.219607  9.495331  11.8273  7.405021
  19001.927  19002.000  0.500  -0.212158  9.497359  11.742  7.315288
  19002.244  19002.300  0.500  -0.204967  9.493252  11.6528  7.229369
  19002.545  19002.600  0.500  -0.198283  9.491575  11.5732  7.154613
  19002.862  19002.900  0.500  -0.191641  9.491390  11.4963  7.085959
  19003.132  19003.200  0.500  -0.186288  9.489135  11.4322  7.031969
  19003.433  19003.500  0.500  -0.180544  9.489881  11.3676  6.983890
  19003.750  19003.800  0.500  -0.175278  9.493867  11.3127  6.941220
  19004.019  19004.100  0.500  -0.170091  9.489327  11.2488  6.896261
  19004.336  19004.400  0.500  -0.165308  9.492099  11.1984  6.865329
  19004.654  19004.700  0.500  -0.160952  9.488343  11.1453  6.835857
  19004.971  19005.000  0.500  -0.157428  9.483838  11.1008  6.813825
  19005.304  19005.300  0.500  -0.154001  9.483146  11.062  6.800800
  19005.589  19005.600  0.500  -0.151419  9.484519  11.0351  6.790818
  19005.859  19005.900  0.500  -0.149030  9.485450  11.0098  6.787425
  19006.176  19006.200  0.500  -0.147082  9.484115  10.9869  6.787797
  19006.429  19006.500  0.500  -0.145899  9.480869  10.9701  6.788389
  19006.762  19006.800  0.500  -0.144746  9.488036  10.9658  6.799668
  19007.079  19007.100  0.500  -0.143583  9.475132  10.9381  6.794825
  19007.397  19007.400  0.500  -0.143101  9.477452  10.9355  6.806609
  19007.698  19007.700  0.500  -0.142757  9.478636  10.9331  6.816164
  19007.999  19008.000  0.500  -0.142717  9.476634  10.9304  6.823965
  19008.285  19008.300  0.500  -0.142465  9.476672  10.9277  6.829205
  19008.602  19008.600  0.500  -0.142656  9.474241  10.927  6.834470
  19008.872  19008.900  0.500  -0.142951  9.481513  10.9386  6.843017
  19009.173  19009.200  0.500  -0.142839  9.472486  10.9269  6.839945
  19009.458  19009.500  0.500  -0.142880  9.475596  10.931  6.843214
  19009.760  19009.800  0.500  -0.142989  9.472343  10.9284  6.837933
  19010.093  19010.100  0.500  -0.142991  9.472503  10.9286  6.838758
  19010.378  19010.400  0.500  -0.142785  9.466165  10.919  6.830768
  19010.616  19010.600  0.500  -0.142935  9.469283  10.9243  6.829646
  19011.600  19011.590  0.500  -0.142120  9.474319  10.9212  6.814373
  19012.615  19012.590  0.500  -0.140953  9.463560  10.8961  6.780240
  19013.663  19013.610  0.500  -0.139331  9.462108  10.8767  6.756232
  19014.678  19014.660  0.500  -0.137788  9.460843  10.8585  6.739852
  19015.742  19015.720  0.500  -0.135893  9.456618  10.8331  6.721967
  19016.821  19016.800  0.500  -0.133083  9.454142  10.7999  6.701778
  19017.932  19017.900  0.500  -0.130118  9.451479  10.7649  6.678346
  19019.076  19019.020  0.500  -0.127217  9.455658  10.7384  6.651853
  19020.187  19020.160  0.500  -0.125772  9.439151  10.7042  6.614426
  19021.362  19021.310  0.500  -0.126402  9.444573  10.7171  6.603232
  19022.506  19022.490  0.500  -0.131491  9.434357  10.7601  6.604389
  19023.697  19023.680  0.500  -0.140627  9.437462  10.8625  6.641109
  19024.920  19024.900  0.500  -0.152154  9.431894  10.9819  6.687364
  19026.112  19026.130  0.500  -0.163622  9.428417  11.1045  6.735760
  19027.383  19027.380  0.500  -0.173634  9.422716  11.2095  6.778609
  19028.639  19028.650  0.500  -0.180699  9.421022  11.2869  6.815212
  19029.974  19029.940  0.500  -0.185131  9.415200  11.33  6.845452
  19031.214  19031.250  0.500  -0.188011  9.415573  11.3632  6.886631
  19032.566  19032.580  0.500  -0.189898  9.416303  11.3855  6.938023
  19033.901  19033.930  0.500  -0.191753  9.406506  11.3948  6.989792
  19035.349  19035.300  0.500  -0.194033  9.404538  11.4184  7.051986
  19036.685  19036.680  0.500  -0.196442  9.400811  11.4414  7.100828
  19038.132  19038.090  0.500  -0.198391  9.406442  11.4706  7.143750
  19039.533  19039.510  0.500  -0.199214  9.394320  11.4652  7.153694
  19040.981  19040.950  0.500  -0.198268  9.388749  11.4476  7.146349
  19042.445  19042.410  0.500  -0.196089  9.385740  11.419  7.120634
  19043.909  19043.890  0.500  -0.192039  9.384907  11.3719  7.078211
  19045.422  19045.390  0.500  -0.187198  9.377406  11.3079  7.027195
  19046.935  19046.910  0.500  -0.181190  9.374843  11.2371  6.976116
  19048.495  19048.450  0.500  -0.174940  9.371251  11.1628  6.928298
  19050.040  19050.010  0.500  -0.168964  9.368672  11.0932  6.889102
  19051.650  19051.580  0.500  -0.163828  9.348605  11.0128  6.849920
  19053.195  19053.180  0.500  -0.161346  9.343084  10.979  6.839692
  19054.821  19054.790  0.500  -0.160778  9.349940  10.9808  6.852697
  19056.431  19056.430  0.500  -0.162553  9.352206  11.003  6.873934
  19058.088  19058.080  0.500  -0.165515  9.346638  11.029  6.892159
  19059.747  19059.750  0.500  -0.169491  9.342702  11.0683  6.910301
  19061.421  19061.440  0.500  -0.173073  9.343427  11.1089  6.918635
  19063.144  19063.150  0.500  -0.175811  9.337433  11.1322  6.909864
  19064.867  19064.880  0.500  -0.177138  9.330695  11.1389  6.887609
  19066.574  19066.630  0.500  -0.176971  9.327759  11.1336  6.862008
  19068.425  19068.390  0.500  -0.174994  9.323770  11.1068  6.830669
  19070.181  19070.180  0.500  -0.172057  9.315570  11.0645  6.806413
  19071.985  19071.980  0.500  -0.169183  9.316078  11.0334  6.803840
  19073.886  19073.810  0.500  -0.167209  9.302891  10.996  6.808089
  19075.690  19075.650  0.500  -0.166756  9.296236  10.9832  6.828916
  19077.544  19077.510  0.500  -0.167384  9.293506  10.9869  6.855921
  19079.429  19079.390  0.500  -0.168222  9.291538  10.9937  6.875842
  19081.331  19081.290  0.500  -0.169582  9.286082  11.0022  6.883943
  19083.217  19083.210  0.500  -0.170172  9.286162  11.0088  6.887870
  19085.167  19085.150  0.500  -0.171640  9.278843  11.0163  6.888679
  19087.086  19087.110  0.500  -0.173578  9.274978  11.0331  6.898618
  19089.053  19089.080  0.500  -0.175323  9.270315  11.0468  6.909057
  19091.085  19091.080  0.500  -0.177890  9.264195  11.0679  6.920902
  19093.101  19093.090  0.500  -0.180826  9.256577  11.0913  6.935367
  19095.118  19095.120  0.500  -0.183534  9.248350  11.1115  6.947121
  19097.167  19097.180  0.500  -0.186352  9.245416  11.1393  6.956967
  19099.248  19099.250  0.500  -0.189107  9.242254  11.1662  6.960519
  19101.394  19101.340  0.500  -0.191364  9.244298  11.1939  6.963540
  19103.508  19103.450  0.500  -0.192969  9.226198  11.1899  6.948478
  19105.591  19105.580  0.500  -0.193569  9.222266  11.1919  6.941299
  19107.771  19107.720  0.500  -0.192923  9.219037  11.1807  6.934811
  19109.935  19109.890  0.500  -0.191362  9.216070  11.1597  6.928887
  19112.147  19112.080  0.500  -0.189550  9.215919  11.1393  6.930528
  19114.296  19114.280  0.500  -0.187473  9.203773  11.1016  6.922275
  19116.477  19116.500  0.500  -0.185551  9.192113  11.0662  6.920142
  19118.724  19118.750  0.500  -0.183353  9.185141  11.0335  6.924274
  19120.986  19121.010  0.500  -0.181237  9.190958  11.0172  6.932227
  19123.249  19123.290  0.500  -0.179248  9.191676  10.9962  6.934921
  19125.545  19125.590  0.500  -0.177950  9.179839  10.9678  6.923200
  19127.890  19127.910  0.500  -0.177193  9.167643  10.9449  6.914163
  19130.299  19130.250  0.500  -0.177073  9.159264  10.9336  6.914213
  19132.597  19132.600  0.500  -0.177965  9.144496  10.9257  6.910375
  19135.024  19134.980  0.500  -0.179713  9.147551  10.9485  6.922407
  19137.387  19137.370  0.500  -0.181711  9.149872  10.9731  6.930667
  19139.783  19139.790  0.500  -0.184097  9.143317  10.9915  6.934959
  19142.179  19142.220  0.500  -0.186244  9.136441  11.0068  6.937596
  19144.705  19144.670  0.500  -0.188698  9.126647  11.022  6.941206
  19147.118  19147.150  0.500  -0.190621  9.121392  11.0369  6.948598
  19149.678  19149.640  0.500  -0.192604  9.112626  11.0482  6.956696
  19152.205  19152.150  0.500  -0.194085  9.150307  11.1103  6.996848
  19154.718  19154.670  0.500  -0.195007  9.137856  11.1054  6.986830
  19157.214  19157.220  0.500  -0.194076  9.136045  11.0929  6.966840
  19159.793  19159.790  0.500  -0.192522  9.125552  11.0629  6.925275
  19162.371  19162.370  0.500  -0.190276  9.113389  11.0234  6.883384
  19164.967  19164.980  0.500  -0.188353  9.107069  10.9946  6.852392
  19167.595  19167.600  0.500  -0.186998  9.101182  10.9726  6.835322
  19170.289  19170.250  0.500  -0.186365  9.092482  10.9552  6.835655
  19172.951  19172.910  0.500  -0.186446  9.091426  10.9548  6.857398
  19175.615  19175.590  0.500  -0.186609  9.082826  10.9462  6.882629
  19178.327  19178.290  0.500  -0.186721  9.072278  10.9347  6.911273
  19181.072  19181.010  0.500  -0.187440  9.066515  10.9357  6.948850
  19183.753  19183.750  0.500  -0.188225  9.049966  10.9243  6.968701
  19186.533  19186.500  0.500  -0.189526  9.054460  10.9439  6.999006
  19189.329  19189.280  0.500  -0.191356  9.046284  10.9541  7.009993
  19192.061  19192.070  0.500  -0.193640  9.041377  10.9732  7.017923
  19194.907  19194.890  0.500  -0.196047  9.040097  10.998  7.027922
  19197.771  19197.720  0.500  -0.197937  9.025796  11.0014  7.026734
  19200.586  19200.570  0.500  -0.199703  9.009682  11.0012  7.021986
  19203.500  19203.450  0.500  -0.200053  9.012345  11.0083  7.021826
  19206.349  19206.340  0.500  -0.200246  9.007663  11.0047  7.008949
  19209.216  19209.250  0.500  -0.198980  8.999484  10.9808  6.982744
  19212.197  19212.170  0.500  -0.198322  8.992011  10.9645  6.957186
  19215.147  19215.120  0.500  -0.198599  8.984795  10.9587  6.938348
  19218.146  19218.090  0.500  -0.199343  8.976933  10.9572  6.925303
  19221.113  19221.070  0.500  -0.199659  8.964559  10.9456  6.908602
  19224.114  19224.080  0.500  -0.200424  8.959899  10.9483  6.901309
  19227.133  19227.100  0.500  -0.200536  8.953467  10.9416  6.895765
  19230.152  19230.150  0.500  -0.199902  8.948824  10.929  6.888052
  19233.188  19233.210  0.500  -0.198481  8.931918  10.8929  6.865450
  19236.290  19236.290  0.500  -0.196689  8.927565  10.8681  6.852763
  19239.426  19239.390  0.500  -0.194014  8.921209  10.8314  6.838963
  19242.563  19242.510  0.500  -0.190794  8.914438  10.7883  6.824443
  19245.684  19245.650  0.500  -0.189146  8.901928  10.7555  6.817761
  19248.807  19248.800  0.500  -0.188477  8.897484  10.7429  6.828123
  19251.979  19251.980  0.500  -0.189012  8.893759  10.7442  6.846885
  19255.185  19255.170  0.500  -0.190537  8.885630  10.7507  6.867258
  19258.360  19258.390  0.500  -0.192855  8.872842  10.7602  6.884966
  19261.665  19261.620  0.500  -0.195472  8.870828  10.7859  6.912408
  19264.907  19264.870  0.500  -0.197872  8.862145  10.8012  6.931063
  19268.232  19268.150  0.500  -0.200016  8.853153  10.8134  6.942656
  19271.459  19271.440  0.500  -0.201361  8.848694  10.8225  6.945584
  19274.753  19274.750  0.500  -0.202592  8.832629  10.8162  6.931062
  19278.065  19278.070  0.500  -0.203246  8.831550  10.8219  6.925199
  19281.443  19281.420  0.500  -0.204648  8.814668  10.8164  6.910698
  19284.838  19284.790  0.500  -0.205942  8.809490  10.8241  6.905061
  19288.219  19288.170  0.500  -0.207724  8.807352  10.8407  6.907309
  19291.633  19291.580  0.500  -0.208292  8.796401  10.8334  6.895965
  19295.048  19295.000  0.500  -0.208179  8.784096  10.817  6.882493
  19298.465  19298.450  0.500  -0.207142  8.777623  10.7979  6.864409
  19301.915  19301.910  0.500  -0.205210  8.770531  10.7683  6.846951
  19305.433  19305.390  0.500  -0.203458  8.760716  10.7374  6.830449
  19308.968  19308.890  0.500  -0.201748  8.751486  10.7078  6.816685
  19312.422  19312.410  0.500  -0.200350  8.737432  10.6757  6.802929
  19315.992  19315.950  0.500  -0.198540  8.732268  10.6501  6.791880
  19319.547  19319.500  0.500  -0.197576  8.722117  10.6274  6.779141
  19323.087  19323.080  0.500  -0.197120  8.708321  10.6058  6.769271
  19326.662  19326.680  0.500  -0.197205  8.687288  10.5811  6.762444
  19330.336  19330.290  0.500  -0.198705  8.705208  10.6188  6.795544
  19333.978  19333.920  0.500  -0.201028  8.688477  10.623  6.807790
  19337.638  19337.580  0.500  -0.204220  8.677603  10.6437  6.829630
  19341.251  19341.250  0.500  -0.207031  8.670346  10.6647  6.846318
  19344.930  19344.940  0.500  -0.208526  8.669309  10.6794  6.857896
  19348.661  19348.650  0.500  -0.209213  8.651368  10.6646  6.851520
  19352.458  19352.380  0.500  -0.208775  8.638449  10.644  6.842951
  19356.142  19356.120  0.500  -0.208257  8.633281  10.6321  6.838111
  19359.926  19359.890  0.500  -0.207502  8.623457  10.612  6.824306
  19363.695  19363.680  0.500  -0.207857  8.611507  10.6011  6.814212
  19367.515  19367.480  0.500  -0.208314  8.601449  10.5935  6.807237
  19371.336  19371.310  0.500  -0.209228  8.590009  10.5891  6.802167
  19375.225  19375.150  0.500  -0.209759  8.579447  10.5817  6.798368
  19379.066  19379.010  0.500  -0.209819  8.567897  10.5681  6.790931
  19382.958  19382.890  0.500  -0.209553  8.560990  10.5568  6.785695
  19386.802  19386.790  0.500  -0.209481  8.546663  10.5384  6.774921
  19390.697  19390.710  0.500  -0.209075  8.543476  10.5302  6.768743
  19394.643  19394.650  0.500  -0.208970  8.526109  10.5076  6.751611
  19398.657  19398.610  0.500  -0.208525  8.520941  10.4966  6.742726
  19402.640  19402.580  0.500  -0.208164  8.505994  10.4744  6.727778
  19406.640  19406.580  0.500  -0.208251  8.499364  10.4672  6.723323
  19410.626  19410.590  0.500  -0.208057  8.489203  10.4526  6.719756
  19414.663  19414.630  0.500  -0.208610  8.482170  10.4497  6.717510
  19418.718  19418.680  0.500  -0.208569  8.464035  10.427  6.708036
  19422.792  19422.750  0.500  -0.208755  8.458084  10.4216  6.709886
  19426.884  19426.840  0.500  -0.209385  8.440776  10.4068  6.706398
  19431.027  19430.950  0.500  -0.211057  8.430153  10.4111  6.716420
  19435.106  19435.080  0.500  -0.212604  8.420838  10.4157  6.722606
  19439.253  19439.230  0.500  -0.213724  8.408747  10.4124  6.723577
  19443.402  19443.390  0.500  -0.214964  8.399053  10.4133  6.726875
  19447.602  19447.580  0.500  -0.215644  8.388356  10.4071  6.724288
  19451.821  19451.780  0.500  -0.215878  8.384498  10.4047  6.723890
  19456.025  19456.010  0.500  -0.216544  8.365366  10.3879  6.713938
  19460.264  19460.250  0.500  -0.217178  8.357134  10.3843  6.711724
  19464.571  19464.510  0.500  -0.217498  8.330212  10.3541  6.697218
  19468.847  19468.790  0.500  -0.217149  8.242623  10.2417  6.626276
  19473.142  19473.090  0.500  -0.216252  8.309592  10.3157  6.674734
  19477.421  19477.410  0.500  -0.215173  8.309848  10.3048  6.669768
  19481.786  19481.750  0.500  -0.214062  8.294761  10.2747  6.651529
  19486.153  19486.110  0.500  -0.213159  8.285936  10.2545  6.638065
  19490.556  19490.490  0.500  -0.212345  8.279735  10.2385  6.629315
  19494.927  19494.880  0.500  -0.213226  8.266996  10.2318  6.625721
  19499.300  19499.300  0.500  -0.214373  8.256747  10.2308  6.626877
  19503.775  19503.730  0.500  -0.215015  8.249882  10.2289  6.627368
  19508.235  19508.180  0.500  -0.215930  8.235336  10.2202  6.622345
  19512.714  19512.650  0.500  -0.216597  8.219697  10.2076  6.612721
  19517.212  19517.140  0.500  -0.217147  8.202584  10.1919  6.601828
  19521.679  19521.650  0.500  -0.217008  8.195661  10.1819  6.595675
  19526.181  19526.180  0.500  -0.217687  8.182381  10.1723  6.591354
  19530.786  19530.730  0.500  -0.218856  8.174475  10.1744  6.594626
  19535.359  19535.300  0.500  -0.220047  8.163414  10.1727  6.598417
  19539.918  19539.880  0.500  -0.221366  8.149568  10.1689  6.601102
  19544.496  19544.490  0.500  -0.222019  8.140569  10.1643  6.603735
  19549.176  19549.110  0.500  -0.222284  8.126730  10.1497  6.599607
  19553.826  19553.760  0.500  -0.222086  8.120368  10.1397  6.595915
  19558.477  19558.420  0.500  -0.222033  8.103102  10.1176  6.587165
  19563.114  19563.100  0.500  -0.222093  8.090203  10.1021  6.578857
  19567.820  19567.800  0.500  -0.222251  8.079895  10.0909  6.574145
  19572.579  19572.520  0.500  -0.221755  8.068896  10.0721  6.564880
  19577.341  19577.260  0.500  -0.221662  8.055960  10.055  6.554440
  19582.054  19582.010  0.500  -0.221179  8.042662  10.0336  6.542744
  19586.786  19586.790  0.500  -0.221322  8.034930  10.0254  6.536469
  19591.656  19591.590  0.500  -0.221890  8.018402  10.0104  6.527125
  19596.460  19596.400  0.500  -0.222247  8.002748  9.994469  6.518654
  19601.301  19601.230  0.500  -0.222943  7.988027  9.983029  6.511963
  19606.093  19606.090  0.500  -0.223720  7.934934  9.924384  6.476250
  19610.989  19610.960  0.500  -0.224338  7.932414  9.927364  6.476359
  19615.922  19615.850  0.500  -0.224364  7.962732  9.965570  6.505363
  19620.823  19620.760  0.500  -0.224714  7.949464  9.952449  6.497244
  19625.726  19625.690  0.500  -0.224769  7.938919  9.939788  6.489790
  19630.649  19630.630  0.500  -0.224971  7.932323  9.933540  6.486461
  19635.659  19635.600  0.500  -0.225500  7.894554  9.891475  6.462075
  19640.688  19640.590  0.500  -0.226093  7.896687  9.900011  6.469765
  19645.635  19645.590  0.500  -0.226978  7.889233  9.899423  6.471623
  19650.687  19650.620  0.500  -0.227874  7.873924  9.889071  6.466378
  19655.741  19655.660  0.500  -0.228292  7.865721  9.882903  6.468148
  19660.781  19660.720  0.500  -0.229056  7.836533  9.853756  6.450571
  19665.840  19665.800  0.500  -0.229338  7.826215  9.843558  6.448642
  19670.902  19670.900  0.500  -0.229668  7.815511  9.833334  6.445082
  19676.137  19676.020  0.500  -0.229752  7.698428  9.686835  6.352820
  19681.238  19681.160  0.500  -0.230004  7.804846  9.823218  6.442499
  19686.376  19686.320  0.500  -0.229970  7.791518  9.806109  6.434392
  19691.534  19691.500  0.500  -0.229573  7.768943  9.773820  6.418227
  19696.712  19696.690  0.500  -0.229942  7.762661  9.769516  6.416212
  19702.011  19701.910  0.500  -0.229761  7.746963  9.747993  6.405276
  19707.194  19707.140  0.500  -0.230084  7.734433  9.735374  6.398433
  19712.397  19712.390  0.500  -0.230323  7.720848  9.720602  6.387804
  19717.722  19717.660  0.500  -0.230697  7.700717  9.698885  6.376548
  19722.965  19722.950  0.500  -0.231489  7.692932  9.696749  6.375987
  19728.330  19728.260  0.500  -0.232070  7.680208  9.686336  6.370914
  19733.629  19733.590  0.500  -0.232511  7.666722  9.673596  6.365097
  19738.932  19738.940  0.500  -0.232902  7.652836  9.659852  6.355919
  19744.323  19744.310  0.500  -0.233595  7.559311  9.548410  6.284142
  19749.734  19749.690  0.500  -0.233855  7.632733  9.643661  6.349880
  19755.096  19755.100  0.500  -0.234579  7.623030  9.638376  6.347651
  19760.547  19760.520  0.500  -0.234958  7.608103  9.623149  6.338703
  19766.019  19765.970  0.500  -0.235687  7.594816  9.613353  6.335345
  19771.476  19771.430  0.500  -0.235791  7.583348  9.599836  6.330509
  19776.936  19776.910  0.500  -0.236730  7.565463  9.586192  6.320973
  19782.434  19782.410  0.500  -0.236605  7.556268  9.573343  6.317860
  19787.969  19787.930  0.500  -0.236549  7.548125  9.562490  6.313660
  19793.542  19793.470  0.500  -0.236734  7.527139  9.537671  6.299087
  19799.032  19799.020  0.500  -0.236766  7.513429  9.520603  6.292042
  19804.594  19804.600  0.500  -0.237126  7.502600  9.510304  6.287710
  19810.262  19810.200  0.500  -0.237878  7.486631  9.497201  6.280733
  19815.882  19815.810  0.500  -0.238260  7.474617  9.485579  6.275305
  19821.487  19821.450  0.500  -0.238273  7.459816  9.466921  6.265221
  19827.131  19827.100  0.500  -0.238503  7.445978  9.451536  6.257963
  19832.778  19832.770  0.500  -0.239085  7.432150  9.439478  6.251898
  19838.479  19838.460  0.500  -0.239330  7.419117  9.425232  6.243343