File: xdidata/Ni/Ni-K-LanthanumNickelate.xdi
# XDI/1.0 BlueSky/1.10.0 BMM/2023-1.0-py310-tiled
# Beamline.name: BMM (06BM) -- Beamline for Materials Measurement (NIST)
# Beamline.xray_source: NSLS-II three-pole wiggler
# Beamline.collimation: paraboloid mirror, 5 nm Rh on 30 nm Pt
# Beamline.focusing: not in use
# Beamline.harmonic_rejection: flat mirror, Pt stripe, pitch = 7.0 mrad relative to beam
# Beamline.software: Bluesky 1.10.0, Ophyd 1.7.0, DataBroker 2.0.0b13, Python 3.10.8, 2023-1.0-py310-tiled
# Detector.I0: 10 cm N2
# Detector.I1: 25 cm N2
# Detector.I2: 25 cm N2
# Element.symbol: Ni
# Element.edge: K
# Element.reference: Ni
# Element.reference_material: Ni foil
# Facility.name: NSLS-II
# Facility.energy: 3.0
# Facility.current: 399.3
# Facility.mode: top-off
# Facility.GUP: 301027
# Facility.SAF: 310583
# Facility.cycle: 2023-2
# Mono.name: Si(111)
# Mono.d_spacing: 3.13519
# Mono.encoder_resolution: 0.0000050 deg/ct
# Mono.angle_offset: 16.0754 deg
# Mono.scan_mode: pseudo channel cut
# Mono.scan_type: step
# Mono.direction: forward in energy
# Sample.name: LaNiO3
# Sample.prep: powder in PEG pellet
# Sample.x: 117.785 mm
# Sample.y: 114.695 mm
# Sample.SDD_position: 205.000 mm
# Scan.experimenters: Bruce Ravel
# Scan.edge_energy: 8332.8
# Scan.start_time: 2023-06-23T15:59:34
# Scan.end_time: 2023-06-23T16:07:39
# Scan.transient_id: 84865
# Scan.uid: a5c76479-fe3d-4e72-b753-0f6f0e10d5c9
# Scan.plot_hint: ln(I0/It)  --  ln($5/$6)
# Column.1: energy eV
# Column.2: requested_energy eV
# Column.3: measurement_time seconds
# Column.4: xmu
# Column.5: I0 nA
# Column.6: It nA
# Column.7: Ir nA
# ///////////
# sample courtesy Martin Stennett, University of Sheffield
# -----------
# energy  requested_energy  measurement_time  xmu  I0  It  Ir
  8132.801  8132.800  0.500  2.854355  133.79  7.705392  2.956697
  8142.820  8142.800  0.500  2.843217  133.59  7.780003  2.995137
  8152.828  8152.800  0.500  2.832036  133.353  7.853544  3.033407
  8162.870  8162.800  0.500  2.821128  133.154  7.927849  3.073300
  8172.860  8172.800  0.500  2.809969  132.861  7.999175  3.110911
  8182.833  8182.800  0.500  2.799230  132.68  8.074505  3.151511
  8192.853  8192.800  0.500  2.788407  132.447  8.148023  3.191705
  8202.859  8202.800  0.500  2.777586  132.263  8.225243  3.232335
  8212.855  8212.800  0.500  2.766810  132.034  8.299963  3.272021
  8222.821  8222.800  0.500  2.756324  131.833  8.374689  3.313647
  8232.827  8232.800  0.500  2.745757  131.573  8.446914  3.353062
  8242.817  8242.800  0.500  2.735286  131.382  8.523473  3.394608
  8252.823  8252.800  0.500  2.724755  131.13  8.597180  3.434326
  8262.822  8262.800  0.500  2.714430  131.293  8.697175  3.485542
  8272.826  8272.800  0.500  2.704101  131.073  8.772764  3.525849
  8282.822  8282.800  0.500  2.693902  130.775  8.842530  3.564676
  8292.823  8292.800  0.500  2.683822  130.611  8.920958  3.605607
  8302.821  8302.800  0.500  2.673952  130.393  8.994392  3.641910
  8304.796  8304.800  0.500  2.672179  130.259  9.001109  3.646012
  8306.795  8306.800  0.500  2.670383  130.251  9.016744  3.654922
  8308.798  8308.800  0.500  2.668406  130.192  9.030476  3.660573
  8310.790  8310.800  0.500  2.666613  130.171  9.045237  3.667405
  8312.798  8312.800  0.500  2.664991  130.093  9.054460  3.671736
  8314.795  8314.800  0.500  2.663303  130.085  9.069203  3.677517
  8316.790  8316.800  0.500  2.661578  130.01  9.079657  3.680151
  8318.792  8318.800  0.500  2.659849  129.986  9.093658  3.684095
  8320.795  8320.800  0.500  2.658383  129.926  9.102776  3.684936
  8322.790  8322.800  0.500  2.657054  129.875  9.111316  3.683698
  8323.078  8323.100  0.500  2.656879  129.873  9.112781  3.682925
  8323.375  8323.400  0.500  2.656813  129.836  9.110789  3.681912
  8323.672  8323.700  0.500  2.656588  129.801  9.110411  3.679832
  8323.975  8324.000  0.500  2.656557  129.854  9.114353  3.681137
  8324.275  8324.300  0.500  2.656359  129.839  9.115135  3.679863
  8324.581  8324.600  0.500  2.656171  129.835  9.116553  3.679090
  8324.878  8324.900  0.500  2.655909  129.82  9.117911  3.677754
  8325.184  8325.200  0.500  2.655853  129.798  9.116860  3.676248
  8325.478  8325.500  0.500  2.655691  129.781  9.117161  3.674603
  8325.781  8325.800  0.500  2.655708  129.779  9.116826  3.672397
  8326.079  8326.100  0.500  2.655449  129.762  9.118022  3.670746
  8326.373  8326.400  0.500  2.655451  129.756  9.117620  3.668404
  8326.682  8326.700  0.500  2.655240  129.728  9.117540  3.665273
  8326.973  8327.000  0.500  2.655042  129.766  9.122041  3.664132
  8327.279  8327.300  0.500  2.655074  129.71  9.117774  3.659183
  8327.583  8327.600  0.500  2.654899  129.753  9.122394  3.657577
  8327.880  8327.900  0.500  2.655072  129.71  9.117792  3.651418
  8328.183  8328.200  0.500  2.655075  129.704  9.117389  3.646571
  8328.484  8328.500  0.500  2.655010  129.671  9.115626  3.641228
  8328.790  8328.800  0.500  2.655293  129.673  9.113214  3.634408
  8329.090  8329.100  0.500  2.655272  129.674  9.113455  3.626922
  8329.388  8329.400  0.500  2.655593  129.681  9.111039  3.618117
  8329.697  8329.700  0.500  2.655800  129.655  9.107343  3.604729
  8329.992  8330.000  0.500  2.655934  129.619  9.103561  3.591521
  8330.292  8330.300  0.500  2.656265  129.627  9.101138  3.573949
  8330.596  8330.600  0.500  2.656757  129.624  9.096424  3.549822
  8330.890  8330.900  0.500  2.657630  129.622  9.088332  3.519039
  8331.191  8331.200  0.500  2.658657  129.588  9.076655  3.475109
  8331.488  8331.500  0.500  2.660283  129.612  9.063538  3.417432
  8331.789  8331.800  0.500  2.662355  129.58  9.042541  3.342860
  8332.087  8332.100  0.500  2.665627  129.572  9.012482  3.251455
  8332.381  8332.400  0.500  2.670237  129.556  8.969903  3.147063
  8332.691  8332.700  0.500  2.676543  129.533  8.911946  3.034662
  8332.994  8333.000  0.500  2.683501  129.496  8.847626  2.923394
  8333.301  8333.300  0.500  2.689993  129.489  8.789890  2.820538
  8333.605  8333.600  0.500  2.694850  129.462  8.745471  2.733611
  8333.897  8333.900  0.500  2.697570  129.393  8.717092  2.662378
  8334.203  8334.200  0.500  2.698445  129.38  8.708562  2.602095
  8334.495  8334.500  0.500  2.697706  129.414  8.717313  2.554175
  8334.799  8334.800  0.500  2.695681  129.36  8.731331  2.515686
  8335.091  8335.100  0.500  2.693374  129.355  8.751160  2.486500
  8335.395  8335.400  0.500  2.690948  129.29  8.767984  2.462068
  8335.690  8335.700  0.500  2.689091  129.323  8.786567  2.442703
  8335.993  8336.000  0.500  2.687558  129.328  8.800366  2.426179
  8336.294  8336.300  0.500  2.686924  129.303  8.804253  2.410951
  8336.595  8336.600  0.500  2.686673  129.305  8.806566  2.396199
  8336.899  8336.900  0.500  2.686845  129.284  8.803622  2.381244
  8337.203  8337.200  0.500  2.687599  129.248  8.794548  2.363248
  8337.498  8337.500  0.500  2.688847  129.28  8.785793  2.343566
  8337.802  8337.800  0.500  2.690549  129.227  8.767240  2.317950
  8338.097  8338.100  0.500  2.692831  129.253  8.749021  2.289539
  8338.404  8338.400  0.500  2.695999  129.246  8.720888  2.254529
  8338.691  8338.700  0.500  2.699944  129.166  8.681148  2.216804
  8338.992  8339.000  0.500  2.704938  129.245  8.643166  2.179163
  8339.299  8339.300  0.500  2.710395  129.22  8.594472  2.140629
  8339.600  8339.600  0.500  2.716249  129.18  8.541668  2.104484
  8339.904  8339.900  0.500  2.722492  129.199  8.489744  2.070487
  8340.199  8340.200  0.500  2.728771  129.143  8.432962  2.037200
  8340.501  8340.500  0.500  2.735254  129.104  8.375971  2.004446
  8340.805  8340.800  0.500  2.741897  129.091  8.319627  1.971597
  8341.100  8341.100  0.500  2.748305  129.151  8.270348  1.939279
  8341.402  8341.400  0.500  2.754567  129.108  8.215965  1.903814
  8341.694  8341.700  0.500  2.760591  129.132  8.168141  1.869938
  8342.001  8342.000  0.500  2.766849  129.11  8.115799  1.831582
  8342.297  8342.300  0.500  2.773480  129.077  8.060123  1.790996
  8342.601  8342.600  0.500  2.781166  129.067  7.997787  1.747447
  8342.896  8342.900  0.500  2.790363  129.039  7.922855  1.700091
  8343.204  8343.200  0.500  2.801994  129.019  7.830039  1.647255
  8343.502  8343.500  0.500  2.815617  129.012  7.723656  1.591239
  8343.804  8343.800  0.500  2.832398  128.988  7.593688  1.530150
  8344.096  8344.100  0.500  2.852057  128.974  7.445089  1.466978
  8344.404  8344.400  0.500  2.875752  128.947  7.269197  1.398059
  8344.696  8344.700  0.500  2.902278  128.948  7.079007  1.329144
  8344.995  8345.000  0.500  2.933052  128.94  6.864020  1.257467
  8345.294  8345.300  0.500  2.966494  128.928  6.637680  1.187134
  8345.589  8345.600  0.500  3.003866  128.915  6.393538  1.115379
  8345.891  8345.900  0.500  3.044410  128.901  6.138845  1.044909
  8346.201  8346.200  0.500  3.089341  128.886  5.868433  0.975214
  8346.500  8346.500  0.500  3.138641  128.863  5.585146  0.906376
  8346.802  8346.800  0.500  3.193428  128.869  5.287636  0.838810
  8347.101  8347.100  0.500  3.254695  128.86  4.973043  0.772142
  8347.408  8347.400  0.500  3.322383  128.8  4.645404  0.706721
  8347.704  8347.700  0.500  3.393936  128.841  4.326000  0.647237
  8348.006  8348.000  0.500  3.466512  128.796  4.021764  0.593113
  8348.302  8348.300  0.500  3.534570  128.738  3.755446  0.547328
  8348.598  8348.600  0.500  3.598443  128.762  3.523740  0.509251
  8348.896  8348.900  0.500  3.650932  128.688  3.341625  0.480214
  8349.198  8349.200  0.500  3.692214  128.725  3.207412  0.458915
  8349.494  8349.500  0.500  3.717775  128.702  3.125915  0.446191
  8349.799  8349.800  0.500  3.728787  128.674  3.091012  0.441226
  8350.098  8350.100  0.500  3.724740  128.659  3.103173  0.442925
  8350.406  8350.400  0.500  3.710051  128.615  3.148009  0.450416
  8350.699  8350.700  0.500  3.687530  128.609  3.219564  0.462055
  8351.004  8351.000  0.500  3.660408  128.588  3.307531  0.476888
  8351.300  8351.300  0.500  3.632788  128.553  3.399242  0.491545
  8351.599  8351.600  0.500  3.605460  128.513  3.492325  0.507525
  8351.892  8351.900  0.500  3.580715  128.477  3.578818  0.522281
  8352.197  8352.200  0.500  3.557616  128.453  3.661776  0.536706
  8352.491  8352.500  0.500  3.536623  128.402  3.737959  0.549798
  8352.799  8352.800  0.500  3.517234  128.392  3.810858  0.562490
  8353.098  8353.100  0.500  3.500309  128.353  3.874740  0.573465
  8353.406  8353.400  0.500  3.485273  128.311  3.932131  0.582412
  8353.705  8353.700  0.500  3.472929  128.307  3.980849  0.589506
  8354.008  8354.000  0.500  3.462936  128.301  4.020632  0.594796
  8354.307  8354.300  0.500  3.455479  128.296  4.050597  0.597251
  8354.603  8354.600  0.500  3.450331  128.313  4.072044  0.597418
  8354.896  8354.900  0.500  3.446774  128.297  4.086026  0.596200
  8355.199  8355.200  0.500  3.444795  128.291  4.093924  0.593113
  8355.489  8355.500  0.500  3.443876  128.255  4.096555  0.588442
  8355.795  8355.800  0.500  3.443244  128.271  4.099650  0.583873
  8356.097  8356.100  0.500  3.442764  128.297  4.102433  0.578665
  8356.399  8356.400  0.500  3.442332  128.294  4.104137  0.573802
  8356.699  8356.700  0.500  3.441226  128.24  4.106924  0.569653
  8357.004  8357.000  0.500  3.439367  128.264  4.115360  0.567078
  8357.295  8357.300  0.500  3.436872  128.248  4.125121  0.565488
  8357.603  8357.600  0.500  3.433943  128.211  4.136010  0.564944
  8357.801  8357.800  0.500  3.432331  128.257  4.144190  0.565426
  8358.766  8358.790  0.500  3.419804  128.158  4.193179  0.574098
  8359.778  8359.790  0.500  3.408670  128.219  4.242139  0.588296
  8360.815  8360.810  0.500  3.403679  128.18  4.262067  0.599828
  8361.868  8361.860  0.500  3.401891  128.147  4.268617  0.607618
  8362.941  8362.920  0.500  3.400744  128.075  4.271105  0.615317
  8364.018  8364.000  0.500  3.399030  128.112  4.279671  0.626471
  8365.107  8365.100  0.500  3.394318  128.08  4.298807  0.639940
  8366.215  8366.220  0.500  3.383532  128.017  4.343280  0.654609
  8367.364  8367.360  0.500  3.366910  128.061  4.417594  0.670147
  8368.536  8368.510  0.500  3.345138  128.038  4.514030  0.687268
  8369.668  8369.690  0.500  3.322145  127.912  4.614473  0.704375
  8371.014  8370.880  0.500  3.293341  127.883  4.748244  0.723391
  8372.147  8372.100  0.500  3.264933  127.909  4.886052  0.738569
  8373.326  8373.330  0.500  3.237533  127.866  5.020111  0.749201
  8374.562  8374.580  0.500  3.210324  127.819  5.156655  0.755756
  8375.831  8375.850  0.500  3.185760  127.862  5.286684  0.758563
  8377.125  8377.140  0.500  3.164573  127.78  5.396409  0.756915
  8378.431  8378.450  0.500  3.147385  127.744  5.488456  0.751422
  8379.768  8379.780  0.500  3.134942  127.716  5.555945  0.742914
  8381.124  8381.130  0.500  3.127216  127.712  5.598846  0.736046
  8382.489  8382.500  0.500  3.123915  127.614  5.613037  0.733879
  8383.875  8383.880  0.500  3.127527  127.607  5.592499  0.735554
  8385.274  8385.290  0.500  3.138276  127.555  5.530454  0.739379
  8386.704  8386.710  0.500  3.155340  127.994  5.455622  0.747510
  8388.155  8388.150  0.500  3.176102  127.939  5.341195  0.752703
  8389.607  8389.610  0.500  3.198027  127.845  5.221517  0.754669
  8391.081  8391.090  0.500  3.220640  127.851  5.105036  0.754156
  8392.588  8392.590  0.500  3.243409  127.817  4.988788  0.750795
  8394.111  8394.110  0.500  3.264811  127.804  4.882659  0.744132
  8395.646  8395.650  0.500  3.283108  127.74  4.791702  0.735024
  8397.198  8397.210  0.500  3.296979  127.675  4.723314  0.725172
  8398.780  8398.780  0.500  3.307684  127.644  4.671863  0.716369
  8400.381  8400.380  0.500  3.315742  127.58  4.632050  0.711935
  8401.994  8401.990  0.500  3.320961  127.516  4.605629  0.711193
  8403.624  8403.630  0.500  3.322110  127.533  4.600960  0.712420
  8405.281  8405.280  0.500  3.319672  127.487  4.610516  0.713380
  8406.942  8406.950  0.500  3.314087  127.433  4.634374  0.713252
  8408.631  8408.640  0.500  3.306623  127.358  4.666356  0.712404
  8410.348  8410.350  0.500  3.298728  127.353  4.703159  0.713248
  8412.087  8412.080  0.500  3.289684  127.326  4.744875  0.715785
  8413.827  8413.830  0.500  3.279678  127.244  4.789509  0.718129
  8415.586  8415.590  0.500  3.271808  127.212  4.826146  0.715210
  8417.388  8417.380  0.500  3.268325  127.112  4.839187  0.708159
  8419.185  8419.180  0.500  3.268446  127.146  4.839884  0.699783
  8421.012  8421.010  0.500  3.270398  127.068  4.827460  0.690248
  8422.859  8422.850  0.500  3.272953  127.007  4.812862  0.679369
  8424.710  8424.710  0.500  3.274989  127.046  4.804547  0.667856
  8426.590  8426.590  0.500  3.274794  126.951  4.801866  0.655879
  8428.494  8428.490  0.500  3.270489  126.914  4.821203  0.648286
  8430.415  8430.410  0.500  3.261832  126.874  4.861559  0.646135
  8432.351  8432.350  0.500  3.250639  126.8  4.913416  0.651143
  8434.316  8434.310  0.500  3.240221  126.76  4.963322  0.662236
  8436.279  8436.280  0.500  3.232821  126.726  4.998846  0.677643
  8438.274  8438.280  0.500  3.227024  126.677  5.025967  0.694871
  8440.294  8440.290  0.500  3.220895  126.61  5.054196  0.713652
  8442.321  8442.320  0.500  3.214047  126.562  5.086982  0.734245
  8444.391  8444.380  0.500  3.206597  126.49  5.122114  0.755501
  8446.451  8446.450  0.500  3.198374  126.403  5.160854  0.772710
  8448.552  8448.540  0.500  3.188641  126.389  5.210765  0.789662
  8450.656  8450.650  0.500  3.179058  126.337  5.258766  0.810462
  8452.783  8452.780  0.500  3.169864  126.235  5.303040  0.834434
  8454.930  8454.920  0.500  3.161583  126.236  5.347200  0.859972
  8457.093  8457.090  0.500  3.155195  126.12  5.376525  0.878807
  8459.285  8459.280  0.500  3.151692  126.035  5.391720  0.888094
  8461.487  8461.480  0.500  3.152049  126.063  5.391012  0.886965
  8463.712  8463.700  0.500  3.154767  126.003  5.373821  0.877005
  8465.957  8465.950  0.500  3.159145  125.875  5.344898  0.860130
  8468.215  8468.210  0.500  3.164543  125.795  5.312769  0.841698
  8470.509  8470.490  0.500  3.170286  125.731  5.279661  0.822372
  8472.797  8472.790  0.500  3.175285  125.679  5.251132  0.808151
  8475.121  8475.110  0.500  3.179403  125.692  5.230092  0.800247
  8477.467  8477.450  0.500  3.183730  125.54  5.201213  0.797487
  8479.803  8479.800  0.500  3.187180  125.563  5.184265  0.799503
  8482.195  8482.180  0.500  3.189143  125.476  5.170512  0.800022
  8484.576  8484.570  0.500  3.189115  125.421  5.168391  0.793770
  8487.009  8486.990  0.500  3.188309  125.365  5.170250  0.776377
  8489.433  8489.420  0.500  3.186840  125.284  5.174494  0.752288
  8491.890  8491.870  0.500  3.184520  125.238  5.184628  0.732007
  8494.364  8494.350  0.500  3.180924  125.149  5.199603  0.720075
  8496.861  8496.840  0.500  3.176145  125.07  5.221219  0.716897
  8499.371  8499.350  0.500  3.169719  125.013  5.252476  0.719510
  8501.884  8501.870  0.500  3.162337  124.943  5.288440  0.725694
  8504.438  8504.420  0.500  3.154392  124.859  5.327019  0.738369
  8506.997  8506.990  0.500  3.147633  124.789  5.360125  0.757871
  8509.585  8509.570  0.500  3.141837  124.675  5.386398  0.782979
  8512.194  8512.180  0.500  3.138724  124.583  5.399170  0.812743
  8514.820  8514.800  0.500  3.138335  124.515  5.398326  0.845681
  8517.463  8517.450  0.500  3.140005  124.404  5.384535  0.878966
  8520.127  8520.110  0.500  3.141540  124.264  5.370235  0.908360
  8522.805  8522.790  0.500  3.140688  124.141  5.369464  0.929834
  8525.503  8525.490  0.500  3.136405  123.88  5.381194  0.937729
  8528.222  8528.210  0.500  3.130916  123.104  5.376900  0.927956
  8530.961  8530.950  0.500  3.127597  108.888  4.771783  0.807309
  8533.712  8533.700  0.500  3.123827  123.808  5.446114  0.899595
  8536.498  8536.480  0.500  3.119399  124.241  5.489409  0.887517
  8539.284  8539.270  0.500  3.112119  124.119  5.524100  0.878852
  8542.102  8542.090  0.500  3.102305  124.025  5.574383  0.877510
  8544.935  8544.920  0.500  3.091861  123.894  5.626951  0.884258
  8547.789  8547.770  0.500  3.081801  123.84  5.681341  0.894900
  8550.658  8550.650  0.500  3.074124  123.749  5.720950  0.905787
  8553.556  8553.540  0.500  3.068879  123.603  5.744238  0.914363
  8556.470  8556.450  0.500  3.067119  123.573  5.752961  0.922227
  8559.391  8559.370  0.500  3.067493  123.431  5.744184  0.930143
  8562.330  8562.320  0.500  3.067629  123.403  5.742092  0.936864
  8565.307  8565.290  0.500  3.066521  123.304  5.743837  0.936498
  8568.285  8568.270  0.500  3.064268  123.237  5.753689  0.927537
  8571.297  8571.280  0.500  3.061237  123.13  5.766156  0.911867
  8574.320  8574.300  0.500  3.058932  123.061  5.776192  0.897386
  8577.368  8577.350  0.500  3.057697  122.972  5.779168  0.887093
  8580.434  8580.410  0.500  3.057321  122.89  5.777474  0.880504
  8583.505  8583.490  0.500  3.056597  122.778  5.776400  0.879237
  8586.614  8586.590  0.500  3.055326  122.606  5.775662  0.883699
  8589.727  8589.710  0.500  3.054498  122.477  5.774353  0.895116
  8592.872  8592.850  0.500  3.055446  113.643  5.352791  0.846645
  8596.029  8596.000  0.500  3.052783  120.585  5.694889  0.922597
  8599.194  8599.180  0.500  3.050157  121.751  5.765104  0.955871
  8602.387  8602.370  0.500  3.043737  121.758  5.802580  0.981297
  8605.609  8605.590  0.500  3.033943  121.577  5.850941  1.002607
  8608.838  8608.820  0.500  3.023113  121.307  5.901538  1.018392
  8612.096  8612.070  0.500  3.013197  120.745  5.932715  1.024878
  8615.366  8615.350  0.500  3.005825  118.892  5.884911  1.016264
  8618.648  8618.640  0.500  3.002466  86.0429  4.273276  0.738489
  8621.962  8621.950  0.500  3.001046  122.957  6.115285  1.057441
  8625.275  8625.270  0.500  3.003232  122.586  6.083492  1.052950
  8628.625  8628.620  0.500  3.005602  122.273  6.053596  1.048953
  8632.008  8631.990  0.500  3.006699  122.063  6.036575  1.044840
  8635.380  8635.370  0.500  3.005664  121.858  6.032667  1.040696
  8638.783  8638.780  0.500  3.002876  121.645  6.038973  1.036822
  8642.209  8642.200  0.500  2.998746  120.04  5.983944  1.022645
  8645.673  8645.650  0.500  2.993258  117.879  5.908539  1.006879
  8649.123  8649.110  0.500  2.988209  120.863  6.088773  1.035460
  8652.599  8652.590  0.500  2.982804  120.951  6.126243  1.040726
  8656.107  8656.090  0.500  2.977284  120.93  6.159079  1.044473
  8659.624  8659.610  0.500  2.971347  120.844  6.191330  1.047729
  8663.163  8663.150  0.500  2.964054  120.783  6.233510  1.051155
  8666.716  8666.700  0.500  2.955830  120.671  6.279174  1.054668
  8670.293  8670.280  0.500  2.947074  120.565  6.328822  1.061572
  8673.897  8673.880  0.500  2.938519  120.413  6.375163  1.072003
  8677.509  8677.490  0.500  2.932443  120.324  6.409261  1.085995
  8681.135  8681.120  0.500  2.928467  120.206  6.428511  1.100188
  8684.790  8684.780  0.500  2.926396  120.127  6.437573  1.113955
  8688.474  8688.450  0.500  2.924903  119.927  6.436455  1.125596
  8692.157  8692.140  0.500  2.923450  119.863  6.442407  1.136385
  8695.861  8695.850  0.500  2.921145  119.696  6.448279  1.141374
  8699.590  8699.580  0.500  2.918742  119.456  6.450798  1.142114
  8703.329  8703.320  0.500  2.916569  118.967  6.438356  1.140399
  8707.107  8707.090  0.500  2.915393  113.575  6.153785  1.094458
  8710.902  8710.880  0.500  2.911928  119.397  6.491687  1.164768
  8714.700  8714.680  0.500  2.910486  119.575  6.510781  1.180203
  8718.521  8718.510  0.500  2.908393  119.365  6.512969  1.189204
  8722.362  8722.350  0.500  2.905063  119.277  6.529888  1.194123
  8726.226  8726.210  0.500  2.900574  119.087  6.548766  1.198994
  8730.110  8730.090  0.500  2.895055  119.017  6.581186  1.206202
  8734.020  8733.990  0.500  2.889155  118.885  6.612773  1.212875
  8737.928  8737.910  0.500  2.882541  118.788  6.651220  1.219829
  8741.865  8741.850  0.500  2.875098  118.686  6.695135  1.227174
  8745.826  8745.810  0.500  2.868059  118.571  6.735916  1.233927
  8749.803  8749.780  0.500  2.861424  118.461  6.774445  1.239723
  8753.804  8753.780  0.500  2.856221  118.364  6.804213  1.244335
  8757.815  8757.790  0.500  2.852376  118.254  6.824088  1.246157
  8761.850  8761.830  0.500  2.850099  118.138  6.832906  1.247146
  8765.906  8765.880  0.500  2.848334  117.976  6.835647  1.248247
  8769.975  8769.950  0.500  2.846590  117.891  6.842642  1.248630
  8774.061  8774.040  0.500  2.844874  117.815  6.849967  1.251097
  8778.164  8778.150  0.500  2.841926  117.68  6.862326  1.255339
  8782.301  8782.280  0.500  2.838144  117.568  6.881739  1.262720
  8786.456  8786.430  0.500  2.833432  117.422  6.905695  1.274328
  8790.608  8790.590  0.500  2.828039  117.271  6.934092  1.288729
  8794.800  8794.780  0.500  2.822679  117.193  6.966737  1.303939
  8799.010  8798.980  0.500  2.817853  117.077  6.993499  1.316870
  8803.237  8803.210  0.500  2.813177  116.987  7.020841  1.326819
  8807.472  8807.450  0.500  2.808391  116.854  7.046521  1.334804
  8811.728  8811.710  0.500  2.803215  116.677  7.072371  1.341709
  8816.014  8815.990  0.500  2.797621  116.624  7.108777  1.350435
  8820.315  8820.290  0.500  2.791695  116.501  7.143497  1.359277
  8824.624  8824.610  0.500  2.785906  116.375  7.177204  1.371358
  8828.974  8828.950  0.500  2.780130  116.284  7.213171  1.384726
  8833.338  8833.310  0.500  2.774830  116.173  7.244587  1.397820
  8837.717  8837.690  0.500  2.770362  116.047  7.269107  1.408765
  8842.097  8842.080  0.500  2.766064  115.893  7.290719  1.417089
  8846.525  8846.500  0.500  2.761628  115.756  7.314461  1.426152
  8850.955  8850.930  0.500  2.757804  115.696  7.338726  1.435983
  8855.399  8855.380  0.500  2.754635  115.554  7.352979  1.442898
  8859.874  8859.850  0.500  2.751822  115.444  7.366645  1.448634
  8864.361  8864.340  0.500  2.749453  115.295  7.374584  1.452061
  8868.870  8868.850  0.500  2.746197  115.155  7.389670  1.456203
  8873.410  8873.380  0.500  2.741934  115.069  7.415661  1.461326
  8877.955  8877.930  0.500  2.736611  114.912  7.445111  1.466579
  8882.516  8882.500  0.500  2.731175  114.769  7.476376  1.471975
  8887.104  8887.080  0.500  2.725525  114.67  7.512226  1.477876
  8891.712  8891.690  0.500  2.721010  114.544  7.537919  1.482190
  8896.334  8896.310  0.500  2.717098  114.407  7.558417  1.487377
  8900.978  8900.960  0.500  2.713118  114.259  7.578746  1.495752
  8905.645  8905.620  0.500  2.708743  114.095  7.601082  1.507252
  8910.323  8910.300  0.500  2.704178  113.404  7.589602  1.514114
  8915.027  8915.000  0.500  2.698655  113.941  7.667791  1.537828
  8919.742  8919.720  0.500  2.693207  113.786  7.699142  1.551125
  8924.487  8924.460  0.500  2.687884  111.761  7.602533  1.537548
  8929.231  8929.210  0.500  2.683354  113.322  7.743718  1.570463
  8934.003  8933.990  0.500  2.679022  113.439  7.785352  1.583651
  8938.808  8938.790  0.500  2.674841  113.233  7.803751  1.591613
  8943.625  8943.600  0.500  2.670801  113.396  7.846609  1.603933
  8948.455  8948.430  0.500  2.666493  113.15  7.863454  1.611849
  8953.307  8953.290  0.500  2.662103  112.844  7.876623  1.619103
  8958.185  8958.160  0.500  2.657045  112.945  7.923671  1.633503
  8963.076  8963.050  0.500  2.651635  112.802  7.956549  1.645054
  8967.979  8967.960  0.500  2.646326  112.6  7.984576  1.656159
  8972.922  8972.890  0.500  2.641250  112.494  8.017671  1.667989
  8977.850  8977.830  0.500  2.636691  112.341  8.043342  1.678884
  8982.829  8982.800  0.500  2.632209  111.771  8.038529  1.681664
  8987.820  8987.790  0.500  2.628094  111.945  8.084224  1.695235
  8992.818  8992.790  0.500  2.624068  111.621  8.093302  1.700602
  8997.852  8997.820  0.500  2.619220  111.74  8.141314  1.714004
  9002.885  9002.860  0.500  2.614459  111.291  8.147333  1.718958
  9007.948  9007.920  0.500  2.609001  111.274  8.190652  1.730919
  9013.027  9013.000  0.500  2.603604  111.073  8.220106  1.740167
  9018.106  9018.100  0.500  2.598592  110.914  8.249556  1.748292
  9023.246  9023.220  0.500  2.593537  110.999  8.297710  1.761676
  9028.392  9028.360  0.500  2.588634  110.755  8.320162  1.770671
  9033.545  9033.520  0.500  2.583915  110.659  8.352323  1.781772
  9038.728  9038.700  0.500  2.578976  110.431  8.376396  1.791407
  9043.931  9043.890  0.500  2.574259  110.275  8.404114  1.802222
  9049.130  9049.110  0.500  2.569976  110.151  8.430704  1.814007
  9054.380  9054.340  0.500  2.565255  109.933  8.453818  1.824020
  9059.644  9059.590  0.500  2.560627  109.837  8.485607  1.837043
  9064.876  9064.860  0.500  2.555727  108.992  8.461658  1.837520
  9070.170  9070.150  0.500  2.551047  109.478  8.539265  1.859649
  9075.467  9075.460  0.500  2.546026  109.342  8.571626  1.871396
  9080.796  9080.790  0.500  2.541239  109.117  8.595007  1.882064
  9086.141  9086.140  0.500  2.536804  108.962  8.620960  1.893472
  9091.522  9091.510  0.500  2.532379  108.797  8.646095  1.905051
  9096.912  9096.890  0.500  2.527798  108.635  8.672825  1.915555
  9102.316  9102.300  0.500  2.523232  108.412  8.694637  1.925605
  9107.738  9107.720  0.500  2.518475  108.243  8.722480  1.938179
  9113.187  9113.170  0.500  2.513603  108.057  8.750022  1.950452
  9118.647  9118.630  0.500  2.508532  107.967  8.787141  1.963674
  9124.117  9124.110  0.500  2.503312  107.805  8.819909  1.976740
  9129.630  9129.610  0.500  2.498060  107.563  8.846430  1.988405
  9135.157  9135.130  0.500  2.492388  107.403  8.883563  2.000784
  9140.727  9140.670  0.500  2.487075  107.13  8.908181  2.010421
  9146.249  9146.220  0.500  2.481622  106.652  8.916936  2.017250
  9151.815  9151.800  0.500  2.477048  107.033  8.989792  2.036942
  9157.456  9157.400  0.500  2.472399  105.698  8.919071  2.025563
  9163.032  9163.010  0.500  2.467384  106.665  9.045881  2.059157
  9168.709  9168.650  0.500  2.462909  104.42  8.895180  2.029645
  9174.331  9174.300  0.500  2.457628  106.274  9.101116  2.081511
  9180.026  9179.970  0.500  2.452712  105.839  9.108459  2.089948
  9185.677  9185.660  0.500  2.447564  106.109  9.178897  2.110771