File: xdidata/Ni/Ni-K-NickelAluminate.xdi
# XDI/1.0 BlueSky/1.10.0 BMM/2023-1.0-py310-tiled
# Beamline.name: BMM (06BM) -- Beamline for Materials Measurement (NIST)
# Beamline.xray_source: NSLS-II three-pole wiggler
# Beamline.collimation: paraboloid mirror, 5 nm Rh on 30 nm Pt
# Beamline.focusing: not in use
# Beamline.harmonic_rejection: flat mirror, Pt stripe, pitch = 7.0 mrad relative to beam
# Beamline.software: Bluesky 1.10.0, Ophyd 1.7.0, DataBroker 2.0.0b13, Python 3.10.8, 2023-1.0-py310-tiled
# Detector.I0: 10 cm N2
# Detector.I1: 25 cm N2
# Detector.I2: 25 cm N2
# Element.symbol: Ni
# Element.edge: K
# Element.reference: Ni
# Element.reference_material: Ni foil
# Facility.name: NSLS-II
# Facility.energy: 3.0
# Facility.current: 400.7
# Facility.mode: top-off
# Facility.GUP: 301027
# Facility.SAF: 310583
# Facility.cycle: 2023-2
# Mono.name: Si(111)
# Mono.d_spacing: 3.13519
# Mono.encoder_resolution: 0.0000050 deg/ct
# Mono.angle_offset: 16.0754 deg
# Mono.scan_mode: pseudo channel cut
# Mono.scan_type: step
# Mono.direction: forward in energy
# Sample.name: NiAl2O4
# Sample.prep: powder on tape
# Sample.x: 117.785 mm
# Sample.y: 114.695 mm
# Sample.SDD_position: 205.000 mm
# Scan.experimenters: Bruce Ravel
# Scan.edge_energy: 8332.8
# Scan.start_time: 2023-06-23T15:50:44
# Scan.end_time: 2023-06-23T15:58:56
# Scan.transient_id: 84860
# Scan.uid: 2fdff45e-b7cc-42c2-baab-dea45c8b2b27
# Scan.plot_hint: ln(I0/It)  --  ln($5/$6)
# Column.1: energy eV
# Column.2: requested_energy eV
# Column.3: measurement_time seconds
# Column.4: xmu
# Column.5: I0 nA
# Column.6: It nA
# Column.7: Ir nA
# ///////////
# BMM standards collection
# -----------
# energy  requested_energy  measurement_time  xmu  I0  It  Ir
  8132.807  8132.800  0.500  0.418079  134.55  88.5754  34.056
  8142.815  8142.800  0.500  0.414119  134.264  88.7381  34.2361
  8152.825  8152.800  0.500  0.410069  134.089  88.9822  34.4517
  8162.884  8162.800  0.500  0.406175  133.819  89.1495  34.6346
  8172.857  8172.800  0.500  0.402353  133.61  89.3507  34.8313
  8182.815  8182.800  0.500  0.398407  133.369  89.5426  35.0258
  8192.850  8192.800  0.500  0.394462  133.188  89.7741  35.2334
  8202.864  8202.800  0.500  0.390697  132.961  89.9597  35.4278
  8212.814  8212.800  0.500  0.386830  132.733  90.1529  35.6208
  8222.824  8222.800  0.500  0.383000  132.507  90.3452  35.8134
  8232.818  8232.800  0.500  0.379251  132.314  90.552  36.0136
  8242.837  8242.800  0.500  0.375532  132.086  90.7331  36.2039
  8252.820  8252.800  0.500  0.371807  131.841  90.903  36.3886
  8262.825  8262.800  0.500  0.368095  131.56  91.046  36.5548
  8272.817  8272.800  0.500  0.364471  131.362  91.2394  36.7437
  8282.822  8282.800  0.500  0.360743  131.091  91.3909  36.9113
  8292.808  8292.800  0.500  0.357216  130.872  91.5608  37.0771
  8302.813  8302.800  0.500  0.353652  130.666  91.7429  37.2307
  8304.796  8304.800  0.500  0.352976  130.601  91.7595  37.2485
  8306.792  8306.800  0.500  0.352355  130.503  91.7475  37.2554
  8308.795  8308.800  0.500  0.351696  130.5  91.8061  37.286
  8310.784  8310.800  0.500  0.351002  130.439  91.8269  37.3002
  8312.792  8312.800  0.500  0.350325  130.395  91.858  37.314
  8314.789  8314.800  0.500  0.349728  130.368  91.894  37.3258
  8316.790  8316.800  0.500  0.349215  130.313  91.902  37.3253
  8318.798  8318.800  0.500  0.348616  130.194  91.8735  37.289
  8320.798  8320.800  0.500  0.348100  130.167  91.9016  37.2743
  8322.793  8322.800  0.500  0.347593  130.143  91.9313  37.2374
  8323.075  8323.100  0.500  0.347487  130.128  91.9302  37.2264
  8323.375  8323.400  0.500  0.347350  130.119  91.9364  37.2213
  8323.672  8323.700  0.500  0.347353  130.101  91.9239  37.2068
  8323.975  8324.000  0.500  0.347295  130.096  91.9254  37.1929
  8324.275  8324.300  0.500  0.347050  130.122  91.9665  37.1962
  8324.572  8324.600  0.500  0.347073  130.087  91.9393  37.1725
  8324.872  8324.900  0.500  0.346964  130.058  91.929  37.1517
  8325.175  8325.200  0.500  0.346972  130.054  91.9251  37.1327
  8325.475  8325.500  0.500  0.346792  130.057  91.9444  37.1232
  8325.778  8325.800  0.500  0.346694  130.034  91.9365  37.1006
  8326.082  8326.100  0.500  0.346861  129.987  91.8883  37.0611
  8326.379  8326.400  0.500  0.346772  129.996  91.9027  37.0429
  8326.691  8326.700  0.500  0.346621  129.979  91.9049  37.0152
  8326.988  8327.000  0.500  0.346571  129.964  91.8988  36.9834
  8327.288  8327.300  0.500  0.346567  129.951  91.8898  36.9475
  8327.589  8327.600  0.500  0.346528  129.917  91.8694  36.8995
  8327.886  8327.900  0.500  0.346584  129.907  91.8569  36.8575
  8328.195  8328.200  0.500  0.346623  129.948  91.8829  36.8203
  8328.487  8328.500  0.500  0.346568  129.914  91.8632  36.7628
  8328.793  8328.800  0.500  0.346598  129.952  91.8879  36.7116
  8329.093  8329.100  0.500  0.346603  129.962  91.894  36.6365
  8329.379  8329.400  0.500  0.346595  129.925  91.8691  36.5462
  8329.688  8329.700  0.500  0.346591  129.901  91.8522  36.4367
  8329.986  8330.000  0.500  0.346657  129.881  91.8321  36.2959
  8330.280  8330.300  0.500  0.346826  129.891  91.8236  36.1339
  8330.590  8330.600  0.500  0.346886  129.896  91.8217  35.9107
  8330.884  8330.900  0.500  0.346998  129.876  91.7974  35.6197
  8331.185  8331.200  0.500  0.347257  129.885  91.7795  35.2174
  8331.488  8331.500  0.500  0.347682  129.846  91.7136  34.6588
  8331.801  8331.800  0.500  0.348309  129.828  91.6428  33.928
  8332.098  8332.100  0.500  0.349150  129.801  91.5471  33.0597
  8332.396  8332.400  0.500  0.350009  129.806  91.4722  32.1121
  8332.697  8332.700  0.500  0.350711  129.772  91.3838  31.1471
  8332.997  8333.000  0.500  0.351036  129.759  91.3449  30.2149
  8333.298  8333.300  0.500  0.350767  129.717  91.34  29.3755
  8333.587  8333.600  0.500  0.350124  129.699  91.3858  28.6424
  8333.885  8333.900  0.500  0.349392  129.667  91.43  27.9826
  8334.188  8334.200  0.500  0.348834  129.63  91.4549  27.3993
  8334.483  8334.500  0.500  0.348360  129.601  91.4779  26.8802
  8334.793  8334.800  0.500  0.347921  129.584  91.5065  26.4296
  8335.091  8335.100  0.500  0.347843  129.555  91.4931  26.049
  8335.401  8335.400  0.500  0.347987  129.512  91.4492  25.7195
  8335.699  8335.700  0.500  0.348359  129.538  91.4339  25.465
  8335.999  8336.000  0.500  0.348664  129.522  91.3948  25.2443
  8336.294  8336.300  0.500  0.349032  129.5  91.3454  25.058
  8336.598  8336.600  0.500  0.349369  129.478  91.2995  24.8896
  8336.893  8336.900  0.500  0.349947  129.529  91.2827  24.7409
  8337.188  8337.200  0.500  0.350498  129.513  91.2208  24.5681
  8337.492  8337.500  0.500  0.351283  129.505  91.1435  24.3686
  8337.790  8337.800  0.500  0.352206  129.508  91.0618  24.1312
  8338.094  8338.100  0.500  0.353271  129.469  90.9372  23.8479
  8338.398  8338.400  0.500  0.354749  129.436  90.7799  23.5196
  8338.697  8338.700  0.500  0.356629  129.44  90.6122  23.1798
  8339.004  8339.000  0.500  0.358943  129.417  90.3864  22.827
  8339.299  8339.300  0.500  0.361768  129.418  90.1325  22.4943
  8339.603  8339.600  0.500  0.365351  129.414  89.8072  22.1654
  8339.907  8339.900  0.500  0.369695  129.372  89.3891  21.8413
  8340.199  8340.200  0.500  0.374740  129.368  88.9362  21.5294
  8340.492  8340.500  0.500  0.380985  129.34  88.3636  21.1897
  8340.787  8340.800  0.500  0.388270  129.354  87.7319  20.8339
  8341.094  8341.100  0.500  0.396611  129.344  86.9964  20.4445
  8341.399  8341.400  0.500  0.405778  129.345  86.2033  20.0255
  8341.697  8341.700  0.500  0.415059  129.285  85.3674  19.582
  8341.998  8342.000  0.500  0.424813  129.255  84.519  19.1124
  8342.306  8342.300  0.500  0.434452  129.285  83.7273  18.6366
  8342.601  8342.600  0.500  0.443424  129.22  82.938  18.1603
  8342.902  8342.900  0.500  0.452449  129.248  82.2105  17.6736
  8343.204  8343.200  0.500  0.460638  129.219  81.5215  17.1853
  8343.502  8343.500  0.500  0.468138  129.221  80.9137  16.7121
  8343.801  8343.800  0.500  0.475287  129.198  80.3233  16.2287
  8344.096  8344.100  0.500  0.482294  129.13  79.7204  15.7416
  8344.398  8344.400  0.500  0.490053  129.194  79.1435  15.2541
  8344.702  8344.700  0.500  0.498929  129.162  78.4246  14.7395
  8345.004  8345.000  0.500  0.509036  129.158  77.6334  14.2275
  8345.303  8345.300  0.500  0.519725  129.152  76.8047  13.7292
  8345.601  8345.600  0.500  0.530763  129.143  75.9562  13.247
  8345.912  8345.900  0.500  0.542094  129.119  75.0865  12.7705
  8346.201  8346.200  0.500  0.552428  129.128  74.3197  12.3476
  8346.506  8346.500  0.500  0.562663  129.124  73.5607  11.9335
  8346.796  8346.800  0.500  0.571705  129.109  72.8902  11.5641
  8347.101  8347.100  0.500  0.580256  129.082  72.2545  11.2164
  8347.393  8347.400  0.500  0.587207  129.049  71.7357  10.922
  8347.695  8347.700  0.500  0.592945  129.049  71.3249  10.6763
  8347.997  8348.000  0.500  0.597287  129.035  71.0085  10.4808
  8348.299  8348.300  0.500  0.600773  129.027  70.757  10.3306
  8348.598  8348.600  0.500  0.604217  129.004  70.5007  10.2068
  8348.902  8348.900  0.500  0.608352  128.987  70.201  10.1054
  8349.201  8349.200  0.500  0.614036  128.968  69.7927  10.0101
  8349.506  8349.500  0.500  0.621408  128.886  69.2358  9.907757
  8349.796  8349.800  0.500  0.630673  128.911  68.611  9.814196
  8350.092  8350.100  0.500  0.641790  128.892  67.8423  9.712899
  8350.400  8350.400  0.500  0.654299  128.828  66.9656  9.605094
  8350.687  8350.700  0.500  0.666928  128.816  66.1193  9.509718
  8350.992  8351.000  0.500  0.679680  128.79  65.268  9.422806
  8351.297  8351.300  0.500  0.690457  128.751  64.5489  9.356303
  8351.602  8351.600  0.500  0.698078  128.914  64.1397  9.338090
  8351.901  8351.900  0.500  0.701406  128.94  63.9396  9.350737
  8352.206  8352.200  0.500  0.699853  128.911  64.0248  9.402382
  8352.497  8352.500  0.500  0.693388  128.827  64.3982  9.493149
  8352.799  8352.800  0.500  0.682111  128.806  65.1175  9.631236
  8353.104  8353.100  0.500  0.667273  128.812  66.0942  9.799344
  8353.391  8353.400  0.500  0.651191  128.799  67.1588  9.969041
  8353.690  8353.700  0.500  0.635182  128.791  68.2384  10.1297
  8353.999  8354.000  0.500  0.619613  128.771  69.2984  10.2704
  8354.298  8354.300  0.500  0.606655  128.804  70.2202  10.3771
  8354.597  8354.600  0.500  0.595767  128.77  70.97  10.4396
  8354.893  8354.900  0.500  0.586940  128.746  71.5861  10.4673
  8355.199  8355.200  0.500  0.579802  128.761  72.1076  10.4655
  8355.501  8355.500  0.500  0.574180  128.774  72.5212  10.441
  8355.807  8355.800  0.500  0.569865  128.763  72.8286  10.39
  8356.103  8356.100  0.500  0.566450  128.745  73.0674  10.329
  8356.399  8356.400  0.500  0.563753  128.723  73.2521  10.266
  8356.702  8356.700  0.500  0.561386  128.689  73.4064  10.2055
  8357.001  8357.000  0.500  0.559131  128.744  73.6037  10.1637
  8357.301  8357.300  0.500  0.556837  128.732  73.7656  10.1347
  8357.597  8357.600  0.500  0.554168  128.715  73.9533  10.1263
  8357.792  8357.800  0.500  0.552217  128.698  74.0878  10.1312
  8358.778  8358.790  0.500  0.538060  128.666  75.1256  10.303
  8359.781  8359.790  0.500  0.520001  128.673  76.4988  10.6325
  8360.806  8360.810  0.500  0.506368  128.648  77.5339  10.9345
  8361.886  8361.860  0.500  0.499394  128.627  78.0635  11.1387
  8362.941  8362.920  0.500  0.498850  128.594  78.0857  11.2737
  8364.000  8364.000  0.500  0.503624  128.554  77.69  11.3942
  8365.170  8365.100  0.500  0.512187  128.57  77.0372  11.5183
  8366.200  8366.220  0.500  0.517484  128.54  76.6122  11.57
  8367.458  8367.360  0.500  0.521739  128.458  76.2385  11.5926
  8368.557  8368.510  0.500  0.520445  128.468  76.3428  11.654
  8369.701  8369.690  0.500  0.513858  128.402  76.808  11.7524
  8370.867  8370.880  0.500  0.504809  128.387  77.4972  11.8375
  8372.084  8372.100  0.500  0.495999  128.375  78.1755  11.849
  8373.314  8373.330  0.500  0.489503  128.334  78.66  11.768
  8374.568  8374.580  0.500  0.484867  128.265  78.9827  11.6037
  8375.834  8375.850  0.500  0.481809  128.269  79.2271  11.3968
  8377.137  8377.140  0.500  0.481020  128.253  79.28  11.1445
  8378.440  8378.450  0.500  0.483014  128.252  79.1212  10.8507
  8379.771  8379.780  0.500  0.487384  128.188  78.7369  10.5535
  8381.124  8381.130  0.500  0.493189  128.158  78.2633  10.3139
  8382.501  8382.500  0.500  0.498858  128.123  77.7993  10.1951
  8383.878  8383.880  0.500  0.504351  128.064  77.3373  10.195
  8385.286  8385.290  0.500  0.510058  128.028  76.8755  10.2969
  8386.710  8386.710  0.500  0.515756  127.957  76.3967  10.4878
  8388.149  8388.150  0.500  0.520916  127.921  75.9819  10.7248
  8389.601  8389.610  0.500  0.526254  127.857  75.5397  10.9393
  8391.087  8391.090  0.500  0.531892  127.842  75.106  11.1186
  8392.585  8392.590  0.500  0.536757  127.781  74.7063  11.2653
  8394.114  8394.110  0.500  0.540298  127.726  74.4097  11.3694
  8395.640  8395.650  0.500  0.542747  127.708  74.2177  11.4145
  8397.204  8397.210  0.500  0.543740  127.661  74.1165  11.4067
  8398.780  8398.780  0.500  0.541999  127.61  74.2158  11.415
  8400.384  8400.380  0.500  0.537440  127.531  74.5091  11.482
  8401.982  8401.990  0.500  0.531714  127.515  74.9274  11.5951
  8403.627  8403.630  0.500  0.526790  127.46  75.2649  11.6833
  8405.284  8405.280  0.500  0.524280  127.432  75.4376  11.7011
  8406.951  8406.950  0.500  0.523722  127.394  75.4571  11.64
  8408.637  8408.640  0.500  0.523491  127.373  75.4618  11.545
  8410.354  8410.350  0.500  0.522534  127.334  75.511  11.478
  8412.087  8412.080  0.500  0.521106  127.265  75.5781  11.4292
  8413.836  8413.830  0.500  0.519273  127.22  75.6901  11.3663
  8415.601  8415.590  0.500  0.516878  127.179  75.8469  11.267
  8417.385  8417.380  0.500  0.513777  127.147  76.0632  11.1543
  8419.185  8419.180  0.500  0.510384  127.041  76.2582  11.054
  8421.009  8421.010  0.500  0.506833  127.068  76.5456  10.9679
  8422.863  8422.850  0.500  0.503703  127.023  76.7584  10.8578
  8424.707  8424.710  0.500  0.501314  126.96  76.9039  10.7139
  8426.593  8426.590  0.500  0.499801  126.878  76.9706  10.5365
  8428.494  8428.490  0.500  0.498856  126.833  77.0164  10.3773
  8430.418  8430.410  0.500  0.498020  126.824  77.0751  10.267
  8432.360  8432.350  0.500  0.497115  126.793  77.1262  10.2456
  8434.322  8434.310  0.500  0.496072  126.714  77.1585  10.3195
  8436.279  8436.280  0.500  0.495003  126.68  77.22  10.4887
  8438.289  8438.280  0.500  0.494288  126.63  77.2451  10.7031
  8440.300  8440.290  0.500  0.494237  126.597  77.2288  10.9297
  8442.330  8442.320  0.500  0.495108  126.532  77.1219  11.1644
  8444.385  8444.380  0.500  0.496416  126.487  76.9937  11.38
  8446.445  8446.450  0.500  0.497522  126.434  76.8766  11.5345
  8448.558  8448.540  0.500  0.497606  126.361  76.8254  11.6721
  8450.647  8450.650  0.500  0.496457  126.29  76.8709  11.8687
  8452.793  8452.780  0.500  0.494638  126.224  76.9706  12.1391
  8454.924  8454.920  0.500  0.492565  126.189  77.1087  12.4249
  8457.093  8457.090  0.500  0.490364  126.048  77.1924  12.649
  8459.288  8459.280  0.500  0.488233  126.089  77.3823  12.7782
  8461.494  8461.480  0.500  0.486603  125.988  77.4463  12.7746
  8463.712  8463.700  0.500  0.485760  125.905  77.4602  12.6684
  8465.966  8465.950  0.500  0.485565  125.888  77.4651  12.4954
  8468.218  8468.210  0.500  0.485765  125.843  77.4218  12.2885
  8470.515  8470.490  0.500  0.485981  125.754  77.3504  12.0767
  8472.800  8472.790  0.500  0.486581  125.674  77.2551  11.9114
  8475.130  8475.110  0.500  0.487546  125.637  77.1574  11.8325
  8477.449  8477.450  0.500  0.488983  125.594  77.0205  11.8356
  8479.818  8479.800  0.500  0.490954  125.536  76.8333  11.878
  8482.195  8482.180  0.500  0.493119  125.464  76.6231  11.8827
  8484.586  8484.570  0.500  0.494669  125.397  76.4634  11.7662
  8487.002  8486.990  0.500  0.495035  125.337  76.3991  11.4964
  8489.436  8489.420  0.500  0.493910  125.28  76.4501  11.1421
  8491.890  8491.870  0.500  0.491448  125.215  76.5988  10.8381
  8494.367  8494.350  0.500  0.488198  125.152  76.8098  10.661
  8496.861  8496.840  0.500  0.484631  125.103  77.054  10.6034
  8499.371  8499.350  0.500  0.481305  125.002  77.2486  10.6036
  8501.890  8501.870  0.500  0.478234  124.928  77.4397  10.6528
  8504.429  8504.420  0.500  0.475595  124.851  77.5966  10.7801
  8507.009  8506.990  0.500  0.473150  124.785  77.7456  11.0145
  8509.582  8509.570  0.500  0.470940  124.691  77.8587  11.3441
  8512.200  8512.180  0.500  0.468869  124.611  77.9705  11.7611
  8514.820  8514.800  0.500  0.467126  124.526  78.0531  12.2543
  8517.463  8517.450  0.500  0.465695  124.449  78.1165  12.779
  8520.130  8520.110  0.500  0.464722  124.314  78.1078  13.2472
  8522.811  8522.790  0.500  0.464139  124.17  78.063  13.549
  8525.509  8525.490  0.500  0.463704  123.858  77.9001  13.6065
  8528.225  8528.210  0.500  0.463281  123.12  77.469  13.4003
  8530.964  8530.950  0.500  0.462576  108.825  68.5225  11.62
  8533.721  8533.700  0.500  0.461679  123.857  78.0577  12.9227
  8536.492  8536.480  0.500  0.460677  124.259  78.3896  12.705
  8539.287  8539.270  0.500  0.459504  124.177  78.4298  12.4992
  8542.105  8542.090  0.500  0.458498  124.05  78.4285  12.375
  8544.939  8544.920  0.500  0.457756  123.934  78.413  12.3434
  8547.783  8547.770  0.500  0.457182  123.87  78.4179  12.3794
  8550.677  8550.650  0.500  0.456770  123.768  78.3855  12.4383
  8553.559  8553.540  0.500  0.456242  123.708  78.3892  12.5082
  8556.470  8556.450  0.500  0.455514  123.605  78.3809  12.5972
  8559.385  8559.370  0.500  0.454507  123.534  78.4146  12.7242
  8562.346  8562.320  0.500  0.453194  123.454  78.4669  12.8345
  8565.313  8565.290  0.500  0.451880  123.369  78.5157  12.8401
  8568.297  8568.270  0.500  0.450645  123.256  78.5411  12.6884
  8571.297  8571.280  0.500  0.449718  123.186  78.5692  12.4504
  8574.320  8574.300  0.500  0.448774  123.107  78.5926  12.2367
  8577.359  8577.350  0.500  0.447497  123.03  78.6443  12.0985
  8580.431  8580.410  0.500  0.445964  122.927  78.6987  12.0245
  8583.505  8583.490  0.500  0.444220  122.825  78.7707  12.0174
  8586.610  8586.590  0.500  0.442694  122.721  78.8238  12.0873
  8589.724  8589.710  0.500  0.441400  122.506  78.7879  12.2416
  8592.869  8592.850  0.500  0.440370  113.544  73.0993  11.5847
  8596.019  8596.000  0.500  0.440118  120.726  77.7429  12.6237
  8599.207  8599.180  0.500  0.439565  121.751  78.4463  13.0389
  8602.384  8602.370  0.500  0.438402  121.771  78.5505  13.3123
  8605.615  8605.590  0.500  0.436878  121.677  78.6096  13.5038
  8608.832  8608.820  0.500  0.435084  121.382  78.5599  13.5865
  8612.084  8612.070  0.500  0.433241  120.821  78.3407  13.5635
  8615.366  8615.350  0.500  0.431506  119.027  77.3113  13.3825
  8618.639  8618.640  0.500  0.429702  86.0863  56.0166  9.701383
  8621.959  8621.950  0.500  0.427906  122.992  80.1749  13.8957
  8625.278  8625.270  0.500  0.426211  122.647  80.0861  13.8935
  8628.629  8628.620  0.500  0.424666  122.38  80.0354  13.8962
  8631.995  8631.990  0.500  0.423100  122.173  80.0247  13.8826
  8635.380  8635.370  0.500  0.421744  121.959  79.9934  13.8318
  8638.790  8638.780  0.500  0.420397  121.764  79.9727  13.7636
  8642.199  8642.200  0.500  0.419189  120.15  79.0081  13.5346
  8645.660  8645.650  0.500  0.418144  118.02  77.6888  13.2653
  8649.127  8649.110  0.500  0.416933  121  79.747  13.5881
  8652.599  8652.590  0.500  0.415689  121.093  79.9077  13.5998
  8656.104  8656.090  0.500  0.414648  121.036  79.953  13.5872
  8659.631  8659.610  0.500  0.413544  120.934  79.9742  13.5594
  8663.163  8663.150  0.500  0.412414  120.822  79.9899  13.5191
  8666.716  8666.700  0.500  0.411023  120.971  80.2001  13.5033
  8670.290  8670.280  0.500  0.409574  121.176  80.4529  13.5263
  8673.890  8673.880  0.500  0.408175  121.072  80.4962  13.5733
  8677.503  8677.490  0.500  0.406864  120.973  80.536  13.6746
  8681.142  8681.120  0.500  0.405580  120.871  80.5716  13.8156
  8684.796  8684.780  0.500  0.404250  120.747  80.5959  13.9753
  8688.467  8688.450  0.500  0.402940  120.642  80.631  14.1328
  8692.167  8692.140  0.500  0.401593  120.466  80.6223  14.2462
  8695.864  8695.850  0.500  0.400277  120.308  80.6227  14.2987
  8699.593  8699.580  0.500  0.399066  120.052  80.5481  14.2924
  8703.342  8703.320  0.500  0.397713  119.675  80.4041  14.276
  8707.101  8707.090  0.500  0.396207  114.236  76.8657  13.7017
  8710.905  8710.880  0.500  0.394598  120.005  80.8774  14.5389
  8714.700  8714.680  0.500  0.393172  120.221  81.1385  14.7375
  8718.518  8718.510  0.500  0.391697  120.063  81.1518  14.8431
  8722.369  8722.350  0.500  0.390465  119.949  81.1746  14.8786
  8726.226  8726.210  0.500  0.388941  119.806  81.2013  14.8962
  8730.107  8730.090  0.500  0.387692  119.614  81.1727  14.9111
  8734.010  8733.990  0.500  0.386298  119.557  81.2473  14.9356
  8737.921  8737.910  0.500  0.384821  119.433  81.2831  14.939
  8741.865  8741.850  0.500  0.383249  119.32  81.3336  14.9404
  8745.839  8745.810  0.500  0.381582  119.21  81.3939  14.9382
  8749.800  8749.780  0.500  0.380094  119.111  81.4478  14.9361
  8753.801  8753.780  0.500  0.378706  119  81.485  14.9284
  8757.806  8757.790  0.500  0.377381  118.897  81.5226  14.9222
  8761.860  8761.830  0.500  0.376072  118.749  81.5277  14.9161
  8765.896  8765.880  0.500  0.374433  118.622  81.5742  14.9195
  8769.975  8769.950  0.500  0.372723  118.522  81.6447  14.9303
  8774.061  8774.040  0.500  0.370980  118.373  81.6844  14.9439
  8778.171  8778.150  0.500  0.369341  118.28  81.7541  14.9824
  8782.301  8782.280  0.500  0.367789  118.12  81.7704  15.0373
  8786.452  8786.430  0.500  0.366338  117.994  81.8012  15.1232
  8790.618  8790.590  0.500  0.364829  117.895  81.8563  15.2418
  8794.807  8794.780  0.500  0.363476  117.709  81.8376  15.3485
  8799.000  8798.980  0.500  0.362097  117.653  81.9115  15.4524
  8803.237  8803.210  0.500  0.360666  117.557  81.9622  15.5213
  8807.475  8807.450  0.500  0.359275  117.395  81.9628  15.554
  8811.731  8811.710  0.500  0.357727  117.252  81.9902  15.5803
  8816.008  8815.990  0.500  0.356291  117.135  82.0262  15.6098
  8820.315  8820.290  0.500  0.355002  117.022  82.0526  15.6498
  8824.627  8824.610  0.500  0.353706  116.89  82.0662  15.7058
  8828.971  8828.950  0.500  0.352456  116.703  82.0373  15.7774
  8833.332  8833.310  0.500  0.351034  116.615  82.0923  15.8724
  8837.710  8837.690  0.500  0.349660  116.508  82.13  15.9446
  8842.107  8842.080  0.500  0.348081  116.394  82.1793  16.0043
  8846.522  8846.500  0.500  0.346379  116.271  82.232  16.0642
  8850.951  8850.930  0.500  0.344811  116.155  82.2789  16.1266
  8855.405  8855.380  0.500  0.343357  115.96  82.2605  16.173
  8859.894  8859.850  0.500  0.341905  115.865  82.3124  16.2182
  8864.368  8864.340  0.500  0.340459  115.724  82.3308  16.2457
  8868.873  8868.850  0.500  0.338803  115.617  82.3916  16.2654
  8873.410  8873.380  0.500  0.337066  115.496  82.4481  16.2763
  8877.979  8877.930  0.500  0.335366  115.302  82.4496  16.2739
  8882.526  8882.500  0.500  0.333720  115.204  82.5152  16.2757
  8887.104  8887.080  0.500  0.332144  115.097  82.5689  16.2715
  8891.708  8891.690  0.500  0.330584  114.936  82.5819  16.2698
  8896.331  8896.310  0.500  0.329023  114.791  82.6065  16.2869
  8900.995  8900.960  0.500  0.327449  114.626  82.6177  16.3344
  8905.641  8905.620  0.500  0.325987  114.447  82.6093  16.4103
  8910.316  8910.300  0.500  0.324439  113.731  82.2197  16.4287
  8915.023  8915.000  0.500  0.322917  114.292  82.7515  16.6247
  8919.739  8919.720  0.500  0.321350  114.162  82.7866  16.7072
  8924.484  8924.460  0.500  0.319775  112.128  81.4402  16.494
  8929.237  8929.210  0.500  0.318212  113.709  82.7172  16.8046
  8934.013  8933.990  0.500  0.316706  113.849  82.9438  16.8983
  8938.812  8938.790  0.500  0.315094  113.627  82.916  16.9352
  8943.619  8943.600  0.500  0.313566  113.463  82.923  16.9789
  8948.452  8948.430  0.500  0.312008  113.269  82.9101  17.0199
  8953.318  8953.290  0.500  0.310395  112.896  82.7703  17.0392
  8958.189  8958.160  0.500  0.308835  112.972  82.9557  17.1253
  8963.097  8963.050  0.500  0.307257  112.836  82.9865  17.1814
  8967.990  8967.960  0.500  0.305704  112.659  82.9848  17.2386
  8972.912  8972.890  0.500  0.304116  112.492  82.9935  17.3009
  8977.854  8977.830  0.500  0.302535  112.389  83.0492  17.3609
  8982.808  8982.800  0.500  0.300911  111.9  82.8218  17.3597
  8987.817  8987.790  0.500  0.299229  112.009  83.0427  17.4449
  8992.821  8992.790  0.500  0.297725  111.619  82.8776  17.4433
  8997.845  8997.820  0.500  0.296218  111.836  83.1642  17.5375
  9002.892  9002.860  0.500  0.294638  111.338  82.9245  17.5221
  9007.962  9007.920  0.500  0.293128  111.39  83.0889  17.588
  9013.027  9013.000  0.500  0.291583  111.167  83.0505  17.6047
  9018.127  9018.100  0.500  0.289888  110.987  83.0568  17.6329
  9023.260  9023.220  0.500  0.288191  111.087  83.2729  17.7085
  9028.375  9028.360  0.500  0.286565  110.854  83.2338  17.7397
  9033.552  9033.520  0.500  0.285103  110.702  83.2412  17.7855
  9038.728  9038.700  0.500  0.283499  110.51  83.2298  17.8311
  9043.938  9043.890  0.500  0.281964  110.249  83.1612  17.864
  9049.137  9049.110  0.500  0.280278  110.213  83.2738  17.9403
  9054.370  9054.340  0.500  0.278678  110.035  83.2727  17.9981
  9059.606  9059.590  0.500  0.276941  109.918  83.3289  18.068
  9064.879  9064.860  0.500  0.275395  108.953  82.7254  17.9918
  9070.156  9070.150  0.500  0.273680  109.478  83.2665  18.1642
  9075.485  9075.460  0.500  0.272119  109.416  83.3495  18.2301
  9080.814  9080.790  0.500  0.270441  109.236  83.3514  18.2812
  9086.170  9086.140  0.500  0.268867  109.004  83.3054  18.3278
  9091.536  9091.510  0.500  0.267213  108.879  83.348  18.391
  9096.912  9096.890  0.500  0.265521  108.692  83.3459  18.4411
  9102.323  9102.300  0.500  0.263856  108.495  83.333  18.4897
  9107.748  9107.720  0.500  0.262222  108.397  83.394  18.5568
  9113.202  9113.170  0.500  0.260533  108.229  83.4055  18.6133
  9118.676  9118.630  0.500  0.259051  108.094  83.425  18.6718
  9124.142  9124.110  0.500  0.257312  107.893  83.4148  18.7229
  9129.652  9129.610  0.500  0.255713  107.683  83.3858  18.7661
  9135.160  9135.130  0.500  0.254063  107.491  83.3746  18.8082
  9140.727  9140.670  0.500  0.252546  107.25  83.3143  18.8373
  9146.278  9146.220  0.500  0.250890  106.764  83.074  18.8193
  9151.840  9151.800  0.500  0.249233  107.135  83.501  18.9543
  9157.459  9157.400  0.500  0.247556  105.893  82.6711  18.8045
  9163.024  9163.010  0.500  0.245851  106.784  83.5092  19.0376
  9168.712  9168.650  0.500  0.244184  104.526  81.88  18.7102
  9174.367  9174.300  0.500  0.242616  106.388  83.4689  19.1242
  9179.979  9179.970  0.500  0.241125  106.03  83.3123  19.1452
  9185.630  9185.660  0.500  0.239467  106.314  83.6744  19.2781