File: xdidata/Ni/Ni-K-NickelFerrite.xdi
# XDI/1.0 BlueSky/1.10.0 BMM/2023-1.0-py310-tiled
# Beamline.name: BMM (06BM) -- Beamline for Materials Measurement (NIST)
# Beamline.xray_source: NSLS-II three-pole wiggler
# Beamline.collimation: paraboloid mirror, 5 nm Rh on 30 nm Pt
# Beamline.focusing: not in use
# Beamline.harmonic_rejection: flat mirror, Pt stripe, pitch = 7.0 mrad relative to beam
# Beamline.software: Bluesky 1.10.0, Ophyd 1.7.0, DataBroker 2.0.0b13, Python 3.10.8, 2023-1.0-py310-tiled
# Detector.I0: 10 cm N2
# Detector.I1: 25 cm N2
# Detector.I2: 25 cm N2
# Element.symbol: Ni
# Element.edge: K
# Element.reference: Ni
# Element.reference_material: Ni foil
# Facility.name: NSLS-II
# Facility.energy: 3.0
# Facility.current: 400.8
# Facility.mode: top-off
# Facility.GUP: 301027
# Facility.SAF: 310583
# Facility.cycle: 2023-2
# Mono.name: Si(111)
# Mono.d_spacing: 3.13519
# Mono.encoder_resolution: 0.0000050 deg/ct
# Mono.angle_offset: 16.0754 deg
# Mono.scan_mode: pseudo channel cut
# Mono.scan_type: step
# Mono.direction: forward in energy
# Sample.name: NiFe2O4
# Sample.prep: PEG pellet
# Sample.x: 119.711 mm
# Sample.y: 114.376 mm
# Sample.SDD_position: 205.000 mm
# Scan.experimenters: Bruce Ravel
# Scan.edge_energy: 8332.8
# Scan.start_time: 2023-06-27T09:40:27
# Scan.end_time: 2023-06-27T09:48:28
# Scan.transient_id: 85109
# Scan.uid: 5737853b-b599-442c-984f-e4d3f50aa928
# Scan.plot_hint: ln(I0/It)  --  ln($5/$6)
# Column.1: energy eV
# Column.2: requested_energy eV
# Column.3: measurement_time seconds
# Column.4: xmu
# Column.5: I0 nA
# Column.6: It nA
# Column.7: Ir nA
# ///////////
# courtesy Martin Stennett, University of Sheffield
# -----------
# energy  requested_energy  measurement_time  xmu  I0  It  Ir
  8132.812  8132.800  0.500  2.701235  130.66  8.770214  3.574449
  8142.820  8142.800  0.500  2.689983  130.722  8.873715  3.627921
  8152.828  8152.800  0.500  2.678897  130.722  8.972607  3.680302
  8162.836  8162.800  0.500  2.667872  130.664  9.068085  3.731266
  8172.772  8172.800  0.500  2.656915  130.638  9.166118  3.783150
  8182.787  8182.800  0.500  2.646018  130.649  9.267336  3.839167
  8192.888  8192.800  0.500  2.634909  130.609  9.368015  3.891930
  8202.784  8202.800  0.500  2.624277  130.619  9.468826  3.947433
  8212.771  8212.800  0.500  2.613359  130.561  9.568573  4.000682
  8222.786  8222.800  0.500  2.602668  130.546  9.670309  4.055783
  8232.792  8232.800  0.500  2.591742  130.519  9.774502  4.111777
  8242.796  8242.800  0.500  2.581227  130.488  9.875511  4.167373
  8252.811  8252.800  0.500  2.570662  130.443  9.976889  4.223179
  8262.816  8262.800  0.500  2.560112  130.379  10.0778  4.277201
  8272.820  8272.800  0.500  2.549629  130.314  10.1789  4.332737
  8282.825  8282.800  0.500  2.539471  130.198  10.2737  4.385279
  8292.817  8292.800  0.500  2.529515  130.154  10.373  4.438136
  8302.813  8302.800  0.500  2.519845  130.09  10.4686  4.488270
  8304.814  8304.800  0.500  2.518101  130.059  10.4844  4.495781
  8306.801  8306.800  0.500  2.516294  130.058  10.5032  4.505903
  8308.798  8308.800  0.500  2.514456  130.021  10.5196  4.513779
  8310.802  8310.800  0.500  2.512854  130.032  10.5373  4.522396
  8312.804  8312.800  0.500  2.510972  129.991  10.5539  4.529180
  8314.792  8314.800  0.500  2.509446  130.018  10.5722  4.537628
  8316.802  8316.800  0.500  2.507786  129.999  10.5882  4.542470
  8318.798  8318.800  0.500  2.506290  129.938  10.5991  4.545259
  8320.792  8320.800  0.500  2.505028  129.918  10.6108  4.547153
  8322.799  8322.800  0.500  2.503791  129.915  10.6237  4.546732
  8323.081  8323.100  0.500  2.503742  129.922  10.6248  4.545996
  8323.378  8323.400  0.500  2.503615  129.906  10.6248  4.545259
  8323.675  8323.700  0.500  2.503502  129.877  10.6237  4.543099
  8323.978  8324.000  0.500  2.503214  129.891  10.6279  4.543808
  8324.278  8324.300  0.500  2.503126  129.892  10.6289  4.541974
  8324.575  8324.600  0.500  2.502956  129.908  10.632  4.541424
  8324.878  8324.900  0.500  2.502938  129.876  10.6296  4.539646
  8325.181  8325.200  0.500  2.502676  129.865  10.6315  4.537814
  8325.478  8325.500  0.500  2.502593  129.888  10.6342  4.537237
  8325.781  8325.800  0.500  2.502573  129.854  10.6316  4.534468
  8326.088  8326.100  0.500  2.502533  129.838  10.6308  4.531555
  8326.382  8326.400  0.500  2.502443  129.846  10.6324  4.529219
  8326.688  8326.700  0.500  2.502356  129.859  10.6344  4.526568
  8326.982  8327.000  0.500  2.502362  129.81  10.6303  4.522435
  8327.291  8327.300  0.500  2.502311  129.835  10.6329  4.519055
  8327.592  8327.600  0.500  2.502497  129.876  10.6343  4.517337
  8327.889  8327.900  0.500  2.502364  129.805  10.6299  4.509234
  8328.189  8328.200  0.500  2.502299  129.789  10.6293  4.503905
  8328.487  8328.500  0.500  2.502527  129.789  10.6268  4.498342
  8328.790  8328.800  0.500  2.502688  129.785  10.6248  4.490308
  8329.087  8329.100  0.500  2.502554  129.793  10.6269  4.483301
  8329.385  8329.400  0.500  2.502859  129.787  10.6232  4.472566
  8329.685  8329.700  0.500  2.502954  129.775  10.6212  4.461313
  8329.983  8330.000  0.500  2.503166  129.755  10.6173  4.446572
  8330.286  8330.300  0.500  2.503595  129.744  10.6119  4.427711
  8330.590  8330.600  0.500  2.504035  129.764  10.6088  4.406463
  8330.887  8330.900  0.500  2.504575  129.739  10.601  4.374237
  8331.191  8331.200  0.500  2.505480  129.741  10.5916  4.334534
  8331.494  8331.500  0.500  2.506529  129.766  10.5826  4.279376
  8331.798  8331.800  0.500  2.508244  129.735  10.5619  4.202887
  8332.092  8332.100  0.500  2.510347  129.716  10.5381  4.106775
  8332.399  8332.400  0.500  2.513543  129.712  10.5042  3.988929
  8332.697  8332.700  0.500  2.517230  129.702  10.4648  3.864079
  8333.000  8333.000  0.500  2.520268  129.693  10.4322  3.737292
  8333.298  8333.300  0.500  2.521741  129.629  10.4118  3.623258
  8333.602  8333.600  0.500  2.521631  129.609  10.4113  3.523576
  8333.900  8333.900  0.500  2.520143  129.586  10.425  3.440500
  8334.197  8334.200  0.500  2.518735  129.585  10.4396  3.367078
  8334.498  8334.500  0.500  2.518179  129.566  10.4438  3.297580
  8334.796  8334.800  0.500  2.518753  129.551  10.4367  3.234468
  8335.100  8335.100  0.500  2.520674  129.511  10.4134  3.174354
  8335.392  8335.400  0.500  2.523053  129.518  10.3892  3.123818
  8335.693  8335.700  0.500  2.526029  129.492  10.3562  3.078554
  8335.990  8336.000  0.500  2.528686  129.496  10.3291  3.040050
  8336.291  8336.300  0.500  2.531606  129.513  10.3003  3.009091
  8336.598  8336.600  0.500  2.534275  129.462  10.2688  2.979040
  8336.896  8336.900  0.500  2.537322  129.457  10.2372  2.952061
  8337.191  8337.200  0.500  2.540376  129.48  10.2078  2.926471
  8337.504  8337.500  0.500  2.543445  129.409  10.1709  2.896523
  8337.799  8337.800  0.500  2.546939  129.43  10.1371  2.864888
  8338.103  8338.100  0.500  2.551397  129.422  10.0914  2.825469
  8338.410  8338.400  0.500  2.557063  129.409  10.0333  2.779240
  8338.703  8338.700  0.500  2.563907  129.45  9.968093  2.728267
  8339.004  8339.000  0.500  2.572670  129.431  9.879642  2.670687
  8339.302  8339.300  0.500  2.583291  129.393  9.772398  2.608558
  8339.600  8339.600  0.500  2.596348  129.403  9.646378  2.545999
  8339.904  8339.900  0.500  2.611978  129.378  9.494931  2.479323
  8340.196  8340.200  0.500  2.630021  129.365  9.324208  2.411580
  8340.501  8340.500  0.500  2.651797  129.358  9.122910  2.336663
  8340.796  8340.800  0.500  2.676338  129.332  8.899963  2.258753
  8341.094  8341.100  0.500  2.704266  129.359  8.656617  2.175289
  8341.396  8341.400  0.500  2.734696  129.335  8.395589  2.087245
  8341.697  8341.700  0.500  2.766278  129.358  8.136048  2.000265
  8341.998  8342.000  0.500  2.798196  129.331  7.878840  1.912194
  8342.306  8342.300  0.500  2.830333  129.307  7.628254  1.825598
  8342.601  8342.600  0.500  2.860429  129.292  7.401198  1.743699
  8342.902  8342.900  0.500  2.890006  129.239  7.182584  1.664105
  8343.204  8343.200  0.500  2.918969  129.247  6.977986  1.587508
  8343.505  8343.500  0.500  2.948480  129.246  6.774995  1.511448
  8343.804  8343.800  0.500  2.979518  129.234  6.567352  1.434200
  8344.102  8344.100  0.500  3.014598  129.231  6.340770  1.354907
  8344.401  8344.400  0.500  3.054559  129.259  6.093705  1.272587
  8344.705  8344.700  0.500  3.100872  129.239  5.817038  1.186527
  8345.004  8345.000  0.500  3.151845  129.209  5.526656  1.100843
  8345.297  8345.300  0.500  3.205876  129.189  5.235181  1.017781
  8345.595  8345.600  0.500  3.262875  129.182  4.944861  0.938729
  8345.894  8345.900  0.500  3.319801  129.185  4.671348  0.865587
  8346.198  8346.200  0.500  3.374240  129.191  4.424035  0.799557
  8346.497  8346.500  0.500  3.424849  129.16  4.204717  0.742104
  8346.805  8346.800  0.500  3.470491  129.146  4.016678  0.691587
  8347.104  8347.100  0.500  3.509400  129.138  3.863137  0.650133
  8347.399  8347.400  0.500  3.542783  129.126  3.735960  0.615072
  8347.701  8347.700  0.500  3.571616  129.126  3.629771  0.585979
  8348.003  8348.000  0.500  3.596525  129.093  3.539594  0.562205
  8348.299  8348.300  0.500  3.620387  129.078  3.455707  0.541617
  8348.604  8348.600  0.500  3.645796  129.077  3.368994  0.522885
  8348.896  8348.900  0.500  3.673138  129.043  3.277268  0.504581
  8349.195  8349.200  0.500  3.703925  129.052  3.178125  0.486447
  8349.500  8349.500  0.500  3.739558  129.004  3.065723  0.467573
  8349.793  8349.800  0.500  3.776367  128.954  2.953783  0.449625
  8350.101  8350.100  0.500  3.814488  128.958  2.843395  0.432737
  8350.400  8350.400  0.500  3.848310  128.923  2.748091  0.418595
  8350.705  8350.700  0.500  3.874838  128.901  2.675695  0.408113
  8351.007  8351.000  0.500  3.891090  128.894  2.632413  0.402911
  8351.312  8351.300  0.500  3.895174  128.848  2.620756  0.402699
  8351.605  8351.600  0.500  3.886318  128.81  2.643274  0.407688
  8351.904  8351.900  0.500  3.865515  128.787  2.698363  0.417762
  8352.200  8352.200  0.500  3.834670  128.772  2.782557  0.432856
  8352.497  8352.500  0.500  3.795346  128.743  2.893524  0.451897
  8352.799  8352.800  0.500  3.750265  128.716  3.026297  0.474408
  8353.098  8353.100  0.500  3.702573  128.688  3.173443  0.498992
  8353.397  8353.400  0.500  3.654814  128.685  3.328612  0.524355
  8353.705  8353.700  0.500  3.608531  128.655  3.485467  0.549662
  8354.005  8354.000  0.500  3.566111  128.677  3.637128  0.573262
  8354.301  8354.300  0.500  3.528492  128.605  3.774444  0.593961
  8354.603  8354.600  0.500  3.495927  128.619  3.899822  0.611645
  8354.902  8354.900  0.500  3.468164  128.621  4.009665  0.625869
  8355.199  8355.200  0.500  3.444206  128.623  4.106947  0.636894
  8355.495  8355.500  0.500  3.423939  128.595  4.190126  0.645183
  8355.792  8355.800  0.500  3.406736  128.601  4.263021  0.650883
  8356.097  8356.100  0.500  3.391729  128.584  4.326907  0.654892
  8356.393  8356.400  0.500  3.378325  128.594  4.385644  0.657562
  8356.696  8356.700  0.500  3.365548  128.602  4.442313  0.660393
  8357.004  8357.000  0.500  3.352656  128.613  4.500347  0.663681
  8357.304  8357.300  0.500  3.339128  128.596  4.561041  0.668388
  8357.606  8357.600  0.500  3.324715  128.596  4.627235  0.674604
  8357.807  8357.800  0.500  3.314796  128.593  4.673262  0.680044
  8358.793  8358.790  0.500  3.259102  128.566  4.939860  0.718249
  8359.787  8359.790  0.500  3.202913  128.552  5.224824  0.768809
  8360.827  8360.810  0.500  3.161520  128.59  5.447222  0.813272
  8361.874  8361.860  0.500  3.141668  128.553  5.554869  0.839437
  8362.941  8362.920  0.500  3.145389  128.537  5.533523  0.845811
  8364.024  8364.000  0.500  3.170692  128.54  5.395424  0.836764
  8365.116  8365.100  0.500  3.205859  128.539  5.208928  0.822066
  8366.230  8366.220  0.500  3.231622  128.519  5.075642  0.811909
  8367.379  8367.360  0.500  3.235234  128.542  5.058260  0.815334
  8368.521  8368.510  0.500  3.220104  128.528  5.134820  0.831459
  8369.704  8369.690  0.500  3.195756  128.525  5.261250  0.854060
  8370.903  8370.880  0.500  3.172660  128.833  5.397065  0.875288
  8372.111  8372.100  0.500  3.154042  128.916  5.502048  0.886754
  8373.344  8373.330  0.500  3.139058  128.905  5.584609  0.889166
  8374.598  8374.580  0.500  3.123850  128.882  5.669176  0.887234
  8375.864  8375.850  0.500  3.110887  128.877  5.742942  0.880237
  8377.158  8377.140  0.500  3.102936  128.86  5.788025  0.867546
  8378.465  8378.450  0.500  3.102199  128.854  5.792036  0.847271
  8379.789  8379.780  0.500  3.109199  128.83  5.750558  0.821675
  8381.145  8381.130  0.500  3.124432  128.832  5.663714  0.794218
  8382.522  8382.500  0.500  3.143509  128.804  5.555491  0.772843
  8383.890  8383.880  0.500  3.162925  128.782  5.447725  0.761700
  8385.307  8385.290  0.500  3.180278  128.756  5.352922  0.758571
  8386.722  8386.710  0.500  3.197435  128.688  5.259078  0.762643
  8388.158  8388.150  0.500  3.217428  128.651  5.153486  0.768481
  8389.628  8389.610  0.500  3.242052  128.619  5.026911  0.769572
  8391.102  8391.090  0.500  3.269834  128.598  4.888356  0.765526
  8392.606  8392.590  0.500  3.296996  128.56  4.755976  0.758902
  8394.129  8394.110  0.500  3.319188  128.541  4.650884  0.752425
  8395.665  8395.650  0.500  3.334254  128.505  4.580068  0.746635
  8397.237  8397.210  0.500  3.344904  128.489  4.530990  0.739694
  8398.792  8398.780  0.500  3.352429  128.466  4.496214  0.733716
  8400.396  8400.380  0.500  3.356440  128.443  4.477401  0.731333
  8402.000  8401.990  0.500  3.354942  128.381  4.481959  0.735150
  8403.642  8403.630  0.500  3.345260  128.402  4.526294  0.744914
  8405.296  8405.280  0.500  3.328102  128.362  4.603192  0.757590
  8406.963  8406.950  0.500  3.308454  128.346  4.693964  0.768954
  8408.655  8408.640  0.500  3.285707  128.367  4.802735  0.780007
  8410.369  8410.350  0.500  3.261166  128.307  4.919749  0.793683
  8412.096  8412.080  0.500  3.237298  128.249  5.036323  0.808654
  8413.851  8413.830  0.500  3.214624  128.223  5.150791  0.821403
  8415.610  8415.590  0.500  3.194770  128.214  5.253678  0.829438
  8417.394  8417.380  0.500  3.178023  128.207  5.342115  0.832366
  8419.203  8419.180  0.500  3.166418  128.163  5.402623  0.832269
  8421.028  8421.010  0.500  3.158096  128.123  5.446062  0.828949
  8422.869  8422.850  0.500  3.153127  128.112  5.472712  0.823417
  8424.735  8424.710  0.500  3.151037  128.089  5.483202  0.812000
  8426.611  8426.590  0.500  3.151017  128.045  5.481440  0.798084
  8428.512  8428.490  0.500  3.151891  128.019  5.475533  0.783939
  8430.427  8430.410  0.500  3.154475  128.007  5.460899  0.772689
  8432.376  8432.350  0.500  3.157066  127.975  5.445380  0.767155
  8434.322  8434.310  0.500  3.159701  127.953  5.430107  0.768972
  8436.301  8436.280  0.500  3.162181  127.905  5.414657  0.778344
  8438.307  8438.280  0.500  3.165569  127.881  5.395301  0.791516
  8440.972  8440.290  0.500  3.171523  127.867  5.362695  0.806083
  8442.841  8442.320  0.500  3.177871  127.79  5.325544  0.817182
  8444.453  8444.380  0.500  3.184735  127.805  5.289739  0.826960
  8446.779  8446.450  0.500  3.193088  127.727  5.242564  0.833101
  8448.579  8448.540  0.500  3.197712  127.705  5.217479  0.838730
  8450.678  8450.650  0.500  3.197938  127.652  5.214120  0.851140
  8452.799  8452.780  0.500  3.193396  127.621  5.236569  0.872762
  8454.927  8454.920  0.500  3.184909  127.587  5.279805  0.899192
  8457.102  8457.090  0.500  3.173445  127.563  5.339672  0.925204
  8459.300  8459.280  0.500  3.159402  127.515  5.413153  0.945916
  8461.484  8461.480  0.500  3.144631  127.459  5.491285  0.959849
  8463.722  8463.700  0.500  3.130608  127.43  5.567555  0.966011
  8465.960  8465.950  0.500  3.120044  127.412  5.625916  0.963232
  8468.224  8468.210  0.500  3.115919  127.372  5.647388  0.951093
  8470.512  8470.490  0.500  3.118803  127.335  5.629467  0.932853
  8472.815  8472.790  0.500  3.127913  127.288  5.576374  0.911698
  8475.121  8475.110  0.500  3.140028  127.231  5.506738  0.894952
  8477.467  8477.450  0.500  3.152105  127.218  5.440093  0.885291
  8479.815  8479.800  0.500  3.160533  127.183  5.392965  0.882681
  8482.192  8482.180  0.500  3.164111  127.154  5.372471  0.882390
  8484.579  8484.570  0.500  3.163085  127.094  5.375445  0.877446
  8486.993  8486.990  0.500  3.159842  127.063  5.391586  0.862082
  8489.436  8489.420  0.500  3.155407  127.022  5.413816  0.838605
  8491.874  8491.870  0.500  3.151329  127.014  5.435596  0.817261
  8494.361  8494.350  0.500  3.148024  126.929  5.449931  0.802660
  8496.851  8496.840  0.500  3.144883  126.915  5.466490  0.797239
  8499.362  8499.350  0.500  3.141171  126.844  5.483722  0.797592
  8501.884  8501.870  0.500  3.136763  126.829  5.507315  0.802025
  8504.426  8504.420  0.500  3.131490  126.759  5.533364  0.813569
  8507.006  8506.990  0.500  3.124342  126.738  5.572152  0.834072
  8509.579  8509.570  0.500  3.114915  126.677  5.622224  0.864469
  8512.188  8512.180  0.500  3.103610  126.598  5.682579  0.903738
  8514.817  8514.800  0.500  3.091599  126.573  5.750131  0.951487
  8517.463  8517.450  0.500  3.078896  126.497  5.820148  1.003381
  8520.130  8520.110  0.500  3.066709  126.456  5.889602  1.053268
  8522.805  8522.790  0.500  3.055389  126.42  5.954931  1.090933
  8525.509  8525.490  0.500  3.046448  126.27  6.001307  1.108611
  8528.225  8528.210  0.500  3.039821  125.878  6.022431  1.103452
  8530.967  8530.950  0.500  3.034106  112.826  5.428912  0.975861
  8533.708  8533.700  0.500  3.038848  124.774  5.975406  1.048462
  8536.495  8536.480  0.500  3.043536  125.906  6.001443  1.030600
  8539.284  8539.270  0.500  3.050655  126.006  5.963580  1.006927
  8542.109  8542.090  0.500  3.057994  125.995  5.919459  0.988234
  8544.929  8544.920  0.500  3.064235  125.949  5.880525  0.978788
  8547.783  8547.770  0.500  3.068172  125.929  5.856478  0.977902
  8550.658  8550.650  0.500  3.069073  125.857  5.847860  0.980646
  8553.556  8553.540  0.500  3.067178  125.824  5.857407  0.987808
  8556.460  8556.450  0.500  3.062810  125.773  5.880672  0.998468
  8559.394  8559.370  0.500  3.057236  125.719  5.910995  1.013388
  8562.340  8562.320  0.500  3.051240  125.653  5.943408  1.026968
  8565.307  8565.290  0.500  3.045853  125.577  5.971914  1.032864
  8568.285  8568.270  0.500  3.040688  125.518  6.000031  1.026159
  8571.297  8571.280  0.500  3.035681  125.441  6.026440  1.011337
  8574.317  8574.300  0.500  3.030480  125.375  6.054689  0.997850
  8577.362  8577.350  0.500  3.025071  125.293  6.083498  0.989729
  8580.437  8580.410  0.500  3.019216  125.228  6.116051  0.987797
  8583.499  8583.490  0.500  3.013142  125.137  6.148859  0.991697
  8586.617  8586.590  0.500  3.007830  124.949  6.172302  0.999958
  8589.727  8589.710  0.500  3.003608  124.624  6.182320  1.014025
  8592.875  8592.850  0.500  2.996749  117.564  5.872214  0.982437
  8596.019  8596.000  0.500  2.996546  123.679  6.178912  1.057957
  8599.197  8599.180  0.500  2.991224  124.767  6.266543  1.098353
  8602.397  8602.370  0.500  2.985146  124.674  6.300034  1.126538
  8605.609  8605.590  0.500  2.978754  124.526  6.332905  1.147770
  8608.835  8608.820  0.500  2.973041  124.265  6.355840  1.160369
  8612.100  8612.070  0.500  2.969026  123.739  6.354388  1.162006
  8615.370  8615.350  0.500  2.966201  122.011  6.283414  1.148312
  8618.661  8618.640  0.500  2.959460  88.4025  4.583394  0.837999
  8621.978  8621.950  0.500  2.962800  125.673  6.494007  1.188098
  8625.291  8625.270  0.500  2.960758  125.478  6.497202  1.190003
  8628.638  8628.620  0.500  2.957995  125.196  6.500531  1.190991
  8632.008  8631.990  0.500  2.955254  124.996  6.507948  1.192045
  8635.386  8635.370  0.500  2.952202  124.791  6.517181  1.189948
  8638.806  8638.780  0.500  2.948928  124.481  6.522264  1.185085
  8642.215  8642.200  0.500  2.944729  122.191  6.429255  1.162617
  8645.673  8645.650  0.500  2.941561  121.557  6.416157  1.156346
  8649.136  8649.110  0.500  2.935039  124.479  6.613395  1.189582
  8652.609  8652.590  0.500  2.928816  124.484  6.654975  1.195383
  8656.107  8656.090  0.500  2.921884  124.397  6.696571  1.201189
  8659.637  8659.610  0.500  2.914972  124.321  6.738902  1.205489
  8663.167  8663.150  0.500  2.909017  124.243  6.774892  1.208128
  8666.719  8666.700  0.500  2.904692  124.147  6.798980  1.207962
  8670.300  8670.280  0.500  2.901941  124.064  6.813142  1.208318
  8673.903  8673.880  0.500  2.899996  123.998  6.822818  1.213080
  8677.496  8677.490  0.500  2.897608  123.916  6.834585  1.224196
  8681.138  8681.120  0.500  2.893933  123.838  6.855431  1.239271
  8684.803  8684.780  0.500  2.889327  123.783  6.884030  1.257932
  8688.464  8688.450  0.500  2.884366  123.695  6.913320  1.277460
  8692.157  8692.140  0.500  2.879224  123.612  6.944342  1.293532
  8695.867  8695.850  0.500  2.874929  123.514  6.968697  1.302612
  8699.590  8699.580  0.500  2.871812  123.4  6.983971  1.306366
  8703.336  8703.320  0.500  2.869310  123.161  6.987896  1.307741
  8707.104  8707.090  0.500  2.865549  120.747  6.876752  1.291944
  8710.896  8710.880  0.500  2.864669  121.849  6.945622  1.315080
  8714.694  8714.680  0.500  2.860700  123.073  7.043331  1.347328
  8718.528  8718.510  0.500  2.856336  123.066  7.073680  1.363322
  8722.365  8722.350  0.500  2.852036  122.996  7.100135  1.371006
  8726.226  8726.210  0.500  2.847566  122.935  7.128412  1.377328
  8730.103  8730.090  0.500  2.842780  122.861  7.158312  1.385291
  8734.014  8733.990  0.500  2.837412  122.765  7.191183  1.392854
  8737.931  8737.910  0.500  2.831432  122.699  7.230461  1.400580
  8741.855  8741.850  0.500  2.825182  122.631  7.271763  1.407657
  8745.829  8745.810  0.500  2.818667  122.553  7.314638  1.413529
  8749.800  8749.780  0.500  2.813269  122.452  7.348140  1.419546
  8753.797  8753.780  0.500  2.808647  122.366  7.377017  1.423165
  8757.806  8757.790  0.500  2.804464  122.307  7.404353  1.427211
  8761.844  8761.830  0.500  2.800211  122.206  7.429781  1.431510
  8765.892  8765.880  0.500  2.796318  122.122  7.453635  1.435928
  8769.968  8769.950  0.500  2.792177  122.053  7.480343  1.440873
  8774.064  8774.040  0.500  2.787315  121.95  7.510428  1.446750
  8778.161  8778.150  0.500  2.781995  121.855  7.544627  1.455551
  8782.295  8782.280  0.500  2.777067  121.756  7.575766  1.465899
  8786.449  8786.430  0.500  2.772315  121.663  7.606017  1.479722
  8790.604  8790.590  0.500  2.768242  121.58  7.631843  1.494856
  8794.800  8794.780  0.500  2.764205  121.468  7.655688  1.511170
  8799.000  8798.980  0.500  2.760435  121.366  7.678110  1.523974
  8803.227  8803.210  0.500  2.756676  121.286  7.701977  1.534268
  8807.465  8807.450  0.500  2.752981  121.202  7.725128  1.542496
  8811.728  8811.710  0.500  2.749045  121.116  7.750074  1.549535
  8816.014  8815.990  0.500  2.745484  121.151  7.779974  1.557820
  8820.305  8820.290  0.500  2.741881  121.323  7.819131  1.568846
  8824.631  8824.610  0.500  2.737802  121.197  7.842960  1.578838
  8828.974  8828.950  0.500  2.733314  121.106  7.872294  1.591432
  8833.362  8833.310  0.500  2.728283  121.002  7.905225  1.607276
  8837.707  8837.690  0.500  2.722942  120.919  7.942128  1.620809
  8842.104  8842.080  0.500  2.717492  120.847  7.980748  1.634377
  8846.549  8846.500  0.500  2.712410  120.73  8.013630  1.645869
  8850.958  8850.930  0.500  2.707015  120.638  8.050838  1.658383
  8855.405  8855.380  0.500  2.702024  120.566  8.086326  1.671611
  8859.884  8859.850  0.500  2.697028  120.451  8.119065  1.681741
  8864.365  8864.340  0.500  2.692100  120.336  8.151353  1.690173
  8868.873  8868.850  0.500  2.687118  120.234  8.185179  1.698513
  8873.410  8873.380  0.500  2.682338  120.129  8.217186  1.705525
  8877.959  8877.930  0.500  2.677459  120.035  8.250934  1.711743
  8882.529  8882.500  0.500  2.672528  119.911  8.283107  1.717338
  8887.104  8887.080  0.500  2.667481  119.809  8.317987  1.722332
  8891.712  8891.690  0.500  2.663006  119.705  8.348027  1.727795
  8896.331  8896.310  0.500  2.658459  119.608  8.379243  1.735586
  8900.985  8900.960  0.500  2.653966  119.481  8.408086  1.746653
  8905.645  8905.620  0.500  2.649644  119.372  8.436768  1.759188
  8910.309  8910.300  0.500  2.645380  119.043  8.449494  1.773180
  8915.034  8915.000  0.500  2.641287  119.176  8.493598  1.791758
  8919.763  8919.720  0.500  2.637180  119.037  8.518604  1.806144
  8924.484  8924.460  0.500  2.632263  116.757  8.396647  1.785206
  8929.231  8929.210  0.500  2.627338  118.878  8.591380  1.832632
  8934.020  8933.990  0.500  2.622074  118.911  8.639138  1.848334
  8938.825  8938.790  0.500  2.616907  118.723  8.670156  1.858943
  8943.622  8943.600  0.500  2.611939  118.614  8.705322  1.871811
  8948.452  8948.430  0.500  2.606847  118.508  8.741926  1.883501
  8953.321  8953.290  0.500  2.602052  118.105  8.754067  1.892047
  8958.189  8958.160  0.500  2.597056  118.286  8.811446  1.908631
  8963.076  8963.050  0.500  2.592144  118.183  8.847115  1.921999
  8967.979  8967.960  0.500  2.587109  118.048  8.881573  1.935635
  8972.919  8972.890  0.500  2.582201  117.95  8.917925  1.950247
  8977.861  8977.830  0.500  2.577153  117.834  8.954182  1.963340
  8982.833  8982.800  0.500  2.572365  117.461  8.968724  1.972141
  8987.820  8987.790  0.500  2.567792  117.551  9.016753  1.986766
  8992.811  8992.790  0.500  2.563101  117.34  9.042876  1.996443
  8997.848  8997.820  0.500  2.558428  117.348  9.085851  2.009490
  9002.892  9002.860  0.500  2.553570  116.953  9.099315  2.016443
  9007.941  9007.920  0.500  2.548883  117.11  9.154338  2.031711
  9013.027  9013.000  0.500  2.544458  116.736  9.165615  2.037177
  9018.123  9018.100  0.500  2.539596  116.877  9.221397  2.052555
  9023.246  9023.220  0.500  2.535009  116.83  9.260066  2.064378
  9028.364  9028.360  0.500  2.530078  116.738  9.298520  2.078142
  9033.552  9033.520  0.500  2.525409  116.621  9.332669  2.090719
  9038.703  9038.700  0.500  2.520331  116.474  9.368350  2.103773
  9043.885  9043.890  0.500  2.515450  116.153  9.388235  2.113213
  9049.151  9049.110  0.500  2.509991  116.208  9.444099  2.132167
  9054.377  9054.340  0.500  2.504795  116.094  9.484019  2.147920
  9059.581  9059.590  0.500  2.499805  115.988  9.522772  2.163288
  9064.887  9064.860  0.500  2.494949  114.769  9.468480  2.157357
  9070.188  9070.150  0.500  2.489772  115.742  9.598377  2.193220
  9075.496  9075.460  0.500  2.484794  115.648  9.638377  2.208225
  9080.821  9080.790  0.500  2.479659  115.465  9.672718  2.222386
  9086.184  9086.140  0.500  2.474509  115.346  9.712631  2.238211
  9091.522  9091.510  0.500  2.469633  115.246  9.751627  2.253280
  9096.919  9096.890  0.500  2.464485  115.134  9.792481  2.268730
  9102.316  9102.300  0.500  2.459425  115.015  9.831953  2.284400
  9107.752  9107.720  0.500  2.454380  114.842  9.866778  2.297801
  9113.173  9113.170  0.500  2.449539  114.751  9.906864  2.314356
  9118.661  9118.630  0.500  2.444613  114.631  9.945328  2.329889
  9124.124  9124.110  0.500  2.439672  114.509  9.983976  2.345137
  9129.634  9129.610  0.500  2.434698  114.375  10.022  2.360366
  9135.160  9135.130  0.500  2.429932  114.225  10.0567  2.374364
  9140.701  9140.670  0.500  2.424936  114.044  10.091  2.387191
  9146.245  9146.220  0.500  2.420968  112.554  9.998783  2.370584
  9151.822  9151.800  0.500  2.415287  113.891  10.1752  2.416324
  9157.416  9157.400  0.500  2.410040  113.021  10.1506  2.416109
  9163.024  9163.010  0.500  2.405201  113.691  10.2603  2.447035
  9168.672  9168.650  0.500  2.399285  111.934  10.1617  2.429149
  9174.327  9174.300  0.500  2.394973  113.484  10.347  2.479807
  9180.001  9179.970  0.500  2.389946  113.211  10.3741  2.493046
  9185.674  9185.660  0.500  2.384997  113.335  10.4369  2.514340