File: xdidata/Ni/Ni-K-NickelOxide.xdi
# XDI/1.0 BlueSky/1.10.0 BMM/2023-1.0-py310-tiled
# Beamline.name: BMM (06BM) -- Beamline for Materials Measurement (NIST)
# Beamline.xray_source: NSLS-II three-pole wiggler
# Beamline.collimation: paraboloid mirror, 5 nm Rh on 30 nm Pt
# Beamline.focusing: not in use
# Beamline.harmonic_rejection: flat mirror, Pt stripe, pitch = 7.0 mrad relative to beam
# Beamline.software: Bluesky 1.10.0, Ophyd 1.7.0, DataBroker 2.0.0b13, Python 3.10.8, 2023-1.0-py310-tiled
# Detector.I0: 10 cm N2
# Detector.I1: 25 cm N2
# Detector.I2: 25 cm N2
# Element.symbol: Ni
# Element.edge: K
# Element.reference: Ni
# Element.reference_material: Ni foil
# Facility.name: NSLS-II
# Facility.energy: 3.0
# Facility.current: 400.0
# Facility.mode: top-off
# Facility.GUP: 301027
# Facility.SAF: 310583
# Facility.cycle: 2023-2
# Mono.name: Si(111)
# Mono.d_spacing: 3.13519
# Mono.encoder_resolution: 0.0000050 deg/ct
# Mono.angle_offset: 16.0754 deg
# Mono.scan_mode: pseudo channel cut
# Mono.scan_type: step
# Mono.direction: forward in energy
# Sample.name: NiO
# Sample.prep: powder in PEG pellet
# Sample.x: 117.785 mm
# Sample.y: 114.695 mm
# Sample.SDD_position: 205.000 mm
# Scan.experimenters: Bruce Ravel
# Scan.edge_energy: 8332.8
# Scan.start_time: 2023-06-23T15:24:28
# Scan.end_time: 2023-06-23T15:32:29
# Scan.transient_id: 84845
# Scan.uid: 4ad14882-a8fb-43f3-9eb1-149c876869b4
# Scan.plot_hint: ln(I0/It)  --  ln($5/$6)
# Column.1: energy eV
# Column.2: requested_energy eV
# Column.3: measurement_time seconds
# Column.4: xmu
# Column.5: I0 nA
# Column.6: It nA
# Column.7: Ir nA
# ///////////
# sample courtesy Martin Stennett, University of Sheffield
# -----------
# energy  requested_energy  measurement_time  xmu  I0  It  Ir
  8132.832  8132.800  0.500  1.502842  135.876  30.232  11.6121
  8142.886  8142.800  0.500  1.494990  135.641  30.4175  11.7226
  8152.862  8152.800  0.500  1.487150  135.393  30.601  11.8347
  8162.850  8162.800  0.500  1.479443  135.213  30.7968  11.9508
  8172.832  8172.800  0.500  1.471891  135.013  30.9844  12.067
  8182.815  8182.800  0.500  1.464163  134.809  31.1774  12.1827
  8192.824  8192.800  0.500  1.456591  134.598  31.3653  12.2978
  8202.813  8202.800  0.500  1.449046  134.395  31.5551  12.4132
  8212.817  8212.800  0.500  1.441696  134.183  31.7379  12.5283
  8222.780  8222.800  0.500  1.434325  133.991  31.9268  12.6448
  8232.795  8232.800  0.500  1.427082  132.419  31.7818  12.6286
  8242.799  8242.800  0.500  1.419850  132.108  31.937  12.7308
  8252.800  8252.800  0.500  1.413028  131.904  32.1061  12.8385
  8262.790  8262.800  0.500  1.406114  131.645  32.2654  12.9425
  8272.799  8272.800  0.500  1.399873  131.432  32.4149  13.0426
  8282.801  8282.800  0.500  1.394062  131.21  32.5486  13.135
  8292.802  8292.800  0.500  1.389070  130.978  32.6537  13.212
  8302.789  8302.800  0.500  1.385499  130.746  32.7125  13.2637
  8304.784  8304.800  0.500  1.385227  130.647  32.6967  13.2621
  8306.783  8306.800  0.500  1.385002  130.599  32.692  13.263
  8308.780  8308.800  0.500  1.384994  130.505  32.6688  13.2578
  8310.781  8310.800  0.500  1.385163  130.458  32.6513  13.2529
  8312.786  8312.800  0.500  1.385624  130.476  32.6409  13.2499
  8314.786  8314.800  0.500  1.386336  130.342  32.5842  13.2254
  8316.781  8316.800  0.500  1.387576  130.315  32.537  13.2032
  8318.786  8318.800  0.500  1.389278  130.287  32.4746  13.1705
  8320.786  8320.800  0.500  1.391713  130.223  32.3797  13.1237
  8322.781  8322.800  0.500  1.395009  130.166  32.2593  13.0582
  8323.078  8323.100  0.500  1.395683  130.111  32.2239  13.0408
  8323.375  8323.400  0.500  1.396366  130.132  32.2069  13.0286
  8323.675  8323.700  0.500  1.396921  130.073  32.1745  13.0124
  8323.975  8324.000  0.500  1.397662  130.042  32.1431  12.9949
  8324.275  8324.300  0.500  1.398459  130.047  32.1187  12.9798
  8324.572  8324.600  0.500  1.399207  130.02  32.088  12.9623
  8324.869  8324.900  0.500  1.399979  130.015  32.0621  12.9464
  8325.172  8325.200  0.500  1.400821  130  32.0313  12.9276
  8325.475  8325.500  0.500  1.401749  129.949  31.989  12.9077
  8325.775  8325.800  0.500  1.402664  129.989  31.9695  12.8883
  8326.079  8326.100  0.500  1.403766  129.946  31.9238  12.8631
  8326.379  8326.400  0.500  1.404927  129.867  31.8675  12.8341
  8326.688  8326.700  0.500  1.406184  129.906  31.837  12.8115
  8326.982  8327.000  0.500  1.407427  129.888  31.793  12.7837
  8327.285  8327.300  0.500  1.408789  129.848  31.7399  12.7489
  8327.586  8327.600  0.500  1.410157  129.899  31.709  12.7246
  8327.892  8327.900  0.500  1.411678  129.811  31.6394  12.6812
  8328.192  8328.200  0.500  1.413208  129.832  31.5961  12.6498
  8328.478  8328.500  0.500  1.414868  129.83  31.5433  12.6117
  8328.799  8328.800  0.500  1.416883  129.819  31.477  12.5614
  8329.087  8329.100  0.500  1.418870  129.81  31.4123  12.51
  8329.394  8329.400  0.500  1.421146  129.782  31.3343  12.4488
  8329.694  8329.700  0.500  1.423722  129.753  31.2466  12.3775
  8329.992  8330.000  0.500  1.426596  129.765  31.1598  12.2962
  8330.295  8330.300  0.500  1.429964  129.743  31.0499  12.1932
  8330.581  8330.600  0.500  1.433688  129.758  30.938  12.0749
  8330.890  8330.900  0.500  1.438603  129.676  30.7669  11.9035
  8331.188  8331.200  0.500  1.444891  129.736  30.5881  11.6952
  8331.488  8331.500  0.500  1.453024  129.605  30.3097  11.4046
  8331.792  8331.800  0.500  1.464981  129.674  29.9655  11.0365
  8332.092  8332.100  0.500  1.480396  129.706  29.5143  10.6014
  8332.387  8332.400  0.500  1.497454  129.624  28.9968  10.1293
  8332.700  8332.700  0.500  1.513132  129.615  28.5437  9.661508
  8332.997  8333.000  0.500  1.520807  129.581  28.3179  9.304138
  8333.292  8333.300  0.500  1.519400  129.559  28.353  9.056588
  8333.602  8333.600  0.500  1.512297  129.504  28.5431  8.878770
  8333.906  8333.900  0.500  1.505334  129.529  28.7481  8.738720
  8334.197  8334.200  0.500  1.501757  129.513  28.8476  8.589793
  8334.501  8334.500  0.500  1.502413  129.38  28.7991  8.417208
  8334.796  8334.800  0.500  1.507056  129.419  28.6742  8.249732
  8335.094  8335.100  0.500  1.515196  129.393  28.4362  8.069082
  8335.395  8335.400  0.500  1.527850  129.396  28.0791  7.878167
  8335.696  8335.700  0.500  1.544862  129.387  27.6036  7.672607
  8335.990  8336.000  0.500  1.567337  129.388  26.9904  7.443369
  8336.291  8336.300  0.500  1.594530  129.348  26.2581  7.192036
  8336.595  8336.600  0.500  1.624696  129.342  25.4766  6.934962
  8336.887  8336.900  0.500  1.654190  129.341  24.7361  6.692990
  8337.197  8337.200  0.500  1.683221  129.333  24.0268  6.458400
  8337.507  8337.500  0.500  1.712848  129.335  23.3257  6.221276
  8337.799  8337.800  0.500  1.742568  129.254  22.6285  5.981993
  8338.100  8338.100  0.500  1.776626  129.315  21.8811  5.723462
  8338.401  8338.400  0.500  1.818868  129.268  20.9685  5.419531
  8338.706  8338.700  0.500  1.871416  129.286  19.8979  5.078304
  8339.004  8339.000  0.500  1.935040  129.283  18.6709  4.707614
  8339.293  8339.300  0.500  2.010927  129.283  17.3064  4.315038
  8339.603  8339.600  0.500  2.106430  129.253  15.7264  3.877699
  8339.895  8339.900  0.500  2.212076  129.252  14.1496  3.455662
  8340.188  8340.200  0.500  2.324160  129.145  12.6388  3.058220
  8340.498  8340.500  0.500  2.449302  129.121  11.1501  2.671777
  8340.799  8340.800  0.500  2.569470  129.185  9.892455  2.346600
  8341.088  8341.100  0.500  2.683323  129.196  8.828689  2.072083
  8341.399  8341.400  0.500  2.794966  129.188  7.895574  1.831053
  8341.697  8341.700  0.500  2.902302  129.187  7.091918  1.623099
  8341.998  8342.000  0.500  3.008244  129.14  6.376702  1.438962
  8342.294  8342.300  0.500  3.110469  129.104  5.755443  1.278476
  8342.604  8342.600  0.500  3.214599  129.114  5.186713  1.132003
  8342.905  8342.900  0.500  3.318781  129.113  4.673510  1.001542
  8343.201  8343.200  0.500  3.425068  129.058  4.200455  0.882648
  8343.502  8343.500  0.500  3.544265  129.091  3.729410  0.767999
  8343.801  8343.800  0.500  3.683694  129.555  3.255718  0.656213
  8344.102  8344.100  0.500  3.846402  129.543  2.766584  0.545190
  8344.401  8344.400  0.500  4.040880  129.514  2.277123  0.438541
  8344.693  8344.700  0.500  4.257117  129.526  1.834487  0.344931
  8344.995  8345.000  0.500  4.488512  129.508  1.455329  0.266131
  8345.297  8345.300  0.500  4.704137  129.508  1.173052  0.208539
  8345.592  8345.600  0.500  4.891478  129.503  0.972610  0.168475
  8345.891  8345.900  0.500  5.051997  129.508  0.828406  0.139209
  8346.207  8346.200  0.500  5.190626  129.478  0.721003  0.117984
  8346.500  8346.500  0.500  5.309346  129.454  0.640172  0.102018
  8346.802  8346.800  0.500  5.422989  129.413  0.571218  0.088723
  8347.104  8347.100  0.500  5.536824  129.422  0.509796  0.077143
  8347.402  8347.400  0.500  5.649056  129.399  0.455595  0.067556
  8347.698  8347.700  0.500  5.766064  129.458  0.405469  0.058961
  8348.006  8348.000  0.500  5.890066  129.379  0.357964  0.051006
  8348.311  8348.300  0.500  6.022913  129.342  0.313345  0.044021
  8348.607  8348.600  0.500  6.159267  129.344  0.273407  0.037712
  8348.893  8348.900  0.500  6.296244  129.32  0.238365  0.032651
  8349.198  8349.200  0.500  6.429737  129.343  0.208614  0.028254
  8349.500  8349.500  0.500  6.540769  129.285  0.186607  0.025017
  8349.793  8349.800  0.500  6.609446  129.229  0.174146  0.023139
  8350.092  8350.100  0.500  6.632474  129.2  0.170143  0.022689
  8350.397  8350.400  0.500  6.607315  129.193  0.174470  0.023263
  8350.702  8350.700  0.500  6.546800  129.097  0.185216  0.024994
  8350.998  8351.000  0.500  6.460460  129.145  0.201992  0.027350
  8351.297  8351.300  0.500  6.360944  129.131  0.223105  0.030766
  8351.605  8351.600  0.500  6.245530  129.098  0.250335  0.034723
  8351.907  8351.900  0.500  6.126691  129.076  0.281875  0.039603
  8352.203  8352.200  0.500  6.007399  129.031  0.317479  0.044839
  8352.506  8352.500  0.500  5.882589  129.002  0.359600  0.051355
  8352.814  8352.800  0.500  5.757737  128.979  0.407349  0.058574
  8353.104  8353.100  0.500  5.640393  128.963  0.458009  0.066284
  8353.400  8353.400  0.500  5.528607  128.907  0.511955  0.074207
  8353.696  8353.700  0.500  5.428319  128.963  0.566208  0.082276
  8354.002  8354.000  0.500  5.337163  128.94  0.620139  0.089797
  8354.298  8354.300  0.500  5.263420  128.926  0.667522  0.096542
  8354.597  8354.600  0.500  5.200196  128.853  0.710688  0.102490
  8354.896  8354.900  0.500  5.146416  128.89  0.750168  0.107754
  8355.208  8355.200  0.500  5.097451  128.897  0.787861  0.112324
  8355.501  8355.500  0.500  5.053411  128.912  0.823427  0.116235
  8355.798  8355.800  0.500  5.008816  128.88  0.860763  0.120645
  8356.103  8356.100  0.500  4.959080  128.887  0.904708  0.125768
  8356.405  8356.400  0.500  4.903522  128.885  0.956375  0.131790
  8356.702  8356.700  0.500  4.841924  128.877  1.017078  0.139474
  8357.001  8357.000  0.500  4.771569  128.879  1.091228  0.148728
  8357.307  8357.300  0.500  4.697686  128.889  1.175000  0.159547
  8357.603  8357.600  0.500  4.622327  128.865  1.266728  0.171441
  8357.807  8357.800  0.500  4.572968  128.854  1.330714  0.180258
  8358.796  8358.790  0.500  4.338946  128.86  1.681661  0.229390
  8359.796  8359.790  0.500  4.164909  128.832  2.000905  0.276939
  8360.836  8360.810  0.500  4.080010  128.817  2.177946  0.306156
  8361.877  8361.860  0.500  4.092814  128.796  2.149894  0.305329
  8362.929  8362.920  0.500  4.201883  128.78  1.927504  0.276686
  8364.012  8364.000  0.500  4.375107  128.753  1.620582  0.236184
  8365.119  8365.100  0.500  4.526187  128.726  1.393054  0.206386
  8366.239  8366.220  0.500  4.579299  128.701  1.320737  0.197836
  8367.370  8367.360  0.500  4.541087  128.662  1.371773  0.206806
  8368.527  8368.510  0.500  4.453396  128.645  1.497294  0.226827
  8369.713  8369.690  0.500  4.371624  128.615  1.624498  0.246885
  8370.894  8370.880  0.500  4.320579  128.561  1.708859  0.258993
  8372.117  8372.100  0.500  4.274207  128.543  1.789713  0.269185
  8373.341  8373.330  0.500  4.216826  128.578  1.895931  0.281085
  8374.595  8374.580  0.500  4.154457  128.527  2.017143  0.293907
  8375.858  8375.850  0.500  4.108317  128.506  2.112056  0.301362
  8377.152  8377.140  0.500  4.093129  128.467  2.143721  0.299428
  8378.471  8378.450  0.500  4.113722  128.478  2.100198  0.285773
  8379.786  8379.780  0.500  4.168521  128.452  1.987816  0.264565
  8381.142  8381.130  0.500  4.243136  128.414  1.844344  0.241258
  8382.510  8382.500  0.500  4.314400  128.362  1.716793  0.223519
  8383.887  8383.880  0.500  4.372750  128.295  1.618629  0.212047
  8385.304  8385.290  0.500  4.412758  128.278  1.554944  0.206983
  8386.716  8386.710  0.500  4.452730  128.205  1.493168  0.203733
  8388.155  8388.150  0.500  4.529255  128.089  1.381915  0.193720
  8389.622  8389.610  0.500  4.653977  128.064  1.219639  0.175193
  8391.099  8391.090  0.500  4.799994  128.065  1.053951  0.154396
  8392.606  8392.590  0.500  4.935350  128.017  0.920177  0.137202
  8394.138  8394.110  0.500  5.035281  127.961  0.832304  0.125282
  8395.661  8395.650  0.500  5.101833  127.901  0.778351  0.117866
  8397.231  8397.210  0.500  5.151815  127.872  0.740239  0.111995
  8398.795  8398.780  0.500  5.190359  127.875  0.712266  0.107581
  8400.390  8400.380  0.500  5.202597  127.796  0.703166  0.106409
  8402.006  8401.990  0.500  5.158350  127.744  0.734677  0.111585
  8403.639  8403.630  0.500  5.067405  127.7  0.804347  0.122837
  8405.299  8405.280  0.500  4.962502  127.652  0.892974  0.136307
  8406.954  8406.950  0.500  4.861844  127.605  0.987181  0.150054
  8408.655  8408.640  0.500  4.753473  127.589  1.100032  0.166224
  8410.360  8410.350  0.500  4.655872  127.534  1.212285  0.182566
  8412.090  8412.080  0.500  4.572365  127.486  1.317374  0.197173
  8413.842  8413.830  0.500  4.492565  127.423  1.426108  0.212037
  8415.592  8415.590  0.500  4.417544  127.393  1.536849  0.226503
  8417.391  8417.380  0.500  4.357870  127.349  1.630780  0.237175
  8419.181  8419.180  0.500  4.321301  127.273  1.690516  0.242969
  8421.037  8421.010  0.500  4.303388  127.291  1.721314  0.244653
  8422.856  8422.850  0.500  4.309889  127.222  1.709229  0.239834
  8424.729  8424.710  0.500  4.341911  127.166  1.654640  0.228484
  8426.593  8426.590  0.500  4.392049  127.13  1.573279  0.213445
  8428.494  8428.490  0.500  4.446782  127.076  1.488854  0.198686
  8430.421  8430.410  0.500  4.489390  127.03  1.426232  0.188446
  8432.354  8432.350  0.500  4.507582  126.994  1.400117  0.184079
  8434.319  8434.310  0.500  4.511738  126.918  1.393475  0.184764
  8436.285  8436.280  0.500  4.517143  126.893  1.385691  0.186664
  8438.292  8438.280  0.500  4.525207  126.813  1.373693  0.188858
  8440.291  8440.290  0.500  4.538997  126.759  1.354308  0.189946
  8442.339  8442.320  0.500  4.571717  126.736  1.310479  0.187920
  8444.388  8444.380  0.500  4.626799  126.66  1.239503  0.181406
  8446.466  8446.450  0.500  4.692448  126.603  1.160217  0.172042
  8448.552  8448.540  0.500  4.741294  126.544  1.104393  0.165957
  8450.662  8450.650  0.500  4.753031  126.498  1.091111  0.166509
  8452.786  8452.780  0.500  4.731331  126.455  1.114663  0.173667
  8454.936  8454.920  0.500  4.686196  126.313  1.164820  0.185468
  8457.099  8457.090  0.500  4.617194  126.286  1.247769  0.202262
  8459.288  8459.280  0.500  4.533478  126.279  1.356649  0.221813
  8461.497  8461.480  0.500  4.445769  126.217  1.480287  0.241809
  8463.703  8463.700  0.500  4.362588  126.092  1.607085  0.260410
  8465.960  8465.950  0.500  4.305902  126.035  1.700054  0.271846
  8468.228  8468.210  0.500  4.302873  125.999  1.704716  0.268234
  8470.502  8470.490  0.500  4.359309  125.908  1.610011  0.249174
  8472.800  8472.790  0.500  4.458177  125.897  1.458325  0.222660
  8475.136  8475.110  0.500  4.564921  125.819  1.309870  0.198695
  8477.455  8477.450  0.500  4.644661  125.786  1.209156  0.183773
  8479.821  8479.800  0.500  4.675675  125.723  1.171637  0.179092
  8482.186  8482.180  0.500  4.655123  125.636  1.195147  0.183118
  8484.601  8484.570  0.500  4.605049  125.57  1.255853  0.190912
  8486.999  8486.990  0.500  4.556450  125.519  1.317858  0.195908
  8489.442  8489.420  0.500  4.528510  125.401  1.353928  0.194906
  8491.881  8491.870  0.500  4.534840  125.408  1.345461  0.188279
  8494.373  8494.350  0.500  4.563599  125.313  1.306317  0.179301
  8496.845  8496.840  0.500  4.593895  125.265  1.266858  0.172459
  8499.368  8499.350  0.500  4.623916  125.159  1.228344  0.166816
  8501.878  8501.870  0.500  4.646974  125.087  1.199654  0.163267
  8504.447  8504.420  0.500  4.653070  125.026  1.191787  0.163487
  8507.009  8506.990  0.500  4.640910  125.008  1.206187  0.168971
  8509.592  8509.570  0.500  4.610739  124.875  1.241819  0.178969
  8512.200  8512.180  0.500  4.562560  124.769  1.301999  0.194631
  8514.823  8514.800  0.500  4.497362  124.703  1.388979  0.216156
  8517.467  8517.450  0.500  4.418171  124.591  1.502102  0.243820
  8520.133  8520.110  0.500  4.329887  124.47  1.639149  0.275607
  8522.811  8522.790  0.500  4.246100  124.334  1.780465  0.306812
  8525.522  8525.490  0.500  4.179991  124.056  1.897887  0.328812
  8528.237  8528.210  0.500  4.145747  123.301  1.952057  0.335215
  8530.977  8530.950  0.500  4.151788  108.595  1.708874  0.287558
  8533.724  8533.700  0.500  4.200362  124.007  1.858882  0.305046
  8536.498  8536.480  0.500  4.277986  124.394  1.725413  0.277164
  8539.299  8539.270  0.500  4.363778  124.322  1.582640  0.249890
  8542.109  8542.090  0.500  4.438592  124.252  1.467736  0.229189
  8544.954  8544.920  0.500  4.496683  124.148  1.383741  0.215416
  8547.774  8547.770  0.500  4.531849  124.066  1.335042  0.208535
  8550.677  8550.650  0.500  4.545111  123.963  1.316359  0.206555
  8553.569  8553.540  0.500  4.537921  123.889  1.325069  0.209189
  8556.473  8556.450  0.500  4.520385  123.767  1.347183  0.214386
  8559.391  8559.370  0.500  4.499342  123.64  1.374420  0.220870
  8562.340  8562.320  0.500  4.476733  123.614  1.405558  0.227641
  8565.310  8565.290  0.500  4.452527  123.553  1.439282  0.232656
  8568.291  8568.270  0.500  4.433271  123.449  1.466030  0.234274
  8571.300  8571.280  0.500  4.420787  123.368  1.483465  0.232504
  8574.326  8574.300  0.500  4.409392  123.312  1.499789  0.231115
  8577.368  8577.350  0.500  4.391566  123.207  1.525468  0.232330
  8580.437  8580.410  0.500  4.370975  123.099  1.555839  0.235305
  8583.502  8583.490  0.500  4.350888  122.954  1.585541  0.239623
  8586.617  8586.590  0.500  4.335533  122.926  1.609709  0.244696
  8589.731  8589.710  0.500  4.332201  122.696  1.612051  0.248317
  8592.872  8592.850  0.500  4.334795  112.201  1.470346  0.231228
  8596.026  8596.000  0.500  4.329931  121.001  1.593392  0.256423
  8599.191  8599.180  0.500  4.311367  121.969  1.636241  0.269651
  8602.394  8602.370  0.500  4.280271  122.012  1.688516  0.283718
  8605.612  8605.590  0.500  4.248229  121.844  1.741089  0.296437
  8608.838  8608.820  0.500  4.225869  121.543  1.776058  0.304558
  8612.096  8612.070  0.500  4.213788  121.012  1.789792  0.307406
  8615.366  8615.350  0.500  4.213239  119.075  1.762120  0.302621
  8618.664  8618.640  0.500  4.223063  86.0927  1.261577  0.216536
  8621.975  8621.950  0.500  4.240136  123.172  1.774374  0.304645
  8625.288  8625.270  0.500  4.261719  122.821  1.731530  0.297847
  8628.645  8628.620  0.500  4.285366  122.491  1.686522  0.290102
  8632.008  8631.990  0.500  4.306786  122.296  1.648156  0.283388
  8635.383  8635.370  0.500  4.321446  122.102  1.621601  0.277688
  8638.806  8638.780  0.500  4.326690  121.957  1.611204  0.274695
  8642.244  8642.200  0.500  4.325124  120.175  1.590144  0.269876
  8645.679  8645.650  0.500  4.319887  118.242  1.572781  0.266039
  8649.139  8649.110  0.500  4.310560  121.154  1.626622  0.274772
  8652.619  8652.590  0.500  4.288906  121.422  1.665901  0.280798
  8656.117  8656.090  0.500  4.251203  121.69  1.733731  0.292011
  8659.631  8659.610  0.500  4.206986  121.6  1.810768  0.304362
  8663.196  8663.150  0.500  4.171539  121.508  1.874689  0.314265
  8666.725  8666.700  0.500  4.151601  121.415  1.910980  0.319283
  8670.309  8670.280  0.500  4.147647  121.236  1.915722  0.319578
  8673.903  8673.880  0.500  4.152722  121.186  1.905226  0.318655
  8677.519  8677.490  0.500  4.159278  121.074  1.891029  0.318618
  8681.138  8681.120  0.500  4.160532  120.986  1.887297  0.320717
  8684.800  8684.780  0.500  4.153191  120.845  1.898986  0.326403
  8688.470  8688.450  0.500  4.141163  120.716  1.919904  0.333902
  8692.190  8692.140  0.500  4.131301  120.527  1.935896  0.339256
  8695.871  8695.850  0.500  4.133027  120.418  1.930823  0.339660
  8699.606  8699.580  0.500  4.143363  120.213  1.907702  0.335862
  8703.339  8703.320  0.500  4.155064  119.78  1.878720  0.330735
  8707.104  8707.090  0.500  4.163742  114.235  1.776269  0.314064
  8710.886  8710.880  0.500  4.173237  120.107  1.849934  0.329755
  8714.703  8714.680  0.500  4.183144  120.293  1.834519  0.330378
  8718.518  8718.510  0.500  4.188121  120.184  1.823757  0.330494
  8722.365  8722.350  0.500  4.183694  120.004  1.829113  0.332548
  8726.226  8726.210  0.500  4.171762  119.872  1.849037  0.336584
  8730.103  8730.090  0.500  4.154805  119.756  1.878831  0.342125
  8734.007  8733.990  0.500  4.135628  119.563  1.912129  0.348716
  8737.924  8737.910  0.500  4.109363  119.492  1.961847  0.357876
  8741.871  8741.850  0.500  4.074144  119.329  2.029408  0.369819
  8745.829  8745.810  0.500  4.041841  119.231  2.094309  0.381508
  8749.793  8749.780  0.500  4.023286  119.154  2.132143  0.388323
  8753.801  8753.780  0.500  4.019240  119.015  2.138303  0.388947
  8757.806  8757.790  0.500  4.026841  118.927  2.120536  0.385216
  8761.857  8761.830  0.500  4.038347  118.72  2.092633  0.380038
  8765.896  8765.880  0.500  4.046177  118.615  2.074474  0.376715
  8769.998  8769.950  0.500  4.043605  118.537  2.078441  0.377503
  8774.058  8774.040  0.500  4.034195  118.437  2.096325  0.380758
  8778.171  8778.150  0.500  4.024785  118.324  2.114121  0.384366
  8782.301  8782.280  0.500  4.018498  118.166  2.124621  0.387846
  8786.456  8786.430  0.500  4.010777  118.005  2.138162  0.392391
  8790.618  8790.590  0.500  4.002529  117.914  2.154223  0.398360
  8794.810  8794.780  0.500  3.996214  117.8  2.165761  0.403095
  8798.997  8798.980  0.500  3.995030  117.584  2.164352  0.405282
  8803.284  8803.210  0.500  3.994153  117.495  2.164616  0.406906
  8807.475  8807.450  0.500  3.991104  117.39  2.169285  0.408385
  8811.731  8811.710  0.500  3.991341  117.288  2.166879  0.408993
  8816.024  8815.990  0.500  3.996908  117.147  2.152260  0.406683
  8820.362  8820.290  0.500  4.001928  117.034  2.139423  0.404835
  8824.674  8824.610  0.500  4.000782  116.866  2.138793  0.406390
  8828.964  8828.950  0.500  3.991579  116.768  2.156762  0.411718
  8833.379  8833.310  0.500  3.978051  116.681  2.184508  0.419398
  8837.717  8837.690  0.500  3.966259  116.551  2.207960  0.425724
  8842.137  8842.080  0.500  3.955082  116.37  2.229316  0.430882
  8846.562  8846.500  0.500  3.942998  116.274  2.254550  0.437138
  8850.928  8850.930  0.500  3.930515  116.141  2.280265  0.443694
  8855.453  8855.380  0.500  3.917398  116.026  2.308084  0.450456
  8859.881  8859.850  0.500  3.904295  115.837  2.334708  0.456733
  8864.409  8864.340  0.500  3.892690  115.713  2.359426  0.462335
  8868.833  8868.850  0.500  3.886359  115.654  2.373211  0.465441
  8873.444  8873.380  0.500  3.884480  115.482  2.374134  0.465596
  8877.908  8877.930  0.500  3.881096  115.356  2.379586  0.466734
  8882.533  8882.500  0.500  3.873181  115.201  2.395269  0.469442
  8887.047  8887.080  0.500  3.863915  115.091  2.415260  0.472794
  8891.667  8891.690  0.500  3.856628  114.934  2.429611  0.475350
  8896.382  8896.310  0.500  3.851730  114.78  2.438267  0.477784
  8900.924  8900.960  0.500  3.849765  114.641  2.440111  0.479355
  8905.597  8905.620  0.500  3.851877  114.48  2.431541  0.479931
  8910.391  8910.300  0.500  3.858447  113.8  2.401275  0.476702
  8914.958  8915.000  0.500  3.864406  114.314  2.397789  0.478457
  8919.705  8919.720  0.500  3.863341  114.171  2.397341  0.480485
  8924.546  8924.460  0.500  3.853599  112.1  2.376894  0.478264
  8929.169  8929.210  0.500  3.838463  113.73  2.448232  0.494091
  8933.993  8933.990  0.500  3.821284  113.854  2.493358  0.504587
  8938.756  8938.790  0.500  3.808284  113.663  2.521758  0.511978
  8943.619  8943.600  0.500  3.800887  113.426  2.535182  0.515896
  8948.393  8948.430  0.500  3.797248  113.281  2.541158  0.518501
  8953.269  8953.290  0.500  3.793477  112.89  2.541961  0.520016
  8958.120  8958.160  0.500  3.786250  112.893  2.560477  0.525111
  8963.017  8963.050  0.500  3.775435  112.902  2.588506  0.532303
  8967.938  8967.960  0.500  3.764212  112.659  2.612105  0.539276
  8972.857  8972.890  0.500  3.755931  112.565  2.631623  0.545180
  8977.840  8977.830  0.500  3.751438  112.338  2.638132  0.548242
  8982.784  8982.800  0.500  3.748270  111.938  2.637081  0.549086
  8987.751  8987.790  0.500  3.743867  112.024  2.650758  0.553328
  8992.748  8992.790  0.500  3.738561  111.712  2.657441  0.555790
  8997.785  8997.820  0.500  3.733347  111.834  2.674237  0.560688
  9002.881  9002.860  0.500  3.728077  111.331  2.676279  0.562140
  9007.892  9007.920  0.500  3.722557  111.459  2.694205  0.566976
  9012.999  9013.000  0.500  3.717194  111.236  2.703265  0.569625
  9018.085  9018.100  0.500  3.713677  111.046  2.708164  0.571332
  9023.246  9023.220  0.500  3.711809  111.121  2.715061  0.573871
  9028.340  9028.360  0.500  3.708628  110.916  2.718677  0.576055
  9033.506  9033.520  0.500  3.701119  110.749  2.735041  0.580936
  9038.678  9038.700  0.500  3.690550  110.516  2.758292  0.587347
  9043.860  9043.890  0.500  3.680292  110.344  2.782384  0.594386
  9049.070  9049.110  0.500  3.671007  110.156  2.803564  0.600380
  9054.306  9054.340  0.500  3.663410  110.073  2.822806  0.606469
  9059.556  9059.590  0.500  3.656701  109.905  2.837470  0.611481
  9064.826  9064.860  0.500  3.650362  109.088  2.834285  0.613182
  9070.124  9070.150  0.500  3.646048  109.556  2.858755  0.619987
  9075.435  9075.460  0.500  3.642234  109.403  2.865672  0.623180
  9080.799  9080.790  0.500  3.636317  109.181  2.876835  0.627465
  9086.120  9086.140  0.500  3.627380  109.047  2.899084  0.634421
  9091.465  9091.510  0.500  3.617108  108.906  2.925250  0.641979
  9096.884  9096.890  0.500  3.608085  108.755  2.947675  0.648668
  9102.273  9102.300  0.500  3.600915  108.535  2.962857  0.653812
  9107.677  9107.720  0.500  3.594124  108.451  2.980756  0.659126
  9113.134  9113.170  0.500  3.587227  108.246  2.995717  0.665208
  9118.593  9118.630  0.500  3.581023  108.121  3.010857  0.669879
  9124.067  9124.110  0.500  3.575123  107.976  3.024618  0.675209
  9129.573  9129.610  0.500  3.570012  107.712  3.032675  0.678711
  9135.085  9135.130  0.500  3.565657  107.55  3.041332  0.682338
  9140.633  9140.670  0.500  3.563623  107.282  3.039951  0.683700
  9146.195  9146.220  0.500  3.562317  106.882  3.032571  0.683353
  9151.760  9151.800  0.500  3.558812  107.186  3.051859  0.688927
  9157.358  9157.400  0.500  3.552363  105.836  3.032929  0.685979
  9162.981  9163.010  0.500  3.543761  106.818  3.087501  0.699909
  9168.622  9168.650  0.500  3.535335  104.447  3.044530  0.691955
  9174.266  9174.300  0.500  3.525874  106.448  3.132348  0.713416
  9179.924  9179.970  0.500  3.517718  106.075  3.146940  0.719240
  9185.634  9185.660  0.500  3.510438  106.359  3.178411  0.728610