File: xdidata/Data/Ho/Ho-L3-Ho2TiO5.xdi
# XDI/1.0 BlueSky/1.10.0 BMM/2023-1.0-py310-tiled
# Beamline.name: BMM (06BM) -- Beamline for Materials Measurement (NIST)
# Beamline.xray_source: NSLS-II three-pole wiggler
# Beamline.collimation: paraboloid mirror, 5 nm Rh on 30 nm Pt
# Beamline.focusing: not in use
# Beamline.harmonic_rejection: flat mirror, Pt stripe, pitch = 7.0 mrad relative to beam
# Beamline.software: Bluesky 1.10.0, Ophyd 1.7.0, DataBroker 2.0.0b13, Python 3.10.8, 2023-1.0-py310-tiled
# Detector.I0: 10 cm N2
# Detector.I1: 25 cm N2
# Detector.I2: 25 cm N2
# Element.symbol: Ho
# Element.edge: L3
# Element.reference: Ho
# Element.reference_material: Ho2O3
# Facility.name: NSLS-II
# Facility.energy: 3.0
# Facility.current: 399.1
# Facility.mode: top-off
# Facility.GUP: 123456
# Facility.SAF: 301027
# Facility.cycle: 2023-2
# Mono.name: Si(111)
# Mono.d_spacing: 3.13519
# Mono.encoder_resolution: 0.0000050 deg/ct
# Mono.angle_offset: 16.0754 deg
# Mono.scan_mode: pseudo channel cut
# Mono.scan_type: step
# Mono.direction: forward in energy
# Sample.name: Ho2TiO5
# Sample.prep: Powder in PEG pellet
# Sample.x: 149.848 mm
# Sample.y: 114.690 mm
# Sample.SDD_position: 205.000 mm
# Scan.experimenters: Bruce Ravel
# Scan.edge_energy: 8071.1
# Scan.start_time: 2023-05-08T18:57:50
# Scan.end_time: 2023-05-08T19:03:39
# Scan.transient_id: 75514
# Scan.uid: ce17edd1-b616-4636-ba21-0e7eea7ad56e
# Scan.plot_hint: ln(I0/It)  --  ln($5/$6)
# Column.1: energy eV
# Column.2: requested_energy eV
# Column.3: measurement_time seconds
# Column.4: xmu
# Column.5: I0 nA
# Column.6: It nA
# Column.7: Ir nA
# ///////////
# sample courtesy Martin Stennett, University of Sheffield
# -----------
# energy  requested_energy  measurement_time  xmu  I0  It  Ir
  7871.119  7871.100  0.500  0.759619  139.57  65.2973  21.3437
  7881.169  7881.100  0.500  0.754670  139.416  65.5488  21.5153
  7891.186  7891.100  0.500  0.749786  139.288  65.8089  21.6889
  7901.155  7901.100  0.500  0.744933  139.051  66.0168  21.8459
  7911.155  7911.100  0.500  0.740094  138.967  66.2969  22.029
  7921.139  7921.100  0.500  0.735321  138.82  66.5437  22.2011
  7931.135  7931.100  0.500  0.730370  138.583  66.7596  22.3558
  7941.114  7941.100  0.500  0.725389  138.667  67.1337  22.569
  7951.125  7951.100  0.500  0.720831  137.357  66.8036  22.5509
  7961.121  7961.100  0.500  0.715933  138.197  67.5416  22.8923
  7971.121  7971.100  0.500  0.711245  138.077  67.8002  23.067
  7981.082  7981.100  0.500  0.706592  136.94  67.5558  23.0719
  7991.083  7991.100  0.500  0.701647  136.717  67.7798  23.2336
  8001.090  8001.100  0.500  0.696884  136.484  67.9875  23.3935
  8011.090  8011.100  0.500  0.692372  136.298  68.202  23.5525
  8021.083  8021.100  0.500  0.688065  136.079  68.3862  23.6987
  8031.082  8031.100  0.500  0.684011  135.852  68.5494  23.8264
  8041.088  8041.100  0.500  0.680473  135.639  68.6843  23.9252
  8043.083  8043.100  0.500  0.679910  135.614  68.7108  23.9411
  8045.078  8045.100  0.500  0.679297  135.544  68.7172  23.9482
  8047.081  8047.100  0.500  0.678859  135.501  68.7255  23.9539
  8049.076  8049.100  0.500  0.678612  135.441  68.712  23.9456
  8051.078  8051.100  0.500  0.678401  135.365  68.6878  23.9267
  8053.080  8053.100  0.500  0.678569  135.302  68.6445  23.8966
  8055.081  8055.100  0.500  0.678929  135.141  68.5382  23.833
  8057.075  8057.100  0.500  0.679561  134.525  68.1823  23.6692
  8059.086  8059.100  0.500  0.680761  132.347  66.9984  23.1942
  8061.077  8061.100  0.500  0.683390  135.319  68.3226  23.5534
  8061.571  8061.600  0.500  0.684052  135.301  68.2687  23.4979
  8062.075  8062.100  0.500  0.684904  135.264  68.1918  23.4334
  8062.575  8062.600  0.500  0.686166  135.23  68.0885  23.3501
  8063.082  8063.100  0.500  0.687403  135.219  67.9989  23.2667
  8063.582  8063.600  0.500  0.688907  135.179  67.8767  23.1623
  8064.083  8064.100  0.500  0.690825  135.173  67.7437  23.0462
  8064.581  8064.600  0.500  0.692970  135.137  67.5806  22.9006
  8065.079  8065.100  0.500  0.695477  135.087  67.3864  22.7327
  8065.580  8065.600  0.500  0.698464  135.073  67.1781  22.5528
  8066.076  8066.100  0.500  0.701227  135.047  66.9803  22.374
  8066.580  8066.600  0.500  0.703932  134.987  66.7697  22.1941
  8067.078  8067.100  0.500  0.706654  134.936  66.5629  22.0158
  8067.579  8067.600  0.500  0.709610  134.866  66.3319  21.8164
  8068.092  8068.100  0.500  0.713076  134.774  66.0576  21.5837
  8068.590  8068.600  0.500  0.717267  134.538  65.6661  21.2857
  8069.092  8069.100  0.500  0.722186  133.851  65.0099  20.875
  8069.585  8069.600  0.500  0.728054  131.07  63.2867  20.084
  8070.089  8070.100  0.500  0.735839  129.147  61.8749  19.3294
  8070.591  8070.600  0.500  0.745767  131.471  62.3657  19.0771
  8071.087  8071.100  0.500  0.757181  134.301  62.9854  18.7815
  8071.586  8071.600  0.500  0.770818  134.966  62.4398  18.0493
  8072.088  8072.100  0.500  0.786518  135.012  61.4882  17.1103
  8072.593  8072.600  0.500  0.804226  135.006  60.4063  16.0726
  8073.097  8073.100  0.500  0.823247  134.984  59.2585  15.0102
  8073.591  8073.600  0.500  0.841520  134.939  58.1661  14.0356
  8074.096  8074.100  0.500  0.857925  134.919  57.2113  13.2186
  8074.590  8074.600  0.500  0.871319  134.912  56.447  12.6059
  8075.089  8075.100  0.500  0.881472  134.874  55.8613  12.16
  8075.591  8075.600  0.500  0.888441  134.811  55.4471  11.8472
  8076.088  8076.100  0.500  0.892898  134.79  55.1923  11.6378
  8076.591  8076.600  0.500  0.894510  134.72  55.0747  11.5178
  8077.099  8077.100  0.500  0.893578  134.626  55.0873  11.4981
  8077.596  8077.600  0.500  0.890036  134.469  55.2183  11.5907
  8078.101  8078.100  0.500  0.884097  134.039  55.3698  11.7883
  8078.598  8078.600  0.500  0.876080  132.154  55.0303  11.9733
  8079.092  8079.100  0.500  0.866047  129.181  54.3351  12.1678
  8079.595  8079.600  0.500  0.854932  130.176  55.3653  12.8069
  8080.092  8080.100  0.500  0.843932  133.203  57.2796  13.6727
  8080.593  8080.600  0.500  0.833127  134.69  58.548  14.4003
  8081.101  8081.100  0.500  0.822549  134.815  59.2256  14.9869
  8081.599  8081.600  0.500  0.813306  134.84  59.7868  15.5038
  8082.102  8082.100  0.500  0.805234  134.801  60.2537  15.9551
  8082.599  8082.600  0.500  0.798199  134.79  60.6743  16.3381
  8083.105  8083.100  0.500  0.792857  134.787  60.9977  16.6481
  8083.603  8083.600  0.500  0.788189  134.757  61.2695  16.9049
  8084.092  8084.100  0.500  0.784190  134.746  61.5101  17.1232
  8084.587  8084.600  0.500  0.780771  134.728  61.7124  17.3083
  8085.097  8085.100  0.500  0.777860  134.703  61.8808  17.4711
  8085.600  8085.600  0.500  0.775317  134.665  62.021  17.605
  8086.104  8086.100  0.500  0.773082  134.632  62.1446  17.7182
  8086.599  8086.600  0.500  0.771054  134.609  62.2601  17.8201
  8087.103  8087.100  0.500  0.769464  134.571  62.3415  17.9057
  8087.604  8087.600  0.500  0.768293  134.546  62.403  17.9718
  8088.102  8088.100  0.500  0.767342  134.488  62.4354  18.0213
  8088.600  8088.600  0.500  0.766522  134.427  62.4584  18.056
  8089.090  8089.100  0.500  0.765716  134.352  62.4739  18.0799
  8089.600  8089.600  0.500  0.765306  134.221  62.4384  18.0811
  8090.096  8090.100  0.500  0.765078  133.886  62.2968  18.0404
  8090.603  8090.600  0.500  0.765247  132.689  61.7293  17.8697
  8091.104  8091.100  0.500  0.765274  129.276  60.1401  17.3973
  8091.606  8091.600  0.500  0.765532  129.018  60.0045  17.3405
  8092.102  8092.100  0.500  0.765732  131.632  61.2082  17.6668
  8092.604  8092.600  0.500  0.766235  134.263  62.3999  17.9937
  8093.100  8093.100  0.500  0.766564  134.692  62.5789  18.035
  8093.596  8093.600  0.500  0.766824  134.71  62.571  18.0273
  8094.098  8094.100  0.500  0.767150  134.683  62.5378  18.0172
  8094.600  8094.600  0.500  0.767380  134.668  62.5167  18.016
  8095.107  8095.100  0.500  0.767654  134.602  62.4689  18.0144
  8095.598  8095.600  0.500  0.767660  134.622  62.4776  18.0349
  8096.103  8096.100  0.500  0.767591  134.6  62.4721  18.0554
  8097.093  8097.090  0.500  0.767063  134.568  62.4902  18.1097
  8098.095  8098.090  0.500  0.766430  134.517  62.5058  18.1639
  8099.125  8099.110  0.500  0.765806  134.484  62.5295  18.2039
  8100.175  8100.160  0.500  0.765509  134.452  62.5334  18.2067
  8101.234  8101.220  0.500  0.765848  134.428  62.5007  18.1627
  8102.305  8102.300  0.500  0.766705  134.382  62.4259  18.0783
  8103.409  8103.400  0.500  0.767752  134.367  62.3536  17.9775
  8104.536  8104.520  0.500  0.769214  134.351  62.2553  17.8567
  8105.669  8105.660  0.500  0.770523  134.309  62.1545  17.7308
  8106.814  8106.810  0.500  0.772551  134.288  62.0185  17.5871
  8108.004  8107.990  0.500  0.774239  134.259  61.9006  17.4376
  8109.194  8109.180  0.500  0.775916  134.244  61.7903  17.2877
  8110.411  8110.400  0.500  0.777510  134.213  61.6774  17.1497
  8111.635  8111.630  0.500  0.778787  134.179  61.583  17.0455
  8112.889  8112.880  0.500  0.779411  134.15  61.5315  16.9974
  8114.160  8114.150  0.500  0.779039  134.131  61.5454  17.0171
  8115.442  8115.440  0.500  0.777802  134.097  61.6062  17.0847
  8116.765  8116.750  0.500  0.775904  134.036  61.695  17.189
  8118.087  8118.080  0.500  0.773433  134.046  61.8525  17.3291
  8119.436  8119.430  0.500  0.770454  133.986  62.0091  17.4666
  8120.802  8120.800  0.500  0.767613  133.954  62.1708  17.6012
  8122.194  8122.180  0.500  0.765033  133.912  62.3116  17.7205
  8123.595  8123.590  0.500  0.762736  133.859  62.4304  17.818
  8125.022  8125.010  0.500  0.760988  133.858  62.5391  17.9046
  8126.461  8126.450  0.500  0.759212  133.8  62.6229  17.9794
  8127.922  8127.910  0.500  0.757777  133.75  62.6896  18.048
  8129.402  8129.390  0.500  0.756724  133.687  62.726  18.1036
  8130.907  8130.890  0.500  0.755746  133.67  62.7793  18.1564
  8132.419  8132.410  0.500  0.755213  133.636  62.7971  18.1949
  8133.959  8133.950  0.500  0.754609  133.605  62.8203  18.2282
  8135.523  8135.510  0.500  0.754117  133.544  62.8225  18.2553
  8137.085  8137.080  0.500  0.753671  133.509  62.834  18.2832
  8138.701  8138.680  0.500  0.753697  133.469  62.8136  18.296
  8140.297  8140.290  0.500  0.753428  133.418  62.8068  18.306
  8141.932  8141.930  0.500  0.752979  133.364  62.8091  18.3134
  8143.587  8143.580  0.500  0.752594  133.307  62.8068  18.3116
  8145.257  8145.250  0.500  0.752347  133.283  62.811  18.3037
  8146.950  8146.940  0.500  0.751879  133.234  62.8172  18.2881
  8148.658  8148.650  0.500  0.751542  133.173  62.8094  18.2619
  8150.387  8150.380  0.500  0.751169  133.104  62.8006  18.2294
  8152.148  8152.130  0.500  0.750996  133.05  62.7856  18.1955
  8153.901  8153.890  0.500  0.750429  133.032  62.8131  18.1769
  8155.698  8155.680  0.500  0.749948  132.986  62.8215  18.1552
  8157.487  8157.480  0.500  0.749492  132.914  62.8161  18.1433
  8159.328  8159.310  0.500  0.749021  132.874  62.8267  18.1364
  8161.156  8161.150  0.500  0.748536  132.841  62.8417  18.1422
  8163.027  8163.010  0.500  0.748037  132.775  62.8419  18.1517
  8164.905  8164.890  0.500  0.747427  132.734  62.8606  18.1695
  8166.798  8166.790  0.500  0.746792  132.696  62.8824  18.1901
  8168.721  8168.710  0.500  0.746249  132.636  62.8883  18.2071
  8170.658  8170.650  0.500  0.745595  132.595  62.9098  18.2261
  8172.634  8172.610  0.500  0.744998  132.568  62.9347  18.2474
  8174.585  8174.580  0.500  0.744213  132.486  62.9454  18.2647
  8176.598  8176.580  0.500  0.743497  132.428  62.9626  18.2893
  8178.599  8178.590  0.500  0.742680  132.368  62.9856  18.3115
  8180.640  8180.620  0.500  0.741711  132.317  63.0226  18.3406
  8182.686  8182.680  0.500  0.740751  132.475  63.1583  18.3973
  8184.774  8184.750  0.500  0.739749  132.801  63.377  18.4758
  8186.846  8186.840  0.500  0.738582  132.734  63.4193  18.5011
  8188.963  8188.950  0.500  0.737411  132.699  63.4767  18.5328
  8191.097  8191.080  0.500  0.736108  132.638  63.53  18.5679
  8193.238  8193.220  0.500  0.734940  132.574  63.5737  18.611
  8195.401  8195.390  0.500  0.733420  132.507  63.6381  18.6679
  8197.597  8197.580  0.500  0.732008  132.457  63.7042  18.7351
  8199.793  8199.780  0.500  0.730870  132.404  63.7513  18.7971
  8202.020  8202.000  0.500  0.729647  132.296  63.777  18.8521
  8204.262  8204.250  0.500  0.728608  132.293  63.8418  18.9218
  8206.535  8206.510  0.500  0.727683  132.227  63.8694  18.9678
  8208.800  8208.790  0.500  0.726865  132.153  63.8855  18.9957
  8211.107  8211.090  0.500  0.725997  132.094  63.9125  19.0096
  8213.418  8213.410  0.500  0.725217  132.06  63.9462  19.0157
  8215.768  8215.750  0.500  0.724593  131.969  63.9418  19.0069
  8218.114  8218.100  0.500  0.723835  131.884  63.9489  19.0036
  8220.501  8220.480  0.500  0.723227  131.871  63.9815  19.0135
  8222.888  8222.870  0.500  0.722711  131.746  63.954  19.0063
  8225.313  8225.290  0.500  0.722079  131.746  63.9942  19.0167
  8227.739  8227.720  0.500  0.721440  131.682  64.0041  19.0125
  8230.176  8230.170  0.500  0.720694  131.628  64.0255  19.0042
  8232.664  8232.650  0.500  0.719988  131.555  64.0354  18.9938
  8235.150  8235.140  0.500  0.719049  131.506  64.0718  18.9957
  8237.670  8237.650  0.500  0.717777  131.445  64.1236  19.0116
  8240.183  8240.170  0.500  0.716763  131.369  64.1515  19.0356
  8242.729  8242.720  0.500  0.715473  131.301  64.2009  19.082
  8245.303  8245.290  0.500  0.714197  131.236  64.2512  19.1393
  8247.879  8247.870  0.500  0.713122  131.176  64.2907  19.2018
  8250.501  8250.480  0.500  0.712046  131.094  64.3196  19.2553
  8253.106  8253.100  0.500  0.710837  131.017  64.3601  19.3043
  8255.760  8255.750  0.500  0.709644  130.967  64.4122  19.3486
  8258.418  8258.410  0.500  0.708669  130.908  64.4458  19.3828
  8261.093  8261.090  0.500  0.707613  130.827  64.4742  19.41
  8263.805  8263.790  0.500  0.706738  130.772  64.5033  19.4304
  8266.516  8266.510  0.500  0.705633  130.693  64.5355  19.4496
  8269.270  8269.250  0.500  0.704933  130.651  64.5599  19.4675
  8272.002  8272.000  0.500  0.703881  130.561  64.5835  19.4821
  8274.791  8274.780  0.500  0.702903  130.491  64.6121  19.5037
  8277.577  8277.570  0.500  0.701738  130.131  64.5088  19.4826
  8280.400  8280.390  0.500  0.700514  130.242  64.643  19.5365
  8283.239  8283.220  0.500  0.699320  130.239  64.7187  19.5764
  8286.078  8286.070  0.500  0.697997  130.181  64.7756  19.6202
  8288.957  8288.950  0.500  0.696775  130.114  64.8211  19.6694
  8291.853  8291.840  0.500  0.695606  130.017  64.849  19.7171
  8294.760  8294.750  0.500  0.694356  129.958  64.9005  19.7673
  8297.680  8297.670  0.500  0.693369  129.884  64.9277  19.81
  8300.626  8300.620  0.500  0.692175  129.833  64.9797  19.8564
  8303.599  8303.590  0.500  0.691028  129.761  65.018  19.8943
  8306.588  8306.570  0.500  0.689745  129.696  65.069  19.9277
  8309.585  8309.580  0.500  0.688407  129.636  65.126  19.958
  8312.614  8312.600  0.500  0.687110  129.558  65.1714  19.9846
  8315.663  8315.650  0.500  0.685809  129.457  65.2053  20.0075
  8318.721  8318.710  0.500  0.684721  129.405  65.2501  20.0316
  8321.804  8321.790  0.500  0.683612  129.3  65.2695  20.0491
  8324.896  8324.890  0.500  0.682718  129.241  65.2982  20.0709
  8328.023  8328.010  0.500  0.681613  129.155  65.3267  20.0916
  8331.170  8331.150  0.500  0.680474  129.049  65.3475  20.113
  8334.313  8334.300  0.500  0.679435  128.819  65.2986  20.1137
  8337.492  8337.480  0.500  0.678155  128.723  65.3337  20.1447
  8340.683  8340.670  0.500  0.676871  128.602  65.3561  20.1794
  8343.896  8343.890  0.500  0.675542  128.468  65.3751  20.2082
  8347.142  8347.120  0.500  0.674560  128.327  65.3671  20.2323
  8350.388  8350.370  0.500  0.673097  128.113  65.3536  20.2595
  8353.663  8353.650  0.500  0.671922  127.88  65.3116  20.2767
  8356.959  8356.940  0.500  0.670860  127.819  65.3497  20.3188
  8360.264  8360.250  0.500  0.669718  127.761  65.3947  20.3656
  8363.595  8363.570  0.500  0.668245  127.722  65.4715  20.4241
  8366.941  8366.920  0.500  0.666692  127.578  65.4992  20.4644
  8370.308  8370.290  0.500  0.665449  127.582  65.5825  20.5183
  8373.692  8373.670  0.500  0.664203  127.506  65.6253  20.5532
  8377.098  8377.080  0.500  0.662612  127.465  65.7087  20.5986
  8380.521  8380.500  0.500  0.661321  127.389  65.754  20.634
  8383.969  8383.950  0.500  0.660044  127.263  65.7731  20.6584
  8387.428  8387.410  0.500  0.658832  127.138  65.7881  20.6833
  8390.915  8390.890  0.500  0.657480  127.03  65.8214  20.715
  8394.404  8394.390  0.500  0.656069  126.929  65.8619  20.7546
  8397.933  8397.910  0.500  0.654839  126.826  65.8896  20.7948
  8401.474  8401.450  0.500  0.653457  126.75  65.9408  20.8406
  8405.024  8405.000  0.500  0.652018  126.662  65.9903  20.8879
  8408.604  8408.580  0.500  0.650544  126.576  66.0427  20.9346
  8412.203  8412.180  0.500  0.649167  126.479  66.0826  20.9771
  8415.817  8415.790  0.500  0.648086  126.383  66.104  21.0087
  8419.434  8419.420  0.500  0.646715  126.298  66.1502  21.0456
  8423.097  8423.080  0.500  0.645267  126.199  66.1945  21.0842
  8426.778  8426.750  0.500  0.643932  126.112  66.2369  21.1235
  8430.466  8430.440  0.500  0.642471  126.025  66.2883  21.1659
  8434.173  8434.150  0.500  0.641005  125.936  66.3383  21.2135
  8437.907  8437.880  0.500  0.639491  125.808  66.3713  21.2536
  8441.645  8441.620  0.500  0.638152  125.714  66.4105  21.2925
  8445.410  8445.390  0.500  0.636775  125.588  66.4354  21.3246
  8449.204  8449.180  0.500  0.635452  125.477  66.4648  21.3586
  8452.998  8452.980  0.500  0.633904  125.394  66.5237  21.4013
  8456.835  8456.810  0.500  0.632464  125.281  66.5597  21.4352
  8460.667  8460.650  0.500  0.631110  125.166  66.5886  21.4691
  8464.533  8464.510  0.500  0.629640  125.06  66.6297  21.5096
  8468.406  8468.390  0.500  0.628470  124.937  66.6423  21.5429
  8472.329  8472.290  0.500  0.626821  124.829  66.6946  21.5912
  8476.258  8476.210  0.500  0.625532  124.7  66.7119  21.6302
  8480.164  8480.150  0.500  0.623981  124.617  66.7708  21.6806
  8484.122  8484.110  0.500  0.622367  124.512  66.8221  21.732
  8488.103  8488.080  0.500  0.620882  124.372  66.8464  21.7739
  8492.110  8492.080  0.500  0.619311  124.24  66.8801  21.8199
  8496.098  8496.090  0.500  0.617877  124.118  66.9108  21.8581
  8500.156  8500.130  0.500  0.616472  124  66.941  21.9044
  8504.202  8504.180  0.500  0.615047  123.883  66.9732  21.9524
  8508.299  8508.250  0.500  0.613459  123.713  66.9874  21.9914
  8512.359  8512.340  0.500  0.611855  123.582  67.0241  22.0385
  8516.473  8516.450  0.500  0.610458  123.426  67.0328  22.0764
  8520.601  8520.580  0.500  0.608886  123.215  67.0236  22.1017
  8524.757  8524.730  0.500  0.607399  122.963  66.9859  22.1157
  8528.918  8528.890  0.500  0.605907  120.768  65.8885  21.7788
  8533.105  8533.080  0.500  0.604455  122.515  66.9388  22.1466
  8537.321  8537.280  0.500  0.602825  123.083  67.3588  22.3113
  8541.535  8541.510  0.500  0.601337  122.932  67.3763  22.3472
  8545.773  8545.750  0.500  0.599849  122.77  67.3878  22.3814
  8550.036  8550.010  0.500  0.598264  122.621  67.4129  22.425
  8554.313  8554.290  0.500  0.596688  122.512  67.459  22.4751
  8558.614  8558.590  0.500  0.595004  122.369  67.4941  22.5209
  8562.944  8562.910  0.500  0.593497  122.252  67.5313  22.5709
  8567.295  8567.250  0.500  0.591853  122.067  67.5398  22.6084
  8571.637  8571.610  0.500  0.590504  121.942  67.5619  22.6541
  8576.022  8575.990  0.500  0.588939  121.806  67.5921  22.698
  8580.405  8580.380  0.500  0.587382  121.645  67.6081  22.7391
  8584.796  8584.800  0.500  0.585778  121.518  67.6457  22.7878
  8589.252  8589.230  0.500  0.584220  121.187  67.5664  22.7973
  8593.710  8593.680  0.500  0.582637  108.839  60.7781  20.5395
  8598.168  8598.150  0.500  0.581164  120.499  67.3886  22.8136
  8602.651  8602.640  0.500  0.579660  120.519  67.5012  22.8852
  8607.167  8607.150  0.500  0.577928  120.192  67.4347  22.8924
  8611.685  8611.680  0.500  0.576403  119.507  67.1526  22.8249
  8616.240  8616.230  0.500  0.574880  113.593  63.9268  21.7565