File: xdidata/As/As-K-Orpiment.xdi
# XDI/1.0 BlueSky/1.5.3
# Beamline.name: 6BM
# Beamline.xray_source: NSLS-II three-pole wiggler
# Beamline.collimation: paraboloid mirror, 5 nm Rh on 30 nm Pt
# Beamline.focusing: not in use
# Beamline.harmonic_rejection: flat mirror, Pt stripe, pitch = 7.0 mrad relative to beam
# Detector.i0: 10 cm N2
# Detector.i1: 25 cm N2
# Detector.i2: 25 cm N2
# Element.symbol: As
# Element.edge: K
# Facility.name: NSLS-II
# Facility.energy: 3.0
# Facility.current: 400.0
# Facility.mode: top-off
# Facility.gup: 301027
# Facility.saf: 304793
# Mono.name: Si(111)
# Mono.d_spacing: 3.13532
# Mono.encoder_resolution: 0.0000050 deg/ct
# Mono.angle_offset: 16.0581 deg
# Mono.scan_mode: pseudo channel cut
# Mono.scan_type: step
# Mono.direction: forward in energy
# Sample.name: As2S3
# Sample.prep: Powder in polyethylene glycol pellet
# Sample.x_position: -54.942 mm
# Sample.y_position: 110.034 mm
# Sample.wheel_position: -150.484 mm
# Scan.experimenters: Bruce Ravel
# Scan.edge_energy: 11867.0
# Scan.start_time: 2019-10-19T09:48:11
# Scan.end_time: 2019-10-19T10:23:41
# Scan.transient_id: 15434
# Scan.uid: 8a00cd32-dea6-44c2-8355-135f13b4f384
# Scan.plot_hint: ln(I0/It)  --  ln($5/$6)
# Scan.sequence: merge of 3 scans
# Column.1: energy eV
# Column.2: requested_energy eV
# Column.3: measurement_time seconds
# Column.4: mutrans
# Column.5: i0
# Column.6: itrans
# Column.7: irefer
# /////
#  prepped by Sarah, 1/2 degree away from previous run for better alignment
# -----
# energy   requested_energy   measurement_time   mutrans   i0   itrans   irefer
11667 11667 1.000000 -0.291505 91.0434 121.856 80.711
11677.1 11677 1.000000 -0.292406 90.6801 121.479 80.5474
11687.1 11687 1.000000 -0.293331 90.6292 121.524 80.6487
11697.1 11697 1.000000 -0.294270 90.2379 121.113 80.4507
11707.1 11707 1.000000 -0.295148 89.9926 120.889 80.378
11717 11717 1.000000 -0.296069 89.6394 120.526 80.2065
11727 11727 1.000000 -0.296900 89.2763 120.137 80.0289
11737 11737 1.000000 -0.297854 89.0007 119.881 79.9216
11747 11747 1.000000 -0.298721 88.6128 119.462 79.7127
11757 11757 1.000000 -0.299573 88.3274 119.179 79.5902
11767 11767 1.000000 -0.300432 87.8796 118.676 79.319
11777 11777 1.000000 -0.301269 87.7918 118.657 79.3606
11787 11787 1.000000 -0.302162 87.4167 118.256 79.1358
11797 11797 1.000000 -0.302998 87.1353 117.974 78.9847
11807 11807 1.000000 -0.303700 86.8001 117.602 78.7624
11817 11817 1.000000 -0.304419 86.4432 117.203 78.485
11827 11827 1.000000 -0.305110 85.6563 116.216 77.7476
11837 11837 1.000000 -0.305504 85.7996 116.457 77.7249
11839 11839 1.000000 -0.305550 85.7301 116.368 77.5949
11841 11841 1.000000 -0.305529 85.6571 116.266 77.4473
11843 11843 1.000000 -0.305516 85.6246 116.22 77.3185
11845 11845 1.000000 -0.305394 85.3626 115.851 76.9477
11847 11847 1.000000 -0.305242 85.3308 115.79 76.761
11849 11849 1.000000 -0.305048 85.369 115.819 76.5851
11851 11851 1.000000 -0.304695 85.3037 115.69 76.2432
11853 11853 1.000000 -0.304155 85.1244 115.384 75.714
11855 11855 1.000000 -0.303345 85.0085 115.134 75.0992
11857 11857 1.000000 -0.301986 84.7888 114.681 74.1529
11857.3 11857.3 1.000000 -0.301744 84.6696 114.492 73.9219
11857.6 11857.6 1.000000 -0.301507 84.6775 114.474 73.7705
11857.9 11857.9 1.000000 -0.301110 84.5851 114.305 73.5342
11858.2 11858.2 1.000000 -0.300787 84.6251 114.321 73.3934
11858.5 11858.5 1.000000 -0.300465 84.5674 114.206 73.1647
11858.8 11858.8 1.000000 -0.300083 84.6435 114.267 73.0532
11859.1 11859.1 1.000000 -0.299674 84.7928 114.419 72.9699
11859.4 11859.4 1.000000 -0.299148 84.8574 114.447 72.8102
11859.7 11859.7 1.000000 -0.298720 84.8826 114.43 72.5912
11860 11860 1.000000 -0.298150 84.8097 114.268 72.2788
11860.3 11860.3 1.000000 -0.297422 84.7938 114.162 71.9757
11860.6 11860.6 1.000000 -0.296775 84.9204 114.262 71.7962
11860.9 11860.9 1.000000 -0.296018 84.9817 114.256 71.5054
11861.2 11861.2 1.000000 -0.295123 85.035 114.222 71.1821
11861.5 11861.5 1.000000 -0.294139 85.0314 114.109 70.796
11861.8 11861.8 1.000000 -0.293022 85.1306 114.117 70.4473
11862.1 11862.1 1.000000 -0.291736 84.9747 113.763 69.8443
11862.4 11862.4 1.000000 -0.290348 84.992 113.629 69.3462
11862.7 11862.7 1.000000 -0.288658 85.048 113.516 68.8166
11863 11863 1.000000 -0.286616 84.9932 113.206 68.09
11863.3 11863.3 1.000000 -0.284384 84.9036 112.834 67.3039
11863.6 11863.6 1.000000 -0.281721 84.9876 112.649 66.5813
11863.9 11863.9 1.000000 -0.278618 84.9957 112.307 65.6798
11864.2 11864.2 1.000000 -0.275059 84.9918 111.917 64.7203
11864.5 11864.5 1.000000 -0.270417 84.8759 111.227 63.4311
11864.8 11864.8 1.000000 -0.265070 84.9242 110.7 62.1984
11865.1 11865.1 1.000000 -0.258371 84.931 109.97 60.7541
11865.4 11865.4 1.000000 -0.250171 84.8598 108.988 59.069
11865.7 11865.7 1.000000 -0.239709 84.8381 107.834 57.1549
11866 11866 1.000000 -0.226831 84.8211 106.384 54.928
11866.3 11866.3 1.000000 -0.209740 84.8271 104.578 52.3095
11866.6 11866.6 1.000000 -0.189863 84.8182 102.502 49.5162
11866.9 11866.9 1.000000 -0.166012 84.7474 100.083 46.4229
11867.2 11867.2 1.000000 -0.138977 84.7728 97.3764 42.9099
11867.5 11867.5 1.000000 -0.111206 84.7576 94.8054 39.5042
11867.8 11867.8 1.000000 -0.084443 84.6409 92.1015 35.7353
11868.1 11868.1 1.000000 -0.062280 84.6255 90.0922 32.2579
11868.4 11868.4 1.000000 -0.048266 84.5049 88.7004 29.0694
11868.7 11868.7 1.000000 -0.043042 84.4575 88.1742 26.2425
11869 11869 1.000000 -0.046491 84.4809 88.4945 24.0744
11869.3 11869.3 1.000000 -0.056753 84.5243 89.4683 22.33
11869.6 11869.6 1.000000 -0.071285 84.5457 90.7916 21.1787
11869.9 11869.9 1.000000 -0.087117 84.6369 92.3406 20.5873
11870.2 11870.2 1.000000 -0.103497 84.6565 93.907 20.4459
11870.5 11870.5 1.000000 -0.118263 84.7113 95.3753 20.7152
11870.8 11870.8 1.000000 -0.133300 84.6887 96.7732 21.3064
11871.1 11871.1 1.000000 -0.146522 84.6776 98.0815 22.1405
11871.4 11871.4 1.000000 -0.158862 84.6736 99.2522 23.076
11871.7 11871.7 1.000000 -0.170346 84.6435 100.378 24.1273
11872 11872 1.000000 -0.180375 84.6328 101.38 25.1378
11872.3 11872.3 1.000000 -0.189544 84.5709 102.235 26.1058
11872.6 11872.6 1.000000 -0.196620 84.5736 102.954 26.932
11872.9 11872.9 1.000000 -0.202111 84.5984 103.532 27.665
11873.2 11873.2 1.000000 -0.205466 84.6197 103.919 28.2968
11873.5 11873.5 1.000000 -0.206953 84.5579 103.992 28.8024
11873.8 11873.8 1.000000 -0.206834 84.503 103.92 29.3091
11874.1 11874.1 1.000000 -0.205254 84.5101 103.774 29.7938
11874.4 11874.4 1.000000 -0.202840 84.6081 103.641 30.3722
11874.7 11874.7 1.000000 -0.200004 84.5564 103.288 30.8889
11875 11875 1.000000 -0.196970 84.4588 102.859 31.4403
11875.3 11875.3 1.000000 -0.194217 84.4289 102.529 32.0407
11875.6 11875.6 1.000000 -0.191566 84.4534 102.29 32.6584
11875.9 11875.9 1.000000 -0.189511 84.4166 102.028 33.2336
11876.2 11876.2 1.000000 -0.187894 84.4042 101.856 33.7608
11876.5 11876.5 1.000000 -0.186709 84.3574 101.671 34.2621
11876.8 11876.8 1.000000 -0.185921 84.3966 101.64 34.697
11877.1 11877.1 1.000000 -0.185626 84.3994 101.615 35.0296
11877.4 11877.4 1.000000 -0.185759 84.3097 101.52 35.2271
11877.7 11877.7 1.000000 -0.186141 84.2605 101.5 35.349
11878 11878 1.000000 -0.186786 84.3273 101.65 35.4068
11878.3 11878.3 1.000000 -0.187596 84.3726 101.784 35.3297
11878.6 11878.6 1.000000 -0.188491 84.297 101.787 35.074
11878.9 11878.9 1.000000 -0.189487 84.28 101.861 34.7468
11879.2 11879.2 1.000000 -0.190469 84.2275 101.9 34.2802
11879.5 11879.5 1.000000 -0.191356 84.1813 101.932 33.7737
11879.8 11879.8 1.000000 -0.192315 84.2353 102.095 33.2963
11880.1 11880.1 1.000000 -0.193202 84.207 102.147 32.8468
11880.4 11880.4 1.000000 -0.193999 84.0677 102.063 32.3956
11880.7 11880.7 1.000000 -0.194677 83.9624 102.005 32.0803
11881 11881 1.000000 -0.195249 83.8158 101.885 31.859
11881.3 11881.3 1.000000 -0.195759 83.6446 101.73 31.7352
11881.6 11881.6 1.000000 -0.196109 83.4138 101.485 31.6849
11881.9 11881.9 1.000000 -0.196440 83.243 101.312 31.7442
11882.2 11882.2 1.000000 -0.196746 83.2382 101.336 31.9163
11882.5 11882.5 1.000000 -0.196932 83.2058 101.317 32.1187
11882.8 11882.8 1.000000 -0.197131 83.3077 101.46 32.3812
11883.1 11883.1 1.000000 -0.197193 83.5182 101.723 32.6975
11883.4 11883.4 1.000000 -0.197283 83.7439 102.007 32.9895
11883.7 11883.7 1.000000 -0.197378 83.7953 102.08 33.1913
11884 11884 1.000000 -0.197476 83.9498 102.278 33.396
11884.3 11884.3 1.000000 -0.197532 84.0281 102.38 33.552
11884.6 11884.6 1.000000 -0.197698 84.1308 102.521 33.6934
11884.9 11884.9 1.000000 -0.197833 84.1097 102.51 33.7771
11885.2 11885.2 1.000000 -0.197954 84.0995 102.51 33.8513
11885.5 11885.5 1.000000 -0.198108 84.1164 102.546 33.9313
11885.8 11885.8 1.000000 -0.198246 84.1129 102.556 34.0105
11886.1 11886.1 1.000000 -0.198406 84.159 102.628 34.1132
11886.4 11886.4 1.000000 -0.198603 84.2043 102.704 34.2371
11886.7 11886.7 1.000000 -0.198790 84.1728 102.684 34.3432
11887 11887 1.000000 -0.198995 84.1285 102.651 34.4703
11887.3 11887.3 1.000000 -0.199214 84.1079 102.648 34.6306
11887.6 11887.6 1.000000 -0.199547 84.1303 102.709 34.8287
11887.9 11887.9 1.000000 -0.199753 84.2758 102.909 35.0848
11888.2 11888.2 1.000000 -0.200083 84.2509 102.912 35.2682
11888.5 11888.5 1.000000 -0.200363 84.2475 102.936 35.4414
11888.8 11888.8 1.000000 -0.200696 84.1762 102.884 35.5728
11889.1 11889.1 1.000000 -0.201000 84.2144 102.962 35.7227
11889.4 11889.4 1.000000 -0.201427 84.1821 102.967 35.8255
11889.7 11889.7 1.000000 -0.201677 84.1639 102.971 35.9249
11890 11890 1.000000 -0.202054 84.0811 102.908 35.9893
11890.3 11890.3 1.000000 -0.202371 84.0708 102.929 36.0991
11890.6 11890.6 1.000000 -0.202666 84.1943 103.11 36.2813
11890.9 11890.9 1.000000 -0.202981 84.0839 103.008 36.4013
11891.2 11891.2 1.000000 -0.203341 84.0607 103.017 36.5758
11891.5 11891.5 1.000000 -0.203664 84.0469 103.033 36.7856
11891.8 11891.8 1.000000 -0.203960 83.9773 102.977 36.98
11892.1 11892.1 1.000000 -0.204180 84.0563 103.097 37.2515
11892.4 11892.4 1.000000 -0.204484 84.0853 103.164 37.4832
11892.7 11892.7 1.000000 -0.204729 83.9885 103.07 37.6411
11893 11893 1.000000 -0.205055 83.8835 102.974 37.7693
11893.3 11893.3 1.000000 -0.205310 83.8905 103.009 37.9134
11893.6 11893.6 1.000000 -0.205548 84.0519 103.232 38.1007
11893.9 11893.9 1.000000 -0.205828 83.9302 103.111 38.1251
11894.2 11894.2 1.000000 -0.206139 83.8881 103.092 38.1587
11894.5 11894.5 1.000000 -0.206365 83.9518 103.193 38.2204
11894.8 11894.8 1.000000 -0.206685 83.8988 103.161 38.2189
11895.1 11895.1 1.000000 -0.206958 83.7648 103.024 38.1639
11895.4 11895.4 1.000000 -0.207203 83.8125 103.108 38.1944
11895.7 11895.7 1.000000 -0.207451 83.8842 103.221 38.2321
11896 11896 1.000000 -0.207753 83.8518 103.213 38.2294
11896.3 11896.3 1.000000 -0.208020 83.8151 103.197 38.2264
11896.6 11896.6 1.000000 -0.208274 83.8022 103.207 38.2394
11896.9 11896.9 1.000000 -0.208550 83.7717 103.198 38.2509
11897 11897 1.000000 -0.208620 83.8078 103.249 38.2724
11898.1 11898.1 1.000000 -0.209631 83.7266 103.254 38.3463
11899.2 11899.2 1.000000 -0.210435 83.5317 103.096 38.3697
11900.3 11900.3 1.000000 -0.211334 82.8458 102.342 38.1917
11901.5 11901.4 1.000000 -0.211988 82.7976 102.349 38.3319
11902.6 11902.6 1.000000 -0.212423 83.3811 103.115 38.8079
11903.8 11903.8 1.000000 -0.212606 83.4948 103.274 39.0347
11905 11905 1.000000 -0.212754 83.4464 103.23 39.1328
11906.2 11906.2 1.000000 -0.212647 83.4481 103.221 39.2426
11907.4 11907.4 1.000000 -0.212327 83.4468 103.186 39.3113
11908.6 11908.6 1.000000 -0.211776 83.3591 103.021 39.2006
11909.9 11909.9 1.000000 -0.210897 83.3103 102.87 38.9452
11911.2 11911.2 1.000000 -0.209575 83.2477 102.657 38.5564
11912.5 11912.5 1.000000 -0.208138 83.1019 102.33 38.0884
11913.9 11913.8 1.000000 -0.206597 82.4406 101.359 37.4264
11915.2 11915.2 1.000000 -0.205213 82.555 101.359 37.1875
11916.6 11916.5 1.000000 -0.204128 82.9147 101.69 37.1644
11918 11917.9 1.000000 -0.203165 83.0365 101.742 37.087
11919.4 11919.3 1.000000 -0.202468 82.9719 101.593 36.9513
11920.8 11920.8 1.000000 -0.201932 82.8812 101.427 36.7613
11922.2 11922.2 1.000000 -0.201525 82.9087 101.42 36.5562
11923.7 11923.6 1.000000 -0.201331 82.8937 101.381 36.2854
11925.2 11925.1 1.000000 -0.201126 82.8175 101.267 35.9856
11926.7 11926.6 1.000000 -0.201119 82.7151 101.141 35.7269
11928.1 11928.1 1.000000 -0.201113 82.7479 101.181 35.591
11929.7 11929.7 1.000000 -0.201293 82.7235 101.169 35.5078
11931.3 11931.2 1.000000 -0.201482 82.4694 100.878 35.3193
11932.8 11932.8 1.000000 -0.201912 81.6789 99.9535 34.889
11934.4 11934.4 1.000000 -0.202633 82.3543 100.852 35.1393
11936 11936 1.000000 -0.203382 82.604 101.234 35.2747
11937.7 11937.6 1.000000 -0.204178 82.5365 101.233 35.2678
11939.3 11939.3 1.000000 -0.205113 82.4574 101.23 35.2241
11941 11941 1.000000 -0.206162 82.4703 101.352 35.1889
11942.7 11942.6 1.000000 -0.207155 82.3219 101.27 35.091
11944.4 11944.4 1.000000 -0.208156 82.3905 101.456 35.116
11946.1 11946.1 1.000000 -0.209190 82.36 101.523 35.1543
11947.9 11947.8 1.000000 -0.210159 82.2646 101.505 35.2308
11949.6 11949.6 1.000000 -0.211097 82.2569 101.59 35.4142
11951.4 11951.4 1.000000 -0.211926 82.1046 101.485 35.5423
11953.2 11953.2 1.000000 -0.212571 82.1098 101.558 35.7013
11955 11955 1.000000 -0.213108 82.1798 101.699 35.8414
11956.9 11956.8 1.000000 -0.213541 81.9986 101.519 35.8512
11958.7 11958.7 1.000000 -0.213840 81.9051 101.433 35.9084
11960.6 11960.6 1.000000 -0.213929 81.8184 101.335 35.9825
11962.5 11962.5 1.000000 -0.213941 81.8768 101.408 36.1104
11964.4 11964.4 1.000000 -0.213797 81.829 101.335 36.1598
11966.3 11966.3 1.000000 -0.213605 81.7385 101.203 36.1712
11968.3 11968.3 1.000000 -0.213269 81.6325 101.038 36.1837
11970.3 11970.3 1.000000 -0.212893 81.6782 101.056 36.265
11972.3 11972.3 1.000000 -0.212471 81.7091 101.052 36.3275
11974.3 11974.3 1.000000 -0.212029 81.6183 100.895 36.332
11976.3 11976.3 1.000000 -0.211678 81.5059 100.721 36.3311
11978.4 11978.4 1.000000 -0.211288 81.513 100.69 36.3989
11980.4 11980.4 1.000000 -0.210969 81.4269 100.552 36.4472
11982.5 11982.5 1.000000 -0.210658 81.5345 100.654 36.5954
11984.6 11984.6 1.000000 -0.210329 81.4395 100.503 36.6394
11986.8 11986.7 1.000000 -0.210011 81.3514 100.362 36.6632
11988.9 11988.9 1.000000 -0.209713 81.2869 100.253 36.6676
11991 11991 1.000000 -0.209546 81.2638 100.208 36.6781
11993.3 11993.2 1.000000 -0.209449 81.163 100.074 36.6512
11995.5 11995.4 1.000000 -0.209538 81.1891 100.115 36.6748
11997.7 11997.7 1.000000 -0.209785 81.1405 100.08 36.6408
11999.9 11999.9 1.000000 -0.210238 81.0244 99.9819 36.5564
12002.2 12002.2 1.000000 -0.210920 80.8882 99.8825 36.4498
12004.5 12004.4 1.000000 -0.211677 80.8697 99.9348 36.392
12006.8 12006.7 1.000000 -0.212485 80.7488 99.8656 36.2793
12009.1 12009 1.000000 -0.213402 80.6549 99.8413 36.1754
12011.4 12011.4 1.000000 -0.214223 80.7293 100.016 36.1529
12013.8 12013.7 1.000000 -0.215073 80.533 99.8573 36.0299
12016.1 12016.1 1.000000 -0.215846 80.403 99.7724 35.948
12018.5 12018.5 1.000000 -0.216636 80.3953 99.8417 35.9264
12020.9 12020.9 1.000000 -0.217269 80.3832 99.8901 35.9008
12023.4 12023.4 1.000000 -0.217926 80.2604 99.803 35.8305
12025.8 12025.8 1.000000 -0.218449 80.1282 99.6906 35.7631
12028.3 12028.3 1.000000 -0.218745 80.0338 99.603 35.7124
12030.8 12030.8 1.000000 -0.219004 80.019 99.6103 35.6931
12033.3 12033.3 1.000000 -0.219290 79.867 99.4498 35.6183
12035.8 12035.8 1.000000 -0.219358 79.8404 99.4233 35.6218
12038.4 12038.3 1.000000 -0.219418 79.6803 99.2299 35.5873
12040.9 12040.9 1.000000 -0.219413 79.6565 99.1998 35.6122
12043.5 12043.5 1.000000 -0.219511 79.2867 98.7483 35.5112
12046.1 12046.1 1.000000 -0.219398 77.3945 96.3814 34.6972
12048.7 12048.7 1.000000 -0.219335 79.266 98.7058 35.613
12051.4 12051.4 1.000000 -0.219297 79.184 98.5998 35.641
12054 12054 1.000000 -0.219203 79.1993 98.6097 35.7107
12056.7 12056.7 1.000000 -0.219234 79.217 98.6348 35.7729
12059.4 12059.4 1.000000 -0.219283 79.0687 98.4552 35.7549
12062.2 12062.1 1.000000 -0.219427 79.0078 98.3933 35.7593
12064.9 12064.8 1.000000 -0.219496 78.9759 98.3607 35.7717
12067.6 12067.6 1.000000 -0.219714 78.8318 98.2023 35.7195
12071.1 12070.4 1.000000 -0.219888 78.7331 98.0983 35.6886
12073.2 12073.2 1.000000 -0.220010 78.7197 98.0917 35.7028
12076 12076 1.000000 -0.220217 78.6562 98.033 35.7131
12078.8 12078.8 1.000000 -0.220365 78.5272 97.8866 35.6968
12081.7 12081.7 1.000000 -0.220634 78.49 97.8665 35.7293
12084.6 12084.5 1.000000 -0.220781 78.4213 97.7952 35.7494
12087.4 12087.4 1.000000 -0.221170 78.0459 97.365 35.6292
12090.3 12090.3 1.000000 -0.221430 78.2307 97.621 35.753
12093.3 12093.2 1.000000 -0.221793 78.3097 97.7549 35.8288
12096.2 12096.2 1.000000 -0.222277 78.0953 97.5345 35.7655
12099.2 12099.2 1.000000 -0.222704 78.0042 97.4622 35.756
12102.1 12102.1 1.000000 -0.223216 77.9663 97.4647 35.7766
12105.2 12105.1 1.000000 -0.223752 77.8501 97.3718 35.7816
12108.2 12108.2 1.000000 -0.224323 77.7897 97.3519 35.8192
12111.2 12111.2 1.000000 -0.224916 77.8074 97.4316 35.8869
12114.3 12114.3 1.000000 -0.225586 77.6897 97.3495 35.9013
12117.4 12117.4 1.000000 -0.226067 77.5092 97.17 35.8737
12120.5 12120.5 1.000000 -0.226504 77.4762 97.171 35.902
12123.6 12123.6 1.000000 -0.227065 77.4066 97.1383 35.9068
12126.7 12126.7 1.000000 -0.227485 77.4162 97.1912 35.9321
12129.9 12129.9 1.000000 -0.227914 77.0788 96.8092 35.7896
12133 12133 1.000000 -0.228185 77.1664 96.9454 35.8444
12136.2 12136.2 1.000000 -0.228415 77.1041 96.8894 35.8065
12139.4 12139.4 1.000000 -0.228687 77.0529 96.8515 35.7655
12142.7 12142.7 1.000000 -0.228869 76.9371 96.7236 35.6818
12145.9 12145.9 1.000000 -0.229010 76.7901 96.5523 35.5839
12149.2 12149.2 1.000000 -0.229119 76.8102 96.5881 35.5595
12152.5 12152.5 1.000000 -0.229133 76.6902 96.4386 35.479
12155.8 12155.8 1.000000 -0.229396 76.5575 96.297 35.4072
12159.1 12159.1 1.000000 -0.229441 76.3865 96.0863 35.3321
12162.5 12162.5 1.000000 -0.229569 76.4364 96.1614 35.3841
12165.8 12165.8 1.000000 -0.229694 76.3224 96.0299 35.3705
12169.2 12169.2 1.000000 -0.229934 76.197 95.8952 35.3662
12172.6 12172.6 1.000000 -0.230162 76.1596 95.8701 35.4128
12176.1 12176 1.000000 -0.230468 76.0555 95.7684 35.4367
12179.5 12179.5 1.000000 -0.230851 75.9396 95.659 35.4622
12182.9 12182.9 1.000000 -0.231197 75.8885 95.6277 35.5212
12186.4 12186.4 1.000000 -0.231591 75.7717 95.5179 35.5375
12189.9 12189.9 1.000000 -0.232045 75.616 95.3649 35.5355
12193.4 12193.4 1.000000 -0.232518 75.6583 95.4635 35.6149
12197 12197 1.000000 -0.232987 75.5188 95.3321 35.5983
12200.5 12200.5 1.000000 -0.233529 75.1408 94.9065 35.4618
12204.1 12204.1 1.000000 -0.233975 75.2669 95.1082 35.5532
12207.7 12207.7 1.000000 -0.234440 75.2161 95.0882 35.556
12211.3 12211.3 1.000000 -0.234904 75.1269 95.0194 35.5358
12214.9 12214.9 1.000000 -0.235249 74.9462 94.8235 35.4693
12218.6 12218.6 1.000000 -0.235749 74.9839 94.9187 35.5029
12222.3 12222.2 1.000000 -0.236147 74.893 94.8416 35.4767
12225.9 12225.9 1.000000 -0.236505 74.8134 94.7747 35.4631
12229.7 12229.6 1.000000 -0.236952 74.4053 94.2998 35.3019
12233.4 12233.4 1.000000 -0.237383 73.7817 93.5497 35.0262
12237.1 12237.1 1.000000 -0.237696 74.588 94.6016 35.472
12240.9 12240.9 1.000000 -0.238091 74.6167 94.6755 35.5375
12244.7 12244.7 1.000000 -0.238473 74.4744 94.5311 35.5328
12248.5 12248.5 1.000000 -0.238855 74.2993 94.3447 35.5175
12252.3 12252.3 1.000000 -0.239155 74.0849 94.1007 35.4779
12256.1 12256.1 1.000000 -0.239640 74.2847 94.4002 35.6433
12260 12260 1.000000 -0.239945 74.1883 94.3067 35.6575
12263.9 12263.9 1.000000 -0.240261 72.1946 91.8012 34.7642
12267.8 12267.8 1.000000 -0.240602 73.634 93.6634 35.4947
12271.7 12271.7 1.000000 -0.240903 73.7481 93.837 35.5911
12275.6 12275.6 1.000000 -0.241320 73.5834 93.6662 35.5463
12279.6 12279.6 1.000000 -0.241603 73.5296 93.6244 35.543
12283.6 12283.5 1.000000 -0.241921 73.4546 93.5587 35.5284
12287.6 12287.5 1.000000 -0.242256 71.4395 91.0225 34.5567
12291.6 12291.5 1.000000 -0.242573 72.9639 92.9942 35.3086
12295.6 12295.6 1.000000 -0.242878 72.9758 93.0378 35.324
12299.6 12299.6 1.000000 -0.243320 72.8652 92.9377 35.279
12303.7 12303.7 1.000000 -0.243617 72.7275 92.7896 35.2233
12307.8 12307.8 1.000000 -0.244015 72.6096 92.6761 35.1841
12311.9 12311.9 1.000000 -0.244388 72.5364 92.6173 35.1692
12316.1 12316 1.000000 -0.244808 72.2136 92.244 35.0444
12320.2 12320.2 1.000000 -0.245266 70.9385 90.6565 34.4451
12324.4 12324.3 1.000000 -0.245662 72.2366 92.3521 35.1397
12328.5 12328.5 1.000000 -0.246150 72.0722 92.187 35.1114
12332.7 12332.7 1.000000 -0.246551 71.9919 92.121 35.1314
12337 12336.9 1.000000 -0.247078 71.8457 91.9825 35.1206
12341.2 12341.2 1.000000 -0.247509 71.7004 91.836 35.1173
12345.4 12345.4 1.000000 -0.247957 71.5758 91.7174 35.1193
12349.7 12349.7 1.000000 -0.248431 71.5471 91.7244 35.1712
12354 12354 1.000000 -0.248929 71.3894 91.5676 35.1554
12358.3 12358.3 1.000000 -0.249333 71.3266 91.524 35.1784
12362.7 12362.7 1.000000 -0.249809 71.1204 91.303 35.1303
12367 12367 1.000000 -0.250263 70.9959 91.1845 35.1136
12371.4 12371.4 1.000000 -0.250616 70.6849 90.8172 34.9956
12375.8 12375.8 1.000000 -0.251001 70.7735 90.9659 35.0731
12380.2 12380.2 1.000000 -0.251482 70.0875 90.1275 34.7659
12384.7 12384.6 1.000000 -0.251806 70.6133 90.8332 35.0547
12389.1 12389.1 1.000000 -0.252146 70.4303 90.6284 34.9922
12393.6 12393.6 1.000000 -0.252617 70.2861 90.4857 34.9517
12398.1 12398 1.000000 -0.252970 70.2148 90.4257 34.9456
12402.6 12402.6 1.000000 -0.253363 70.0651 90.2683 34.902
12407.1 12407.1 1.000000 -0.253750 69.9513 90.1567 34.8843
12411.7 12411.6 1.000000 -0.254159 69.8203 90.0246 34.8629
12416.2 12416.2 1.000000 -0.254514 69.7102 89.9146 34.8573
12420.8 12420.8 1.000000 -0.254926 69.6043 89.815 34.8556
12425.4 12425.4 1.000000 -0.255316 69.4655 89.6709 34.8412
12430 12430 1.000000 -0.255808 69.221 89.3993 34.7763
12434.7 12434.6 1.000000 -0.256190 69.1099 89.2897 34.7752
12439.3 12439.3 1.000000 -0.256620 68.944 89.1138 34.7428
12444 12444 1.000000 -0.257064 69.0155 89.2459 34.8385
12448.7 12448.7 1.000000 -0.257513 68.7884 88.9921 34.7759
12453.4 12453.4 1.000000 -0.257917 68.5888 88.7696 34.719
12458.1 12458.1 1.000000 -0.258338 68.5925 88.8119 34.764
12462.9 12462.9 1.000000 -0.258768 68.3824 88.5779 34.6977
12467.7 12467.7 1.000000 -0.259168 68.316 88.5273 34.6954
12472.5 12472.5 1.000000 -0.259662 68.2365 88.468 34.6873
12477.3 12477.3 1.000000 -0.260127 68.0143 88.2209 34.6061
12482.1 12482.1 1.000000 -0.260523 67.8828 88.0852 34.5618
12487 12487 1.000000 -0.260989 67.7868 88.0016 34.5401
12491.8 12491.8 1.000000 -0.261442 67.7337 87.9726 34.5476
12496.7 12496.7 1.000000 -0.261919 67.5257 87.7443 34.4767
12501.7 12501.6 1.000000 -0.262337 67.3969 87.6135 34.4441
12506.6 12506.5 1.000000 -0.262824 67.2515 87.4671 34.4076
12511.5 12511.5 1.000000 -0.263355 67.2048 87.4527 34.4304
12516.5 12516.5 1.000000 -0.263744 67.0363 87.2675 34.3898
12521.5 12521.4 1.000000 -0.264194 66.8473 87.0604 34.3424
12526.5 12526.4 1.000000 -0.264644 66.8021 87.0409 34.3735
12531.5 12531.5 1.000000 -0.265045 66.6168 86.8343 34.3324
12536.5 12536.5 1.000000 -0.265500 66.4268 86.626 34.2914
12541.6 12541.6 1.000000 -0.265944 66.3317 86.5404 34.291
12546.7 12546.6 1.000000 -0.266445 66.2737 86.508 34.3158
12551.8 12551.7 1.000000 -0.266810 66.1129 86.3296 34.2877
12556.9 12556.9 1.000000 -0.267248 66.0122 86.2359 34.2833
12562 12562 1.000000 -0.267711 65.8878 86.1133 34.2648
12567.2 12567.1 1.000000 -0.268051 65.6886 85.8822 34.2054
12572.4 12572.3 1.000000 -0.268494 65.5472 85.7352 34.1722
12577.5 12577.5 1.000000 -0.268939 65.4474 85.6428 34.1615
12582.8 12582.7 1.000000 -0.269430 65.3327 85.5347 34.1393
12588 12588 1.000000 -0.269826 65.2145 85.4138 34.1134
12593.2 12593.2 1.000000 -0.270265 65.0016 85.1723 34.0442
12598.5 12598.5 1.000000 -0.270715 64.8635 85.0296 34.0099
12603.8 12603.8 1.000000 -0.271162 64.7823 84.9611 34.0064
12609.1 12609.1 1.000000 -0.271689 64.6182 84.7906 33.9625
12614.4 12614.4 1.000000 -0.272092 64.5096 84.6821 33.9496
12619.8 12619.8 1.000000 -0.272560 64.3088 84.4582 33.8868
12625.1 12625.1 1.000000 -0.273035 64.3438 84.5444 33.9529
12630.5 12630.5 1.000000 -0.273522 64.1621 84.3465 33.9104
12635.9 12635.9 1.000000 -0.273940 64.0233 84.1995 33.8836
12641.4 12641.3 1.000000 -0.274487 63.9351 84.1292 33.8868
12646.8 12646.8 1.000000 -0.275012 63.8374 84.0449 33.8898
12652.2 12652.2 1.000000 -0.275342 63.756 83.9653 33.8941
12657.7 12657.7 1.000000 -0.275873 63.6098 83.8174 33.8596
12663.2 12663.2 1.000000 -0.276403 63.4291 83.6236 33.8158
12668.8 12668.7 1.000000 -0.276797 63.2841 83.4652 33.7811
12674.3 12674.3 1.000000 -0.277267 63.2301 83.4333 33.7976
12679.8 12679.8 1.000000 -0.277685 63.147 83.3584 33.794
12685.4 12685.4 1.000000 -0.278140 62.9509 83.1375 33.7318
12691 12691 1.000000 -0.278759 62.7965 82.9848 33.6879
12696.6 12696.6 1.000000 -0.279104 62.7344 82.9315 33.6942
12702.2 12702.2 1.000000 -0.279586 62.5764 82.7623 33.6466
12707.9 12707.9 1.000000 -0.280083 62.3712 82.532 33.5759
12713.6 12713.5 1.000000 -0.280513 62.2653 82.4273 33.5582
12719.3 12719.2 1.000000 -0.280924 62.091 82.2304 33.5049
12725 12724.9 1.000000 -0.281443 61.9442 82.0786 33.4652
12730.7 12730.7 1.000000 -0.281909 61.8203 81.9525 33.4434
12736.4 12736.4 1.000000 -0.282388 60.9157 80.7921 32.9906
12742.2 12742.2 1.000000 -0.282782 61.5575 81.6753 33.3921
12748 12748 1.000000 -0.283270 61.4466 81.5681 33.3814
12753.8 12753.8 1.000000 -0.283690 61.2714 81.3697 33.3355
12759.6 12759.6 1.000000 -0.284164 61.1903 81.3004 33.3407
12765.5 12765.4 1.000000 -0.284673 60.982 81.0651 33.2785
12771.3 12771.3 1.000000 -0.285167 60.8331 80.907 33.2464
12777.2 12777.2 1.000000 -0.285626 60.7331 80.8111 33.2384
12783.1 12783.1 1.000000 -0.286103 60.6027 80.6761 33.218
12789 12789 1.000000 -0.286589 60.4342 80.491 33.1719
12795 12794.9 1.000000 -0.287068 60.2831 80.3281 33.1361
12800.9 12800.9 1.000000 -0.287529 60.0918 80.1101 33.0738
12806.9 12806.9 1.000000 -0.288011 59.9774 79.9961 33.0588
12812.9 12812.8 1.000000 -0.288462 59.8788 79.9008 33.0447
12818.9 12818.9 1.000000 -0.288988 59.6424 79.627 32.9593
12824.9 12824.9 1.000000 -0.289495 59.432 79.3865 32.8875
12831 12830.9 1.000000 -0.289902 59.4313 79.4179 32.9273
12837 12837 1.000000 -0.290397 59.2428 79.2051 32.869