File: xdidata/As/As-K-TetramethylArsoniumIodide.xdi
# XDI/1.0 BlueSky/1.10.0 BMM/2023-1.0-py310-tiled
# Beamline.name: BMM (06BM) -- Beamline for Materials Measurement (NIST)
# Beamline.xray_source: NSLS-II three-pole wiggler
# Beamline.collimation: paraboloid mirror, 5 nm Rh on 30 nm Pt
# Beamline.focusing: not in use
# Beamline.harmonic_rejection: flat mirror, Pt stripe, pitch = 7.0 mrad relative to beam
# Beamline.software: Bluesky 1.10.0, Ophyd 1.7.0, DataBroker 2.0.0b13, Python 3.10.8, 2023-1.0-py310-tiled
# Detector.I0: 10 cm N2
# Detector.I1: 25 cm N2
# Detector.I2: 25 cm N2
# Element.symbol: As
# Element.edge: K
# Element.reference: As
# Element.reference_material: As2O3
# Facility.name: NSLS-II
# Facility.energy: 3.0
# Facility.current: 399.7
# Facility.mode: top-off
# Facility.GUP: 301027
# Facility.SAF: 310583
# Facility.cycle: 2023-2
# Mono.name: Si(111)
# Mono.d_spacing: 3.13519
# Mono.encoder_resolution: 0.0000050 deg/ct
# Mono.angle_offset: 16.0754 deg
# Mono.scan_mode: pseudo channel cut
# Mono.scan_type: step
# Mono.direction: forward in energy
# Sample.name: C4H12AsI
# Sample.prep: powder in PEG pellet
# Sample.x: 115.008 mm
# Sample.y: 114.461 mm
# Sample.SDD_position: 170.000 mm
# Scan.experimenters: Bruce Ravel
# Scan.edge_energy: 11866.7
# Scan.start_time: 2023-07-10T17:02:20
# Scan.end_time: 2023-07-10T17:10:10
# Scan.transient_id: 90306
# Scan.uid: f37bdedf-bfbd-4e35-8347-3f3cc45809e7
# Scan.plot_hint: ln(I0/It)  --  ln($5/$6)
# Column.1: energy eV
# Column.2: requested_energy eV
# Column.3: measurement_time seconds
# Column.4: xmu
# Column.5: I0 nA
# Column.6: It nA
# Column.7: Ir nA
# ///////////
# sample courtesy Evan Jahrman, NIST
# -----------
# energy  requested_energy  measurement_time  xmu  I0  It  Ir
  11666.701  11666.700  0.500  0.398612  64.9306  43.5848  29.5399
  11676.721  11676.700  0.500  0.396272  64.8318  43.6203  29.5866
  11686.770  11686.700  0.500  0.393989  64.6889  43.6237  29.6159
  11696.754  11696.700  0.500  0.391879  64.5588  43.628  29.6495
  11706.743  11706.700  0.500  0.389508  64.4361  43.6484  29.6899
  11716.731  11716.700  0.500  0.387158  64.3067  43.6632  29.725
  11726.737  11726.700  0.500  0.384842  64.154  43.6605  29.7477
  11736.778  11736.700  0.500  0.382986  63.8585  43.5401  29.6922
  11746.704  11746.700  0.500  0.380207  63.6684  43.5313  29.7109
  11756.738  11756.700  0.500  0.378146  63.6389  43.601  29.782
  11766.753  11766.700  0.500  0.376139  63.6035  43.6642  29.8458
  11776.749  11776.700  0.500  0.373599  63.2838  43.5552  29.7958
  11786.732  11786.700  0.500  0.371831  63.3495  43.6776  29.8956
  11796.768  11796.700  0.500  0.369805  63.2168  43.6745  29.9134
  11806.695  11806.700  0.500  0.368080  62.8338  43.4849  29.7934
  11816.705  11816.700  0.500  0.365869  62.9132  43.6362  29.9036
  11826.720  11826.700  0.500  0.364182  62.7716  43.6115  29.879
  11836.704  11836.700  0.500  0.362875  62.6699  43.5978  29.828
  11838.668  11838.700  0.500  0.362780  62.6361  43.5784  29.8058
  11840.662  11840.700  0.500  0.362610  62.6115  43.5687  29.7796
  11842.664  11842.700  0.500  0.362488  62.5881  43.5577  29.7534
  11844.666  11844.700  0.500  0.362461  62.5627  43.5412  29.7164
  11846.662  11846.700  0.500  0.362459  62.5303  43.5187  29.6692
  11848.660  11848.700  0.500  0.362479  62.3358  43.3825  29.5405
  11850.664  11850.700  0.500  0.363073  62.4689  43.4494  29.5383
  11852.669  11852.700  0.500  0.363376  62.452  43.4244  29.4568
  11854.662  11854.700  0.500  0.364026  62.404  43.3629  29.3307
  11856.668  11856.700  0.500  0.365110  62.2233  43.1904  29.1041
  11856.962  11857.000  0.500  0.365397  62.2615  43.2045  29.095
  11857.243  11857.300  0.500  0.365597  62.2902  43.2158  29.083
  11857.561  11857.600  0.500  0.365791  62.326  43.2323  29.0687
  11857.849  11857.900  0.500  0.365918  62.3457  43.2405  29.0539
  11858.167  11858.200  0.500  0.366198  62.3508  43.2319  29.0237
  11858.455  11858.500  0.500  0.366208  62.3269  43.2149  28.9846
  11858.767  11858.800  0.500  0.366336  62.2738  43.1726  28.9278
  11859.061  11859.100  0.500  0.366617  62.2414  43.1379  28.8814
  11859.367  11859.400  0.500  0.366820  62.3284  43.1895  28.88
  11859.660  11859.700  0.500  0.367311  62.2581  43.1196  28.8013
  11859.954  11860.000  0.500  0.367782  62.2144  43.069  28.7333
  11860.266  11860.300  0.500  0.368313  62.1884  43.0282  28.6665
  11860.554  11860.600  0.500  0.368858  62.1966  43.0104  28.6214
  11860.866  11860.900  0.500  0.369390  62.2398  43.0174  28.5781
  11861.148  11861.200  0.500  0.369962  62.2813  43.0215  28.5394
  11861.460  11861.500  0.500  0.370515  62.3394  43.0378  28.5008
  11861.760  11861.800  0.500  0.371013  62.3791  43.0438  28.4555
  11862.054  11862.100  0.500  0.371374  62.3831  43.031  28.3956
  11862.366  11862.400  0.500  0.371754  62.3491  42.9912  28.3105
  11862.660  11862.700  0.500  0.372407  62.3069  42.934  28.2187
  11862.973  11863.000  0.500  0.373051  62.2803  42.8881  28.1193
  11863.273  11863.300  0.500  0.373965  62.2721  42.8432  28.0232
  11863.579  11863.600  0.500  0.375027  62.2938  42.8127  27.9266
  11863.879  11863.900  0.500  0.375931  62.3286  42.7979  27.8338
  11864.179  11864.200  0.500  0.377006  62.3793  42.7867  27.7421
  11864.498  11864.500  0.500  0.377974  62.4066  42.764  27.6225
  11864.786  11864.800  0.500  0.379083  62.4283  42.7315  27.5009
  11865.086  11865.100  0.500  0.380489  62.4498  42.6861  27.3575
  11865.380  11865.400  0.500  0.381625  62.447  42.6358  27.1944
  11865.699  11865.700  0.500  0.383273  62.4566  42.5721  27.0057
  11865.987  11866.000  0.500  0.384924  62.4448  42.4939  26.8103
  11866.293  11866.300  0.500  0.386969  62.4356  42.4008  26.5777
  11866.581  11866.600  0.500  0.388967  62.4325  42.3141  26.3371
  11866.893  11866.900  0.500  0.391495  62.4343  42.2084  26.0521
  11867.188  11867.200  0.500  0.394205  62.4259  42.0886  25.7446
  11867.470  11867.500  0.500  0.397141  62.4164  41.9587  25.4105
  11867.788  11867.800  0.500  0.400875  62.4145  41.8011  25.0094
  11868.070  11868.100  0.500  0.404548  62.4021  41.6396  24.6035
  11868.383  11868.400  0.500  0.409167  62.4013  41.4472  24.1129
  11868.671  11868.700  0.500  0.414212  62.3951  41.2345  23.594
  11868.990  11869.000  0.500  0.420744  62.3892  40.9621  22.9544
  11869.290  11869.300  0.500  0.427753  62.3848  40.6732  22.2766
  11869.590  11869.600  0.500  0.436311  62.3743  40.3198  21.5095
  11869.891  11869.900  0.500  0.446848  62.3599  39.8879  20.6174
  11870.191  11870.200  0.500  0.459169  62.3344  39.3834  19.6622
  11870.498  11870.500  0.500  0.475475  62.2949  38.7219  18.5364
  11870.805  11870.800  0.500  0.494709  62.2382  37.9496  17.3817
  11871.105  11871.100  0.500  0.519589  62.1909  36.989  16.1259
  11871.406  11871.400  0.500  0.552047  62.1735  35.7976  14.7931
  11871.700  11871.700  0.500  0.590078  62.1765  34.4634  13.5303
  11872.013  11872.000  0.500  0.641938  62.2177  32.7434  12.1631
  11872.301  11872.300  0.500  0.698254  62.2524  30.9676  10.978
  11872.595  11872.600  0.500  0.762883  62.2975  29.0506  9.881393
  11872.896  11872.900  0.500  0.837225  62.307  26.9733  8.858551
  11873.184  11873.200  0.500  0.907146  62.3332  25.1623  8.079343
  11873.491  11873.500  0.500  0.976112  62.3379  23.4872  7.447826
  11873.779  11873.800  0.500  1.025683  62.3303  22.3486  7.083903
  11874.086  11874.100  0.500  1.058635  62.3281  21.6234  6.921762
  11874.381  11874.400  0.500  1.066997  62.3203  21.4407  6.973846
  11874.688  11874.700  0.500  1.053858  62.3164  21.7229  7.200753
  11875.007  11875.000  0.500  1.021558  62.313  22.4348  7.590980
  11875.283  11875.300  0.500  0.984752  62.306  23.2733  8.000724
  11875.596  11875.600  0.500  0.939723  62.2955  24.3411  8.496241
  11875.897  11875.900  0.500  0.898508  62.304  25.3687  8.964259
  11876.203  11876.200  0.500  0.861188  62.2869  26.3262  9.408081
  11876.510  11876.500  0.500  0.831357  62.2863  27.1231  9.795704
  11876.799  11876.800  0.500  0.808337  62.2791  27.7515  10.1289
  11877.112  11877.100  0.500  0.790241  62.2692  28.2537  10.4428
  11877.413  11877.400  0.500  0.779092  62.2666  28.5693  10.6959
  11877.714  11877.700  0.500  0.771416  62.2597  28.7863  10.9345
  11878.002  11878.000  0.500  0.766918  62.2559  28.9143  11.1469
  11878.303  11878.300  0.500  0.764618  62.2519  28.979  11.3485
  11878.604  11878.600  0.500  0.763849  62.251  29.0009  11.5292
  11878.880  11878.900  0.500  0.763870  62.2439  28.9969  11.6871
  11879.212  11879.200  0.500  0.764243  62.2348  28.9819  11.8462
  11879.476  11879.500  0.500  0.764593  62.2321  28.9705  11.9694
  11879.783  11879.800  0.500  0.764741  62.2281  28.9644  12.0841
  11880.090  11880.100  0.500  0.764771  62.2226  28.9609  12.17
  11880.391  11880.400  0.500  0.765185  62.2123  28.9441  12.2318
  11880.692  11880.700  0.500  0.766005  62.2165  28.9224  12.2567
  11880.999  11881.000  0.500  0.767590  62.2026  28.8701  12.2452
  11881.306  11881.300  0.500  0.770472  62.1991  28.7854  12.1867
  11881.601  11881.600  0.500  0.774248  62.1952  28.6751  12.0898
  11881.908  11881.900  0.500  0.779147  62.1851  28.5303  11.952
  11882.197  11882.200  0.500  0.784822  62.1823  28.3676  11.7896
  11882.517  11882.500  0.500  0.791544  62.1665  28.1704  11.5941
  11882.799  11882.800  0.500  0.797440  62.16  28.0019  11.4214
  11883.107  11883.100  0.500  0.803536  62.1462  27.8255  11.2443
  11883.395  11883.400  0.500  0.808137  62.1381  27.6942  11.1071
  11883.709  11883.700  0.500  0.811820  62.1085  27.5792  10.9901
  11883.998  11884.000  0.500  0.813466  62.0704  27.517  10.9272
  11884.305  11884.300  0.500  0.813124  61.9708  27.4822  10.8939
  11884.588  11884.600  0.500  0.811227  61.8257  27.4699  10.8917
  11884.907  11884.900  0.500  0.807992  61.66  27.4851  10.9191
  11885.190  11885.200  0.500  0.804500  61.5332  27.5245  10.9672
  11885.485  11885.500  0.500  0.800468  61.449  27.5979  11.042
  11885.793  11885.800  0.500  0.796024  61.427  27.7109  11.1364
  11886.094  11886.100  0.500  0.791454  61.4665  27.8557  11.2439
  11886.389  11886.400  0.500  0.786749  61.5437  28.0222  11.356
  11886.684  11886.700  0.500  0.782277  61.6434  28.1934  11.4648
  11887.004  11887.000  0.500  0.777723  61.7705  28.3805  11.5725
  11887.293  11887.300  0.500  0.773079  61.8825  28.5643  11.6779
  11887.600  11887.600  0.500  0.768285  61.9502  28.733  11.7671
  11887.896  11887.900  0.500  0.763847  61.9975  28.8828  11.8488
  11888.209  11888.200  0.500  0.759172  62.0125  29.0252  11.9259
  11888.511  11888.500  0.500  0.754789  62.0206  29.1565  11.9967
  11888.818  11888.800  0.500  0.750567  62.0282  29.2834  12.0663
  11889.101  11889.100  0.500  0.746712  62.0225  29.3938  12.1306
  11889.409  11889.400  0.500  0.742794  62.03  29.5128  12.2039
  11889.704  11889.700  0.500  0.739112  62.0314  29.6223  12.2746
  11890.006  11890.000  0.500  0.735536  62.0202  29.7231  12.3516
  11890.301  11890.300  0.500  0.731981  62.0151  29.8265  12.4309
  11890.615  11890.600  0.500  0.728690  62.01  29.9223  12.5136
  11890.898  11890.900  0.500  0.725249  62.003  30.0221  12.5957
  11891.199  11891.200  0.500  0.722312  62.0029  30.1104  12.6759
  11891.495  11891.500  0.500  0.719145  62.0023  30.2056  12.7542
  11891.679  11891.700  0.500  0.717235  61.9961  30.2603  12.7993
  11892.707  11892.690  0.500  0.707417  61.9799  30.5509  13.0145
  11893.698  11893.690  0.500  0.698286  61.9695  30.8259  13.223
  11894.726  11894.710  0.500  0.689956  61.9515  31.0748  13.4813
  11895.786  11895.760  0.500  0.682680  61.9344  31.293  13.7514
  11896.839  11896.820  0.500  0.675941  61.9185  31.4965  13.9432
  11897.905  11897.900  0.500  0.668533  61.8947  31.7186  14.0675
  11898.995  11899.000  0.500  0.661021  61.8744  31.9472  14.1742
  11900.141  11900.120  0.500  0.653687  61.8367  32.1628  14.2857
  11901.288  11901.260  0.500  0.647337  61.6078  32.2479  14.352
  11902.447  11902.410  0.500  0.643671  61.1715  32.1371  14.3297
  11903.624  11903.590  0.500  0.642657  61.4437  32.3128  14.4443
  11904.796  11904.780  0.500  0.641012  61.7648  32.5352  14.595
  11906.005  11906.000  0.500  0.640858  61.797  32.5571  14.658
  11907.258  11907.230  0.500  0.641963  61.787  32.5159  14.6811
  11908.511  11908.480  0.500  0.643595  61.765  32.4513  14.6825
  11909.788  11909.750  0.500  0.645671  61.7483  32.3753  14.6823
  11911.048  11911.040  0.500  0.646952  61.7399  32.3294  14.665
  11912.351  11912.350  0.500  0.647721  61.7169  32.2925  14.6161
  11913.697  11913.680  0.500  0.648361  61.6901  32.2579  14.535
  11915.038  11915.030  0.500  0.649193  61.658  32.2143  14.4269
  11916.428  11916.400  0.500  0.650834  61.4325  32.0439  14.2655
  11917.788  11917.780  0.500  0.655144  60.9817  31.6719  14.0352
  11919.204  11919.190  0.500  0.661111  61.3787  31.6884  13.9958
  11920.626  11920.610  0.500  0.666014  61.6028  31.6486  13.9473
  11922.074  11922.050  0.500  0.671797  61.5953  31.4623  13.8451
  11923.527  11923.510  0.500  0.676992  61.5819  31.2925  13.7315
  11924.988  11924.990  0.500  0.681278  61.5663  31.1507  13.6194
  11926.498  11926.490  0.500  0.684344  61.5451  31.0447  13.5109
  11928.021  11928.010  0.500  0.686360  61.5279  30.9734  13.4129
  11929.564  11929.550  0.500  0.687414  61.4952  30.9244  13.3351
  11931.131  11931.110  0.500  0.688020  61.4746  30.8953  13.2789
  11932.686  11932.680  0.500  0.688788  61.4495  30.859  13.2441
  11934.292  11934.280  0.500  0.688662  61.1991  30.7371  13.1675
  11935.903  11935.890  0.500  0.690111  60.7631  30.4739  13.0276
  11937.553  11937.530  0.500  0.690525  61.2754  30.7182  13.1185
  11939.191  11939.180  0.500  0.690069  61.3392  30.7642  13.1368
  11940.841  11940.850  0.500  0.689845  61.3331  30.768  13.135
  11942.536  11942.540  0.500  0.689682  61.3072  30.76  13.1183
  11944.268  11944.250  0.500  0.689257  61.2832  30.761  13.0995
  11945.994  11945.980  0.500  0.688447  61.2628  30.7757  13.0889
  11947.728  11947.730  0.500  0.687178  61.238  30.8023  13.0935
  11949.493  11949.490  0.500  0.685493  61.2157  30.843  13.117
  11951.295  11951.280  0.500  0.683576  61.1926  30.8905  13.1656
  11953.098  11953.080  0.500  0.681386  61.1699  30.9468  13.2288
  11954.902  11954.910  0.500  0.678954  61.1376  31.0058  13.2951
  11956.744  11956.750  0.500  0.676501  61.1125  31.0691  13.3501
  11958.623  11958.610  0.500  0.673927  61.0869  31.1362  13.401
  11960.503  11960.490  0.500  0.671176  61.0551  31.2057  13.45
  11962.390  11962.390  0.500  0.668858  61.0346  31.2676  13.5008
  11964.303  11964.310  0.500  0.666585  61.0061  31.3241  13.5544
  11966.260  11966.250  0.500  0.664345  60.9728  31.3773  13.6011
  11968.205  11968.210  0.500  0.662509  60.944  31.42  13.6384
  11970.169  11970.180  0.500  0.660807  60.9227  31.4626  13.675
  11972.190  11972.180  0.500  0.659360  60.8923  31.4924  13.7063
  11974.212  11974.190  0.500  0.658261  60.8601  31.5104  13.7341
  11976.222  11976.220  0.500  0.657456  60.8346  31.5225  13.7561
  11978.245  11978.280  0.500  0.656763  60.7992  31.526  13.7751
  11980.325  11980.350  0.500  0.656327  60.7661  31.5226  13.7944
  11982.425  11982.440  0.500  0.655815  60.7378  31.5241  13.8194
  11984.519  11984.550  0.500  0.655622  60.7171  31.5194  13.8448
  11986.657  11986.680  0.500  0.655250  60.6714  31.5074  13.8699
  11988.884  11988.820  0.500  0.655269  60.6367  31.4888  13.8857
  11990.949  11990.990  0.500  0.655254  60.611  31.4759  13.8945
  11993.222  11993.180  0.500  0.655303  60.5802  31.4584  13.8963
  11995.476  11995.380  0.500  0.655263  60.5417  31.4396  13.8942
  11997.650  11997.600  0.500  0.655587  60.5089  31.4124  13.8872
  11999.856  11999.850  0.500  0.655812  60.4798  31.3903  13.8744
  12002.107  12002.110  0.500  0.656217  60.4646  31.3697  13.8591
  12004.396  12004.390  0.500  0.656281  60.4253  31.3473  13.8306
  12006.674  12006.690  0.500  0.656496  60.395  31.3248  13.8049
  12009.002  12009.010  0.500  0.656557  60.3627  31.3061  13.7735
  12011.357  12011.350  0.500  0.656807  60.3396  31.2863  13.7455
  12013.719  12013.700  0.500  0.656554  60.4169  31.3343  13.7432
  12016.088  12016.080  0.500  0.656649  60.4253  31.3358  13.7268
  12018.458  12018.470  0.500  0.656341  60.3971  31.3308  13.7117
  12020.892  12020.890  0.500  0.656081  60.359  31.3191  13.6938
  12023.321  12023.320  0.500  0.655842  60.3281  31.3106  13.6802
  12025.788  12025.770  0.500  0.655504  60.2965  31.3048  13.6685
  12028.263  12028.250  0.500  0.655029  60.2651  31.3033  13.6584
  12030.739  12030.740  0.500  0.654551  60.2294  31.2997  13.653
  12033.241  12033.250  0.500  0.654188  60.2036  31.2977  13.6462
  12035.775  12035.770  0.500  0.653459  60.1549  31.2952  13.6398
  12038.330  12038.320  0.500  0.652920  60.1207  31.2943  13.6399
  12040.905  12040.890  0.500  0.652468  60.0832  31.2888  13.6469
  12043.468  12043.470  0.500  0.651641  60.0478  31.2963  13.6565
  12046.076  12046.080  0.500  0.650793  59.8942  31.2427  13.6502
  12048.711  12048.700  0.500  0.650175  58.2646  30.4114  13.3034
  12051.360  12051.350  0.500  0.649084  59.8226  31.2588  13.6884
  12054.016  12054.010  0.500  0.647689  59.8664  31.3253  13.7367
  12056.686  12056.690  0.500  0.646611  59.8475  31.3492  13.7637
  12059.408  12059.390  0.500  0.645296  59.8204  31.3762  13.7888
  12062.113  12062.110  0.500  0.643861  59.7804  31.4003  13.8113
  12064.875  12064.850  0.500  0.642700  59.746  31.4187  13.8319
  12067.588  12067.600  0.500  0.641252  59.7094  31.4449  13.8482
  12070.391  12070.380  0.500  0.640018  59.6766  31.4664  13.8614
  12073.176  12073.170  0.500  0.638683  59.6348  31.4864  13.8722
  12076.014  12075.990  0.500  0.637674  59.5953  31.4974  13.8812
  12078.827  12078.820  0.500  0.636705  59.5572  31.5077  13.8961
  12081.667  12081.670  0.500  0.635843  59.5221  31.5163  13.9108
  12084.566  12084.550  0.500  0.634866  59.4757  31.5225  13.9264
  12087.441  12087.440  0.500  0.634155  59.4373  31.5246  13.9374
  12090.368  12090.350  0.500  0.633474  59.3885  31.5201  13.948
  12093.264  12093.270  0.500  0.633222  59.2212  31.4392  13.9205
  12096.219  12096.220  0.500  0.632233  59.3296  31.528  13.9663
  12099.195  12099.190  0.500  0.631854  59.2921  31.52  13.9694
  12102.173  12102.170  0.500  0.631550  59.251  31.5077  13.9677
  12105.177  12105.180  0.500  0.631099  59.2127  31.5016  13.9737
  12108.209  12108.200  0.500  0.630594  59.1733  31.4965  13.9827
  12111.254  12111.250  0.500  0.630269  59.136  31.4869  13.9921
  12114.302  12114.310  0.500  0.629709  59.09  31.48  14.0003
  12117.402  12117.390  0.500  0.629431  59.0553  31.4703  14.0081
  12120.503  12120.490  0.500  0.628875  59.0071  31.4621  14.0139
  12123.613  12123.610  0.500  0.628354  58.9607  31.4537  14.018
  12126.762  12126.750  0.500  0.627944  58.9155  31.4425  14.0197
  12129.907  12129.900  0.500  0.627504  58.6586  31.3192  13.9682
  12133.092  12133.080  0.500  0.626631  58.8479  31.4477  14.0265
  12136.273  12136.270  0.500  0.625954  58.7991  31.4429  14.0244
  12139.512  12139.490  0.500  0.625272  58.7571  31.4419  14.0213
  12142.728  12142.720  0.500  0.624586  58.7114  31.439  14.0143
  12145.959  12145.970  0.500  0.623897  58.6749  31.4411  14.0062
  12149.274  12149.250  0.500  0.622948  58.6214  31.4423  13.9975
  12152.553  12152.540  0.500  0.622166  58.5784  31.4437  13.9906
  12155.841  12155.850  0.500  0.621197  58.5318  31.4492  13.9875
  12159.187  12159.170  0.500  0.620008  58.4812  31.4594  13.9865
  12162.530  12162.520  0.500  0.618647  58.2556  31.3807  13.9539
  12165.893  12165.890  0.500  0.618033  58.4021  31.4789  14.0078
  12169.291  12169.270  0.500  0.616875  58.3576  31.4914  14.0211
  12172.710  12172.680  0.500  0.615874  58.3127  31.4987  14.0394
  12176.105  12176.100  0.500  0.614770  58.2631  31.5067  14.0563
  12179.567  12179.550  0.500  0.613650  58.2168  31.5169  14.0807
  12183.024  12183.010  0.500  0.612533  58.169  31.5262  14.1043
  12186.502  12186.490  0.500  0.611321  58.1154  31.5353  14.1221
  12190.028  12189.990  0.500  0.610246  58.0742  31.5469  14.1457
  12193.524  12193.510  0.500  0.609151  58.0262  31.5554  14.1631
  12197.086  12197.050  0.500  0.608240  57.9848  31.5616  14.1801
  12200.631  12200.600  0.500  0.606566  57.8046  31.5162  14.1692
  12204.198  12204.180  0.500  0.606046  57.8972  31.5831  14.2048
  12207.792  12207.780  0.500  0.605060  57.8479  31.5874  14.2142
  12211.409  12211.390  0.500  0.604154  57.8037  31.5918  14.2189
  12215.027  12215.020  0.500  0.603195  57.7566  31.5964  14.2227
  12218.693  12218.680  0.500  0.602269  57.7092  31.5997  14.2265
  12222.368  12222.350  0.500  0.601324  57.6629  31.6042  14.2278
  12226.045  12226.040  0.500  0.600486  57.6182  31.6062  14.2331
  12229.764  12229.750  0.500  0.599496  57.5649  31.6082  14.2362
  12233.510  12233.480  0.500  0.598505  57.4334  31.5673  14.2268
  12237.240  12237.220  0.500  0.600250  56.6481  31.0814  14.0108
  12241.031  12240.990  0.500  0.597047  57.371  31.579  14.2513
  12244.810  12244.780  0.500  0.596276  57.3486  31.591  14.2678
  12248.612  12248.580  0.500  0.595389  57.3067  31.5959  14.2837
  12252.449  12252.410  0.500  0.594537  57.2569  31.5954  14.301
  12256.282  12256.250  0.500  0.593123  57.0729  31.5384  14.2878
  12260.157  12260.110  0.500  0.592744  57.1445  31.5899  14.3278
  12264.021  12263.990  0.500  0.589882  56.1914  31.1521  14.1451
  12267.900  12267.890  0.500  0.591238  56.9551  31.5327  14.3273
  12271.835  12271.810  0.500  0.590451  56.8607  31.5052  14.3269
  12275.765  12275.750  0.500  0.589257  56.9522  31.5937  14.3725
  12279.725  12279.710  0.500  0.588365  56.8965  31.5909  14.379
  12283.706  12283.680  0.500  0.587089  56.7307  31.5391  14.3621
  12287.671  12287.680  0.500  0.586222  56.7535  31.5791  14.3799
  12291.710  12291.690  0.500  0.585540  55.378  30.8348  14.0455
  12295.759  12295.730  0.500  0.584285  56.6199  31.5658  14.3772
  12299.791  12299.780  0.500  0.583115  56.4314  31.4976  14.3452
  12303.878  12303.850  0.500  0.582001  56.5547  31.6016  14.3931
  12307.942  12307.940  0.500  0.580932  56.5002  31.6049  14.3963
  12312.094  12312.050  0.500  0.579674  56.443  31.6126  14.4011
  12316.202  12316.180  0.500  0.578606  56.3882  31.6157  14.4075
  12320.334  12320.330  0.500  0.575097  55.5948  31.2804  14.2621
  12324.507  12324.490  0.500  0.576663  56.1628  31.5506  14.3893
  12328.658  12328.680  0.500  0.575280  56.1949  31.6123  14.432
  12332.910  12332.880  0.500  0.574109  56.1548  31.6268  14.4501
  12337.119  12337.110  0.500  0.573035  56.1112  31.6362  14.466
  12341.377  12341.350  0.500  0.571742  56.055  31.6454  14.482
  12345.619  12345.610  0.500  0.570654  56.0016  31.6496  14.499
  12349.896  12349.890  0.500  0.569513  55.8157  31.5806  14.4843
  12354.210  12354.190  0.500  0.568505  55.893  31.6562  14.5305
  12358.534  12358.510  0.500  0.567636  55.7606  31.6087  14.522
  12362.853  12362.850  0.500  0.566272  55.7844  31.6653  14.5611
  12367.250  12367.210  0.500  0.565201  55.7396  31.6738  14.5739
  12371.582  12371.590  0.500  0.563918  55.6689  31.6742  14.5813
  12376.025  12375.980  0.500  0.562882  55.6257  31.6825  14.5955
  12380.397  12380.400  0.500  0.561799  55.5567  31.6774  14.5993
  12384.860  12384.830  0.500  0.561308  55.1031  31.4342  14.4931
  12389.305  12389.280  0.500  0.559791  55.4721  31.6928  14.6164
  12393.761  12393.750  0.500  0.558785  55.4109  31.6897  14.6209
  12398.280  12398.240  0.500  0.557767  55.3543  31.6896  14.6293
  12402.749  12402.750  0.500  0.556719  55.2929  31.6876  14.6314
  12407.315  12407.280  0.500  0.555619  55.2327  31.6879  14.641
  12411.857  12411.830  0.500  0.554673  55.1725  31.6834  14.6487
  12416.416  12416.400  0.500  0.553613  55.0954  31.6726  14.6531
  12421.006  12420.980  0.500  0.552565  55.054  31.682  14.6685
  12425.599  12425.590  0.500  0.551660  54.9951  31.6768  14.6797
  12430.236  12430.210  0.500  0.550479  54.9029  31.661  14.6838
  12434.883  12434.860  0.500  0.549360  54.8062  31.6406  14.69
  12439.534  12439.520  0.500  0.548835  54.7844  31.6447  14.701
  12444.242  12444.200  0.500  0.547142  54.774  31.6923  14.7361
  12448.913  12448.900  0.500  0.546058  54.7099  31.6895  14.7484
  12453.655  12453.620  0.500  0.544877  54.5156  31.6143  14.722
  12458.361  12458.360  0.500  0.543835  54.5921  31.6917  14.7702
  12463.151  12463.110  0.500  0.542660  54.5307  31.6932  14.7782
  12467.911  12467.890  0.500  0.541438  54.4547  31.6877  14.7822
  12472.709  12472.690  0.500  0.540416  54.4093  31.6937  14.7919
  12477.537  12477.500  0.500  0.539126  54.3434  31.6962  14.7999
  12482.336  12482.330  0.500  0.538075  54.269  31.6861  14.8005
  12487.219  12487.190  0.500  0.537462  53.9974  31.5469  14.7391
  12492.073  12492.060  0.500  0.535635  54.1836  31.7135  14.8237
  12496.971  12496.950  0.500  0.534455  54.12  31.7137  14.8284
  12501.894  12501.860  0.500  0.533179  54.0504  31.7134  14.8354
  12506.820  12506.790  0.500  0.532086  53.9871  31.7109  14.8418
  12511.764  12511.730  0.500  0.530921  53.9257  31.7117  14.8512
  12516.712  12516.700  0.500  0.529702  53.8618  31.7127  14.8638
  12521.739  12521.690  0.500  0.528450  53.7973  31.7145  14.8739
  12526.709  12526.690  0.500  0.527247  53.7372  31.7172  14.8866
  12531.744  12531.720  0.500  0.526056  53.6695  31.7149  14.8983
  12536.777  12536.760  0.500  0.524899  53.5984  31.7096  14.9098
  12541.862  12541.820  0.500  0.524493  53.2869  31.5381  14.8399
  12546.930  12546.900  0.500  0.522370  53.4941  31.728  14.9429
  12552.030  12552.000  0.500  0.521254  53.4298  31.7253  14.9534
  12557.141  12557.120  0.500  0.520089  53.3671  31.725  14.9652
  12562.297  12562.260  0.500  0.518928  53.302  31.7231  14.9744
  12567.444  12567.420  0.500  0.517690  53.2333  31.7215  14.9852
  12572.636  12572.600  0.500  0.516628  53.171  31.718  14.9923
  12577.833  12577.790  0.500  0.515475  53.0883  31.7053  14.9959
  12583.041  12583.010  0.500  0.514255  53.0418  31.7161  15.0097
  12588.261  12588.240  0.500  0.513284  52.9803  31.7101  15.0189
  12593.526  12593.490  0.500  0.511943  52.9151  31.7136  15.0269
  12598.810  12598.760  0.500  0.510965  52.85  31.7056  15.0306
  12604.070  12604.050  0.500  0.509728  52.7814  31.7036  15.0406
  12609.404  12609.360  0.500  0.508500  52.7129  31.7014  15.046
  12614.729  12614.690  0.500  0.507423  52.6521  31.6989  15.0546
  12620.079  12620.040  0.500  0.506276  52.5775  31.6903  15.0616
  12625.469  12625.410  0.500  0.505040  52.5077  31.6874  15.071
  12630.835  12630.790  0.500  0.503897  52.4566  31.6928  15.086
  12636.234  12636.200  0.500  0.502718  52.3744  31.6804  15.0911
  12641.658  12641.620  0.500  0.501220  52.2764  31.6686  15.0965
  12647.122  12647.070  0.500  0.500133  52.2674  31.6975  15.1191
  12652.556  12652.530  0.500  0.498985  52.1994  31.6927  15.1321
  12658.051  12658.010  0.500  0.497724  52.1318  31.6916  15.146
  12663.543  12663.510  0.500  0.496551  52.0658  31.6886  15.1538
  12669.054  12669.030  0.500  0.495289  51.9978  31.6872  15.1628
  12674.633  12674.570  0.500  0.493988  51.9265  31.6849  15.1722
  12680.147  12680.120  0.500  0.492760  51.8577  31.6818  15.1805
  12685.764  12685.700  0.500  0.491522  51.7854  31.6769  15.1879
  12691.323  12691.300  0.500  0.490240  51.7242  31.68  15.1973
  12696.964  12696.910  0.500  0.489030  51.6589  31.6784  15.2055
  12702.575  12702.550  0.500  0.487714  51.5863  31.6754  15.2113
  12708.226  12708.200  0.500  0.486354  51.5102  31.6718  15.2193
  12713.925  12713.870  0.500  0.485186  51.4486  31.6709  15.228
  12719.593  12719.560  0.500  0.483852  51.3747  31.6676  15.2355