File: xdidata/As/As-K-ArsenicTrioxide.xdi
# XDI/1.0 BlueSky/1.10.0 BMM/2023-1.0-py310-tiled
# Beamline.name: BMM (06BM) -- Beamline for Materials Measurement (NIST)
# Beamline.xray_source: NSLS-II three-pole wiggler
# Beamline.collimation: paraboloid mirror, 5 nm Rh on 30 nm Pt
# Beamline.focusing: not in use
# Beamline.harmonic_rejection: flat mirror, Pt stripe, pitch = 7.0 mrad relative to beam
# Beamline.software: Bluesky 1.10.0, Ophyd 1.7.0, DataBroker 2.0.0b13, Python 3.10.8, 2023-1.0-py310-tiled
# Detector.I0: 10 cm N2
# Detector.I1: 25 cm N2
# Detector.I2: 25 cm N2
# Element.symbol: As
# Element.edge: K
# Element.reference: As
# Element.reference_material: As2O3
# Facility.name: NSLS-II
# Facility.energy: 3.0
# Facility.current: 400.6
# Facility.mode: top-off
# Facility.GUP: 301027
# Facility.SAF: 310583
# Facility.cycle: 2023-2
# Mono.name: Si(111)
# Mono.d_spacing: 3.13519
# Mono.encoder_resolution: 0.0000050 deg/ct
# Mono.angle_offset: 16.0754 deg
# Mono.scan_mode: pseudo channel cut
# Mono.scan_type: step
# Mono.direction: forward in energy
# Sample.name: As2O3
# Sample.prep: powder on tape
# Sample.x: 109.138 mm
# Sample.y: 153.150 mm
# Sample.SDD_position: 205.000 mm
# Scan.experimenters: Bruce Ravel
# Scan.edge_energy: 11866.7
# Scan.start_time: 2023-05-28T19:18:48
# Scan.end_time: 2023-05-28T19:27:29
# Scan.transient_id: 78945
# Scan.uid: 7a256c1f-9904-47eb-8805-9fe0da8c542d
# Scan.plot_hint: ln(It/Ir)  --  ln($6/$7)
# Column.1: energy eV
# Column.2: requested_energy eV
# Column.3: measurement_time seconds
# Column.4: xmu
# Column.5: I0 nA
# Column.6: It nA
# Column.7: Ir nA
# ///////////
# Welcome to BMM
# -----------
# energy  requested_energy  measurement_time  xmu  I0  It  Ir
  11666.678  11666.700  0.500  0.423532  65.4262  109.703  71.8255
  11676.763  11676.700  0.500  0.422584  65.309  109.556  71.7978
  11686.794  11686.700  0.500  0.421497  65.1657  109.35  71.7409
  11696.766  11696.700  0.500  0.420487  65.0228  109.168  71.6938
  11706.719  11706.700  0.500  0.419559  64.8853  108.979  71.6362
  11716.713  11716.700  0.500  0.418638  64.7436  108.788  71.576
  11726.719  11726.700  0.500  0.417705  64.5875  108.557  71.4907
  11736.736  11736.700  0.500  0.416680  64.3654  108.225  71.3452
  11746.722  11746.700  0.500  0.415724  64.0323  107.702  71.0682
  11756.732  11756.700  0.500  0.414901  63.9633  107.63  71.0792
  11766.741  11766.700  0.500  0.414024  64.006  107.753  71.2234
  11776.749  11776.700  0.500  0.413137  63.5622  107.042  70.8163
  11786.732  11786.700  0.500  0.412382  63.7321  107.372  71.0879
  11796.756  11796.700  0.500  0.411652  63.581  107.156  70.9968
  11806.737  11806.700  0.500  0.411133  63.322  106.76  70.771
  11816.748  11816.700  0.500  0.410886  63.2691  106.703  70.7507
  11826.727  11826.700  0.500  0.410978  63.1311  106.501  70.6106
  11836.729  11836.700  0.500  0.411880  63.0054  106.336  70.4372
  11838.674  11838.700  0.500  0.412284  62.9856  106.307  70.3897
  11840.662  11840.700  0.500  0.412782  62.9565  106.275  70.3333
  11842.670  11842.700  0.500  0.413451  62.9296  106.241  70.2638
  11844.666  11844.700  0.500  0.414160  62.8971  106.191  70.1812
  11846.675  11846.700  0.500  0.415091  62.8531  106.124  70.0719
  11848.672  11848.700  0.500  0.416317  62.6818  105.84  69.7983
  11850.688  11850.700  0.500  0.417895  62.8125  106.075  69.8433
  11852.681  11852.700  0.500  0.419876  62.7806  106.028  69.6741
  11854.668  11854.700  0.500  0.422468  62.6807  105.859  69.3831
  11856.680  11856.700  0.500  0.426162  62.6333  105.792  69.083
  11856.956  11857.000  0.500  0.426775  62.6587  105.844  69.0746
  11857.262  11857.300  0.500  0.427444  62.6767  105.87  69.046
  11857.568  11857.600  0.500  0.428298  62.6762  105.864  68.9828
  11857.855  11857.900  0.500  0.429006  62.6528  105.82  68.9052
  11858.161  11858.200  0.500  0.429814  62.5901  105.719  68.7839
  11858.467  11858.500  0.500  0.430679  62.5097  105.589  68.6399
  11858.767  11858.800  0.500  0.431549  62.4348  105.461  68.497
  11859.055  11859.100  0.500  0.432582  62.3752  105.364  68.3638
  11859.379  11859.400  0.500  0.433756  62.3307  105.289  68.2348
  11859.679  11859.700  0.500  0.434961  62.317  105.276  68.1444
  11859.967  11860.000  0.500  0.435999  62.3344  105.304  68.0912
  11860.273  11860.300  0.500  0.437329  62.3769  105.37  68.0435
  11860.579  11860.600  0.500  0.438718  62.4358  105.464  68.0099
  11860.872  11860.900  0.500  0.440084  62.4935  105.567  67.9832
  11861.172  11861.200  0.500  0.441743  62.5281  105.631  67.9118
  11861.485  11861.500  0.500  0.443482  62.5201  105.626  67.7905
  11861.779  11861.800  0.500  0.445227  62.485  105.562  67.6312
  11862.072  11862.100  0.500  0.447099  62.441  105.487  67.457
  11862.373  11862.400  0.500  0.449088  62.4141  105.441  67.2936
  11862.685  11862.700  0.500  0.451339  62.4013  105.424  67.1314
  11862.973  11863.000  0.500  0.453571  62.4188  105.451  66.9987
  11863.261  11863.300  0.500  0.456107  62.4538  105.515  66.8697
  11863.579  11863.600  0.500  0.459039  62.495  105.59  66.7212
  11863.885  11863.900  0.500  0.462009  62.525  105.635  66.5516
  11864.167  11864.200  0.500  0.465243  62.5534  105.68  66.3651
  11864.473  11864.500  0.500  0.469022  62.5705  105.71  66.134
  11864.773  11864.800  0.500  0.473102  62.5686  105.719  65.8702
  11865.067  11865.100  0.500  0.477606  62.5662  105.718  65.5733
  11865.380  11865.400  0.500  0.482823  62.5638  105.712  65.2287
  11865.686  11865.700  0.500  0.488745  62.5585  105.703  64.838
  11865.974  11866.000  0.500  0.494923  62.5539  105.693  64.4326
  11866.287  11866.300  0.500  0.502168  62.5499  105.687  63.9634
  11866.593  11866.600  0.500  0.510441  62.5411  105.674  63.429
  11866.875  11866.900  0.500  0.519451  62.5395  105.676  62.861
  11867.200  11867.200  0.500  0.530724  62.5305  105.662  62.1484
  11867.494  11867.500  0.500  0.542646  62.5278  105.658  61.4095
  11867.788  11867.800  0.500  0.556437  62.5218  105.655  60.5668
  11868.101  11868.100  0.500  0.572821  62.5121  105.637  59.5719
  11868.383  11868.400  0.500  0.590418  62.5101  105.633  58.5309
  11868.708  11868.700  0.500  0.612791  62.5013  105.619  57.2283
  11868.990  11869.000  0.500  0.636139  62.4888  105.607  55.9014
  11869.296  11869.300  0.500  0.664812  62.48  105.595  54.3147
  11869.597  11869.600  0.500  0.696592  62.4512  105.541  52.5891
  11869.897  11869.900  0.500  0.733930  62.4027  105.46  50.6228
  11870.204  11870.200  0.500  0.776937  62.3463  105.365  48.448
  11870.486  11870.500  0.500  0.822585  62.3074  105.293  46.2547
  11870.798  11870.800  0.500  0.872368  62.281  105.265  43.9967
  11871.087  11871.100  0.500  0.920546  62.2955  105.289  41.9368
  11871.393  11871.400  0.500  0.970869  62.3298  105.348  39.901
  11871.682  11871.700  0.500  1.010818  62.3669  105.412  38.3618
  11871.994  11872.000  0.500  1.045792  62.3997  105.472  37.0642
  11872.289  11872.300  0.500  1.067628  62.4175  105.515  36.2786
  11872.589  11872.600  0.500  1.078353  62.4335  105.538  35.8994
  11872.878  11872.900  0.500  1.077825  62.4349  105.54  35.9189
  11873.184  11873.200  0.500  1.068326  62.4362  105.542  36.2623
  11873.473  11873.500  0.500  1.053412  62.4318  105.539  36.8064
  11873.798  11873.800  0.500  1.035451  62.4244  105.531  37.4704
  11874.099  11874.100  0.500  1.018436  62.4217  105.522  38.1103
  11874.399  11874.400  0.500  1.002906  62.4148  105.506  38.7007
  11874.700  11874.700  0.500  0.989688  62.4088  105.502  39.2141
  11874.994  11875.000  0.500  0.978798  62.4001  105.494  39.6408
  11875.301  11875.300  0.500  0.969667  62.3945  105.482  39.9998
  11875.602  11875.600  0.500  0.961833  62.3903  105.472  40.3107
  11875.909  11875.900  0.500  0.953542  62.3855  105.459  40.641
  11876.191  11876.200  0.500  0.945222  62.3812  105.451  40.9775
  11876.517  11876.500  0.500  0.934527  62.3746  105.439  41.4135
  11876.805  11876.800  0.500  0.923932  62.3708  105.448  41.858
  11877.112  11877.100  0.500  0.911454  62.3594  105.434  42.3781
  11877.394  11877.400  0.500  0.898919  62.3565  105.42  42.9067
  11877.701  11877.700  0.500  0.885459  62.3488  105.408  43.4835
  11877.996  11878.000  0.500  0.873429  62.346  105.404  44.008
  11878.297  11878.300  0.500  0.861059  62.3386  105.39  44.55
  11878.573  11878.600  0.500  0.851199  62.3319  105.382  44.9877
  11878.905  11878.900  0.500  0.841174  62.3266  105.372  45.4368
  11879.187  11879.200  0.500  0.833966  62.3224  105.367  45.7635
  11879.482  11879.500  0.500  0.828312  62.3161  105.356  46.018
  11879.777  11879.800  0.500  0.824580  62.3118  105.35  46.1875
  11880.090  11880.100  0.500  0.822651  62.3061  105.341  46.2726
  11880.391  11880.400  0.500  0.823024  62.2961  105.329  46.25
  11880.686  11880.700  0.500  0.825474  62.2918  105.314  46.1304
  11880.981  11881.000  0.500  0.829791  62.2859  105.308  45.9291
  11881.312  11881.300  0.500  0.836596  62.2768  105.295  45.612
  11881.614  11881.600  0.500  0.843810  62.2674  105.276  45.2759
  11881.896  11881.900  0.500  0.851521  62.2614  105.273  44.9268
  11882.203  11882.200  0.500  0.859234  62.2537  105.261  44.5767
  11882.498  11882.500  0.500  0.866045  62.2422  105.238  44.2644
  11882.793  11882.800  0.500  0.871639  62.2277  105.22  44.01
  11883.100  11883.100  0.500  0.875471  62.2053  105.185  43.8269
  11883.402  11883.400  0.500  0.877566  62.1592  105.103  43.701
  11883.703  11883.700  0.500  0.877810  62.0515  104.918  43.6135
  11884.004  11884.000  0.500  0.876701  61.907  104.671  43.5594
  11884.299  11884.300  0.500  0.874357  61.9158  104.703  43.6747
  11884.600  11884.600  0.500  0.871151  61.7923  104.498  43.7293
  11884.889  11884.900  0.500  0.867614  61.7245  104.382  43.8353
  11885.190  11885.200  0.500  0.863731  61.7139  104.359  43.9962
  11885.479  11885.500  0.500  0.860442  61.7542  104.426  44.1698
  11885.799  11885.800  0.500  0.857095  61.8307  104.562  44.3755
  11886.076  11886.100  0.500  0.854694  61.9337  104.735  44.5555
  11886.383  11886.400  0.500  0.852498  62.0662  104.961  44.75
  11886.678  11886.700  0.500  0.850840  62.1792  105.137  44.8992
  11886.998  11887.000  0.500  0.849349  62.2522  105.271  45.0238
  11887.287  11887.300  0.500  0.848145  62.2906  105.34  45.1076
  11887.631  11887.600  0.500  0.846855  62.3077  105.366  45.1768
  11887.896  11887.900  0.500  0.845882  62.3051  105.374  45.2241
  11888.172  11888.200  0.500  0.844669  62.307  105.367  45.2761
  11888.455  11888.500  0.500  0.843407  62.3057  105.368  45.334
  11888.757  11888.800  0.500  0.841787  62.2819  105.335  45.3931
  11889.046  11889.100  0.500  0.839997  62.2557  105.294  45.4566
  11889.470  11889.400  0.500  0.836740  62.2409  105.26  45.5902
  11889.630  11889.700  0.500  0.835264  62.2084  105.218  45.6395
  11889.944  11890.000  0.500  0.832218  62.2099  105.21  45.7751
  11890.239  11890.300  0.500  0.829428  62.203  105.206  45.9013
  11890.547  11890.600  0.500  0.826544  62.1992  105.197  46.0297
  11890.861  11890.900  0.500  0.824031  62.1933  105.189  46.1423
  11891.150  11891.200  0.500  0.821954  62.1889  105.176  46.2326
  11891.452  11891.500  0.500  0.820023  62.1821  105.168  46.3183
  11891.667  11891.700  0.500  0.818868  62.1772  105.163  46.3694
  11892.670  11892.690  0.500  0.813717  62.1611  105.136  46.5971
  11893.655  11893.690  0.500  0.805558  62.1445  105.116  46.9697
  11894.689  11894.710  0.500  0.794846  62.1287  105.093  47.4651
  11895.730  11895.760  0.500  0.786880  62.1138  105.072  47.8356
  11896.790  11896.820  0.500  0.783945  62.0972  105.041  47.9617
  11897.874  11897.900  0.500  0.783571  62.071  105.015  47.968
  11898.995  11899.000  0.500  0.782739  62.0415  104.961  47.9829
  11900.117  11900.120  0.500  0.781336  61.9589  104.818  47.9853
  11901.257  11901.260  0.500  0.779695  61.5176  104.075  47.7233
  11902.416  11902.410  0.500  0.777769  61.4126  103.904  47.7365
  11903.581  11903.590  0.500  0.774981  61.8279  104.612  48.1959
  11904.765  11904.780  0.500  0.771755  61.9591  104.833  48.4539
  11905.981  11906.000  0.500  0.768841  61.9564  104.837  48.5971
  11907.202  11907.230  0.500  0.766795  61.9443  104.834  48.6952
  11908.461  11908.480  0.500  0.764886  61.929  104.809  48.7768
  11909.745  11909.750  0.500  0.763440  61.906  104.773  48.8305
  11911.042  11911.040  0.500  0.764322  61.8905  104.743  48.7734
  11912.357  11912.350  0.500  0.767439  61.869  104.719  48.6105
  11913.679  11913.680  0.500  0.771921  61.8414  104.679  48.3745
  11915.032  11915.030  0.500  0.777050  61.784  104.589  48.086
  11916.397  11916.400  0.500  0.781602  61.332  103.824  47.5175
  11917.757  11917.780  0.500  0.784811  61.2307  103.662  47.2912
  11919.161  11919.190  0.500  0.787039  61.6842  104.434  47.5373
  11920.608  11920.610  0.500  0.788527  61.7493  104.557  47.5225
  11922.036  11922.050  0.500  0.790109  61.7387  104.528  47.4342
  11923.515  11923.510  0.500  0.792953  61.7183  104.509  47.2911
  11925.007  11924.990  0.500  0.796496  61.7001  104.49  47.1151
  11926.492  11926.490  0.500  0.800362  61.6812  104.461  46.9203
  11928.009  11928.010  0.500  0.804331  61.6556  104.428  46.7198
  11929.557  11929.550  0.500  0.807516  61.6315  104.388  46.5533
  11931.087  11931.110  0.500  0.809430  61.6085  104.346  46.4456
  11932.674  11932.680  0.500  0.810709  61.5585  104.278  46.3558
  11934.279  11934.280  0.500  0.812445  61.0021  103.344  45.8613
  11935.916  11935.890  0.500  0.813835  61.106  103.513  45.8724
  11937.534  11937.530  0.500  0.814323  61.469  104.14  46.1277
  11939.185  11939.180  0.500  0.814429  61.4713  104.148  46.1262
  11940.848  11940.850  0.500  0.814808  61.4511  104.115  46.0944
  11942.548  11942.540  0.500  0.815972  61.4302  104.088  46.0286
  11944.237  11944.250  0.500  0.817055  61.4077  104.049  45.9614
  11945.982  11945.980  0.500  0.817924  61.3759  104.013  45.9056
  11947.746  11947.730  0.500  0.817897  61.3564  103.982  45.8934
  11949.499  11949.490  0.500  0.816919  61.3286  103.939  45.9192
  11951.289  11951.280  0.500  0.814816  61.3029  103.915  46.0055
  11953.086  11953.080  0.500  0.812149  61.281  103.876  46.1109
  11954.902  11954.910  0.500  0.809919  61.2549  103.839  46.1974
  11956.756  11956.750  0.500  0.808359  61.2222  103.796  46.2504
  11958.623  11958.610  0.500  0.807108  61.1977  103.761  46.2927
  11960.503  11960.490  0.500  0.805643  61.1676  103.704  46.3349
  11962.409  11962.390  0.500  0.803934  61.1429  103.666  46.3973
  11964.328  11964.310  0.500  0.802269  61.1104  103.632  46.4592
  11966.260  11966.250  0.500  0.800858  61.079  103.592  46.5072
  11968.205  11968.210  0.500  0.799866  61.0529  103.55  46.5342
  11970.175  11970.180  0.500  0.798610  61.0254  103.507  46.5734
  11972.190  11972.180  0.500  0.797224  60.9869  103.456  46.6151
  11974.193  11974.190  0.500  0.796023  60.9593  103.408  46.6494
  11976.222  11976.220  0.500  0.795011  60.9283  103.368  46.6787
  11978.270  11978.280  0.500  0.793860  60.8969  103.326  46.7133
  11980.356  11980.350  0.500  0.792448  60.8644  103.27  46.7539
  11982.443  11982.440  0.500  0.790794  60.8354  103.235  46.8153
  11984.537  11984.550  0.500  0.788916  60.8032  103.185  46.8805
  11986.682  11986.680  0.500  0.787161  60.7736  103.137  46.9414
  11988.828  11988.820  0.500  0.785891  60.7422  103.089  46.9791
  11991.006  11990.990  0.500  0.785015  60.7093  103.041  46.9985
  11993.203  11993.180  0.500  0.784496  60.6776  102.995  47.002
  11995.376  11995.380  0.500  0.783989  60.6473  102.946  47.0033
  11997.619  11997.600  0.500  0.783709  60.6102  102.898  46.9945
  11999.856  11999.850  0.500  0.783979  60.5832  102.864  46.9662
  12002.132  12002.110  0.500  0.784619  60.5485  102.82  46.9161
  12004.377  12004.390  0.500  0.785598  60.5171  102.773  46.8486
  12006.699  12006.690  0.500  0.786606  60.4855  102.717  46.7759
  12009.027  12009.010  0.500  0.787853  60.4574  102.681  46.7013
  12011.376  12011.350  0.500  0.789185  60.4276  102.64  46.6204
  12013.713  12013.700  0.500  0.790317  60.3911  102.591  46.5457
  12016.069  12016.080  0.500  0.791235  60.3616  102.542  46.4808
  12018.490  12018.470  0.500  0.792129  60.503  102.795  46.5536
  12020.917  12020.890  0.500  0.792634  60.4824  102.77  46.5189
  12023.308  12023.320  0.500  0.793378  60.4549  102.732  46.4674
  12025.769  12025.770  0.500  0.793893  60.4282  102.69  46.4241
  12028.263  12028.250  0.500  0.794196  60.3962  102.646  46.3901
  12030.758  12030.740  0.500  0.794538  60.3619  102.605  46.3559
  12033.253  12033.250  0.500  0.794760  60.3212  102.54  46.3161
  12035.769  12035.770  0.500  0.794970  60.2886  102.485  46.2818
  12038.330  12038.320  0.500  0.794703  60.2462  102.431  46.2698
  12040.911  12040.890  0.500  0.794135  60.2105  102.374  46.2703
  12043.481  12043.470  0.500  0.793488  60.1575  102.292  46.2632
  12046.089  12046.080  0.500  0.792555  59.7241  101.558  45.9741
  12048.724  12048.700  0.500  0.791387  58.8114  100.024  45.3326
  12051.379  12051.350  0.500  0.790424  59.9794  102.002  46.2733
  12054.023  12054.010  0.500  0.789442  59.9869  102.039  46.3357
  12056.705  12056.690  0.500  0.788287  59.9564  101.999  46.3712
  12059.402  12059.390  0.500  0.787246  59.921  101.948  46.3961
  12062.125  12062.110  0.500  0.786508  59.8857  101.896  46.4066
  12064.843  12064.850  0.500  0.786013  59.8453  101.841  46.4048
  12067.626  12067.600  0.500  0.785578  59.8027  101.778  46.3961
  12070.391  12070.380  0.500  0.785362  59.7635  101.712  46.3759
  12073.164  12073.170  0.500  0.785030  59.725  101.652  46.3642
  12075.988  12075.990  0.500  0.784648  59.6805  101.596  46.3562
  12078.846  12078.820  0.500  0.784006  59.638  101.528  46.355
  12081.686  12081.670  0.500  0.783234  59.6008  101.472  46.3652
  12084.547  12084.550  0.500  0.782453  59.561  101.412  46.3742
  12087.460  12087.440  0.500  0.781697  59.5147  101.35  46.3808
  12090.368  12090.350  0.500  0.780936  59.44  101.226  46.3593
  12093.271  12093.270  0.500  0.780404  59.3783  101.145  46.3465
  12096.232  12096.220  0.500  0.779933  59.3974  101.186  46.3875
  12099.221  12099.190  0.500  0.779556  59.3588  101.13  46.3794
  12102.160  12102.170  0.500  0.779084  59.3165  101.071  46.3741
  12105.183  12105.180  0.500  0.778577  59.2811  101.019  46.3736
  12108.234  12108.200  0.500  0.777745  59.2342  100.946  46.3788
  12111.254  12111.250  0.500  0.776939  59.1898  100.878  46.3851
  12114.321  12114.310  0.500  0.776231  59.1502  100.829  46.3954
  12117.408  12117.390  0.500  0.775386  59.1073  100.76  46.4026
  12120.510  12120.490  0.500  0.774808  59.0617  100.692  46.3982
  12123.613  12123.610  0.500  0.774239  59.0136  100.625  46.3936
  12126.775  12126.750  0.500  0.773838  58.952  100.526  46.3665
  12129.907  12129.900  0.500  0.773679  58.8122  100.301  46.2703
  12133.099  12133.080  0.500  0.773442  58.888  100.44  46.3453
  12136.292  12136.270  0.500  0.773492  58.844  100.369  46.3103
  12139.493  12139.490  0.500  0.773587  58.7939  100.303  46.2754
  12142.728  12142.720  0.500  0.773906  58.7512  100.233  46.2282
  12145.997  12145.970  0.500  0.774433  58.6957  100.166  46.1728
  12149.255  12149.250  0.500  0.774833  58.6484  100.089  46.1192
  12152.560  12152.540  0.500  0.775159  58.5983  100.004  46.065
  12155.860  12155.850  0.500  0.775475  58.5506  99.9276  46.0151
  12159.168  12159.170  0.500  0.775463  58.4873  99.84  45.9754
  12162.530  12162.520  0.500  0.775220  58.2242  99.4082  45.7876
  12165.893  12165.890  0.500  0.774720  58.4056  99.719  45.9538
  12169.285  12169.270  0.500  0.774042  58.3505  99.6418  45.9493
  12172.704  12172.680  0.500  0.773069  58.3048  99.5734  45.9625
  12176.099  12176.100  0.500  0.771989  58.2436  99.4806  45.9693
  12179.554  12179.550  0.500  0.770875  58.1992  99.4131  45.9893
  12183.024  12183.010  0.500  0.769717  58.1504  99.3451  46.0111
  12186.502  12186.490  0.500  0.768594  58.1  99.2684  46.0272
  12189.996  12189.990  0.500  0.767485  58.0491  99.1851  46.0396
  12193.504  12193.510  0.500  0.766698  57.9927  99.1021  46.0373
  12197.067  12197.050  0.500  0.765948  57.9402  99.0349  46.0407
  12200.612  12200.600  0.500  0.765365  57.6776  98.5902  45.8606
  12204.165  12204.180  0.500  0.764907  57.8534  98.8975  46.0246
  12207.792  12207.780  0.500  0.764529  57.8074  98.8334  46.0122
  12211.383  12211.390  0.500  0.764212  57.7485  98.746  45.9861
  12215.034  12215.020  0.500  0.763984  57.7034  98.6767  45.9643
  12218.693  12218.680  0.500  0.763785  57.6554  98.6048  45.9399
  12222.362  12222.350  0.500  0.763638  57.6031  98.5435  45.9181
  12226.052  12226.040  0.500  0.763426  57.5474  98.4521  45.8853
  12229.751  12229.750  0.500  0.763061  57.496  98.3694  45.8635
  12233.484  12233.480  0.500  0.762574  57.126  97.7471  45.5955
  12237.240  12237.220  0.500  0.762081  57.0733  97.6653  45.5798
  12240.998  12240.990  0.500  0.761338  57.3064  98.0891  45.8116
  12244.804  12244.780  0.500  0.760497  57.2724  98.0432  45.8287
  12248.580  12248.580  0.500  0.759628  57.2225  97.9676  45.8332
  12252.443  12252.410  0.500  0.758565  57.1651  97.8726  45.8375
  12256.269  12256.250  0.500  0.757646  56.9497  97.5228  45.7156
  12260.111  12260.110  0.500  0.756595  57.0386  97.6798  45.8373
  12264.014  12263.990  0.500  0.755711  55.6715  95.3573  44.7871
  12267.881  12267.890  0.500  0.754981  56.8801  97.4338  45.7958
  12271.822  12271.810  0.500  0.754238  56.8401  97.3766  45.8029
  12275.785  12275.750  0.500  0.753649  56.8387  97.3877  45.8351
  12279.705  12279.710  0.500  0.753286  56.7729  97.2897  45.8056
  12283.713  12283.680  0.500  0.753016  56.5555  96.9329  45.65
  12287.684  12287.680  0.500  0.752798  56.6103  97.0335  45.7073
  12291.710  12291.690  0.500  0.752483  55.5947  95.3045  44.907
  12295.759  12295.730  0.500  0.752548  56.4988  96.8686  45.6411
  12299.791  12299.780  0.500  0.752473  56.3805  96.6782  45.5548
  12303.878  12303.850  0.500  0.752380  56.4154  96.7527  45.5941
  12307.981  12307.940  0.500  0.752165  56.3552  96.658  45.5593
  12312.054  12312.050  0.500  0.752077  56.2967  96.5792  45.5261
  12316.216  12316.180  0.500  0.751553  56.2257  96.4709  45.4989
  12320.340  12320.330  0.500  0.751166  54.8572  94.1395  44.4165
  12324.507  12324.490  0.500  0.750530  56.0545  96.1914  45.4135
  12328.704  12328.680  0.500  0.749829  56.0485  96.1933  45.4463
  12332.917  12332.880  0.500  0.749070  55.992  96.1138  45.4432
  12337.139  12337.110  0.500  0.748218  55.9386  96.0371  45.4456
  12341.364  12341.350  0.500  0.747305  55.8801  95.9384  45.4404
  12345.652  12345.610  0.500  0.746264  55.8255  95.8553  45.4483
  12349.896  12349.890  0.500  0.745472  55.6642  95.6056  45.3658
  12354.223  12354.190  0.500  0.744665  55.7063  95.6903  45.4427
  12358.527  12358.510  0.500  0.743747  55.6265  95.5689  45.4267
  12362.867  12362.850  0.500  0.743062  55.5731  95.4833  45.4171
  12367.243  12367.210  0.500  0.742454  55.5471  95.4498  45.4288
  12371.603  12371.590  0.500  0.741808  55.4327  95.2644  45.3699
  12376.025  12375.980  0.500  0.741354  55.4239  95.2547  45.3859
  12380.424  12380.400  0.500  0.740863  55.3401  95.1254  45.3465
  12384.833  12384.830  0.500  0.740443  55.0782  94.6933  45.1595
  12389.312  12389.280  0.500  0.740033  55.2546  95.0104  45.3293
  12393.781  12393.750  0.500  0.739663  55.1844  94.9063  45.2964
  12398.280  12398.240  0.500  0.739215  55.1202  94.8051  45.2683
  12402.796  12402.750  0.500  0.738686  55.0624  94.72  45.2517
  12407.301  12407.280  0.500  0.738160  54.9953  94.6185  45.2269
  12411.884  12411.830  0.500  0.737529  54.9305  94.5145  45.2058
  12416.423  12416.400  0.500  0.736842  54.8519  94.3885  45.1765
  12421.019  12420.980  0.500  0.736183  54.7924  94.3097  45.1685
  12425.613  12425.590  0.500  0.735314  54.7401  94.2402  45.1745
  12430.263  12430.210  0.500  0.734432  54.641  94.077  45.1361
  12434.903  12434.860  0.500  0.733662  54.4281  93.722  45.0004
  12439.534  12439.520  0.500  0.732893  54.5563  93.955  45.147
  12444.248  12444.200  0.500  0.732078  54.5026  93.8743  45.145
  12448.953  12448.900  0.500  0.731256  54.4344  93.767  45.1304
  12453.649  12453.620  0.500  0.730521  54.2538  93.476  45.0235
  12458.401  12458.360  0.500  0.729905  54.3014  93.5673  45.0952
  12463.131  12463.110  0.500  0.729398  54.2392  93.4761  45.0741
  12467.945  12467.890  0.500  0.728898  54.1084  93.2634  44.994
  12472.716  12472.690  0.500  0.728448  54.1003  93.2556  45.0105
  12477.537  12477.500  0.500  0.728008  54.0301  93.1527  44.9806
  12482.390  12482.330  0.500  0.727601  53.9363  92.9935  44.9221
  12487.233  12487.190  0.500  0.727225  53.7455  92.6802  44.7876
  12492.114  12492.060  0.500  0.726896  53.8598  92.9076  44.9122
  12496.985  12496.950  0.500  0.726440  53.7853  92.7768  44.8694
  12501.921  12501.860  0.500  0.725968  53.7135  92.6716  44.8397
  12506.827  12506.790  0.500  0.725395  53.6437  92.5743  44.8183
  12511.757  12511.730  0.500  0.724767  53.5788  92.4686  44.7953
  12516.760  12516.700  0.500  0.724157  53.5042  92.3544  44.7672
  12521.726  12521.690  0.500  0.723383  53.4433  92.2627  44.7574
  12526.723  12526.690  0.500  0.722674  53.3726  92.1581  44.7384
  12531.744  12531.720  0.500  0.721808  53.2993  92.0361  44.7178
  12536.811  12536.760  0.500  0.721041  53.2035  91.8928  44.6825
  12541.875  12541.820  0.500  0.720200  53.1141  91.7483  44.6498
  12546.944  12546.900  0.500  0.719449  53.0998  91.7402  44.6794
  12552.023  12552.000  0.500  0.718639  53.03  91.6303  44.662
  12557.154  12557.120  0.500  0.718007  52.9445  91.4901  44.6219
  12562.297  12562.260  0.500  0.717330  52.8905  91.4137  44.6148
  12567.458  12567.420  0.500  0.716555  52.8215  91.3125  44.6
  12572.657  12572.600  0.500  0.715928  52.7517  91.2061  44.5759
  12577.847  12577.790  0.500  0.715336  52.6609  91.0606  44.5312
  12583.041  12583.010  0.500  0.714727  52.5985  90.9584  44.5083
  12588.295  12588.240  0.500  0.714253  52.5255  90.8583  44.4804
  12593.512  12593.490  0.500  0.713740  52.4484  90.7263  44.4385
  12598.810  12598.760  0.500  0.713111  52.3687  90.6047  44.4069
  12604.111  12604.050  0.500  0.712545  52.3051  90.5138  44.3875
  12609.404  12609.360  0.500  0.711992  52.2341  90.399  44.3557
  12614.743  12614.690  0.500  0.711326  52.1537  90.2801  44.3269
  12620.079  12620.040  0.500  0.710634  52.0666  90.1499  44.2936
  12625.441  12625.410  0.500  0.709876  52.0171  90.0612  44.2836
  12630.842  12630.790  0.500  0.709173  51.9475  89.9623  44.266
  12636.234  12636.200  0.500  0.708500  51.8677  89.8407  44.236
  12641.665  12641.620  0.500  0.707719  51.7233  89.6008  44.1523
  12647.094  12647.070  0.500  0.706976  51.7272  89.6205  44.1948
  12652.577  12652.530  0.500  0.706151  51.6696  89.5376  44.1904
  12658.051  12658.010  0.500  0.705457  51.5782  89.3905  44.1484
  12663.557  12663.510  0.500  0.704684  51.4919  89.2556  44.1159
  12669.054  12669.030  0.500  0.704017  51.5409  89.3564  44.1952
  12674.619  12674.570  0.500  0.703425  51.5157  89.328  44.2073
  12680.161  12680.120  0.500  0.702784  51.4379  89.2031  44.1738
  12685.722  12685.700  0.500  0.702152  51.3845  89.1235  44.1622
  12691.337  12691.300  0.500  0.701690  51.3028  88.9913  44.1171
  12696.929  12696.910  0.500  0.701009  51.2306  88.88  44.092
  12702.582  12702.550  0.500  0.700472  51.1612  88.771  44.0616
  12708.247  12708.200  0.500  0.699850  51.0828  88.6529  44.0303
  12713.911  12713.870  0.500  0.699276  51.0069  88.544  44.0015
  12719.586  12719.560  0.500  0.698740  50.9161  88.4022  43.9546