File: xdidata/As/As-K-PotassiumAresenate.xdi
# XDI/1.0 BlueSky/1.10.0 BMM/2023-1.0-py310-tiled
# Beamline.name: BMM (06BM) -- Beamline for Materials Measurement (NIST)
# Beamline.xray_source: NSLS-II three-pole wiggler
# Beamline.collimation: paraboloid mirror, 5 nm Rh on 30 nm Pt
# Beamline.focusing: not in use
# Beamline.harmonic_rejection: flat mirror, Pt stripe, pitch = 7.0 mrad relative to beam
# Beamline.software: Bluesky 1.10.0, Ophyd 1.7.0, DataBroker 2.0.0b13, Python 3.10.8, 2023-1.0-py310-tiled
# Detector.I0: 10 cm N2
# Detector.I1: 25 cm N2
# Detector.I2: 25 cm N2
# Element.symbol: As
# Element.edge: K
# Element.reference: As
# Element.reference_material: As2O3
# Facility.name: NSLS-II
# Facility.energy: 3.0
# Facility.current: 400.1
# Facility.mode: top-off
# Facility.GUP: 301027
# Facility.SAF: 310583
# Facility.cycle: 2023-2
# Mono.name: Si(111)
# Mono.d_spacing: 3.13519
# Mono.encoder_resolution: 0.0000050 deg/ct
# Mono.angle_offset: 16.0754 deg
# Mono.scan_mode: pseudo channel cut
# Mono.scan_type: step
# Mono.direction: forward in energy
# Sample.name: K3AsO4.12H2O
# Sample.prep: powder in PEG pellet
# Sample.x: 115.008 mm
# Sample.y: 114.461 mm
# Sample.SDD_position: 170.000 mm
# Scan.experimenters: Bruce Ravel
# Scan.edge_energy: 11866.7
# Scan.start_time: 2023-07-10T16:03:00
# Scan.end_time: 2023-07-10T16:11:01
# Scan.transient_id: 90271
# Scan.uid: 07f5fce9-94da-4d0c-afa2-77c2b7fbf873
# Scan.plot_hint: ln(I0/It)  --  ln($5/$6)
# Column.1: energy eV
# Column.2: requested_energy eV
# Column.3: measurement_time seconds
# Column.4: xmu
# Column.5: I0 nA
# Column.6: It nA
# Column.7: Ir nA
# ///////////
# sample courtesy Evan Jahrman, NIST
# -----------
# energy  requested_energy  measurement_time  xmu  I0  It  Ir
  11666.695  11666.700  0.500  0.300908  65.1137  48.1937  32.7459
  11676.751  11676.700  0.500  0.298609  65.0071  48.2255  32.8019
  11686.753  11686.700  0.500  0.296192  64.8696  48.2399  32.8382
  11696.772  11696.700  0.500  0.293864  64.7354  48.2523  32.8738
  11706.737  11706.700  0.500  0.291643  64.6066  48.2634  32.9112
  11716.767  11716.700  0.500  0.289270  64.4885  48.2896  32.9598
  11726.689  11726.700  0.500  0.287146  64.3168  48.2635  32.9697
  11736.718  11736.700  0.500  0.284819  64.0227  48.1547  32.9251
  11746.722  11746.700  0.500  0.282595  63.8224  48.111  32.9188
  11756.732  11756.700  0.500  0.280547  63.7928  48.1872  32.9987
  11766.741  11766.700  0.500  0.278517  63.7756  48.2721  33.0857
  11776.731  11776.700  0.500  0.276311  63.4468  48.1293  33.0073
  11786.726  11786.700  0.500  0.274513  63.5177  48.2697  33.1263
  11796.744  11796.700  0.500  0.272613  63.3765  48.254  33.1308
  11806.725  11806.700  0.500  0.270865  63.0005  48.0517  33.0039
  11816.772  11816.700  0.500  0.269586  63.0462  48.1481  33.0762
  11826.684  11826.700  0.500  0.268916  62.9134  48.0789  33.0202
  11836.662  11836.700  0.500  0.269299  62.8034  47.9765  32.9091
  11838.655  11838.700  0.500  0.269564  62.7821  47.9475  32.8738
  11840.644  11840.700  0.500  0.269909  62.7664  47.9189  32.8362
  11842.645  11842.700  0.500  0.270531  62.7355  47.8656  32.781
  11844.654  11844.700  0.500  0.271125  62.7007  47.8106  32.7128
  11846.644  11846.700  0.500  0.272018  62.666  47.7415  32.629
  11848.635  11848.700  0.500  0.273337  62.4625  47.5238  32.4391
  11850.646  11850.700  0.500  0.274800  62.6115  47.5674  32.4161
  11852.644  11852.700  0.500  0.276863  62.5897  47.453  32.2655
  11854.656  11854.700  0.500  0.279508  62.5277  47.2807  32.0593
  11856.650  11856.700  0.500  0.283147  62.3748  46.9937  31.7404
  11856.937  11857.000  0.500  0.283685  62.4029  46.9896  31.7186
  11857.243  11857.300  0.500  0.284349  62.4528  46.996  31.7025
  11857.549  11857.600  0.500  0.285062  62.4727  46.9775  31.6644
  11857.837  11857.900  0.500  0.285800  62.4884  46.9546  31.6265
  11858.143  11858.200  0.500  0.286493  62.4835  46.9183  31.5711
  11858.455  11858.500  0.500  0.287436  62.4612  46.8574  31.5073
  11858.736  11858.800  0.500  0.288305  62.4059  46.7752  31.422
  11859.048  11859.100  0.500  0.289198  62.323  46.6715  31.3215
  11859.354  11859.400  0.500  0.290109  62.2398  46.5667  31.2139
  11859.667  11859.700  0.500  0.291234  62.1801  46.4697  31.1149
  11859.954  11860.000  0.500  0.292228  62.1494  46.4006  31.0312
  11860.254  11860.300  0.500  0.293393  62.1251  46.3285  30.9424
  11860.579  11860.600  0.500  0.294680  62.1412  46.2809  30.8659
  11860.854  11860.900  0.500  0.295792  62.1909  46.2664  30.8088
  11861.160  11861.200  0.500  0.297236  62.2439  46.239  30.7413
  11861.472  11861.500  0.500  0.298676  62.3014  46.2152  30.6741
  11861.772  11861.800  0.500  0.300248  62.3332  46.1661  30.5835
  11862.072  11862.100  0.500  0.301840  62.3081  46.0741  30.4724
  11862.373  11862.400  0.500  0.303519  62.2696  45.9684  30.3374
  11862.679  11862.700  0.500  0.305336  62.2364  45.8605  30.1959
  11862.979  11863.000  0.500  0.307197  62.2128  45.7579  30.0587
  11863.273  11863.300  0.500  0.309138  62.2143  45.6702  29.9243
  11863.579  11863.600  0.500  0.311600  62.2317  45.5706  29.7789
  11863.891  11863.900  0.500  0.313898  62.2667  45.4916  29.6352
  11864.185  11864.200  0.500  0.316423  62.3115  45.4096  29.4857
  11864.479  11864.500  0.500  0.319193  62.3339  45.3002  29.3109
  11864.792  11864.800  0.500  0.322419  62.3621  45.1748  29.1103
  11865.080  11865.100  0.500  0.325579  62.3637  45.0334  28.8972
  11865.386  11865.400  0.500  0.329073  62.3657  44.8778  28.6522
  11865.699  11865.700  0.500  0.333266  62.3684  44.6919  28.3755
  11865.999  11866.000  0.500  0.337737  62.3528  44.4814  28.0686
  11866.293  11866.300  0.500  0.342261  62.3378  44.27  27.751
  11866.599  11866.600  0.500  0.347814  62.3413  44.0273  27.387
  11866.893  11866.900  0.500  0.353967  62.3251  43.7459  26.9777
  11867.188  11867.200  0.500  0.360255  62.3168  43.4659  26.5612
  11867.488  11867.500  0.500  0.367624  62.3171  43.1469  26.0801
  11867.800  11867.800  0.500  0.376150  62.3064  42.7733  25.5287
  11868.101  11868.100  0.500  0.385538  62.2952  42.366  24.9246
  11868.389  11868.400  0.500  0.395891  62.2926  41.9279  24.2888
  11868.695  11868.700  0.500  0.408065  62.2859  41.4161  23.5591
  11868.990  11869.000  0.500  0.422309  62.2745  40.8229  22.7423
  11869.284  11869.300  0.500  0.438534  62.2674  40.1613  21.8529
  11869.590  11869.600  0.500  0.458645  62.2576  39.3555  20.8192
  11869.885  11869.900  0.500  0.483025  62.2446  38.3996  19.671
  11870.185  11870.200  0.500  0.512998  62.2145  37.2477  18.3896
  11870.480  11870.500  0.500  0.548811  62.1757  35.915  17.0398
  11870.774  11870.800  0.500  0.593998  62.1229  34.299  15.5733
  11871.087  11871.100  0.500  0.652581  62.0662  32.3179  13.9612
  11871.381  11871.400  0.500  0.720851  62.0543  30.1794  12.4087
  11871.675  11871.700  0.500  0.804805  62.0707  27.7565  10.8302
  11871.982  11872.000  0.500  0.901797  62.1074  25.2057  9.333110
  11872.289  11872.300  0.500  1.005087  62.1344  22.742  8.024740
  11872.589  11872.600  0.500  1.104289  62.1759  20.608  6.992331
  11872.884  11872.900  0.500  1.201368  62.1895  18.7055  6.161033
  11873.203  11873.200  0.500  1.291282  62.2023  17.1005  5.539703
  11873.485  11873.500  0.500  1.369175  62.2085  15.8207  5.115409
  11873.798  11873.800  0.500  1.451482  62.2006  14.5688  4.755095
  11874.099  11874.100  0.500  1.539246  62.2541  13.3562  4.432958
  11874.405  11874.400  0.500  1.643091  62.4089  12.0687  4.083740
  11874.700  11874.700  0.500  1.764351  62.402  10.6893  3.687352
  11874.994  11875.000  0.500  1.912109  62.4  9.220756  3.240676
  11875.301  11875.300  0.500  2.090014  62.3924  7.717027  2.757970
  11875.596  11875.600  0.500  2.267705  62.3969  6.461170  2.339224
  11875.903  11875.900  0.500  2.452769  62.394  5.369318  1.964453
  11876.210  11876.200  0.500  2.609923  62.3805  4.587476  1.692361
  11876.510  11876.500  0.500  2.704933  62.375  4.171314  1.549754
  11876.799  11876.800  0.500  2.722027  62.3691  4.100230  1.536180
  11877.118  11877.100  0.500  2.662365  62.3622  4.351820  1.649465
  11877.407  11877.400  0.500  2.548264  62.3676  4.878224  1.875077
  11877.695  11877.700  0.500  2.408940  62.3476  5.605704  2.187932
  11877.996  11878.000  0.500  2.258347  62.3436  6.516349  2.583406
  11878.309  11878.300  0.500  2.108408  62.33  7.568800  3.049559
  11878.604  11878.600  0.500  1.986339  62.3316  8.551687  3.492847
  11878.893  11878.900  0.500  1.876493  62.3239  9.543414  3.948897
  11879.193  11879.200  0.500  1.784230  62.3162  10.4645  4.379405
  11879.500  11879.500  0.500  1.711522  62.3114  11.2529  4.752527
  11879.783  11879.800  0.500  1.652446  62.3111  11.9376  5.080277
  11880.096  11880.100  0.500  1.603849  62.2923  12.5283  5.362599
  11880.379  11880.400  0.500  1.569682  62.2883  12.9629  5.566211
  11880.686  11880.700  0.500  1.542723  62.2775  13.3148  5.722837
  11880.993  11881.000  0.500  1.522216  62.2761  13.5904  5.832920
  11881.282  11881.300  0.500  1.508263  62.2672  13.7793  5.894968
  11881.595  11881.600  0.500  1.497090  62.2598  13.9325  5.923224
  11881.896  11881.900  0.500  1.488920  62.261  14.0471  5.925086
  11882.185  11882.200  0.500  1.482837  62.2489  14.1301  5.907252
  11882.498  11882.500  0.500  1.477476  62.2424  14.2045  5.883633
  11882.793  11882.800  0.500  1.472916  62.2382  14.2685  5.857253
  11883.100  11883.100  0.500  1.468888  62.2253  14.3231  5.836564
  11883.414  11883.400  0.500  1.465678  62.2068  14.3649  5.819360
  11883.697  11883.700  0.500  1.463437  62.178  14.3904  5.809477
  11884.004  11884.000  0.500  1.461752  62.1144  14.4  5.805400
  11884.305  11884.300  0.500  1.460009  61.998  14.3981  5.807629
  11884.606  11884.600  0.500  1.457283  61.8461  14.402  5.819165
  11884.914  11884.900  0.500  1.452776  61.6939  14.4314  5.849150
  11885.209  11885.200  0.500  1.445322  61.5733  14.511  5.900318
  11885.504  11885.500  0.500  1.435440  61.5185  14.642  5.978266
  11885.823  11885.800  0.500  1.423322  61.514  14.8195  6.077699
  11886.100  11886.100  0.500  1.411422  61.5587  15.0078  6.177479
  11886.414  11886.400  0.500  1.398289  61.6396  15.2262  6.286613
  11886.721  11886.700  0.500  1.386548  61.7588  15.4358  6.391949
  11886.998  11887.000  0.500  1.377191  61.8703  15.609  6.477647
  11887.318  11887.300  0.500  1.369269  61.9785  15.7607  6.557036
  11887.613  11887.600  0.500  1.363327  62.0413  15.8707  6.612874
  11887.902  11887.900  0.500  1.358979  62.0775  15.9491  6.653784
  11888.209  11888.200  0.500  1.355327  62.0949  16.012  6.690178
  11888.498  11888.500  0.500  1.352572  62.1033  16.0583  6.719587
  11888.800  11888.800  0.500  1.349759  62.0972  16.102  6.747064
  11889.101  11889.100  0.500  1.347410  62.1018  16.141  6.775238
  11889.390  11889.400  0.500  1.344970  62.1042  16.1811  6.805255
  11889.686  11889.700  0.500  1.342723  62.1043  16.2175  6.836187
  11890.006  11890.000  0.500  1.340367  62.0937  16.253  6.870936
  11890.289  11890.300  0.500  1.339242  62.101  16.2732  6.902083
  11890.590  11890.600  0.500  1.338525  62.0934  16.2829  6.929446
  11890.898  11890.900  0.500  1.338496  62.0925  16.2831  6.952669
  11891.187  11891.200  0.500  1.339188  62.0887  16.2709  6.969087
  11891.495  11891.500  0.500  1.340593  62.0777  16.2451  6.978481
  11891.704  11891.700  0.500  1.341447  62.0734  16.2301  6.981989
  11892.701  11892.690  0.500  1.345270  62.0575  16.1641  6.994875
  11893.711  11893.690  0.500  1.345199  62.0513  16.1636  7.049128
  11894.733  11894.710  0.500  1.348160  62.0284  16.1099  7.110820
  11895.786  11895.760  0.500  1.357120  62.0128  15.9622  7.127275
  11896.833  11896.820  0.500  1.356792  62.0057  15.9656  7.167113
  11897.911  11897.900  0.500  1.333935  61.9776  16.3273  7.335392
  11899.014  11899.000  0.500  1.297790  61.953  16.9215  7.604009
  11900.123  11900.120  0.500  1.259141  61.9121  17.5767  7.908391
  11901.257  11901.260  0.500  1.220777  61.663  18.1906  8.198542
  11902.434  11902.410  0.500  1.183153  61.2516  18.762  8.472765
  11903.606  11903.590  0.500  1.146800  61.5546  19.5529  8.852083
  11904.802  11904.780  0.500  1.113199  61.8459  20.3168  9.233102
  11906.024  11906.000  0.500  1.083167  61.8668  20.9433  9.550843
  11907.239  11907.230  0.500  1.057898  61.851  21.4737  9.820405
  11908.492  11908.480  0.500  1.036132  61.8411  21.9427  10.0556
  11909.757  11909.750  0.500  1.017769  61.8204  22.3419  10.2591
  11911.060  11911.040  0.500  1.003992  61.8091  22.6477  10.4043
  11912.369  11912.350  0.500  0.996903  61.7872  22.8008  10.4466
  11913.710  11913.680  0.500  0.997061  61.7678  22.79  10.3882
  11915.050  11915.030  0.500  1.003322  61.7287  22.6334  10.259
  11916.416  11916.400  0.500  1.014211  61.4793  22.2978  10.0533
  11917.794  11917.780  0.500  1.027594  61.0534  21.849  9.804188
  11919.191  11919.190  0.500  1.041954  61.4756  21.6864  9.703987
  11920.620  11920.610  0.500  1.056356  61.6728  21.4449  9.577277
  11922.080  11922.050  0.500  1.071427  61.674  21.1245  9.419584
  11923.534  11923.510  0.500  1.086863  61.648  20.7922  9.246120
  11925.007  11924.990  0.500  1.102209  61.6341  20.4709  9.070167
  11926.498  11926.490  0.500  1.115389  61.6106  20.1952  8.906810
  11928.009  11928.010  0.500  1.126017  61.5898  19.975  8.767997
  11929.557  11929.550  0.500  1.134681  61.5717  19.7968  8.654428
  11931.118  11931.110  0.500  1.142740  61.5464  19.6298  8.555850
  11932.686  11932.680  0.500  1.152143  61.5179  19.4371  8.462157
  11934.298  11934.280  0.500  1.163936  61.2208  19.1165  8.309471
  11935.897  11935.890  0.500  1.178463  60.8577  18.7291  8.121750
  11937.541  11937.530  0.500  1.193306  61.3713  18.6088  8.063973
  11939.191  11939.180  0.500  1.204787  61.4157  18.4097  7.975275
  11940.872  11940.850  0.500  1.210138  61.4001  18.3068  7.927277
  11942.573  11942.540  0.500  1.213905  61.3834  18.233  7.885995
  11944.268  11944.250  0.500  1.218623  61.3602  18.1404  7.836798
  11945.994  11945.980  0.500  1.223683  61.336  18.0417  7.784933
  11947.734  11947.730  0.500  1.228242  61.3143  17.9533  7.743477
  11949.511  11949.490  0.500  1.231867  61.2904  17.8813  7.716283
  11951.289  11951.280  0.500  1.233788  61.27  17.8411  7.714647
  11953.086  11953.080  0.500  1.233571  61.2433  17.8371  7.737662
  11954.908  11954.910  0.500  1.231453  61.2167  17.8672  7.771591
  11956.750  11956.750  0.500  1.228996  61.1939  17.9045  7.804593
  11958.630  11958.610  0.500  1.226695  61.1636  17.9368  7.829886
  11960.510  11960.490  0.500  1.225988  61.1436  17.9437  7.844748
  11962.403  11962.390  0.500  1.226951  61.1171  17.9186  7.848639
  11964.315  11964.310  0.500  1.229266  61.0918  17.8698  7.842029
  11966.260  11966.250  0.500  1.231304  61.0562  17.823  7.834922
  11968.217  11968.210  0.500  1.230196  61.0368  17.8371  7.849874
  11970.206  11970.180  0.500  1.225075  61.0043  17.9191  7.898725
  11972.196  11972.180  0.500  1.216839  60.9749  18.0586  7.969742
  11974.181  11974.190  0.500  1.207213  60.9491  18.2256  8.053693
  11976.222  11976.220  0.500  1.197217  60.9172  18.399  8.141309
  11978.301  11978.280  0.500  1.187527  60.8956  18.5716  8.226517
  11980.369  11980.350  0.500  1.178914  60.8595  18.7211  8.305791
  11982.443  11982.440  0.500  1.170418  60.8273  18.8709  8.386366
  11984.556  11984.550  0.500  1.161369  60.797  19.033  8.475992
  11986.701  11986.680  0.500  1.152650  60.7647  19.1894  8.563340
  11988.840  11988.820  0.500  1.145162  60.7387  19.3254  8.634711
  11990.999  11990.990  0.500  1.139048  60.7032  19.4325  8.694674
  11993.190  11993.180  0.500  1.134593  60.675  19.5102  8.734228
  11995.395  11995.380  0.500  1.131354  60.6471  19.5645  8.764947
  11997.619  11997.600  0.500  1.128563  60.6162  19.6092  8.786624
  11999.869  11999.850  0.500  1.126026  60.5907  19.6508  8.802815
  12002.113  12002.110  0.500  1.123495  60.5594  19.6904  8.815443
  12004.415  12004.390  0.500  1.121001  60.5264  19.7288  8.822486
  12006.718  12006.690  0.500  1.119172  60.4933  19.7541  8.821738
  12009.021  12009.010  0.500  1.118280  60.4712  19.7645  8.812699
  12011.363  12011.350  0.500  1.118533  60.4371  19.7483  8.791397
  12013.719  12013.700  0.500  1.119584  60.4069  19.7177  8.765951
  12016.107  12016.080  0.500  1.120738  60.3764  19.6851  8.740704
  12018.477  12018.470  0.500  1.121987  60.3488  19.6515  8.717566
  12020.898  12020.890  0.500  1.123545  60.3155  19.6101  8.692942
  12023.340  12023.320  0.500  1.125356  60.2812  19.5635  8.664620
  12025.788  12025.770  0.500  1.127773  60.2516  19.5067  8.636514
  12028.244  12028.250  0.500  1.130321  60.2165  19.4457  8.602035
  12030.764  12030.740  0.500  1.133236  60.1842  19.3787  8.568626
  12033.279  12033.250  0.500  1.135928  60.152  19.3163  8.539764
  12035.763  12035.770  0.500  1.138255  60.1088  19.2575  8.509815
  12038.324  12038.320  0.500  1.139796  60.0759  19.2173  8.494403
  12040.917  12040.890  0.500  1.141588  60.0335  19.1694  8.478938
  12043.481  12043.470  0.500  1.143629  59.9907  19.1167  8.459316
  12046.089  12046.080  0.500  1.144498  59.8117  19.0431  8.435649
  12048.718  12048.700  0.500  1.145775  58.2527  18.523  8.213920
  12051.379  12051.350  0.500  1.146521  59.7759  18.9932  8.431243
  12054.010  12054.010  0.500  1.146738  59.8154  19.0016  8.446635
  12056.712  12056.690  0.500  1.147272  59.792  18.9841  8.449931
  12059.402  12059.390  0.500  1.147754  59.7576  18.964  8.448104
  12062.113  12062.110  0.500  1.147909  59.7258  18.951  8.449606
  12064.875  12064.850  0.500  1.147970  59.6929  18.9394  8.450082
  12067.607  12067.600  0.500  1.147188  59.6544  18.942  8.454932
  12070.372  12070.380  0.500  1.145962  59.6182  18.9537  8.462240
  12073.176  12073.170  0.500  1.144333  59.5798  18.9724  8.472999
  12075.995  12075.990  0.500  1.142452  59.5413  18.9958  8.487117
  12078.821  12078.820  0.500  1.140318  59.5079  19.0257  8.506880
  12081.686  12081.670  0.500  1.137502  59.4639  19.0652  8.529086
  12084.553  12084.550  0.500  1.134542  59.4238  19.1089  8.556758
  12087.441  12087.440  0.500  1.131422  59.3828  19.1554  8.583808
  12090.368  12090.350  0.500  1.128256  59.3333  19.2001  8.609696
  12093.290  12093.270  0.500  1.125319  59.1865  19.2089  8.617784
  12096.232  12096.220  0.500  1.122652  59.2774  19.2898  8.660521
  12099.221  12099.190  0.500  1.120177  59.2351  19.3238  8.678589
  12102.192  12102.170  0.500  1.118159  59.2038  19.3526  8.695535
  12105.196  12105.180  0.500  1.115761  59.1613  19.3851  8.715529
  12108.221  12108.200  0.500  1.113166  59.1205  19.4221  8.739248
  12111.248  12111.250  0.500  1.110554  59.0858  19.4615  8.764383
  12114.334  12114.310  0.500  1.107895  59.0383  19.4976  8.785544
  12117.402  12117.390  0.500  1.105796  58.9973  19.525  8.806846
  12120.490  12120.490  0.500  1.103897  58.9587  19.5493  8.824770
  12123.619  12123.610  0.500  1.101895  58.9106  19.5725  8.840825
  12126.743  12126.750  0.500  1.099690  58.8544  19.597  8.853815
  12129.901  12129.900  0.500  1.097597  58.6162  19.5586  8.838751
  12133.099  12133.080  0.500  1.095474  58.7978  19.6609  8.886513
  12136.253  12136.270  0.500  1.093419  58.7497  19.6852  8.897150
  12139.487  12139.490  0.500  1.091708  58.707  19.7046  8.903477
  12142.728  12142.720  0.500  1.089984  58.6628  19.7237  8.909256
  12145.965  12145.970  0.500  1.088727  58.6247  19.7357  8.907243
  12149.262  12149.250  0.500  1.087803  58.5749  19.7372  8.904771
  12152.560  12152.540  0.500  1.087036  58.5317  19.7377  8.898889
  12155.860  12155.850  0.500  1.086423  58.4857  19.7343  8.893821
  12159.194  12159.170  0.500  1.085991  58.4363  19.7262  8.888544
  12162.510  12162.520  0.500  1.085368  58.1943  19.6567  8.859414
  12165.906  12165.890  0.500  1.084828  58.346  19.7186  8.890669
  12169.297  12169.270  0.500  1.084415  58.2972  19.7103  8.894126
  12172.697  12172.680  0.500  1.083977  58.2551  19.7046  8.898976
  12176.131  12176.100  0.500  1.083435  58.2053  19.6985  8.907882
  12179.554  12179.550  0.500  1.082828  58.162  19.6958  8.914705
  12183.030  12183.010  0.500  1.082053  58.1143  19.6949  8.927589
  12186.502  12186.490  0.500  1.081071  58.0663  19.6979  8.939873
  12190.002  12189.990  0.500  1.080114  58.0253  19.7029  8.952210
  12193.537  12193.510  0.500  1.078933  57.9743  19.7088  8.962542
  12197.054  12197.050  0.500  1.077881  57.9302  19.7146  8.973055
  12200.612  12200.600  0.500  1.076657  57.7331  19.6716  8.959738
  12204.204  12204.180  0.500  1.075608  57.8489  19.7317  8.990884
  12207.812  12207.780  0.500  1.074500  57.9997  19.805  9.026029
  12211.415  12211.390  0.500  1.073399  57.9504  19.81  9.032545
  12215.040  12215.020  0.500  1.072228  57.9031  19.8171  9.037677
  12218.713  12218.680  0.500  1.070862  57.8536  19.8272  9.042683
  12222.394  12222.350  0.500  1.069402  57.807  19.8402  9.050866
  12226.065  12226.040  0.500  1.067827  57.7593  19.855  9.058202
  12229.803  12229.750  0.500  1.066202  57.7102  19.8704  9.067874
  12233.484  12233.480  0.500  1.064382  57.5629  19.8558  9.065642
  12237.246  12237.220  0.500  1.062223  56.8939  19.6675  8.980845
  12241.011  12240.990  0.500  1.060230  57.5126  19.921  9.105822
  12244.804  12244.780  0.500  1.058216  57.4905  19.9535  9.131050
  12248.619  12248.580  0.500  1.055955  57.4442  19.9825  9.152348
  12252.410  12252.410  0.500  1.053698  57.395  20.0105  9.173100
  12256.295  12256.250  0.500  1.051505  57.1977  19.9855  9.172936
  12260.131  12260.110  0.500  1.049275  57.2811  20.0593  9.215864
  12264.040  12263.990  0.500  1.047167  56.2294  19.7326  9.077234
  12267.913  12267.890  0.500  1.044862  57.0974  20.0835  9.241566
  12271.841  12271.810  0.500  1.042741  57.0189  20.0985  9.255750
  12275.785  12275.750  0.500  1.040675  57.0906  20.1653  9.292258
  12279.731  12279.710  0.500  1.038681  57.0342  20.1856  9.305946
  12283.733  12283.680  0.500  1.036898  56.8581  20.1592  9.297041
  12287.710  12287.680  0.500  1.034912  56.8883  20.21  9.321862
  12291.743  12291.690  0.500  1.033142  55.5575  19.7722  9.119610
  12295.753  12295.730  0.500  1.031295  56.7635  20.2387  9.336084
  12299.857  12299.780  0.500  1.029400  56.5886  20.2147  9.323191
  12303.812  12303.850  0.500  1.027777  56.6963  20.286  9.356014
  12307.928  12307.940  0.500  1.026061  56.6442  20.3022  9.366784
  12312.047  12312.050  0.500  1.024376  56.5939  20.3184  9.373582
  12316.176  12316.180  0.500  1.022633  56.5312  20.3313  9.384425
  12320.340  12320.330  0.500  1.021168  55.6496  20.0435  9.257379
  12324.494  12324.490  0.500  1.019427  56.3179  20.3196  9.386322
  12328.697  12328.680  0.500  1.017940  56.3461  20.36  9.413012
  12332.877  12332.880  0.500  1.016401  56.3048  20.3764  9.426801
  12337.132  12337.110  0.500  1.015100  56.2573  20.3857  9.442075
  12341.364  12341.350  0.500  1.013479  56.2039  20.3994  9.456139
  12345.632  12345.610  0.500  1.012042  56.1513  20.4096  9.467953
  12349.923  12349.890  0.500  1.010710  55.9617  20.3679  9.459900
  12354.197  12354.190  0.500  1.009096  56.0482  20.4323  9.496891
  12358.560  12358.510  0.500  1.007741  55.9245  20.4148  9.499568
  12362.880  12362.850  0.500  1.006301  55.935  20.4481  9.520741
  12367.243  12367.210  0.500  1.004871  55.8944  20.4625  9.535173
  12371.643  12371.590  0.500  1.003280  55.8282  20.4708  9.543970
  12376.025  12375.980  0.500  1.001795  55.7771  20.4824  9.555065
  12380.451  12380.400  0.500  1.000298  55.7101  20.4885  9.560100
  12384.893  12384.830  0.500  0.998640  55.2848  20.3658  9.505732
  12389.332  12389.280  0.500  0.997129  55.6258  20.5224  9.583033
  12393.861  12393.750  0.500  0.995525  55.562  20.5318  9.592096
  12398.334  12398.240  0.500  0.993907  55.5067  20.5446  9.601097
  12402.782  12402.750  0.500  0.992223  55.4508  20.5585  9.612450
  12407.335  12407.280  0.500  0.990529  55.3957  20.5728  9.623902
  12411.877  12411.830  0.500  0.988730  55.326  20.584  9.635678
  12416.437  12416.400  0.500  0.986951  55.2504  20.5925  9.644888
  12421.040  12420.980  0.500  0.985046  55.2095  20.6165  9.663143
  12425.639  12425.590  0.500  0.983076  55.1488  20.6344  9.679162
  12430.249  12430.210  0.500  0.981165  55.0648  20.6424  9.691881
  12434.890  12434.860  0.500  0.979131  54.953  20.6424  9.700797
  12439.567  12439.520  0.500  0.976936  54.9556  20.6887  9.731122
  12444.242  12444.200  0.500  0.975117  54.9333  20.718  9.754237
  12448.953  12448.900  0.500  0.972951  54.8651  20.7371  9.769965
  12453.662  12453.620  0.500  0.970949  54.6686  20.7043  9.760633
  12458.388  12458.360  0.500  0.968963  54.7503  20.7764  9.801231
  12463.158  12463.110  0.500  0.966972  54.6857  20.7933  9.814787
  12467.938  12467.890  0.500  0.964938  54.6044  20.8047  9.824675
  12472.716  12472.690  0.500  0.963063  54.5638  20.8282  9.840844
  12477.531  12477.500  0.500  0.961165  54.5029  20.8445  9.851924
  12482.376  12482.330  0.500  0.959233  54.4262  20.8554  9.859241
  12487.213  12487.190  0.500  0.957310  54.1687  20.7967  9.834889
  12492.093  12492.060  0.500  0.955560  54.3423  20.8999  9.887736
  12496.985  12496.950  0.500  0.953655  54.2751  20.9138  9.898844
  12501.901  12501.860  0.500  0.951792  54.2127  20.9287  9.909814
  12506.841  12506.790  0.500  0.949992  54.1509  20.9425  9.921186
  12511.757  12511.730  0.500  0.948146  54.0869  20.9564  9.932870
  12516.746  12516.700  0.500  0.946380  54.0263  20.97  9.945798
  12521.739  12521.690  0.500  0.944614  53.9613  20.9817  9.959743
  12526.709  12526.690  0.500  0.942716  53.903  20.9989  9.974018
  12531.751  12531.720  0.500  0.940861  53.837  21.0121  9.989971
  12536.818  12536.760  0.500  0.939268  53.7645  21.0173  10.0027
  12541.848  12541.820  0.500  0.937369  53.484  20.9474  9.974823
  12546.930  12546.900  0.500  0.935605  53.6627  21.0545  10.0349
  12552.037  12552.000  0.500  0.933916  53.5953  21.0636  10.0471
  12557.154  12557.120  0.500  0.932096  53.5345  21.078  10.0626
  12562.304  12562.260  0.500  0.930310  53.4654  21.0884  10.0752
  12567.451  12567.420  0.500  0.928609  53.4065  21.1011  10.0872
  12572.636  12572.600  0.500  0.926929  53.345  21.1122  10.0976
  12577.840  12577.790  0.500  0.925162  53.2609  21.1162  10.1068
  12583.034  12583.010  0.500  0.923509  53.2066  21.1296  10.1201
  12588.275  12588.240  0.500  0.921729  53.1502  21.1448  10.1316
  12593.533  12593.490  0.500  0.919973  53.0833  21.1553  10.1423
  12598.803  12598.760  0.500  0.918241  53.0159  21.165  10.153
  12604.091  12604.050  0.500  0.916472  52.9505  21.1764  10.1618
  12609.390  12609.360  0.500  0.914485  52.8876  21.1933  10.1774
  12614.729  12614.690  0.500  0.912820  52.8287  21.205  10.1889
  12620.079  12620.040  0.500  0.910910  52.7546  21.2157  10.2001
  12625.448  12625.410  0.500  0.909029  52.687  21.2284  10.2158
  12630.828  12630.790  0.500  0.907043  52.6324  21.2486  10.2281
  12636.241  12636.200  0.500  0.905239  52.5566  21.2563  10.2419
  12641.658  12641.620  0.500  0.903224  52.4466  21.2545  10.2505
  12647.171  12647.070  0.500  0.901263  52.4416  21.2942  10.2774
  12652.563  12652.530  0.500  0.899369  52.3738  21.307  10.2915
  12658.057  12658.010  0.500  0.897278  52.3085  21.325  10.3078
  12663.543  12663.510  0.500  0.895260  52.2405  21.3403  10.3216
  12669.061  12669.030  0.500  0.893280  52.1721  21.3546  10.3355
  12674.633  12674.570  0.500  0.891324  52.104  21.3685  10.3506
  12680.154  12680.120  0.500  0.889411  52.0381  21.3824  10.3641
  12685.736  12685.700  0.500  0.887521  51.9731  21.396  10.3768
  12691.344  12691.300  0.500  0.885559  51.9024  21.4089  10.3903
  12696.936  12696.910  0.500  0.883498  51.8343  21.4249  10.4014
  12702.603  12702.550  0.500  0.881603  51.7645  21.4366  10.4133
  12708.226  12708.200  0.500  0.879683  51.6953  21.4491  10.4243
  12713.925  12713.870  0.500  0.877774  51.6284  21.4623  10.437
  12719.607  12719.560  0.500  0.875865  51.5585  21.4742  10.4476