File: xdidata/As/As-K-ArsenicPentoxide.xdi
# XDI/1.0 BlueSky/1.10.0 BMM/2023-1.0-py310-tiled
# Beamline.name: BMM (06BM) -- Beamline for Materials Measurement (NIST)
# Beamline.xray_source: NSLS-II three-pole wiggler
# Beamline.collimation: paraboloid mirror, 5 nm Rh on 30 nm Pt
# Beamline.focusing: not in use
# Beamline.harmonic_rejection: flat mirror, Pt stripe, pitch = 7.0 mrad relative to beam
# Beamline.software: Bluesky 1.10.0, Ophyd 1.7.0, DataBroker 2.0.0b13, Python 3.10.8, 2023-1.0-py310-tiled
# Detector.I0: 10 cm N2
# Detector.I1: 25 cm N2
# Detector.I2: 25 cm N2
# Element.symbol: As
# Element.edge: K
# Element.reference: As
# Element.reference_material: As2O3
# Facility.name: NSLS-II
# Facility.energy: 3.0
# Facility.current: 400.7
# Facility.mode: top-off
# Facility.GUP: 301027
# Facility.SAF: 310583
# Facility.cycle: 2023-2
# Mono.name: Si(111)
# Mono.d_spacing: 3.13519
# Mono.encoder_resolution: 0.0000050 deg/ct
# Mono.angle_offset: 16.0754 deg
# Mono.scan_mode: pseudo channel cut
# Mono.scan_type: step
# Mono.direction: forward in energy
# Sample.name: As2O5
# Sample.prep: powder in PEG pellet
# Sample.x: 115.008 mm
# Sample.y: 114.461 mm
# Sample.SDD_position: 170.000 mm
# Scan.experimenters: Bruce Ravel
# Scan.edge_energy: 11866.7
# Scan.start_time: 2023-07-10T16:20:04
# Scan.end_time: 2023-07-10T16:27:59
# Scan.transient_id: 90281
# Scan.uid: b1ddc8d3-8b28-4d39-82b4-305d47601d76
# Scan.plot_hint: ln(I0/It)  --  ln($5/$6)
# Column.1: energy eV
# Column.2: requested_energy eV
# Column.3: measurement_time seconds
# Column.4: xmu
# Column.5: I0 nA
# Column.6: It nA
# Column.7: Ir nA
# ///////////
# sample courtesy Evan Jahrman, NIST
# -----------
# energy  requested_energy  measurement_time  xmu  I0  It  Ir
  11666.684  11666.700  0.500  0.216034  65.0964  52.4487  35.6292
  11676.709  11676.700  0.500  0.213857  65.0035  52.488  35.6889
  11686.735  11686.700  0.500  0.211723  64.8588  52.483  35.7194
  11696.730  11696.700  0.500  0.209525  64.7428  52.5044  35.7581
  11706.719  11706.700  0.500  0.207386  64.607  52.5065  35.7986
  11716.743  11716.700  0.500  0.205224  64.4828  52.519  35.8346
  11726.767  11726.700  0.500  0.203169  64.3292  52.5017  35.8559
  11736.730  11736.700  0.500  0.201255  64.0461  52.3707  35.7968
  11746.782  11746.700  0.500  0.199232  63.8393  52.3073  35.7805
  11756.714  11756.700  0.500  0.197326  63.8093  52.3825  35.8646
  11766.735  11766.700  0.500  0.195416  63.7835  52.4614  35.9442
  11776.743  11776.700  0.500  0.193614  63.462  52.2911  35.8468
  11786.726  11786.700  0.500  0.191943  63.5193  52.4259  35.9655
  11796.750  11796.700  0.500  0.190470  63.3959  52.4012  35.9707
  11806.743  11806.700  0.500  0.189130  63.025  52.1644  35.8188
  11816.754  11816.700  0.500  0.188306  63.0935  52.2642  35.8996
  11826.739  11826.700  0.500  0.187988  62.9526  52.1641  35.8154
  11836.729  11836.700  0.500  0.189182  62.8406  52.0092  35.6644
  11838.686  11838.700  0.500  0.189641  62.8195  51.9678  35.6204
  11840.675  11840.700  0.500  0.190258  62.793  51.9139  35.5659
  11842.670  11842.700  0.500  0.191006  62.7697  51.8558  35.5016
  11844.678  11844.700  0.500  0.192054  62.7427  51.7792  35.4207
  11846.669  11846.700  0.500  0.193339  62.7148  51.6897  35.3197
  11848.678  11848.700  0.500  0.194943  62.5085  51.4371  35.1006
  11850.676  11850.700  0.500  0.196973  62.6594  51.4567  35.0591
  11852.663  11852.700  0.500  0.199445  62.6386  51.3126  34.889
  11854.668  11854.700  0.500  0.202706  62.5885  51.1046  34.6448
  11856.680  11856.700  0.500  0.207051  62.4151  50.7421  34.268
  11856.962  11857.000  0.500  0.207792  62.4477  50.731  34.2393
  11857.256  11857.300  0.500  0.208447  62.476  50.7208  34.2052
  11857.561  11857.600  0.500  0.209366  62.5214  50.711  34.1731
  11857.849  11857.900  0.500  0.210231  62.5282  50.6726  34.1235
  11858.161  11858.200  0.500  0.211084  62.5314  50.6321  34.0642
  11858.467  11858.500  0.500  0.212048  62.5  50.5578  33.9843
  11858.755  11858.800  0.500  0.213061  62.4546  50.47  33.8975
  11859.067  11859.100  0.500  0.214149  62.3717  50.3482  33.7801
  11859.354  11859.400  0.500  0.215177  62.2967  50.236  33.6693
  11859.667  11859.700  0.500  0.216377  62.2382  50.1286  33.5543
  11859.960  11860.000  0.500  0.217618  62.1895  50.0273  33.4498
  11860.254  11860.300  0.500  0.218985  62.175  49.9473  33.3534
  11860.554  11860.600  0.500  0.220425  62.1948  49.8913  33.27
  11860.854  11860.900  0.500  0.221758  62.219  49.8442  33.1877
  11861.172  11861.200  0.500  0.223345  62.2749  49.8099  33.1095
  11861.472  11861.500  0.500  0.224995  62.3425  49.7817  33.0373
  11861.766  11861.800  0.500  0.226662  62.3865  49.7339  32.9481
  11862.072  11862.100  0.500  0.228475  62.3724  49.6326  32.8173
  11862.366  11862.400  0.500  0.230325  62.3311  49.508  32.6724
  11862.685  11862.700  0.500  0.232430  62.2973  49.3772  32.5115
  11862.979  11863.000  0.500  0.234407  62.2679  49.2564  32.362
  11863.285  11863.300  0.500  0.236692  62.2588  49.1368  32.1996
  11863.579  11863.600  0.500  0.239050  62.2793  49.0372  32.0464
  11863.891  11863.900  0.500  0.241548  62.3177  48.945  31.8875
  11864.192  11864.200  0.500  0.244404  62.362  48.8401  31.7147
  11864.492  11864.500  0.500  0.247377  62.3944  48.7204  31.5309
  11864.798  11864.800  0.500  0.250488  62.4179  48.5874  31.32
  11865.080  11865.100  0.500  0.253847  62.4306  48.4343  31.0868
  11865.398  11865.400  0.500  0.257764  62.4392  48.2516  30.8142
  11865.686  11865.700  0.500  0.261583  62.4275  48.0587  30.5352
  11865.993  11866.000  0.500  0.266076  62.4223  47.8392  30.2116
  11866.268  11866.300  0.500  0.270599  62.4198  47.6214  29.8915
  11866.587  11866.600  0.500  0.275944  62.4194  47.3673  29.5025
  11866.875  11866.900  0.500  0.281326  62.4114  47.107  29.1106
  11867.181  11867.200  0.500  0.287817  62.4022  46.7954  28.6361
  11867.476  11867.500  0.500  0.294500  62.4074  46.4875  28.1504
  11867.788  11867.800  0.500  0.302142  62.3922  46.1224  27.5903
  11868.076  11868.100  0.500  0.310343  62.3988  45.7505  26.9944
  11868.383  11868.400  0.500  0.319510  62.3813  45.3203  26.3267
  11868.689  11868.700  0.500  0.330015  62.3737  44.8413  25.5638
  11868.984  11869.000  0.500  0.341320  62.3776  44.3399  24.7664
  11869.302  11869.300  0.500  0.355063  62.3646  43.7256  23.8124
  11869.597  11869.600  0.500  0.369189  62.3646  43.1123  22.8588
  11869.909  11869.900  0.500  0.387465  62.355  42.3251  21.6832
  11870.197  11870.200  0.500  0.406867  62.32  41.4885  20.5042
  11870.504  11870.500  0.500  0.430981  62.2698  40.4674  19.1515
  11870.805  11870.800  0.500  0.458577  62.2169  39.3324  17.7774
  11871.099  11871.100  0.500  0.492474  62.1738  37.9952  16.3119
  11871.406  11871.400  0.500  0.532580  62.1527  36.4891  14.8454
  11871.688  11871.700  0.500  0.578727  62.1655  34.8507  13.4621
  11872.007  11872.000  0.500  0.637992  62.2004  32.8637  12.0322
  11872.283  11872.300  0.500  0.700090  62.2429  30.9061  10.8439
  11872.583  11872.600  0.500  0.776817  62.2769  28.6391  9.684695
  11872.884  11872.900  0.500  0.865259  62.2934  26.2219  8.638000
  11873.190  11873.200  0.500  0.969375  62.3066  23.6341  7.672343
  11873.485  11873.500  0.500  1.090180  62.3171  20.9483  6.780632
  11873.773  11873.800  0.500  1.224599  62.3171  18.3135  5.964818
  11874.099  11874.100  0.500  1.399238  62.3183  15.3792  5.077568
  11874.387  11874.400  0.500  1.585358  62.3096  12.7656  4.281473
  11874.700  11874.700  0.500  1.828100  62.3065  10.0138  3.422294
  11875.001  11875.000  0.500  2.106115  62.3093  7.583659  2.638101
  11875.301  11875.300  0.500  2.430258  62.3102  5.484179  1.937439
  11875.602  11875.600  0.500  2.803026  62.3055  3.777354  1.352306
  11875.897  11875.900  0.500  3.217975  62.3096  2.494630  0.900107
  11876.210  11876.200  0.500  3.684297  62.2974  1.564589  0.566712
  11876.510  11876.500  0.500  4.091999  62.2899  1.040604  0.376106
  11876.811  11876.800  0.500  4.374879  62.2836  0.784130  0.283054
  11877.094  11877.100  0.500  4.416089  62.2858  0.752499  0.274296
  11877.413  11877.400  0.500  4.233177  62.2684  0.903280  0.336731
  11877.707  11877.700  0.500  3.948289  62.2577  1.200806  0.458448
  11878.002  11878.000  0.500  3.635275  62.26  1.642210  0.640086
  11878.297  11878.300  0.500  3.327752  62.2609  2.233525  0.887698
  11878.585  11878.600  0.500  3.068202  62.2478  2.894816  1.168224
  11878.893  11878.900  0.500  2.823449  62.238  3.696983  1.514190
  11879.187  11879.200  0.500  2.625702  62.2294  4.504717  1.867540
  11879.488  11879.500  0.500  2.449828  62.2236  5.370423  2.248998
  11879.789  11879.800  0.500  2.305477  62.2174  6.203773  2.618047
  11880.084  11880.100  0.500  2.191300  62.213  6.953634  2.951951
  11880.403  11880.400  0.500  2.088439  62.2064  7.706159  3.284751
  11880.692  11880.700  0.500  2.014123  62.1963  8.299308  3.542608
  11881.005  11881.000  0.500  1.947750  62.1976  8.869033  3.782110
  11881.288  11881.300  0.500  1.898245  62.1921  9.318321  3.961640
  11881.614  11881.600  0.500  1.855240  62.1868  9.726979  4.112943
  11881.902  11881.900  0.500  1.823367  62.1737  10.0399  4.215669
  11882.209  11882.200  0.500  1.797092  62.1686  10.3063  4.289541
  11882.504  11882.500  0.500  1.777189  62.1559  10.5114  4.337766
  11882.812  11882.800  0.500  1.761305  62.1472  10.6782  4.369450
  11883.100  11883.100  0.500  1.750967  62.1403  10.7879  4.383604
  11883.402  11883.400  0.500  1.743595  62.1265  10.8653  4.389169
  11883.703  11883.700  0.500  1.739525  62.1013  10.9052  4.389347
  11884.010  11884.000  0.500  1.737826  62.0461  10.9141  4.384905
  11884.299  11884.300  0.500  1.738024  61.9454  10.8942  4.377039
  11884.582  11884.600  0.500  1.740172  61.8044  10.8461  4.365779
  11884.895  11884.900  0.500  1.743455  61.6389  10.7816  4.352316
  11885.184  11885.200  0.500  1.747342  61.5078  10.7169  4.342218
  11885.498  11885.500  0.500  1.752209  61.4355  10.6523  4.335083
  11885.780  11885.800  0.500  1.757063  61.4336  10.6004  4.332313
  11886.112  11886.100  0.500  1.762391  61.4622  10.549  4.328938
  11886.389  11886.400  0.500  1.767430  61.5451  10.5101  4.326931
  11886.703  11886.700  0.500  1.772606  61.6487  10.4735  4.324818
  11887.004  11887.000  0.500  1.777594  61.771  10.442  4.322434
  11887.305  11887.300  0.500  1.782607  61.8777  10.4078  4.315158
  11887.600  11887.600  0.500  1.787584  61.9472  10.3677  4.307231
  11887.902  11887.900  0.500  1.792170  61.988  10.3271  4.295160
  11888.209  11888.200  0.500  1.797166  62.0138  10.2799  4.282195
  11888.505  11888.500  0.500  1.801806  62.0097  10.2316  4.267681
  11888.812  11888.800  0.500  1.806542  62.0199  10.185  4.253730
  11889.101  11889.100  0.500  1.810972  62.021  10.1401  4.242040
  11889.415  11889.400  0.500  1.815497  62.0221  10.0945  4.231790
  11889.704  11889.700  0.500  1.819144  62.0121  10.0562  4.225299
  11890.006  11890.000  0.500  1.822766  62.0111  10.0196  4.220939
  11890.289  11890.300  0.500  1.825855  62.0047  9.987709  4.221066
  11890.615  11890.600  0.500  1.828354  62  9.962030  4.224866
  11890.879  11890.900  0.500  1.830050  61.9921  9.943876  4.230487
  11891.199  11891.200  0.500  1.831434  61.9879  9.929449  4.238207
  11891.489  11891.500  0.500  1.831822  61.9871  9.925468  4.246466
  11891.685  11891.700  0.500  1.831602  61.9885  9.927880  4.253919
  11892.695  11892.690  0.500  1.823645  61.9727  10.0046  4.313429
  11893.698  11893.690  0.500  1.803544  61.9512  10.2042  4.431499
  11894.739  11894.710  0.500  1.773634  61.9567  10.515  4.621370
  11895.779  11895.760  0.500  1.737538  61.917  10.8945  4.844480
  11896.833  11896.820  0.500  1.698876  61.9033  11.3214  5.062896
  11897.898  11897.900  0.500  1.657098  61.8881  11.8015  5.285964
  11899.014  11899.000  0.500  1.612779  61.8614  12.331  5.525142
  11900.141  11900.120  0.500  1.567385  61.8135  12.8937  5.784485
  11901.288  11901.260  0.500  1.519083  61.561  13.4765  6.057472
  11902.434  11902.410  0.500  1.469023  61.158  14.0755  6.337614
  11903.594  11903.590  0.500  1.417326  61.443  14.8914  6.724549
  11904.790  11904.780  0.500  1.366318  61.7535  15.7499  7.138059
  11906.018  11906.000  0.500  1.317064  61.7717  16.5499  7.529212
  11907.258  11907.230  0.500  1.273633  61.7626  17.282  7.883327
  11908.511  11908.480  0.500  1.237354  61.7455  17.9155  8.193526
  11909.764  11909.750  0.500  1.210367  61.7373  18.4032  8.435349
  11911.048  11911.040  0.500  1.192497  61.7215  18.7302  8.586445
  11912.357  11912.350  0.500  1.183533  61.696  18.891  8.639614
  11913.697  11913.680  0.500  1.181571  61.6715  18.9206  8.611535
  11915.056  11915.030  0.500  1.185899  61.8154  18.8828  8.544601
  11916.422  11916.400  0.500  1.195160  61.5713  18.6349  8.385064
  11917.794  11917.780  0.500  1.207978  61.1384  18.2682  8.185054
  11919.210  11919.190  0.500  1.223383  61.5563  18.1119  8.088526
  11920.639  11920.610  0.500  1.240649  61.7594  17.8606  7.961226
  11922.067  11922.050  0.500  1.259768  61.7603  17.5226  7.798941
  11923.527  11923.510  0.500  1.279378  61.7377  17.1761  7.623769
  11924.994  11924.990  0.500  1.299091  61.7134  16.8342  7.445083
  11926.486  11926.490  0.500  1.319014  61.694  16.4969  7.261359
  11928.028  11928.010  0.500  1.339020  61.6825  16.1671  7.081292
  11929.557  11929.550  0.500  1.358252  61.6554  15.8522  6.915595
  11931.112  11931.110  0.500  1.376101  61.6381  15.5674  6.771877
  11932.674  11932.680  0.500  1.393281  61.6039  15.2938  6.642160
  11934.298  11934.280  0.500  1.410397  61.3257  14.9663  6.488667
  11935.903  11935.890  0.500  1.427467  60.9309  14.6183  6.323642
  11937.522  11937.530  0.500  1.444614  61.4393  14.4897  6.263354
  11939.172  11939.180  0.500  1.461037  61.4925  14.266  6.164480
  11940.854  11940.850  0.500  1.471807  61.4807  14.1105  6.093350
  11942.536  11942.540  0.500  1.481747  61.4604  13.9663  6.025221
  11944.262  11944.250  0.500  1.494171  61.4414  13.7896  5.941274
  11945.970  11945.980  0.500  1.507541  61.4126  13.6001  5.852546
  11947.734  11947.730  0.500  1.519917  61.3963  13.4292  5.776846
  11949.505  11949.490  0.500  1.528643  61.3698  13.3068  5.727773
  11951.277  11951.280  0.500  1.534347  61.3354  13.2237  5.702414
  11953.030  11953.080  0.500  1.539119  61.3111  13.1555  5.691733
  11954.890  11954.910  0.500  1.542885  61.2907  13.1017  5.683204
  11956.738  11956.750  0.500  1.545315  61.2637  13.0642  5.678389
  11958.592  11958.610  0.500  1.546198  61.2385  13.0473  5.680749
  11960.603  11960.490  0.500  1.545072  61.2061  13.055  5.692653
  11962.347  11962.390  0.500  1.543066  61.1772  13.0751  5.710281
  11964.602  11964.310  0.500  1.538686  61.1425  13.125  5.744087
  11966.403  11966.250  0.500  1.533247  61.1209  13.1919  5.783683
  11968.230  11968.210  0.500  1.527181  61.0906  13.2656  5.822890
  11970.175  11970.180  0.500  1.519419  61.0631  13.363  5.871740
  11972.184  11972.180  0.500  1.510452  61.0316  13.4764  5.930723
  11974.206  11974.190  0.500  1.500470  61.0051  13.6057  5.993856
  11976.234  11976.220  0.500  1.490050  60.973  13.741  6.062914
  11978.295  11978.280  0.500  1.478256  60.9445  13.8975  6.141378
  11980.344  11980.350  0.500  1.466316  60.9164  14.0579  6.219659
  11982.437  11982.440  0.500  1.454004  60.8917  14.2263  6.305607
  11984.550  11984.550  0.500  1.441302  60.8578  14.4001  6.396354
  11986.695  11986.680  0.500  1.428742  60.8318  14.5759  6.487621
  11988.834  11988.820  0.500  1.416885  60.8017  14.7425  6.572260
  11991.006  11990.990  0.500  1.405307  60.7743  14.9074  6.652373
  11993.165  11993.180  0.500  1.395086  60.7347  15.0508  6.721623
  11995.370  11995.380  0.500  1.386033  60.7112  15.1818  6.784439
  11997.612  11997.600  0.500  1.377972  60.6842  15.2978  6.838104
  11999.856  11999.850  0.500  1.371562  60.6488  15.3872  6.876172
  12002.119  12002.110  0.500  1.366466  60.6146  15.4571  6.904154
  12004.377  12004.390  0.500  1.362655  60.5907  15.51  6.919692
  12006.680  12006.690  0.500  1.360195  60.5589  15.5401  6.924811
  12009.015  12009.010  0.500  1.359051  60.5266  15.5496  6.917547
  12011.376  12011.350  0.500  1.358936  60.5041  15.5456  6.904796
  12013.719  12013.700  0.500  1.359762  60.4689  15.5237  6.885234
  12016.082  12016.080  0.500  1.361388  60.4312  15.4888  6.861820
  12018.452  12018.470  0.500  1.363722  60.4023  15.4453  6.834801
  12020.880  12020.890  0.500  1.366725  60.3715  15.3912  6.806182
  12023.333  12023.320  0.500  1.370074  60.3414  15.332  6.774713
  12025.795  12025.770  0.500  1.373486  60.3121  15.2724  6.742700
  12028.257  12028.250  0.500  1.377590  60.2742  15.2003  6.709167
  12030.733  12030.740  0.500  1.381408  60.2546  15.1374  6.677880
  12033.260  12033.250  0.500  1.385271  60.2116  15.0683  6.645025
  12035.782  12035.770  0.500  1.389220  60.1757  15  6.612792
  12038.343  12038.320  0.500  1.392856  60.1359  14.9356  6.584928
  12040.886  12040.890  0.500  1.397151  60.0937  14.8612  6.555681
  12043.468  12043.470  0.500  1.402695  60.0507  14.7685  6.519938
  12046.102  12046.080  0.500  1.406242  59.8858  14.6758  6.485915
  12048.711  12048.700  0.500  1.409267  58.3044  14.2451  6.301179
  12051.360  12051.350  0.500  1.411687  59.8315  14.5828  6.458763
  12054.004  12054.010  0.500  1.411936  59.8791  14.5908  6.469356
  12056.693  12056.690  0.500  1.413216  59.8615  14.5679  6.465543
  12059.396  12059.390  0.500  1.414424  59.8277  14.5421  6.462132
  12062.113  12062.110  0.500  1.415218  59.8009  14.524  6.460032
  12064.831  12064.850  0.500  1.415392  59.7647  14.5127  6.460452
  12067.601  12067.600  0.500  1.414698  59.7274  14.5137  6.462356
  12070.385  12070.380  0.500  1.413723  59.6871  14.518  6.466370
  12073.183  12073.170  0.500  1.412292  59.6529  14.5305  6.472571
  12075.995  12075.990  0.500  1.410173  59.6127  14.5515  6.484608
  12078.840  12078.820  0.500  1.407737  59.5758  14.578  6.499964
  12081.680  12081.670  0.500  1.404765  59.537  14.6119  6.519729
  12084.553  12084.550  0.500  1.401787  59.4983  14.6459  6.540405
  12087.434  12087.440  0.500  1.398432  59.4609  14.6859  6.564668
  12090.361  12090.350  0.500  1.394779  59.4046  14.7257  6.587083
  12093.271  12093.270  0.500  1.391026  59.2591  14.7448  6.600676
  12096.219  12096.220  0.500  1.387052  59.3508  14.8265  6.639642
  12099.202  12099.190  0.500  1.383034  59.3116  14.8763  6.665383
  12102.185  12102.170  0.500  1.379644  59.273  14.9171  6.686403
  12105.177  12105.180  0.500  1.375856  59.2344  14.964  6.710348
  12108.215  12108.200  0.500  1.371672  59.1979  15.0175  6.741067
  12111.273  12111.250  0.500  1.367006  59.1491  15.0753  6.772937
  12114.334  12114.310  0.500  1.362694  59.1242  15.134  6.804055
  12117.389  12117.390  0.500  1.358752  59.0744  15.181  6.832552
  12120.522  12120.490  0.500  1.354997  59.0298  15.2266  6.856644
  12123.613  12123.610  0.500  1.351537  58.9906  15.2692  6.880472
  12126.750  12126.750  0.500  1.348141  58.9388  15.3077  6.898631
  12129.927  12129.900  0.500  1.345029  58.696  15.2922  6.895760
  12133.080  12133.080  0.500  1.342295  58.8718  15.38  6.935549
  12136.279  12136.270  0.500  1.339636  58.8283  15.4095  6.948374
  12139.519  12139.490  0.500  1.337512  58.7824  15.4302  6.955491
  12142.741  12142.720  0.500  1.335676  58.7472  15.4494  6.961725
  12145.972  12145.970  0.500  1.334163  58.6999  15.4603  6.963139
  12149.274  12149.250  0.500  1.332688  58.6532  15.4708  6.960868
  12152.566  12152.540  0.500  1.331808  58.6129  15.4738  6.959934
  12155.853  12155.850  0.500  1.331049  58.5618  15.472  6.957408
  12159.200  12159.170  0.500  1.330358  58.5092  15.4688  6.953690
  12162.543  12162.520  0.500  1.329869  58.2718  15.4136  6.929454
  12165.887  12165.890  0.500  1.329614  58.4345  15.4606  6.956322
  12169.297  12169.270  0.500  1.329136  58.3886  15.4558  6.956210
  12172.710  12172.680  0.500  1.328776  58.3377  15.4479  6.959907
  12176.124  12176.100  0.500  1.328387  58.2891  15.441  6.965121
  12179.567  12179.550  0.500  1.328110  58.2447  15.4335  6.969191
  12183.030  12183.010  0.500  1.327735  58.1981  15.427  6.976370
  12186.496  12186.490  0.500  1.327111  58.1513  15.4242  6.982576
  12190.009  12189.990  0.500  1.326675  58.1064  15.419  6.988805
  12193.524  12193.510  0.500  1.326045  58.0596  15.4163  6.993375
  12197.067  12197.050  0.500  1.325342  58.0124  15.4146  7.000235
  12200.638  12200.600  0.500  1.324439  57.8251  15.3787  6.988007
  12204.198  12204.180  0.500  1.323509  57.9283  15.4205  7.010590
  12207.805  12207.780  0.500  1.322401  57.8774  15.424  7.014852
  12211.402  12211.390  0.500  1.321062  57.8354  15.4335  7.020352
  12215.027  12215.020  0.500  1.319406  57.7904  15.447  7.026013
  12218.700  12218.680  0.500  1.317901  57.7401  15.4568  7.033918
  12222.368  12222.350  0.500  1.315913  57.6865  15.4732  7.040674
  12226.039  12226.040  0.500  1.314123  57.6459  15.49  7.049781
  12229.770  12229.750  0.500  1.311983  57.601  15.5111  7.062203
  12233.478  12233.480  0.500  1.309660  57.4578  15.5085  7.063034
  12237.240  12237.220  0.500  1.307412  56.7094  15.341  6.989351
  12240.998  12240.990  0.500  1.304592  57.3863  15.5679  7.098732
  12244.784  12244.780  0.500  1.302124  57.3587  15.5989  7.119179
  12248.586  12248.580  0.500  1.299226  57.3164  15.6326  7.142064
  12252.430  12252.410  0.500  1.296499  57.2644  15.6611  7.163536
  12256.263  12256.250  0.500  1.293562  57.073  15.6547  7.167610
  12260.118  12260.110  0.500  1.290703  57.1524  15.7213  7.205308
  12264.001  12263.990  0.500  1.287777  56.1703  15.4965  7.112488
  12267.933  12267.890  0.500  1.284628  56.9579  15.7633  7.238217
  12271.802  12271.810  0.500  1.281781  56.8681  15.7833  7.252046
  12275.765  12275.750  0.500  1.278846  56.9499  15.8525  7.288974
  12279.718  12279.710  0.500  1.275856  56.8896  15.8831  7.305089
  12283.693  12283.680  0.500  1.273138  56.7175  15.8782  7.304393
  12287.704  12287.680  0.500  1.270440  56.741  15.9277  7.331121
  12291.697  12291.690  0.500  1.267781  55.3765  15.586  7.173377
  12295.753  12295.730  0.500  1.265176  56.6036  15.973  7.350937
  12299.778  12299.780  0.500  1.262642  56.4175  15.9608  7.344227
  12303.872  12303.850  0.500  1.260449  56.5337  16.0288  7.376212
  12307.948  12307.940  0.500  1.258080  56.4781  16.051  7.385836
  12312.067  12312.050  0.500  1.256102  56.4269  16.0682  7.396564
  12316.202  12316.180  0.500  1.254154  56.369  16.083  7.404404
  12320.354  12320.330  0.500  1.252067  55.5258  15.8756  7.315427
  12324.527  12324.490  0.500  1.250345  56.1386  16.0784  7.410499
  12328.691  12328.680  0.500  1.248796  56.1694  16.1122  7.431896
  12332.923  12332.880  0.500  1.246832  56.1272  16.1317  7.447206
  12337.132  12337.110  0.500  1.245280  56.0736  16.1413  7.458369
  12341.377  12341.350  0.500  1.243745  56.0226  16.1514  7.469802
  12345.645  12345.610  0.500  1.242067  55.963  16.1614  7.480834
  12349.890  12349.890  0.500  1.240574  55.7779  16.132  7.473479
  12354.217  12354.190  0.500  1.238976  55.8593  16.1814  7.504024
  12358.520  12358.510  0.500  1.237433  55.725  16.1674  7.504656
  12362.873  12362.850  0.500  1.235689  55.7369  16.1991  7.524562
  12367.236  12367.210  0.500  1.234186  55.6944  16.2111  7.535498
  12371.603  12371.590  0.500  1.232633  55.6329  16.2183  7.543704
  12376.032  12375.980  0.500  1.230988  55.5856  16.2312  7.553275
  12380.424  12380.400  0.500  1.229156  55.5152  16.2404  7.560114
  12384.853  12384.830  0.500  1.227382  55.0702  16.1388  7.515081
  12389.312  12389.280  0.500  1.225429  55.4267  16.275  7.582303
  12393.754  12393.750  0.500  1.223656  55.3704  16.2874  7.590099
  12398.267  12398.240  0.500  1.221563  55.3014  16.3011  7.600429
  12402.782  12402.750  0.500  1.219568  55.2429  16.3164  7.610919
  12407.308  12407.280  0.500  1.217256  55.1853  16.3371  7.623519
  12411.850  12411.830  0.500  1.215202  55.1206  16.3515  7.636623
  12416.423  12416.400  0.500  1.212875  55.0468  16.3677  7.648312
  12421.006  12420.980  0.500  1.210584  55.0079  16.3936  7.667002
  12425.626  12425.590  0.500  1.208099  54.9451  16.4157  7.682117
  12430.249  12430.210  0.500  1.205842  54.8612  16.4276  7.695667
  12434.896  12434.860  0.500  1.203277  54.7564  16.4383  7.707934
  12439.534  12439.520  0.500  1.200695  54.7428  16.4768  7.731864
  12444.221  12444.200  0.500  1.198112  54.7228  16.5133  7.756246
  12448.920  12448.900  0.500  1.195374  54.6584  16.5391  7.772361
  12453.655  12453.620  0.500  1.192964  54.4655  16.5205  7.770850
  12458.388  12458.360  0.500  1.190408  54.5427  16.5863  7.805682
  12463.137  12463.110  0.500  1.187764  54.4791  16.6108  7.822651
  12467.918  12467.890  0.500  1.185122  54.5149  16.6657  7.850987
  12472.716  12472.690  0.500  1.182724  54.568  16.722  7.882533
  12477.537  12477.500  0.500  1.180259  54.4973  16.7415  7.895358
  12482.363  12482.330  0.500  1.177765  54.4219  16.7601  7.906486
  12487.213  12487.190  0.500  1.175271  54.1574  16.7203  7.887869
  12492.100  12492.060  0.500  1.172947  54.3403  16.8158  7.937714
  12496.992  12496.950  0.500  1.170545  54.2667  16.8334  7.948685
  12501.907  12501.860  0.500  1.168214  54.2056  16.8537  7.961367
  12506.813  12506.790  0.500  1.165975  54.1463  16.873  7.974542
  12511.771  12511.730  0.500  1.163704  54.0777  16.8899  7.986495
  12516.740  12516.700  0.500  1.161661  54.0189  16.9061  8.001107
  12521.733  12521.690  0.500  1.159482  53.9502  16.9214  8.013437
  12526.709  12526.690  0.500  1.157414  53.8901  16.9375  8.028626
  12531.772  12531.720  0.500  1.155242  53.8225  16.9531  8.041936
  12536.798  12536.760  0.500  1.153189  53.7489  16.9647  8.053820
  12541.896  12541.820  0.500  1.151123  53.4605  16.9086  8.032670
  12546.861  12546.900  0.500  1.148950  53.6467  17.0044  8.085663
  12551.982  12552.000  0.500  1.147098  53.5834  17.0158  8.099420
  12557.092  12557.120  0.500  1.145068  53.5146  17.0285  8.111099
  12562.242  12562.260  0.500  1.143045  53.4486  17.0419  8.124350
  12567.416  12567.420  0.500  1.141086  53.387  17.0556  8.135486
  12572.602  12572.600  0.500  1.139044  53.3255  17.0708  8.147357
  12577.799  12577.790  0.500  1.137143  53.2393  17.0756  8.155963
  12583.021  12583.010  0.500  1.135073  53.1887  17.0948  8.168371
  12588.247  12588.240  0.500  1.133080  53.1303  17.1101  8.180165
  12593.512  12593.490  0.500  1.130960  53.063  17.1247  8.190275
  12598.782  12598.760  0.500  1.128772  52.9953  17.1403  8.202358
  12604.077  12604.050  0.500  1.126474  52.9241  17.1566  8.213257
  12609.411  12609.360  0.500  1.124423  52.864  17.1723  8.228031
  12614.715  12614.690  0.500  1.122140  52.7941  17.1888  8.239985
  12620.079  12620.040  0.500  1.119921  52.7264  17.2049  8.254193
  12625.441  12625.410  0.500  1.117632  52.6583  17.2221  8.267450
  12630.821  12630.790  0.500  1.115402  52.6021  17.2421  8.284162
  12636.248  12636.200  0.500  1.112982  52.5178  17.2562  8.297019
  12641.658  12641.620  0.500  1.110550  52.4182  17.2654  8.308154
  12647.094  12647.070  0.500  1.108283  52.4101  17.3019  8.331767
  12652.556  12652.530  0.500  1.105869  52.3415  17.321  8.347100
  12658.044  12658.010  0.500  1.103407  52.2741  17.3413  8.364138
  12663.550  12663.510  0.500  1.101091  52.2097  17.3601  8.379411
  12669.068  12669.030  0.500  1.098578  52.1398  17.3805  8.394487
  12674.598  12674.570  0.500  1.096082  52.0705  17.4008  8.409295
  12680.154  12680.120  0.500  1.093657  52.0063  17.4216  8.425240
  12685.722  12685.700  0.500  1.091252  51.9337  17.4391  8.438707
  12691.351  12691.300  0.500  1.088750  51.8644  17.4595  8.452851
  12696.943  12696.910  0.500  1.086424  51.7994  17.4782  8.466849
  12702.596  12702.550  0.500  1.084083  51.7256  17.4942  8.479722
  12708.219  12708.200  0.500  1.081593  51.6601  17.5156  8.493294
  12713.911  12713.870  0.500  1.079206  51.5878  17.5329  8.507054
  12719.593  12719.560  0.500  1.076987  51.5227  17.5497  8.521179