File: xdidata/As/As-K-Realgar.xdi
# XDI/1.0 BlueSky/1.10.0 BMM/2023-1.0-py310-tiled
# Beamline.name: BMM (06BM) -- Beamline for Materials Measurement (NIST)
# Beamline.xray_source: NSLS-II three-pole wiggler
# Beamline.collimation: paraboloid mirror, 5 nm Rh on 30 nm Pt
# Beamline.focusing: not in use
# Beamline.harmonic_rejection: flat mirror, Pt stripe, pitch = 7.0 mrad relative to beam
# Beamline.software: Bluesky 1.10.0, Ophyd 1.7.0, DataBroker 2.0.0b13, Python 3.10.8, 2023-1.0-py310-tiled
# Detector.I0: 10 cm N2
# Detector.I1: 25 cm N2
# Detector.I2: 25 cm N2
# Element.symbol: As
# Element.edge: K
# Element.reference: As
# Element.reference_material: As2O3
# Facility.name: NSLS-II
# Facility.energy: 3.0
# Facility.current: 400.8
# Facility.mode: top-off
# Facility.GUP: 301027
# Facility.SAF: 310583
# Facility.cycle: 2023-2
# Mono.name: Si(111)
# Mono.d_spacing: 3.13519
# Mono.encoder_resolution: 0.0000050 deg/ct
# Mono.angle_offset: 16.0754 deg
# Mono.scan_mode: pseudo channel cut
# Mono.scan_type: step
# Mono.direction: forward in energy
# Sample.name: AsS
# Sample.prep: powder in PEG pellet
# Sample.x: 115.008 mm
# Sample.y: 114.461 mm
# Sample.SDD_position: 170.000 mm
# Scan.experimenters: Bruce Ravel
# Scan.edge_energy: 11866.7
# Scan.start_time: 2023-07-10T16:45:17
# Scan.end_time: 2023-07-10T16:53:08
# Scan.transient_id: 90296
# Scan.uid: 20ff5c99-f1b9-46b5-9d06-99beffb16e1d
# Scan.plot_hint: ln(I0/It)  --  ln($5/$6)
# Column.1: energy eV
# Column.2: requested_energy eV
# Column.3: measurement_time seconds
# Column.4: xmu
# Column.5: I0 nA
# Column.6: It nA
# Column.7: Ir nA
# ///////////
# Powder + BN in plastic frame, courtesy of Sarah Nicolas
# -----------
# energy  requested_energy  measurement_time  xmu  I0  It  Ir
  11666.678  11666.700  0.500  0.020471  65.0065  63.6893  43.3561
  11676.727  11676.700  0.500  0.018760  64.918  63.7115  43.4105
  11686.741  11686.700  0.500  0.017185  64.7581  63.6547  43.4113
  11696.748  11696.700  0.500  0.015430  64.6381  63.6484  43.4441
  11706.731  11706.700  0.500  0.013907  64.5206  63.6295  43.4715
  11716.743  11716.700  0.500  0.012081  64.3952  63.6219  43.505
  11726.755  11726.700  0.500  0.010380  64.2405  63.5771  43.5076
  11736.784  11736.700  0.500  0.008891  63.9636  63.3974  43.4234
  11746.710  11746.700  0.500  0.007034  63.7476  63.3007  43.3929
  11756.732  11756.700  0.500  0.005536  63.7248  63.373  43.4731
  11766.729  11766.700  0.500  0.004114  63.6887  63.4272  43.5464
  11776.749  11776.700  0.500  0.002411  63.3802  63.2276  43.4414
  11786.744  11786.700  0.500  0.001036  63.4283  63.3627  43.5588
  11796.750  11796.700  0.500  -0.000774  63.3013  63.3504  43.5739
  11806.755  11806.700  0.500  -0.002238  62.9261  63.0671  43.3971
  11816.748  11816.700  0.500  -0.003775  63.0037  63.242  43.5234
  11826.757  11826.700  0.500  -0.005120  62.8666  63.1893  43.4767
  11836.735  11836.700  0.500  -0.006219  62.7515  63.143  43.3916
  11838.704  11838.700  0.500  -0.006434  62.7272  63.1321  43.3656
  11840.693  11840.700  0.500  -0.006573  62.7  63.1135  43.3315
  11842.682  11842.700  0.500  -0.006734  62.6806  63.1041  43.2915
  11844.678  11844.700  0.500  -0.006900  62.6585  63.0923  43.2483
  11846.675  11846.700  0.500  -0.006853  62.6174  63.0479  43.1777
  11848.696  11848.700  0.500  -0.006759  62.4224  62.8457  42.9838
  11850.682  11850.700  0.500  -0.006639  62.5664  62.9831  43.0081
  11852.675  11852.700  0.500  -0.006504  62.5519  62.9601  42.9047
  11854.680  11854.700  0.500  -0.005983  62.497  62.872  42.7274
  11856.680  11856.700  0.500  -0.005188  62.3187  62.6429  42.4139
  11856.956  11857.000  0.500  -0.005033  62.3583  62.6729  42.4054
  11857.249  11857.300  0.500  -0.004795  62.3935  62.6933  42.3902
  11857.555  11857.600  0.500  -0.004765  62.4273  62.7255  42.3829
  11857.861  11857.900  0.500  -0.004634  62.4361  62.726  42.3495
  11858.149  11858.200  0.500  -0.004440  62.4457  62.7236  42.3152
  11858.467  11858.500  0.500  -0.004258  62.4279  62.6943  42.2601
  11858.749  11858.800  0.500  -0.004119  62.3725  62.6299  42.1783
  11859.055  11859.100  0.500  -0.003799  62.2958  62.5329  42.0745
  11859.361  11859.400  0.500  -0.003508  62.2192  62.4379  41.962
  11859.654  11859.700  0.500  -0.003230  62.1497  62.3508  41.8601
  11859.967  11860.000  0.500  -0.002811  62.12  62.2949  41.7709
  11860.260  11860.300  0.500  -0.002486  62.0957  62.2503  41.6896
  11860.566  11860.600  0.500  -0.002112  62.1017  62.233  41.6223
  11860.879  11860.900  0.500  -0.001556  62.133  62.2297  41.5599
  11861.179  11861.200  0.500  -0.001046  62.1936  62.2587  41.52
  11861.491  11861.500  0.500  -0.000555  62.2536  62.2881  41.4678
  11861.779  11861.800  0.500  -0.000179  62.2872  62.2983  41.4071
  11862.097  11862.100  0.500  0.000409  62.2799  62.2544  41.2989
  11862.391  11862.400  0.500  0.001093  62.2542  62.1862  41.1756
  11862.685  11862.700  0.500  0.001797  62.2119  62.1003  41.0336
  11862.985  11863.000  0.500  0.002622  62.1859  62.0231  40.8905
  11863.279  11863.300  0.500  0.003464  62.1793  61.9643  40.7579
  11863.603  11863.600  0.500  0.004498  62.1974  61.9183  40.6168
  11863.885  11863.900  0.500  0.005495  62.2413  61.9002  40.4952
  11864.192  11864.200  0.500  0.006759  62.2696  61.8501  40.3304
  11864.486  11864.500  0.500  0.008189  62.3042  61.796  40.1681
  11864.798  11864.800  0.500  0.009799  62.3272  61.7195  39.9675
  11865.092  11865.100  0.500  0.011568  62.3484  61.6313  39.7453
  11865.380  11865.400  0.500  0.013693  62.347  61.499  39.4885
  11865.680  11865.700  0.500  0.016066  62.3495  61.3558  39.2054
  11865.980  11866.000  0.500  0.018849  62.3451  61.1809  38.8721
  11866.281  11866.300  0.500  0.022222  62.3478  60.9776  38.5128
  11866.581  11866.600  0.500  0.026158  62.3358  60.7264  38.087
  11866.875  11866.900  0.500  0.030766  62.3345  60.446  37.6268
  11867.194  11867.200  0.500  0.036684  62.3284  60.0834  37.0604
  11867.488  11867.500  0.500  0.043345  62.3246  59.6809  36.4701
  11867.788  11867.800  0.500  0.051752  62.32  59.1769  35.7728
  11868.082  11868.100  0.500  0.061724  62.3082  58.5785  34.9756
  11868.401  11868.400  0.500  0.073813  62.3079  57.8744  34.0794
  11868.702  11868.700  0.500  0.087995  62.2967  57.0492  33.0744
  11868.990  11869.000  0.500  0.103861  62.3052  56.1588  31.9937
  11869.308  11869.300  0.500  0.122526  62.2881  55.1052  30.7212
  11869.603  11869.600  0.500  0.140626  62.2831  54.1124  29.478
  11869.903  11869.900  0.500  0.158742  62.2689  53.1288  28.1414
  11870.210  11870.200  0.500  0.174981  62.2485  52.2559  26.7629
  11870.498  11870.500  0.500  0.187312  62.2105  51.584  25.4171
  11870.792  11870.800  0.500  0.195261  62.1489  51.1249  24.0972
  11871.093  11871.100  0.500  0.198591  62.1072  50.9207  22.8729
  11871.399  11871.400  0.500  0.197601  62.0739  50.9439  21.6683
  11871.694  11871.700  0.500  0.193402  62.0822  51.1651  20.6277
  11871.976  11872.000  0.500  0.186984  62.1076  51.5156  19.7325
  11872.301  11872.300  0.500  0.178480  62.1544  51.9947  18.9184
  11872.577  11872.600  0.500  0.170561  62.1904  52.4384  18.416
  11872.884  11872.900  0.500  0.161933  62.2096  52.9092  18.0809
  11873.197  11873.200  0.500  0.152838  62.2226  53.4037  17.9902
  11873.485  11873.500  0.500  0.144798  62.2343  53.845  18.1063
  11873.810  11873.800  0.500  0.136088  62.2232  54.3063  18.4067
  11874.099  11874.100  0.500  0.128290  62.2165  54.7255  18.7971
  11874.405  11874.400  0.500  0.120803  62.2171  55.1373  19.2638
  11874.706  11874.700  0.500  0.114377  62.2206  55.4959  19.724
  11874.994  11875.000  0.500  0.109342  62.196  55.7539  20.1138
  11875.320  11875.300  0.500  0.105386  62.1964  55.9753  20.4862
  11875.602  11875.600  0.500  0.103173  62.2033  56.1056  20.75
  11875.915  11875.900  0.500  0.102088  62.1925  56.1567  20.9753
  11876.191  11876.200  0.500  0.102212  62.184  56.1421  21.1463
  11876.510  11876.500  0.500  0.103278  62.1804  56.079  21.3176
  11876.799  11876.800  0.500  0.104775  62.1749  55.9902  21.4908
  11877.081  11877.100  0.500  0.106501  62.1658  55.8854  21.6773
  11877.394  11877.400  0.500  0.108429  62.1634  55.7756  21.9234
  11877.689  11877.700  0.500  0.110046  62.1497  55.6732  22.1858
  11877.996  11878.000  0.500  0.111409  62.1445  55.5928  22.4836
  11878.285  11878.300  0.500  0.112602  62.1509  55.5322  22.7892
  11878.604  11878.600  0.500  0.113433  62.1427  55.4788  23.1216
  11878.893  11878.900  0.500  0.113557  62.1495  55.478  23.42
  11879.193  11879.200  0.500  0.113512  62.1392  55.4713  23.7115
  11879.500  11879.500  0.500  0.113028  62.1226  55.4833  23.9639
  11879.801  11879.800  0.500  0.112433  62.1162  55.5106  24.1747
  11880.102  11880.100  0.500  0.111613  62.1036  55.5448  24.3386
  11880.397  11880.400  0.500  0.110710  62.1031  55.5946  24.4544
  11880.717  11880.700  0.500  0.109638  62.0989  55.6504  24.5259
  11880.999  11881.000  0.500  0.108697  62.0996  55.7034  24.5418
  11881.319  11881.300  0.500  0.107662  62.0884  55.7511  24.4914
  11881.595  11881.600  0.500  0.106880  62.0872  55.7937  24.3973
  11881.902  11881.900  0.500  0.106165  62.0812  55.8281  24.2426
  11882.197  11882.200  0.500  0.105642  62.072  55.8491  24.0619
  11882.504  11882.500  0.500  0.105138  62.0658  55.8717  23.8591
  11882.793  11882.800  0.500  0.104909  62.0612  55.8803  23.6628
  11883.100  11883.100  0.500  0.104615  62.0378  55.8757  23.4745
  11883.389  11883.400  0.500  0.104482  62.0376  55.8829  23.3339
  11883.678  11883.700  0.500  0.104488  62.0097  55.8575  23.2215
  11883.998  11884.000  0.500  0.104236  61.9596  55.8263  23.1457
  11884.287  11884.300  0.500  0.104082  61.8657  55.7504  23.1033
  11884.606  11884.600  0.500  0.103970  61.7109  55.6172  23.0771
  11884.889  11884.900  0.500  0.103897  61.5636  55.4884  23.0731
  11885.209  11885.200  0.500  0.103935  61.4208  55.3576  23.1018
  11885.498  11885.500  0.500  0.104032  61.35  55.2883  23.1592
  11885.811  11885.800  0.500  0.103907  61.3308  55.278  23.2542
  11886.100  11886.100  0.500  0.103785  61.3687  55.3189  23.3558
  11886.408  11886.400  0.500  0.103638  61.4469  55.3975  23.4713
  11886.703  11886.700  0.500  0.103467  61.5509  55.5008  23.5776
  11887.004  11887.000  0.500  0.103150  61.6641  55.6205  23.6828
  11887.299  11887.300  0.500  0.102878  61.7774  55.7379  23.7774
  11887.619  11887.600  0.500  0.102496  61.8498  55.8245  23.8568
  11887.902  11887.900  0.500  0.102172  61.8894  55.8783  23.9091
  11888.216  11888.200  0.500  0.101857  61.9172  55.921  23.9595
  11888.498  11888.500  0.500  0.101555  61.9364  55.9553  23.9984
  11888.806  11888.800  0.500  0.101246  61.9246  55.9619  24.036
  11889.101  11889.100  0.500  0.100985  61.924  55.976  24.0781
  11889.390  11889.400  0.500  0.100767  61.9254  55.9894  24.1241
  11889.698  11889.700  0.500  0.100407  61.9149  56.0001  24.1798
  11889.993  11890.000  0.500  0.100218  61.9184  56.0138  24.2487
  11890.289  11890.300  0.500  0.099928  61.918  56.0298  24.3222
  11890.584  11890.600  0.500  0.099708  61.9111  56.0358  24.3993
  11890.885  11890.900  0.500  0.099577  61.9073  56.0397  24.4778
  11891.187  11891.200  0.500  0.099325  61.9037  56.0506  24.5576
  11891.507  11891.500  0.500  0.098983  61.8986  56.0652  24.6327
  11891.704  11891.700  0.500  0.098958  61.8979  56.066  24.6699
  11892.719  11892.690  0.500  0.098030  61.8821  56.1036  24.8343
  11893.711  11893.690  0.500  0.097281  61.8701  56.1348  25.0098
  11894.733  11894.710  0.500  0.096504  61.8633  56.1722  25.3019
  11895.767  11895.760  0.500  0.095481  61.8368  56.2057  25.5995
  11896.839  11896.820  0.500  0.094432  61.8309  56.2593  25.7823
  11897.923  11897.900  0.500  0.093718  61.8006  56.2719  25.8253
  11899.038  11899.000  0.500  0.092919  61.7792  56.2974  25.8445
  11900.147  11900.120  0.500  0.092485  61.7389  56.285  25.8682
  11901.282  11901.260  0.500  0.091858  61.5091  56.1107  25.836
  11902.410  11902.410  0.500  0.091922  61.0846  55.7199  25.6984
  11903.594  11903.590  0.500  0.092111  61.3513  55.9527  25.8673
  11904.796  11904.780  0.500  0.091705  61.67  56.2661  26.1048
  11906.011  11906.000  0.500  0.091644  61.6872  56.2853  26.2079
  11907.245  11907.230  0.500  0.091695  61.6859  56.2812  26.2742
  11908.492  11908.480  0.500  0.091826  61.6754  56.2643  26.3198
  11909.757  11909.750  0.500  0.091921  61.652  56.2376  26.364
  11911.060  11911.040  0.500  0.091846  61.6407  56.2314  26.3692
  11912.375  11912.350  0.500  0.091728  61.6184  56.2177  26.3022
  11913.710  11913.680  0.500  0.091601  61.5987  56.2069  26.1827
  11915.056  11915.030  0.500  0.091250  61.5559  56.1876  26.0252
  11916.416  11916.400  0.500  0.090738  61.3393  56.0185  25.8067
  11917.800  11917.780  0.500  0.091034  60.8781  55.5809  25.4965
  11919.216  11919.190  0.500  0.091371  61.277  55.9262  25.5787
  11920.639  11920.610  0.500  0.091302  61.497  56.1309  25.6266
  11922.067  11922.050  0.500  0.091637  61.4941  56.1095  25.5789
  11923.521  11923.510  0.500  0.092056  61.4813  56.0743  25.504
  11925.000  11924.990  0.500  0.092447  61.4613  56.0341  25.3939
  11926.498  11926.490  0.500  0.093083  61.4461  55.9847  25.2646
  11928.021  11928.010  0.500  0.093842  61.4253  55.9232  25.128
  11929.564  11929.550  0.500  0.094374  61.4036  55.8738  25.0055
  11931.106  11931.110  0.500  0.094788  61.3799  55.8291  24.9224
  11932.680  11932.680  0.500  0.095161  61.3465  55.7778  24.8634
  11934.292  11934.280  0.500  0.094902  61.31  55.7592  24.8169
  11935.910  11935.890  0.500  0.095340  60.8783  55.3423  24.5789
  11937.528  11937.530  0.500  0.094973  61.3789  55.8178  24.7707
  11939.178  11939.180  0.500  0.094267  61.4447  55.9171  24.8103
  11940.872  11940.850  0.500  0.093373  61.433  55.9565  24.817
  11942.561  11942.540  0.500  0.092368  61.4064  55.9885  24.8047
  11944.256  11944.250  0.500  0.091299  61.3949  56.0378  24.7906
  11945.976  11945.980  0.500  0.090127  61.3648  56.076  24.7792
  11947.734  11947.730  0.500  0.088885  61.3457  56.1283  24.783
  11949.505  11949.490  0.500  0.087810  61.3234  56.1682  24.8143
  11951.301  11951.280  0.500  0.086657  61.2942  56.2063  24.877
  11953.080  11953.080  0.500  0.085892  61.2751  56.2317  24.9569
  11954.908  11954.910  0.500  0.084866  61.2407  56.2579  25.0331
  11956.756  11956.750  0.500  0.084339  61.2205  56.269  25.0874
  11958.605  11958.610  0.500  0.083817  61.1918  56.2719  25.1204
  11960.485  11960.490  0.500  0.083484  61.1694  56.2701  25.1547
  11962.403  11962.390  0.500  0.083352  61.1452  56.2552  25.1944
  11964.322  11964.310  0.500  0.083099  61.1188  56.2452  25.2332
  11966.241  11966.250  0.500  0.083085  61.0828  56.2128  25.2637
  11968.211  11968.210  0.500  0.083057  61.0624  56.1957  25.2901
  11970.181  11970.180  0.500  0.082998  61.0351  56.1738  25.3108
  11972.153  11972.180  0.500  0.082900  61.0114  56.1575  25.3365
  11974.168  11974.190  0.500  0.082831  60.9762  56.129  25.3581
  11976.178  11976.220  0.500  0.082725  60.9527  56.1133  25.3782
  11978.289  11978.280  0.500  0.082697  60.9171  56.0821  25.3985
  11980.406  11980.350  0.500  0.082549  60.8768  56.0533  25.4214
  11982.406  11982.440  0.500  0.082456  60.8484  56.0324  25.4528
  11984.525  11984.550  0.500  0.082355  60.8256  56.0171  25.4984
  11986.782  11986.680  0.500  0.082324  60.7816  55.9782  25.5329
  11988.903  11988.820  0.500  0.082283  60.7481  55.9497  25.558
  11991.031  11990.990  0.500  0.082198  60.7148  55.9237  25.5735
  11993.178  11993.180  0.500  0.082231  60.6837  55.8933  25.5778
  11995.363  11995.380  0.500  0.082165  60.667  55.8815  25.5841
  11997.581  11997.600  0.500  0.082141  60.6338  55.8524  25.5806
  11999.850  11999.850  0.500  0.081888  60.5883  55.8245  25.5627
  12002.119  12002.110  0.500  0.081814  60.5646  55.8069  25.5421
  12004.390  12004.390  0.500  0.081510  60.5318  55.7936  25.5123
  12006.680  12006.690  0.500  0.081091  60.5036  55.7909  25.4791
  12008.996  12009.010  0.500  0.080606  60.4777  55.7942  25.4434
  12011.351  12011.350  0.500  0.079957  60.4455  55.8006  25.4049
  12013.694  12013.700  0.500  0.079152  60.4255  55.827  25.3809
  12016.076  12016.080  0.500  0.078270  60.3907  55.8441  25.3573
  12018.458  12018.470  0.500  0.077236  60.3666  55.8796  25.3473
  12020.886  12020.890  0.500  0.076286  60.333  55.9016  25.3367
  12023.333  12023.320  0.500  0.075230  60.3002  55.9303  25.3291
  12025.769  12025.770  0.500  0.074395  60.2696  55.9485  25.3186
  12028.244  12028.250  0.500  0.073494  60.2362  55.968  25.3131
  12030.733  12030.740  0.500  0.072855  60.1966  55.967  25.3037
  12033.247  12033.250  0.500  0.072363  60.1701  55.9698  25.2942
  12035.757  12035.770  0.500  0.071900  60.1273  55.9558  25.2841
  12038.318  12038.320  0.500  0.071570  60.0981  55.9472  25.2786
  12040.911  12040.890  0.500  0.071202  60.053  55.9258  25.282
  12043.462  12043.470  0.500  0.070916  60.0193  55.9104  25.2861
  12046.076  12046.080  0.500  0.070803  59.8553  55.7639  25.2537
  12048.718  12048.700  0.500  0.071028  58.2352  54.2423  24.5871
  12051.354  12051.350  0.500  0.070904  59.7907  55.6981  25.2775
  12054.023  12054.010  0.500  0.070803  59.8384  55.7482  25.3295
  12056.686  12056.690  0.500  0.070655  59.8128  55.7326  25.3524
  12059.389  12059.390  0.500  0.070532  59.783  55.7117  25.3704
  12062.113  12062.110  0.500  0.070172  59.7459  55.6971  25.3813
  12064.856  12064.850  0.500  0.070055  59.7207  55.6802  25.3951
  12067.607  12067.600  0.500  0.069580  59.6781  55.6668  25.3977
  12070.372  12070.380  0.500  0.069203  59.6389  55.6513  25.396
  12073.189  12073.170  0.500  0.068663  59.6053  55.65  25.4034
  12076.001  12075.990  0.500  0.068166  59.5666  55.6415  25.4063
  12078.821  12078.820  0.500  0.067576  59.529  55.6391  25.4191
  12081.661  12081.670  0.500  0.067024  59.4888  55.6323  25.4329
  12084.553  12084.550  0.500  0.066407  59.4492  55.6296  25.4524
  12087.447  12087.440  0.500  0.065778  59.4127  55.6304  25.4703
  12090.336  12090.350  0.500  0.065192  59.3605  55.6141  25.4798
  12093.264  12093.270  0.500  0.064764  59.19  55.4781  25.4362
  12096.226  12096.220  0.500  0.064086  59.2985  55.6175  25.5134
  12099.195  12099.190  0.500  0.063544  59.2577  55.6093  25.5158
  12102.160  12102.170  0.500  0.063071  59.2179  55.5983  25.5226
  12105.183  12105.180  0.500  0.062669  59.1854  55.5902  25.5342
  12108.209  12108.200  0.500  0.062143  59.1498  55.5859  25.5504
  12111.242  12111.250  0.500  0.061629  59.1068  55.5741  25.5654
  12114.314  12114.310  0.500  0.061315  59.0707  55.5576  25.5795
  12117.402  12117.390  0.500  0.060619  59.0228  55.5512  25.5943
  12120.516  12120.490  0.500  0.060204  58.9794  55.5334  25.6067
  12123.613  12123.610  0.500  0.059519  58.934  55.5287  25.6139
  12126.775  12126.750  0.500  0.059029  58.8855  55.5102  25.6147
  12129.927  12129.900  0.500  0.058534  58.6437  55.3095  25.5293
  12133.073  12133.080  0.500  0.057727  58.8214  55.5219  25.631
  12136.298  12136.270  0.500  0.057094  58.7857  55.5234  25.6287
  12139.506  12139.490  0.500  0.056484  58.7334  55.5079  25.6164
  12142.722  12142.720  0.500  0.055815  58.6928  55.5066  25.606
  12145.991  12145.970  0.500  0.055304  58.6473  55.492  25.5849
  12149.262  12149.250  0.500  0.054728  58.6054  55.4842  25.567
  12152.547  12152.540  0.500  0.054208  58.5575  55.4678  25.5432
  12155.866  12155.850  0.500  0.053765  58.5127  55.4498  25.5254
  12159.187  12159.170  0.500  0.053287  58.4588  55.4252  25.5116
  12162.536  12162.520  0.500  0.052892  58.2415  55.2411  25.4341
  12165.900  12165.890  0.500  0.052411  58.3839  55.4027  25.5188
  12169.297  12169.270  0.500  0.052006  58.3349  55.3787  25.5219
  12172.691  12172.680  0.500  0.051627  58.2902  55.3572  25.5368
  12176.131  12176.100  0.500  0.051153  58.2374  55.3333  25.5519
  12179.573  12179.550  0.500  0.050697  58.1934  55.3167  25.5741
  12183.024  12183.010  0.500  0.050214  58.1415  55.2941  25.5949
  12186.522  12186.490  0.500  0.049709  58.1041  55.2864  25.6227
  12190.009  12189.990  0.500  0.049116  58.0517  55.2693  25.6407
  12193.504  12193.510  0.500  0.048483  58.0059  55.2607  25.6574
  12197.067  12197.050  0.500  0.047836  57.9608  55.2534  25.6739
  12200.599  12200.600  0.500  0.047066  57.7915  55.1345  25.6378
  12204.191  12204.180  0.500  0.046620  57.8761  55.2399  25.6982
  12207.792  12207.780  0.500  0.045926  57.8303  55.2344  25.7043
  12211.396  12211.390  0.500  0.045210  57.7825  55.2283  25.7071
  12215.034  12215.020  0.500  0.044604  57.7417  55.2228  25.7069
  12218.706  12218.680  0.500  0.043988  57.6963  55.2134  25.7049
  12222.355  12222.350  0.500  0.043261  57.6403  55.1999  25.7019
  12226.058  12226.040  0.500  0.042752  57.596  55.1856  25.7002
  12229.783  12229.750  0.500  0.042244  57.5494  55.1689  25.6995
  12233.484  12233.480  0.500  0.041615  57.416  55.0757  25.6662
  12237.253  12237.220  0.500  0.041954  56.6637  54.3356  25.3293
  12241.011  12240.990  0.500  0.040626  57.3499  55.0667  25.6931
  12244.784  12244.780  0.500  0.040005  57.3243  55.0763  25.7182
  12248.599  12248.580  0.500  0.039423  57.2885  55.0739  25.7383
  12252.417  12252.410  0.500  0.038794  57.2311  55.0534  25.7574
  12256.263  12256.250  0.500  0.038102  57.0483  54.9155  25.7192
  12260.137  12260.110  0.500  0.037388  57.117  55.021  25.792
  12263.988  12263.990  0.500  0.036195  56.1699  54.1732  25.4264
  12267.907  12267.890  0.500  0.036099  56.9284  54.9099  25.7844
  12271.828  12271.810  0.500  0.035537  56.8416  54.8571  25.7729
  12275.739  12275.750  0.500  0.034739  56.9281  54.9845  25.8494
  12279.744  12279.710  0.500  0.034087  56.8793  54.9731  25.8552
  12283.693  12283.680  0.500  0.033309  56.7098  54.852  25.8077
  12287.704  12287.680  0.500  0.032822  56.7347  54.9028  25.833
  12291.704  12291.690  0.500  0.032312  55.3642  53.6039  25.2233
  12295.739  12295.730  0.500  0.031540  56.5995  54.8422  25.8067
  12299.811  12299.780  0.500  0.031064  56.4163  54.6907  25.7345
  12303.852  12303.850  0.500  0.030511  56.534  54.8351  25.8078
  12307.968  12307.940  0.500  0.029866  56.4883  54.8261  25.8022
  12312.061  12312.050  0.500  0.029301  56.4281  54.7987  25.79
  12316.196  12316.180  0.500  0.028841  56.3742  54.7715  25.7876
  12320.360  12320.330  0.500  0.027298  55.5473  54.0515  25.4661
  12324.488  12324.490  0.500  0.027765  56.147  54.6095  25.7375
  12328.697  12328.680  0.500  0.026955  56.179  54.6849  25.7894
  12332.910  12332.880  0.500  0.026382  56.1434  54.6816  25.8055
  12337.126  12337.110  0.500  0.025818  56.0979  54.6681  25.8226
  12341.377  12341.350  0.500  0.025164  56.0455  54.6528  25.8395
  12345.619  12345.610  0.500  0.024418  55.9881  54.6375  25.8563
  12349.923  12349.890  0.500  0.023774  55.8011  54.4901  25.8103
  12354.190  12354.190  0.500  0.022974  55.8846  54.6153  25.8886
  12358.534  12358.510  0.500  0.022281  55.7447  54.5164  25.8623
  12362.867  12362.850  0.500  0.021474  55.7714  54.5866  25.9151
  12367.223  12367.210  0.500  0.020877  55.7323  54.5808  25.9291
  12371.623  12371.590  0.500  0.020014  55.6643  54.5613  25.9336
  12375.992  12375.980  0.500  0.019419  55.622  54.5523  25.944
  12380.444  12380.400  0.500  0.018669  55.5499  54.5225  25.9399
  12384.833  12384.830  0.500  0.018245  55.1021  54.1058  25.7496
  12389.299  12389.280  0.500  0.017207  55.4652  54.519  25.9543
  12393.774  12393.750  0.500  0.016531  55.4  54.4918  25.95
  12398.260  12398.240  0.500  0.016063  55.3468  54.4649  25.9485
  12402.782  12402.750  0.500  0.015252  55.2817  54.4449  25.9486
  12407.301  12407.280  0.500  0.014746  55.2278  54.4194  25.948
  12411.837  12411.830  0.500  0.014042  55.1633  54.3942  25.951
  12416.443  12416.400  0.500  0.013416  55.0887  54.3546  25.9519
  12421.006  12420.980  0.500  0.012813  55.0527  54.3519  25.9674
  12425.626  12425.590  0.500  0.012018  54.9859  54.3291  25.9743
  12430.216  12430.210  0.500  0.011464  54.9024  54.2766  25.9718
  12434.890  12434.860  0.500  0.010655  54.8016  54.2208  25.9686
  12439.554  12439.520  0.500  0.010185  54.7827  54.2275  25.9945
  12444.208  12444.200  0.500  0.009365  54.7666  54.2561  26.0264
  12448.960  12448.900  0.500  0.008707  54.7003  54.2261  26.0332
  12453.628  12453.620  0.500  0.008093  54.5066  54.0672  25.9733
  12458.388  12458.360  0.500  0.007285  54.587  54.1908  26.0497
  12463.124  12463.110  0.500  0.006640  54.5234  54.1626  26.0477
  12467.952  12467.890  0.500  0.005934  54.4431  54.121  26.0396
  12472.702  12472.690  0.500  0.005249  54.4067  54.1219  26.0502
  12477.531  12477.500  0.500  0.004539  54.3377  54.0916  26.0486
  12482.343  12482.330  0.500  0.003886  54.2659  54.0555  26.0353
  12487.226  12487.190  0.500  0.003297  54.0016  53.8239  25.9325
  12492.087  12492.060  0.500  0.002372  54.1821  54.0537  26.0515
  12496.992  12496.950  0.500  0.001723  54.1213  54.0281  26.0495
  12501.873  12501.860  0.500  0.000984  54.0553  54.0022  26.048
  12506.820  12506.790  0.500  0.000256  53.9914  53.9775  26.0486
  12511.751  12511.730  0.500  -0.000378  53.929  53.9494  26.0533
  12516.719  12516.700  0.500  -0.001124  54.0554  54.1162  26.1465
  12521.726  12521.690  0.500  -0.001903  53.9884  54.0912  26.1533
  12526.709  12526.690  0.500  -0.002589  53.9322  54.0721  26.1608
  12531.758  12531.720  0.500  -0.003347  53.8691  54.0497  26.1715
  12536.777  12536.760  0.500  -0.004187  53.795  54.0207  26.1785
  12541.862  12541.820  0.500  -0.004579  53.4981  53.7436  26.0625
  12546.930  12546.900  0.500  -0.005606  53.7044  54.0063  26.2114
  12552.023  12552.000  0.500  -0.006355  53.6379  53.9798  26.2201
  12557.168  12557.120  0.500  -0.007103  53.5786  53.9605  26.2279
  12562.297  12562.260  0.500  -0.007843  53.5202  53.9416  26.2386
  12567.444  12567.420  0.500  -0.008526  53.4591  53.9169  26.2442
  12572.629  12572.600  0.500  -0.009173  53.4007  53.8928  26.249
  12577.840  12577.790  0.500  -0.009961  53.3213  53.8551  26.2438
  12583.055  12583.010  0.500  -0.010717  53.2773  53.8514  26.254
  12588.261  12588.240  0.500  -0.011408  53.2146  53.8252  26.2549
  12593.567  12593.490  0.500  -0.012110  53.1513  53.7989  26.2603
  12598.768  12598.760  0.500  -0.012811  53.0948  53.7793  26.2614
  12604.084  12604.050  0.500  -0.013459  53.0331  53.7517  26.2616
  12609.383  12609.360  0.500  -0.014183  52.9759  53.7326  26.2657
  12614.715  12614.690  0.500  -0.015028  52.9095  53.7107  26.2724
  12620.079  12620.040  0.500  -0.015776  52.8437  53.684  26.2721
  12625.469  12625.410  0.500  -0.016353  52.7779  53.6481  26.2753
  12630.849  12630.790  0.500  -0.017156  52.7248  53.6371  26.2882
  12636.234  12636.200  0.500  -0.017865  52.6403  53.5892  26.2834
  12641.651  12641.620  0.500  -0.018810  52.5471  53.5449  26.2837
  12647.115  12647.070  0.500  -0.019570  52.5365  53.5748  26.3157
  12652.556  12652.530  0.500  -0.020275  52.4748  53.5496  26.322
  12658.037  12658.010  0.500  -0.021032  52.4117  53.5257  26.3285
  12663.536  12663.510  0.500  -0.021822  52.3457  53.5005  26.333
  12669.061  12669.030  0.500  -0.022594  52.277  53.4716  26.3392
  12674.605  12674.570  0.500  -0.023380  52.2138  53.4489  26.3419
  12680.168  12680.120  0.500  -0.024238  52.1441  53.4234  26.3462
  12685.729  12685.700  0.500  -0.024937  52.0829  53.398  26.347
  12691.337  12691.300  0.500  -0.025694  52.0139  53.3677  26.3443
  12696.950  12696.910  0.500  -0.026320  51.9482  53.3336  26.3449
  12702.603  12702.550  0.500  -0.027186  51.8784  53.3082  26.3462
  12708.233  12708.200  0.500  -0.027829  51.8123  53.2744  26.3431
  12713.904  12713.870  0.500  -0.028712  51.7409  53.248  26.3457
  12719.600  12719.560  0.500  -0.029485  51.6761  53.2225  26.3456