File: xdidata/As/As-K-DisodiumMethylArsenate.xdi
# XDI/1.0 BlueSky/1.10.0 BMM/2023-1.0-py310-tiled
# Beamline.name: BMM (06BM) -- Beamline for Materials Measurement (NIST)
# Beamline.xray_source: NSLS-II three-pole wiggler
# Beamline.collimation: paraboloid mirror, 5 nm Rh on 30 nm Pt
# Beamline.focusing: not in use
# Beamline.harmonic_rejection: flat mirror, Pt stripe, pitch = 7.0 mrad relative to beam
# Beamline.software: Bluesky 1.10.0, Ophyd 1.7.0, DataBroker 2.0.0b13, Python 3.10.8, 2023-1.0-py310-tiled
# Detector.I0: 10 cm N2
# Detector.I1: 25 cm N2
# Detector.I2: 25 cm N2
# Element.symbol: As
# Element.edge: K
# Element.reference: As
# Element.reference_material: As2O3
# Facility.name: NSLS-II
# Facility.energy: 3.0
# Facility.current: 399.5
# Facility.mode: top-off
# Facility.GUP: 301027
# Facility.SAF: 310583
# Facility.cycle: 2023-2
# Mono.name: Si(111)
# Mono.d_spacing: 3.13519
# Mono.encoder_resolution: 0.0000050 deg/ct
# Mono.angle_offset: 16.0754 deg
# Mono.scan_mode: pseudo channel cut
# Mono.scan_type: step
# Mono.direction: forward in energy
# Sample.name: CH3AsNa2O3
# Sample.prep: powder in PEG pellet
# Sample.x: 115.008 mm
# Sample.y: 114.461 mm
# Sample.SDD_position: 170.000 mm
# Scan.experimenters: Bruce Ravel
# Scan.edge_energy: 11866.7
# Scan.start_time: 2023-07-10T16:36:55
# Scan.end_time: 2023-07-10T16:44:42
# Scan.transient_id: 90291
# Scan.uid: 3eb41b49-2685-4329-9fbe-431ac868b727
# Scan.plot_hint: ln(I0/It)  --  ln($5/$6)
# Column.1: energy eV
# Column.2: requested_energy eV
# Column.3: measurement_time seconds
# Column.4: xmu
# Column.5: I0 nA
# Column.6: It nA
# Column.7: Ir nA
# ///////////
# sample courtesy Evan Jahrman, NIST
# -----------
# energy  requested_energy  measurement_time  xmu  I0  It  Ir
  11666.689  11666.700  0.500  0.147228  64.8502  55.972  38.0169
  11676.727  11676.700  0.500  0.145188  64.7544  56.0035  38.0715
  11686.759  11686.700  0.500  0.143178  64.6093  55.9904  38.0961
  11696.724  11696.700  0.500  0.141184  64.4943  56.0023  38.139
  11706.743  11706.700  0.500  0.139311  64.3577  55.9885  38.1668
  11716.737  11716.700  0.500  0.137345  64.2346  55.9913  38.2011
  11726.749  11726.700  0.500  0.135473  64.0819  55.9629  38.2174
  11736.784  11736.700  0.500  0.133454  63.8048  55.8335  38.1603
  11746.716  11746.700  0.500  0.131549  63.5975  55.7583  38.1364
  11756.720  11756.700  0.500  0.129719  63.5765  55.8419  38.2257
  11766.747  11766.700  0.500  0.127934  63.5457  55.9146  38.3061
  11776.737  11776.700  0.500  0.126079  63.223  55.7339  38.2067
  11786.738  11786.700  0.500  0.124422  63.2943  55.8893  38.3397
  11796.738  11796.700  0.500  0.122816  63.1533  55.8544  38.3369
  11806.749  11806.700  0.500  0.121315  62.7889  55.6155  38.1892
  11816.754  11816.700  0.500  0.120204  62.8601  55.7405  38.2782
  11826.739  11826.700  0.500  0.119192  62.722  55.6744  38.2192
  11836.747  11836.700  0.500  0.119079  62.6119  55.5829  38.1085
  11838.698  11838.700  0.500  0.119241  62.5885  55.5532  38.0715
  11840.681  11840.700  0.500  0.119371  62.572  55.5313  38.0351
  11842.676  11842.700  0.500  0.119785  62.5474  55.4864  37.9833
  11844.678  11844.700  0.500  0.120150  62.5047  55.4284  37.9088
  11846.681  11846.700  0.500  0.120794  62.4883  55.3781  37.8355
  11848.684  11848.700  0.500  0.121464  62.2762  55.1533  37.6288
  11850.676  11850.700  0.500  0.122485  62.4199  55.2241  37.6176
  11852.687  11852.700  0.500  0.123838  62.4007  55.1325  37.4757
  11854.687  11854.700  0.500  0.125617  62.3597  54.9983  37.2779
  11856.668  11856.700  0.500  0.127887  62.1809  54.7163  36.9466
  11856.950  11857.000  0.500  0.128346  62.2241  54.7291  36.9301
  11857.243  11857.300  0.500  0.128663  62.2535  54.7376  36.9098
  11857.555  11857.600  0.500  0.129189  62.2902  54.7411  36.8819
  11857.837  11857.900  0.500  0.129621  62.3169  54.7409  36.8517
  11858.155  11858.200  0.500  0.130184  62.3136  54.7072  36.8023
  11858.455  11858.500  0.500  0.130754  62.2826  54.6489  36.7281
  11858.767  11858.800  0.500  0.131275  62.2269  54.5716  36.6438
  11859.073  11859.100  0.500  0.131842  62.159  54.4811  36.5424
  11859.367  11859.400  0.500  0.132415  62.0809  54.3814  36.4372
  11859.679  11859.700  0.500  0.133216  62.0096  54.2756  36.3273
  11859.960  11860.000  0.500  0.133937  61.967  54.1991  36.2343
  11860.279  11860.300  0.500  0.134654  61.9436  54.1399  36.1455
  11860.585  11860.600  0.500  0.135447  61.9589  54.1103  36.0691
  11860.885  11860.900  0.500  0.136296  62.2157  54.2885  36.1352
  11861.185  11861.200  0.500  0.137341  62.2647  54.2745  36.0699
  11861.479  11861.500  0.500  0.138262  62.3364  54.2869  36.024
  11861.803  11861.800  0.500  0.139317  62.3631  54.2529  35.9334
  11862.097  11862.100  0.500  0.140296  62.3488  54.1874  35.8251
  11862.385  11862.400  0.500  0.141425  62.3126  54.0949  35.6894
  11862.685  11862.700  0.500  0.142560  62.2804  54.0055  35.5487
  11862.979  11863.000  0.500  0.143795  62.2513  53.9137  35.4149
  11863.297  11863.300  0.500  0.145200  62.2425  53.8304  35.2655
  11863.579  11863.600  0.500  0.146458  62.2623  53.7798  35.1448
  11863.879  11863.900  0.500  0.148127  62.3006  53.7231  34.9992
  11864.167  11864.200  0.500  0.149673  62.3377  53.6721  34.8587
  11864.492  11864.500  0.500  0.151623  62.3841  53.6074  34.6823
  11864.773  11864.800  0.500  0.153439  62.4053  53.5283  34.5041
  11865.086  11865.100  0.500  0.155645  62.4195  53.4226  34.2852
  11865.362  11865.400  0.500  0.157852  62.4194  53.3047  34.0518
  11865.686  11865.700  0.500  0.160566  62.4242  53.1643  33.7685
  11865.987  11866.000  0.500  0.163277  62.4264  53.0223  33.4831
  11866.293  11866.300  0.500  0.166427  62.4084  52.8402  33.1466
  11866.581  11866.600  0.500  0.169588  62.4043  52.67  32.7962
  11866.906  11866.900  0.500  0.173577  62.3998  52.4566  32.3687
  11867.188  11867.200  0.500  0.177595  62.3922  52.2398  31.9418
  11867.494  11867.500  0.500  0.182150  62.383  51.9948  31.4389
  11867.807  11867.800  0.500  0.187121  62.3811  51.7354  30.9003
  11868.101  11868.100  0.500  0.192663  62.3807  51.4491  30.3104
  11868.407  11868.400  0.500  0.198851  62.3843  51.1346  29.647
  11868.695  11868.700  0.500  0.205576  62.3742  50.7837  28.9246
  11869.008  11869.000  0.500  0.213968  62.3649  50.3518  28.0449
  11869.296  11869.300  0.500  0.222448  62.3619  49.9242  27.1752
  11869.597  11869.600  0.500  0.232963  62.347  49.3902  26.1319
  11869.903  11869.900  0.500  0.244886  62.3329  48.7938  25.0023
  11870.185  11870.200  0.500  0.258416  62.311  48.1212  23.7875
  11870.486  11870.500  0.500  0.275720  62.263  47.2592  22.3766
  11870.774  11870.800  0.500  0.295094  62.2145  46.3163  20.964
  11871.093  11871.100  0.500  0.321284  62.1655  45.0835  19.3195
  11871.393  11871.400  0.500  0.351179  62.1399  43.7377  17.7844
  11871.688  11871.700  0.500  0.389059  62.1512  42.1195  16.2246
  11872.000  11872.000  0.500  0.438896  62.1985  40.1023  14.6446
  11872.289  11872.300  0.500  0.497413  62.2283  37.8412  13.2225
  11872.602  11872.600  0.500  0.572992  62.2681  35.109  11.8292
  11872.902  11872.900  0.500  0.667959  62.2796  31.9341  10.4873
  11873.203  11873.200  0.500  0.778313  62.2997  28.6068  9.272175
  11873.516  11873.500  0.500  0.914079  62.3039  24.9768  8.074898
  11873.798  11873.800  0.500  1.061950  62.3074  21.5447  7.006637
  11874.111  11874.100  0.500  1.235161  62.3102  18.1191  5.970553
  11874.399  11874.400  0.500  1.410840  62.3071  15.1991  5.090205
  11874.700  11874.700  0.500  1.582781  62.3032  12.7973  4.357641
  11875.007  11875.000  0.500  1.749054  62.2976  10.8359  3.754680
  11875.295  11875.300  0.500  1.868483  62.293  9.615404  3.374759
  11875.596  11875.600  0.500  1.941524  62.2901  8.937696  3.170340
  11875.884  11875.900  0.500  1.958353  62.2887  8.788345  3.143369
  11876.197  11876.200  0.500  1.920177  62.2787  9.128866  3.294099
  11876.486  11876.500  0.500  1.847277  62.2762  9.818840  3.574909
  11876.787  11876.800  0.500  1.750477  62.2674  10.8153  3.985895
  11877.081  11877.100  0.500  1.648239  62.2638  11.9788  4.475235
  11877.400  11877.400  0.500  1.544070  62.2659  13.2944  5.045724
  11877.701  11877.700  0.500  1.451276  62.24  14.581  5.625522
  11877.990  11878.000  0.500  1.373840  62.2415  15.7554  6.176275
  11878.315  11878.300  0.500  1.303561  62.2346  16.9006  6.739217
  11878.604  11878.600  0.500  1.254767  62.2249  17.743  7.177569
  11878.911  11878.900  0.500  1.213841  62.2149  18.4812  7.585086
  11879.206  11879.200  0.500  1.185834  62.2154  19.0063  7.894987
  11879.507  11879.500  0.500  1.165797  62.2087  19.3888  8.137291
  11879.814  11879.800  0.500  1.151956  62.2019  19.6569  8.316791
  11880.102  11880.100  0.500  1.142950  62.1978  19.8335  8.441821
  11880.416  11880.400  0.500  1.135325  62.1926  19.9836  8.536385
  11880.704  11880.700  0.500  1.129075  62.1921  20.1087  8.598548
  11881.018  11881.000  0.500  1.122002  62.1927  20.2516  8.649711
  11881.288  11881.300  0.500  1.113844  62.177  20.4124  8.685673
  11881.595  11881.600  0.500  1.104188  62.1791  20.6111  8.718088
  11881.896  11881.900  0.500  1.094048  62.1611  20.8152  8.736861
  11882.197  11882.200  0.500  1.083107  62.1573  21.0429  8.755364
  11882.492  11882.500  0.500  1.071939  62.1527  21.2776  8.770220
  11882.787  11882.800  0.500  1.060556  62.1513  21.5207  8.790039
  11883.094  11883.100  0.500  1.049015  62.1288  21.7627  8.819224
  11883.389  11883.400  0.500  1.037811  62.121  22.0051  8.865431
  11883.697  11883.700  0.500  1.025516  62.0886  22.2657  8.931937
  11883.985  11884.000  0.500  1.013844  62.0419  22.5102  9.014513
  11884.311  11884.300  0.500  1.000939  61.938  22.7643  9.116823
  11884.612  11884.600  0.500  0.989096  61.787  22.9794  9.220807
  11884.920  11884.900  0.500  0.976595  61.6203  23.2057  9.341745
  11885.203  11885.200  0.500  0.965686  61.5035  23.4157  9.462120
  11885.504  11885.500  0.500  0.955257  61.4188  23.6286  9.592196
  11885.805  11885.800  0.500  0.946955  61.4139  23.8237  9.712859
  11886.112  11886.100  0.500  0.940217  61.4553  24.001  9.826185
  11886.408  11886.400  0.500  0.935709  61.5315  24.1393  9.918023
  11886.709  11886.700  0.500  0.933326  61.6462  24.242  9.986317
  11887.004  11887.000  0.500  0.933096  61.7618  24.293  10.0335
  11887.311  11887.300  0.500  0.934696  61.8658  24.295  10.0557
  11887.613  11887.600  0.500  0.937983  61.9357  24.2426  10.052
  11887.890  11887.900  0.500  0.942778  61.9754  24.1422  10.0266
  11888.191  11888.200  0.500  0.949193  61.9937  23.9948  9.979154
  11888.498  11888.500  0.500  0.956649  62.0057  23.8212  9.918768
  11888.794  11888.800  0.500  0.964730  62.0094  23.6309  9.854187
  11889.089  11889.100  0.500  0.972995  62.0132  23.4379  9.789173
  11889.397  11889.400  0.500  0.981541  62.0046  23.2352  9.724527
  11889.698  11889.700  0.500  0.989423  62.002  23.0518  9.671317
  11889.993  11890.000  0.500  0.996167  62.0005  22.8963  9.629881
  11890.289  11890.300  0.500  1.001491  61.9957  22.773  9.608876
  11890.602  11890.600  0.500  1.005116  62.0074  22.6948  9.605843
  11890.904  11890.900  0.500  1.006380  61.9933  22.661  9.622483
  11891.199  11891.200  0.500  1.005359  61.982  22.68  9.658830
  11891.507  11891.500  0.500  1.002151  61.9754  22.7505  9.715285
  11891.704  11891.700  0.500  0.998723  61.9728  22.8277  9.761083
  11892.713  11892.690  0.500  0.970523  61.9602  23.4758  10.0992
  11893.717  11893.690  0.500  0.936563  61.9453  24.2809  10.5231
  11894.720  11894.710  0.500  0.909593  61.9357  24.9408  10.9428
  11895.767  11895.760  0.500  0.891570  61.9203  25.388  11.2734
  11896.839  11896.820  0.500  0.876173  61.9024  25.7745  11.513
  11897.923  11897.900  0.500  0.856396  61.8896  26.2839  11.7572
  11899.020  11899.000  0.500  0.831469  61.8745  26.9407  12.0523
  11900.135  11900.120  0.500  0.805778  61.8237  27.6191  12.3735
  11901.263  11901.260  0.500  0.781693  61.5845  28.1829  12.6533
  11902.422  11902.410  0.500  0.760806  61.159  28.579  12.855
  11903.606  11903.590  0.500  0.741822  61.4435  29.2622  13.1986
  11904.802  11904.780  0.500  0.725044  61.751  29.9062  13.539
  11906.030  11906.000  0.500  0.710166  61.7848  30.3711  13.8024
  11907.245  11907.230  0.500  0.697763  61.7583  30.7369  14.0045
  11908.480  11908.480  0.500  0.689209  61.7521  30.9979  14.1558
  11909.751  11909.750  0.500  0.683842  61.7361  31.1566  14.2604
  11911.054  11911.040  0.500  0.680466  61.7222  31.2549  14.3056
  11912.369  11912.350  0.500  0.678454  61.6913  31.3022  14.2907
  11913.691  11913.680  0.500  0.678182  61.6777  31.3038  14.2249
  11915.038  11915.030  0.500  0.680890  61.637  31.1985  14.0917
  11916.422  11916.400  0.500  0.687646  61.4048  30.8718  13.8657
  11917.800  11917.780  0.500  0.697465  60.9716  30.3544  13.5736
  11919.216  11919.190  0.500  0.709212  61.3874  30.2045  13.4635
  11920.626  11920.610  0.500  0.721956  61.5944  29.9226  13.3135
  11922.049  11922.050  0.500  0.734092  61.5704  29.5502  13.1259
  11923.515  11923.510  0.500  0.743190  61.5626  29.2788  12.9689
  11925.019  11924.990  0.500  0.748667  61.5478  29.1119  12.8451
  11926.523  11926.490  0.500  0.751825  61.5317  29.0125  12.7416
  11928.015  11928.010  0.500  0.754795  61.5203  28.9211  12.6423
  11929.551  11929.550  0.500  0.758765  61.4876  28.7912  12.5346
  11931.112  11931.110  0.500  0.764047  61.4702  28.6314  12.4297
  11932.699  11932.680  0.500  0.771286  61.4396  28.4108  12.3152
  11934.292  11934.280  0.500  0.780206  61.177  28.0381  12.1325
  11935.891  11935.890  0.500  0.789621  60.7645  27.5881  11.9116
  11937.528  11937.530  0.500  0.796732  61.2611  27.6165  11.9122
  11939.203  11939.180  0.500  0.801157  61.3261  27.5237  11.8695
  11940.866  11940.850  0.500  0.805730  61.3183  27.3947  11.812
  11942.536  11942.540  0.500  0.811026  61.2927  27.2386  11.7299
  11944.268  11944.250  0.500  0.816858  61.274  27.072  11.6439
  11945.982  11945.980  0.500  0.821774  61.2517  26.9294  11.5664
  11947.746  11947.730  0.500  0.825751  61.2274  26.8118  11.5093
  11949.499  11949.490  0.500  0.828213  61.2203  26.7428  11.4893
  11951.277  11951.280  0.500  0.829190  61.1766  26.6976  11.4921
  11953.080  11953.080  0.500  0.828817  61.1574  26.6992  11.5265
  11954.908  11954.910  0.500  0.827381  61.1375  26.7289  11.5745
  11956.738  11956.750  0.500  0.825496  61.1284  26.7753  11.6161
  11958.611  11958.610  0.500  0.823782  61.0869  26.8031  11.6463
  11960.503  11960.490  0.500  0.822408  61.0653  26.8304  11.6749
  11962.409  11962.390  0.500  0.820856  61.0412  26.8615  11.7097
  11964.309  11964.310  0.500  0.818928  61.0083  26.8988  11.7503
  11966.216  11966.250  0.500  0.815996  60.972  26.9617  11.7972
  11968.186  11968.210  0.500  0.812218  60.9468  27.0526  11.8527
  11970.156  11970.180  0.500  0.807803  60.9163  27.1587  11.9135
  11972.146  11972.180  0.500  0.803413  60.8859  27.2646  11.9788
  11974.255  11974.190  0.500  0.798979  60.8489  27.3691  12.0432
  11976.197  11976.220  0.500  0.794925  60.8254  27.4697  12.1013
  11978.257  11978.280  0.500  0.790614  60.798  27.5759  12.1636
  11980.550  11980.350  0.500  0.785920  60.7509  27.6842  12.2288
  11982.525  11982.440  0.500  0.781390  60.7257  27.7984  12.3
  11984.575  11984.550  0.500  0.776388  60.6876  27.9202  12.3816
  11986.682  11986.680  0.500  0.771508  60.6547  28.0416  12.4599
  11988.809  11988.820  0.500  0.766834  60.6307  28.1618  12.5335
  11990.993  11990.990  0.500  0.762346  60.5887  28.2689  12.5944
  11993.159  11993.180  0.500  0.758454  60.5604  28.3659  12.6449
  11995.363  11995.380  0.500  0.755264  60.5337  28.444  12.6886
  11997.594  11997.600  0.500  0.752518  60.5198  28.5156  12.7228
  11999.862  11999.850  0.500  0.750319  60.5019  28.57  12.7433
  12002.113  12002.110  0.500  0.748519  60.468  28.6054  12.753
  12004.396  12004.390  0.500  0.747391  60.4489  28.6286  12.7504
  12006.667  12006.690  0.500  0.746527  60.4168  28.6382  12.736
  12009.009  12009.010  0.500  0.746346  60.3966  28.6337  12.7133
  12011.357  12011.350  0.500  0.746582  60.3653  28.6122  12.6846
  12013.719  12013.700  0.500  0.747076  60.33  28.5813  12.6521
  12016.094  12016.080  0.500  0.747639  60.337  28.5685  12.629
  12018.465  12018.470  0.500  0.748538  60.4645  28.6032  12.6332
  12020.892  12020.890  0.500  0.749430  60.4294  28.5611  12.6046
  12023.321  12023.320  0.500  0.750468  60.3882  28.512  12.5729
  12025.776  12025.770  0.500  0.751625  60.3621  28.4667  12.545
  12028.263  12028.250  0.500  0.752764  60.3252  28.417  12.5149
  12030.733  12030.740  0.500  0.753885  60.2964  28.3715  12.4903
  12033.241  12033.250  0.500  0.754619  60.2512  28.3295  12.467
  12035.782  12035.770  0.500  0.755560  60.2212  28.2888  12.4443
  12038.336  12038.320  0.500  0.756481  60.1799  28.2433  12.4247
  12040.898  12040.890  0.500  0.757964  60.138  28.1818  12.407
  12043.462  12043.470  0.500  0.759064  60.09  28.1284  12.3883
  12046.083  12046.080  0.500  0.759780  59.9213  28.0293  12.3625
  12048.705  12048.700  0.500  0.760716  58.3076  27.249  12.0282
  12051.360  12051.350  0.500  0.760700  59.8602  27.975  12.3661
  12054.016  12054.010  0.500  0.760630  59.908  27.9993  12.3901
  12056.686  12056.690  0.500  0.760633  59.8834  27.9877  12.4002
  12059.402  12059.390  0.500  0.760323  59.855  27.9831  12.4111
  12062.119  12062.110  0.500  0.759991  59.8217  27.9769  12.419
  12064.869  12064.850  0.500  0.759433  59.7941  27.9795  12.4289
  12067.588  12067.600  0.500  0.758323  59.7507  27.9903  12.4365
  12070.385  12070.380  0.500  0.757328  59.714  28.001  12.4473
  12073.176  12073.170  0.500  0.755988  59.6775  28.0214  12.4574
  12076.014  12075.990  0.500  0.754674  59.6301  28.0359  12.4678
  12078.814  12078.820  0.500  0.753254  59.5913  28.0575  12.4872
  12081.674  12081.670  0.500  0.751865  59.553  28.0784  12.5043
  12084.547  12084.550  0.500  0.750191  59.5146  28.1073  12.5294
  12087.434  12087.440  0.500  0.748640  59.4729  28.1312  12.549
  12090.342  12090.350  0.500  0.746764  59.4184  28.1582  12.5706
  12093.283  12093.270  0.500  0.744809  59.2608  28.1385  12.5688
  12096.245  12096.220  0.500  0.742920  59.3647  28.2411  12.6234
  12099.176  12099.190  0.500  0.741162  59.3277  28.2732  12.6432
  12102.173  12102.170  0.500  0.739539  59.2843  28.2984  12.6567
  12105.196  12105.180  0.500  0.737792  59.2457  28.3294  12.6802
  12108.209  12108.200  0.500  0.736038  59.21  28.3621  12.7049
  12111.248  12111.250  0.500  0.734003  59.165  28.3982  12.7316
  12114.321  12114.310  0.500  0.732291  59.1221  28.4263  12.7568
  12117.408  12117.390  0.500  0.730505  59.0814  28.4575  12.7802
  12120.510  12120.490  0.500  0.728880  59.0392  28.4834  12.8
  12123.613  12123.610  0.500  0.727301  58.9928  28.506  12.818
  12126.782  12126.750  0.500  0.725727  58.9443  28.5274  12.8306
  12129.901  12129.900  0.500  0.724218  58.6899  28.4472  12.7993
  12133.086  12133.080  0.500  0.722767  58.8805  28.581  12.8611
  12136.279  12136.270  0.500  0.721517  58.8354  28.5949  12.8677
  12139.506  12139.490  0.500  0.720317  58.7924  28.6083  12.8706
  12142.728  12142.720  0.500  0.719112  58.7449  28.6196  12.8709
  12145.997  12145.970  0.500  0.718000  58.7024  28.6307  12.8671
  12149.262  12149.250  0.500  0.717015  58.6612  28.6389  12.8626
  12152.547  12152.540  0.500  0.716029  58.6107  28.6424  12.8575
  12155.886  12155.850  0.500  0.715082  58.566  28.6477  12.8533
  12159.168  12159.170  0.500  0.714081  58.5078  28.6479  12.8531
  12162.530  12162.520  0.500  0.713351  58.2861  28.5602  12.8167
  12165.919  12165.890  0.500  0.712444  58.4347  28.6589  12.8661
  12169.278  12169.270  0.500  0.711620  58.3908  28.6611  12.8777
  12172.704  12172.680  0.500  0.710876  58.3474  28.6611  12.888
  12176.124  12176.100  0.500  0.709949  58.2962  28.6625  12.9045
  12179.567  12179.550  0.500  0.709183  58.2512  28.6623  12.9196
  12183.030  12183.010  0.500  0.708384  58.2017  28.6608  12.935
  12186.528  12186.490  0.500  0.707745  58.1554  28.6563  12.9494
  12190.009  12189.990  0.500  0.706935  58.1088  28.6565  12.9637
  12193.524  12193.510  0.500  0.706143  58.0539  28.6522  12.9739
  12197.073  12197.050  0.500  0.705476  58.0066  28.6479  12.9844
  12200.605  12200.600  0.500  0.704636  57.8338  28.5866  12.9654
  12204.204  12204.180  0.500  0.703729  57.9156  28.653  13.0012
  12207.812  12207.780  0.500  0.702854  57.8725  28.6568  13.0085
  12211.402  12211.390  0.500  0.701993  57.8309  28.6608  13.0132
  12215.047  12215.020  0.500  0.700894  57.7847  28.6694  13.0186
  12218.706  12218.680  0.500  0.699633  57.7384  28.6826  13.0258
  12222.362  12222.350  0.500  0.698490  57.6979  28.6953  13.0325
  12226.078  12226.040  0.500  0.697240  57.6491  28.7068  13.04
  12229.764  12229.750  0.500  0.696253  57.6105  28.7159  13.0493
  12233.510  12233.480  0.500  0.694867  57.4694  28.6853  13.039
  12237.246  12237.220  0.500  0.693347  56.7024  28.3455  12.8874
  12241.011  12240.990  0.500  0.691868  57.3998  28.7366  13.079
  12244.804  12244.780  0.500  0.690527  57.3795  28.765  13.1041
  12248.599  12248.580  0.500  0.689101  57.3347  28.7836  13.1269
  12252.410  12252.410  0.500  0.687317  57.2827  28.8088  13.1513
  12256.263  12256.250  0.500  0.685885  57.1024  28.7593  13.144
  12260.104  12260.110  0.500  0.684110  57.1767  28.8479  13.1978
  12263.995  12263.990  0.500  0.682738  56.2306  28.4095  13.0143
  12267.907  12267.890  0.500  0.680762  56.9864  28.8483  13.2223
  12271.815  12271.810  0.500  0.679136  56.8909  28.8468  13.2309
  12275.765  12275.750  0.500  0.677552  56.9802  28.9379  13.2813
  12279.712  12279.710  0.500  0.675841  56.922  28.9579  13.2958
  12283.687  12283.680  0.500  0.674207  56.7607  28.923  13.285
  12287.704  12287.680  0.500  0.672657  56.7843  28.9799  13.3142
  12291.697  12291.690  0.500  0.670880  55.4118  28.3298  13.0147
  12295.766  12295.730  0.500  0.669197  56.6593  29.0163  13.3291
  12299.778  12299.780  0.500  0.667520  56.4685  28.9671  13.3044
  12303.878  12303.850  0.500  0.665957  56.5908  29.0753  13.3565
  12307.968  12307.940  0.500  0.664429  56.5339  29.0905  13.3664
  12312.054  12312.050  0.500  0.663074  56.4827  29.1036  13.3732
  12316.202  12316.180  0.500  0.661540  56.4249  29.1184  13.3819
  12320.340  12320.330  0.500  0.660355  55.611  28.7324  13.2176
  12324.514  12324.490  0.500  0.658993  56.1973  29.0749  13.3782
  12328.697  12328.680  0.500  0.657642  56.2322  29.1323  13.413
  12332.897  12332.880  0.500  0.656349  56.1919  29.1491  13.4319
  12337.132  12337.110  0.500  0.655018  56.1492  29.1657  13.4519
  12341.364  12341.350  0.500  0.653681  56.101  29.1797  13.4702
  12345.625  12345.610  0.500  0.652531  56.0461  29.1846  13.4869
  12349.910  12349.890  0.500  0.651404  55.8555  29.1182  13.4694
  12354.223  12354.190  0.500  0.650121  55.9387  29.199  13.5178
  12358.527  12358.510  0.500  0.648970  55.8006  29.1605  13.5116
  12362.860  12362.850  0.500  0.647862  55.8191  29.2025  13.5413
  12367.250  12367.210  0.500  0.646713  55.7705  29.2106  13.5551
  12371.596  12371.590  0.500  0.645606  55.7062  29.2093  13.5619
  12376.012  12375.980  0.500  0.644445  55.6638  29.2209  13.5759
  12380.431  12380.400  0.500  0.643136  55.6004  29.2259  13.5822
  12384.853  12384.830  0.500  0.641865  55.1478  29.0248  13.495
  12389.312  12389.280  0.500  0.640654  55.5158  29.2539  13.6074
  12393.768  12393.750  0.500  0.639309  55.4546  29.261  13.6167
  12398.273  12398.240  0.500  0.638076  55.3929  29.2645  13.622
  12402.762  12402.750  0.500  0.636785  55.3334  29.2708  13.6316
  12407.301  12407.280  0.500  0.635493  55.2692  29.2747  13.6396
  12411.844  12411.830  0.500  0.634043  55.2025  29.2818  13.6505
  12416.410  12416.400  0.500  0.632773  55.1315  29.2813  13.6612
  12421.019  12420.980  0.500  0.631119  55.0892  29.3073  13.6834
  12425.613  12425.590  0.500  0.629725  55.0378  29.3208  13.7032
  12430.229  12430.210  0.500  0.628073  54.9461  29.3203  13.712
  12434.903  12434.860  0.500  0.626608  54.8483  29.311  13.7201
  12439.540  12439.520  0.500  0.624936  54.8283  29.3494  13.7507
  12444.221  12444.200  0.500  0.623419  54.8121  29.3852  13.7791
  12448.926  12448.900  0.500  0.621650  54.7412  29.3992  13.7947
  12453.621  12453.620  0.500  0.620272  54.5526  29.3383  13.7763
  12458.401  12458.360  0.500  0.618454  54.6242  29.4302  13.8297
  12463.117  12463.110  0.500  0.616800  54.5605  29.4446  13.8439
  12467.931  12467.890  0.500  0.615291  54.4885  29.4502  13.8547
  12472.695  12472.690  0.500  0.613607  54.4521  29.4801  13.8741
  12477.544  12477.500  0.500  0.611708  54.3813  29.4977  13.8887
  12482.343  12482.330  0.500  0.610279  54.3078  29.5  13.894
  12487.206  12487.190  0.500  0.608568  54.0378  29.4036  13.8512
  12492.093  12492.060  0.500  0.606996  54.2198  29.549  13.9267
  12496.964  12496.950  0.500  0.605441  54.1549  29.5596  13.9385
  12501.901  12501.860  0.500  0.603800  54.0908  29.5731  13.9475
  12506.800  12506.790  0.500  0.602379  54.0259  29.5796  13.959
  12511.757  12511.730  0.500  0.600721  53.9617  29.5935  13.9744
  12516.740  12516.700  0.500  0.599258  53.8986  29.6022  13.9873
  12521.733  12521.690  0.500  0.597814  53.84  29.6127  14.0039
  12526.709  12526.690  0.500  0.596228  53.7746  29.6237  14.0185
  12531.738  12531.720  0.500  0.594780  53.7136  29.633  14.0348
  12536.798  12536.760  0.500  0.593413  53.6396  29.6326  14.0469
  12541.855  12541.820  0.500  0.591971  53.3352  29.5069  13.9984
  12546.923  12546.900  0.500  0.590703  53.5352  29.6552  14.0809
  12552.057  12552.000  0.500  0.589296  53.4676  29.6594  14.0947
  12557.147  12557.120  0.500  0.587940  53.4011  29.6627  14.1062
  12562.297  12562.260  0.500  0.586544  53.336  29.6679  14.1196
  12567.451  12567.420  0.500  0.585253  53.2695  29.6692  14.1307
  12572.623  12572.600  0.500  0.583725  53.2153  29.6844  14.1462
  12577.854  12577.790  0.500  0.582371  53.1259  29.6747  14.1494
  12583.041  12583.010  0.500  0.580964  53.0778  29.6896  14.1647
  12588.288  12588.240  0.500  0.579548  53.0129  29.6952  14.1749
  12593.526  12593.490  0.500  0.578295  52.9564  29.7008  14.186
  12598.803  12598.760  0.500  0.576842  52.8835  29.7031  14.1945
  12604.098  12604.050  0.500  0.575487  52.8141  29.7043  14.2035
  12609.383  12609.360  0.500  0.573883  52.7536  29.7179  14.2188
  12614.722  12614.690  0.500  0.572527  52.69  29.7223  14.2295
  12620.086  12620.040  0.500  0.570953  52.6194  29.7293  14.243
  12625.434  12625.410  0.500  0.569409  52.5506  29.7363  14.2559
  12630.814  12630.790  0.500  0.568039  52.4938  29.7449  14.2715
  12636.248  12636.200  0.500  0.566451  52.4119  29.7456  14.2814
  12641.672  12641.620  0.500  0.564924  52.3159  29.7365  14.2876
  12647.108  12647.070  0.500  0.563287  52.3013  29.7769  14.3196
  12652.584  12652.530  0.500  0.561560  52.2278  29.7865  14.3323
  12658.030  12658.010  0.500  0.560027  52.1658  29.7968  14.3496
  12663.543  12663.510  0.500  0.558459  52.0956  29.8034  14.3644
  12669.068  12669.030  0.500  0.556897  52.0278  29.8111  14.3776
  12674.619  12674.570  0.500  0.555085  51.9618  29.8273  14.3927
  12680.161  12680.120  0.500  0.553571  51.8947  29.8339  14.4075
  12685.736  12685.700  0.500  0.551829  51.8228  29.8445  14.4192
  12691.344  12691.300  0.500  0.550300  51.759  29.8534  14.4352
  12696.957  12696.910  0.500  0.548700  51.6811  29.8562  14.4426
  12702.603  12702.550  0.500  0.547084  51.6137  29.8655  14.4563
  12708.219  12708.200  0.500  0.545454  51.5461  29.875  14.4669
  12713.904  12713.870  0.500  0.543818  51.4714  29.8806  14.4773
  12719.600  12719.560  0.500  0.542368  51.3986  29.8816  14.4868