File: xdidata/As/As-K-ArsenoBetaine.xdi
# XDI/1.0 BlueSky/1.10.0 BMM/2023-1.0-py310-tiled
# Beamline.name: BMM (06BM) -- Beamline for Materials Measurement (NIST)
# Beamline.xray_source: NSLS-II three-pole wiggler
# Beamline.collimation: paraboloid mirror, 5 nm Rh on 30 nm Pt
# Beamline.focusing: not in use
# Beamline.harmonic_rejection: flat mirror, Pt stripe, pitch = 7.0 mrad relative to beam
# Beamline.software: Bluesky 1.10.0, Ophyd 1.7.0, DataBroker 2.0.0b13, Python 3.10.8, 2023-1.0-py310-tiled
# Detector.I0: 10 cm N2
# Detector.I1: 25 cm N2
# Detector.I2: 25 cm N2
# Element.symbol: As
# Element.edge: K
# Element.reference: As
# Element.reference_material: As2O3
# Facility.name: NSLS-II
# Facility.energy: 3.0
# Facility.current: 400.4
# Facility.mode: top-off
# Facility.GUP: 301027
# Facility.SAF: 310583
# Facility.cycle: 2023-2
# Mono.name: Si(111)
# Mono.d_spacing: 3.13519
# Mono.encoder_resolution: 0.0000050 deg/ct
# Mono.angle_offset: 16.0754 deg
# Mono.scan_mode: pseudo channel cut
# Mono.scan_type: step
# Mono.direction: forward in energy
# Sample.name: C5H11AsO2
# Sample.prep: powder in PEG pellet
# Sample.x: 115.008 mm
# Sample.y: 114.461 mm
# Sample.SDD_position: 170.000 mm
# Scan.experimenters: Bruce Ravel
# Scan.edge_energy: 11866.7
# Scan.start_time: 2023-07-10T17:10:52
# Scan.end_time: 2023-07-10T17:18:47
# Scan.transient_id: 90311
# Scan.uid: 1a66f364-0084-4df2-a304-24d8081f3ab8
# Scan.plot_hint: ln(I0/It)  --  ln($5/$6)
# Column.1: energy eV
# Column.2: requested_energy eV
# Column.3: measurement_time seconds
# Column.4: xmu
# Column.5: I0 nA
# Column.6: It nA
# Column.7: Ir nA
# ///////////
# sample courtesy Evan Jahrman, NIST
# -----------
# energy  requested_energy  measurement_time  xmu  I0  It  Ir
  11666.713  11666.700  0.500  0.129879  64.9871  57.0718  38.8243
  11676.733  11676.700  0.500  0.127993  64.8917  57.0956  38.8738
  11686.747  11686.700  0.500  0.126117  64.7506  57.0784  38.8965
  11696.754  11696.700  0.500  0.124229  64.6275  57.0776  38.9317
  11706.731  11706.700  0.500  0.122367  64.5057  57.0762  38.9595
  11716.749  11716.700  0.500  0.120400  64.3896  57.0856  39.0028
  11726.749  11726.700  0.500  0.118528  64.2294  57.0503  39.011
  11736.748  11736.700  0.500  0.116849  63.9401  56.8888  38.9357
  11746.788  11746.700  0.500  0.115061  63.7505  56.8216  38.9184
  11756.750  11756.700  0.500  0.113319  63.7211  56.8944  39.0035
  11766.777  11766.700  0.500  0.111565  63.6863  56.9631  39.0792
  11776.688  11776.700  0.500  0.109890  63.3792  56.7835  38.9849
  11786.695  11786.700  0.500  0.108383  63.4245  56.9098  39.0956
  11796.714  11796.700  0.500  0.106914  63.2843  56.8674  39.0847
  11806.719  11806.700  0.500  0.105775  62.9089  56.5945  38.9177
  11816.729  11816.700  0.500  0.104772  62.9882  56.7227  39.0103
  11826.720  11826.700  0.500  0.104378  62.8542  56.6244  38.9284
  11836.729  11836.700  0.500  0.104908  62.7461  56.497  38.7921
  11838.674  11838.700  0.500  0.105392  62.7228  56.4487  38.7464
  11840.662  11840.700  0.500  0.105898  62.7028  56.4022  38.694
  11842.670  11842.700  0.500  0.106351  62.6664  56.3439  38.6303
  11844.672  11844.700  0.500  0.107081  62.6422  56.2811  38.5502
  11846.669  11846.700  0.500  0.108106  62.6137  56.1979  38.4561
  11848.666  11848.700  0.500  0.109247  62.4074  55.9488  38.2352
  11850.664  11850.700  0.500  0.110840  62.5482  55.9858  38.1995
  11852.675  11852.700  0.500  0.112820  62.5383  55.8662  38.0343
  11854.668  11854.700  0.500  0.115770  62.487  55.656  37.7891
  11856.662  11856.700  0.500  0.119514  62.3092  55.2901  37.401
  11856.944  11857.000  0.500  0.120073  62.3437  55.2899  37.3789
  11857.237  11857.300  0.500  0.120730  62.3763  55.2824  37.3497
  11857.561  11857.600  0.500  0.121389  62.4119  55.2775  37.3157
  11857.849  11857.900  0.500  0.122114  62.4289  55.2526  37.2705
  11858.155  11858.200  0.500  0.123008  62.4387  55.2118  37.214
  11858.473  11858.500  0.500  0.123819  62.4265  55.1563  37.1396
  11858.761  11858.800  0.500  0.124747  62.3735  55.0583  37.0435
  11859.073  11859.100  0.500  0.125704  62.2923  54.9341  36.9231
  11859.367  11859.400  0.500  0.126554  62.2125  54.8171  36.806
  11859.673  11859.700  0.500  0.127528  62.1415  54.7012  36.685
  11859.973  11860.000  0.500  0.128730  62.1037  54.6023  36.575
  11860.273  11860.300  0.500  0.129940  62.0808  54.5162  36.4684
  11860.585  11860.600  0.500  0.131358  62.0958  54.452  36.375
  11860.872  11860.900  0.500  0.132673  62.1194  54.4012  36.2937
  11861.172  11861.200  0.500  0.134206  62.1676  54.36  36.2092
  11861.460  11861.500  0.500  0.135616  62.2278  54.336  36.1351
  11861.779  11861.800  0.500  0.137290  62.267  54.2792  36.0349
  11862.072  11862.100  0.500  0.139072  62.2732  54.188  35.91
  11862.379  11862.400  0.500  0.140644  62.2352  54.0698  35.7601
  11862.666  11862.700  0.500  0.142540  62.2014  53.9382  35.5949
  11862.960  11863.000  0.500  0.144521  62.1757  53.8091  35.4351
  11863.279  11863.300  0.500  0.146871  62.1538  53.6639  35.2486
  11863.561  11863.600  0.500  0.149117  62.1704  53.5578  35.0894
  11863.879  11863.900  0.500  0.151831  62.2116  53.4481  34.9157
  11864.167  11864.200  0.500  0.154543  62.2509  53.3369  34.734
  11864.486  11864.500  0.500  0.157796  62.2896  53.1968  34.5166
  11864.786  11864.800  0.500  0.160987  62.3087  53.0436  34.2867
  11865.080  11865.100  0.500  0.164761  62.3364  52.8673  34.0303
  11865.380  11865.400  0.500  0.168644  62.3355  52.6616  33.7429
  11865.692  11865.700  0.500  0.173185  62.3319  52.42  33.402
  11865.999  11866.000  0.500  0.178088  62.3333  52.1648  33.0544
  11866.299  11866.300  0.500  0.183583  62.3295  51.8758  32.6622
  11866.593  11866.600  0.500  0.189485  62.3288  51.5699  32.2416
  11866.912  11866.900  0.500  0.196547  62.3213  51.2008  31.7321
  11867.200  11867.200  0.500  0.203781  62.312  50.8242  31.2223
  11867.500  11867.500  0.500  0.212335  62.3052  50.3858  30.6294
  11867.788  11867.800  0.500  0.221560  62.2972  49.9168  30.0089
  11868.095  11868.100  0.500  0.232544  62.2912  49.3667  29.2679
  11868.395  11868.400  0.500  0.244670  62.282  48.7645  28.4852
  11868.683  11868.700  0.500  0.257927  62.2832  48.1232  27.6512
  11868.990  11869.000  0.500  0.274835  62.2806  47.3144  26.6309
  11869.278  11869.300  0.500  0.293198  62.268  46.4441  25.5667
  11869.578  11869.600  0.500  0.315679  62.2592  45.4052  24.3368
  11869.891  11869.900  0.500  0.342539  62.2488  44.1945  22.9768
  11870.191  11870.200  0.500  0.375324  62.2301  42.7562  21.4568
  11870.492  11870.500  0.500  0.415524  62.1854  41.042  19.7797
  11870.792  11870.800  0.500  0.462624  62.1337  39.1212  18.0675
  11871.093  11871.100  0.500  0.526272  62.0847  36.6799  16.1051
  11871.399  11871.400  0.500  0.601794  62.0564  33.9962  14.1883
  11871.706  11871.700  0.500  0.694339  62.0667  30.9964  12.2932
  11872.007  11872.000  0.500  0.810865  62.1106  27.6065  10.4037
  11872.307  11872.300  0.500  0.942080  62.1405  24.2234  8.725149
  11872.602  11872.600  0.500  1.098142  62.1761  20.7351  7.169443
  11872.914  11872.900  0.500  1.264068  62.2048  17.573  5.883886
  11873.203  11873.200  0.500  1.434059  62.2247  14.8306  4.853883
  11873.497  11873.500  0.500  1.594623  62.2379  12.6334  4.084204
  11873.792  11873.800  0.500  1.718540  62.2266  11.159  3.605460
  11874.099  11874.100  0.500  1.796717  62.225  10.3196  3.366408
  11874.387  11874.400  0.500  1.810445  62.228  10.1793  3.374263
  11874.688  11874.700  0.500  1.769287  62.2233  10.6062  3.580229
  11874.994  11875.000  0.500  1.679788  62.216  11.5979  3.987878
  11875.283  11875.300  0.500  1.577262  62.209  12.8486  4.481395
  11875.590  11875.600  0.500  1.462871  62.2049  14.4048  5.092237
  11875.890  11875.900  0.500  1.356242  62.1912  16.0221  5.731167
  11876.191  11876.200  0.500  1.264960  62.1895  17.553  6.347868
  11876.504  11876.500  0.500  1.187748  62.1877  18.9615  6.939680
  11876.805  11876.800  0.500  1.131130  62.1798  20.0635  7.433954
  11877.112  11877.100  0.500  1.087701  62.1779  20.9533  7.874442
  11877.413  11877.400  0.500  1.060859  62.1767  21.523  8.203738
  11877.707  11877.700  0.500  1.044610  62.1732  21.8743  8.469268
  11878.008  11878.000  0.500  1.037055  62.1633  22.0367  8.676498
  11878.303  11878.300  0.500  1.036638  62.1634  22.0459  8.819993
  11878.616  11878.600  0.500  1.041008  62.1521  21.9458  8.920529
  11878.886  11878.900  0.500  1.047877  62.1512  21.7953  8.979628
  11879.212  11879.200  0.500  1.057239  62.1481  21.5911  9.015299
  11879.494  11879.500  0.500  1.066059  62.1436  21.4  9.026353
  11879.783  11879.800  0.500  1.075047  62.1415  21.2078  9.023713
  11880.102  11880.100  0.500  1.083808  62.1388  21.0218  9.004807
  11880.391  11880.400  0.500  1.091984  62.1327  20.8486  8.967648
  11880.698  11880.700  0.500  1.100420  62.1286  20.6721  8.908366
  11880.981  11881.000  0.500  1.109441  62.1236  20.4848  8.824077
  11881.300  11881.300  0.500  1.120998  62.119  20.248  8.694506
  11881.583  11881.600  0.500  1.132512  62.1056  20.0118  8.550499
  11881.902  11881.900  0.500  1.147223  62.1091  19.7207  8.360282
  11882.197  11882.200  0.500  1.162962  62.1033  19.4109  8.156599
  11882.504  11882.500  0.500  1.180626  62.0927  19.0678  7.929858
  11882.806  11882.800  0.500  1.198490  62.0878  18.7287  7.711794
  11883.100  11883.100  0.500  1.215401  62.0893  18.4151  7.514171
  11883.414  11883.400  0.500  1.231357  62.0691  18.1177  7.338067
  11883.709  11883.700  0.500  1.244033  62.0483  17.8835  7.205777
  11884.016  11884.000  0.500  1.254039  62.006  17.6934  7.105824
  11884.293  11884.300  0.500  1.259758  61.9006  17.5626  7.045695
  11884.619  11884.600  0.500  1.261966  61.7586  17.4837  7.024333
  11884.895  11884.900  0.500  1.259816  61.5944  17.4747  7.039822
  11885.203  11885.200  0.500  1.253658  61.4533  17.5424  7.092226
  11885.491  11885.500  0.500  1.245414  61.3849  17.6679  7.173147
  11885.799  11885.800  0.500  1.234006  61.3749  17.8677  7.288393
  11886.082  11886.100  0.500  1.221509  61.4023  18.1005  7.414922
  11886.383  11886.400  0.500  1.207510  61.4845  18.3802  7.556315
  11886.697  11886.700  0.500  1.192074  61.5708  18.6924  7.709360
  11886.998  11887.000  0.500  1.177325  61.7097  19.0129  7.863611
  11887.299  11887.300  0.500  1.162176  61.8024  19.3321  8.011682
  11887.600  11887.600  0.500  1.147700  61.8807  19.6388  8.155533
  11887.896  11887.900  0.500  1.132584  61.9273  19.9529  8.299560
  11888.197  11888.200  0.500  1.118260  61.9452  20.2467  8.433530
  11888.498  11888.500  0.500  1.104961  61.9639  20.5239  8.562618
  11888.800  11888.800  0.500  1.092085  61.961  20.7889  8.686323
  11889.101  11889.100  0.500  1.079272  61.9651  21.0584  8.816126
  11889.409  11889.400  0.500  1.067362  61.9688  21.312  8.939900
  11889.716  11889.700  0.500  1.056283  61.9679  21.5491  9.063366
  11889.999  11890.000  0.500  1.045904  61.9491  21.7673  9.182404
  11890.313  11890.300  0.500  1.035520  61.9467  21.9937  9.308583
  11890.615  11890.600  0.500  1.026001  61.947  22.2041  9.429899
  11890.910  11890.900  0.500  1.017093  61.9435  22.4015  9.545995
  11891.199  11891.200  0.500  1.008603  61.9397  22.5911  9.656286
  11891.513  11891.500  0.500  0.999959  61.9293  22.7834  9.767252
  11891.710  11891.700  0.500  0.994962  61.9345  22.8995  9.834106
  11892.701  11892.690  0.500  0.971968  61.9206  23.4269  10.1242
  11893.692  11893.690  0.500  0.952806  61.8983  23.8716  10.3896
  11894.726  11894.710  0.500  0.935200  61.8848  24.2903  10.7006
  11895.786  11895.760  0.500  0.918139  61.8697  24.7022  11.0156
  11896.851  11896.820  0.500  0.902041  61.8543  25.0968  11.2627
  11897.923  11897.900  0.500  0.886260  61.8281  25.4852  11.4538
  11899.014  11899.000  0.500  0.870996  61.8208  25.8741  11.6344
  11900.117  11900.120  0.500  0.857309  61.7663  26.2076  11.8019
  11901.269  11901.260  0.500  0.845851  61.5382  26.4117  11.918
  11902.422  11902.410  0.500  0.837157  61.1164  26.4597  11.9605
  11903.606  11903.590  0.500  0.830821  61.3815  26.7434  12.1195
  11904.784  11904.780  0.500  0.827009  61.6995  26.9846  12.2727
  11906.005  11906.000  0.500  0.825236  61.7298  27.0458  12.3473
  11907.239  11907.230  0.500  0.825530  61.7251  27.0357  12.3775
  11908.504  11908.480  0.500  0.827721  61.7016  26.9663  12.3752
  11909.776  11909.750  0.500  0.831818  61.6844  26.8486  12.3449
  11911.060  11911.040  0.500  0.838139  61.662  26.6697  12.2698
  11912.363  11912.350  0.500  0.846104  61.878  26.5508  12.1817
  11913.691  11913.680  0.500  0.855763  61.8817  26.2972  12.0093
  11915.044  11915.030  0.500  0.866931  61.8308  25.9837  11.7907
  11916.416  11916.400  0.500  0.879037  61.6073  25.5783  11.5399
  11917.800  11917.780  0.500  0.891408  61.1501  25.0763  11.2611
  11919.185  11919.190  0.500  0.903218  61.5478  24.9431  11.1643
  11920.614  11920.610  0.500  0.915057  61.7803  24.7426  11.053
  11922.074  11922.050  0.500  0.925901  61.7787  24.4751  10.9135
  11923.540  11923.510  0.500  0.935539  61.7605  24.2332  10.7766
  11925.019  11924.990  0.500  0.943269  61.7361  24.0371  10.6484
  11926.498  11926.490  0.500  0.949503  61.7231  23.8827  10.529
  11928.015  11928.010  0.500  0.954222  61.7049  23.7633  10.4262
  11929.564  11929.550  0.500  0.957282  61.6809  23.6815  10.3466
  11931.118  11931.110  0.500  0.958958  61.652  23.6307  10.2949
  11932.705  11932.680  0.500  0.960559  61.6351  23.5865  10.2588
  11934.279  11934.280  0.500  0.961580  61.3868  23.4674  10.1928
  11935.903  11935.890  0.500  0.960079  60.9416  23.3323  10.1107
  11937.553  11937.530  0.500  0.958360  61.4605  23.5714  10.2051
  11939.191  11939.180  0.500  0.956847  61.5146  23.6279  10.2296
  11940.860  11940.850  0.500  0.954517  61.5003  23.6775  10.2467
  11942.542  11942.540  0.500  0.952644  61.4879  23.7171  10.2536
  11944.256  11944.250  0.500  0.950658  61.4654  23.7556  10.2547
  11946.013  11945.980  0.500  0.948643  61.4354  23.7919  10.2569
  11947.734  11947.730  0.500  0.945995  61.4152  23.8471  10.2767
  11949.480  11949.490  0.500  0.943599  61.3952  23.8965  10.3025
  11951.295  11951.280  0.500  0.940631  61.3719  23.9584  10.351
  11953.092  11953.080  0.500  0.937449  61.3484  24.0256  10.4139
  11954.921  11954.910  0.500  0.933824  61.3154  24.0999  10.4756
  11956.738  11956.750  0.500  0.930075  61.2999  24.1843  10.5323
  11958.611  11958.610  0.500  0.925745  61.2678  24.2765  10.5884
  11960.516  11960.490  0.500  0.921057  61.2404  24.3797  10.6486
  11962.397  11962.390  0.500  0.916570  61.2122  24.4781  10.7119
  11964.309  11964.310  0.500  0.912069  61.1935  24.581  10.7798
  11966.253  11966.250  0.500  0.907469  61.1523  24.6777  10.8409
  11968.236  11968.210  0.500  0.903405  61.1333  24.7705  10.8945
  11970.175  11970.180  0.500  0.899607  61.1048  24.8531  10.9475
  11972.184  11972.180  0.500  0.896411  61.0751  24.9206  10.9943
  11974.212  11974.190  0.500  0.893844  61.0462  24.9728  11.03
  11976.247  11976.220  0.500  0.891871  61.0164  25.0099  11.0626
  11978.276  11978.280  0.500  0.890272  60.9855  25.0372  11.0888
  11980.344  11980.350  0.500  0.889236  60.9552  25.0507  11.1111
  11982.437  11982.440  0.500  0.888832  60.9251  25.0485  11.1305
  11984.512  11984.550  0.500  0.888674  60.8957  25.0404  11.1494
  11986.645  11986.680  0.500  0.888768  60.8619  25.0241  11.1654
  11988.815  11988.820  0.500  0.889216  60.8318  25.0005  11.174
  11991.049  11990.990  0.500  0.889694  60.7969  24.9742  11.1734
  11993.140  11993.180  0.500  0.890386  60.7558  24.9401  11.1688
  11995.338  11995.380  0.500  0.891410  60.7282  24.9032  11.1553
  11997.838  11997.600  0.500  0.892592  60.6861  24.8566  11.14
  11999.806  11999.850  0.500  0.893398  60.6523  24.8227  11.1215
  12002.138  12002.110  0.500  0.894672  60.6327  24.7831  11.0974
  12004.390  12004.390  0.500  0.895949  60.6048  24.7401  11.0657
  12006.667  12006.690  0.500  0.897122  60.5697  24.6968  11.032
  12008.983  12009.010  0.500  0.898281  60.5374  24.655  10.9964
  12011.351  12011.350  0.500  0.899643  60.5179  24.6135  10.9591
  12013.700  12013.700  0.500  0.900392  60.4821  24.5806  10.9287
  12016.088  12016.080  0.500  0.901423  60.4561  24.5447  10.8971
  12018.465  12018.470  0.500  0.902070  60.4218  24.5149  10.8737
  12020.873  12020.890  0.500  0.902528  60.3932  24.492  10.854
  12023.315  12023.320  0.500  0.902806  60.3591  24.4714  10.8363
  12025.776  12025.770  0.500  0.902631  60.324  24.4615  10.8239
  12028.263  12028.250  0.500  0.902191  60.2883  24.4577  10.8166
  12030.733  12030.740  0.500  0.901696  60.2598  24.4583  10.8129
  12033.228  12033.250  0.500  0.900732  60.2229  24.4669  10.8137
  12035.788  12035.770  0.500  0.899720  60.1928  24.4794  10.8141
  12038.330  12038.320  0.500  0.898910  60.152  24.4827  10.8179
  12040.898  12040.890  0.500  0.897509  60.1168  24.5026  10.8335
  12043.462  12043.470  0.500  0.895661  60.0749  24.5309  10.8509
  12046.083  12046.080  0.500  0.893844  59.915  24.51  10.8557
  12048.699  12048.700  0.500  0.891837  58.2958  23.8956  10.5949
  12051.366  12051.350  0.500  0.889699  59.8549  24.5872  10.9145
  12054.010  12054.010  0.500  0.887269  59.9007  24.6658  10.9636
  12056.680  12056.690  0.500  0.884858  59.8798  24.7168  10.9983
  12059.396  12059.390  0.500  0.882434  59.8529  24.7656  11.032
  12062.113  12062.110  0.500  0.879994  59.8044  24.806  11.0599
  12064.856  12064.850  0.500  0.877859  59.7808  24.8492  11.0872
  12067.594  12067.600  0.500  0.875740  59.7423  24.8859  11.1069
  12070.385  12070.380  0.500  0.873605  59.7005  24.9216  11.1263
  12073.176  12073.170  0.500  0.872026  59.6694  24.948  11.1412
  12076.001  12075.990  0.500  0.870274  59.6182  24.9703  11.1544
  12078.821  12078.820  0.500  0.869059  59.586  24.9871  11.171
  12081.674  12081.670  0.500  0.867670  59.5421  25.0034  11.185
  12084.553  12084.550  0.500  0.866743  59.5035  25.0104  11.1979
  12087.453  12087.440  0.500  0.865870  59.4665  25.0167  11.2093
  12090.361  12090.350  0.500  0.865132  59.4133  25.0127  11.2162
  12093.271  12093.270  0.500  0.864496  59.251  24.9603  11.1988
  12096.219  12096.220  0.500  0.864177  59.3623  25.0152  11.2307
  12099.208  12099.190  0.500  0.863893  59.3167  25.003  11.2289
  12102.173  12102.170  0.500  0.863919  59.2822  24.9879  11.2281
  12105.171  12105.180  0.500  0.863463  59.2401  24.9815  11.2278
  12108.196  12108.200  0.500  0.863332  59.2039  24.9695  11.2342
  12111.248  12111.250  0.500  0.862986  59.1567  24.9582  11.2384
  12114.314  12114.310  0.500  0.863047  59.1236  24.9428  11.2424
  12117.389  12117.390  0.500  0.862553  59.0754  24.9347  11.2469
  12120.503  12120.490  0.500  0.862280  59.0384  24.9259  11.2538
  12123.606  12123.610  0.500  0.861842  58.9933  24.9178  11.2538
  12126.743  12126.750  0.500  0.861559  58.9418  24.9031  11.2531
  12129.920  12129.900  0.500  0.861079  58.6932  24.81  11.2123
  12133.086  12133.080  0.500  0.860448  58.8854  24.9069  11.2591
  12136.266  12136.270  0.500  0.859727  58.8415  24.9063  11.2565
  12139.512  12139.490  0.500  0.858961  58.7977  24.9068  11.2555
  12142.728  12142.720  0.500  0.857924  58.7583  24.9159  11.2539
  12145.984  12145.970  0.500  0.856919  58.7104  24.9207  11.2494
  12149.249  12149.250  0.500  0.855860  58.6652  24.9279  11.2461
  12152.560  12152.540  0.500  0.854613  58.6176  24.9387  11.2444
  12155.853  12155.850  0.500  0.853193  58.5696  24.9537  11.2452
  12159.168  12159.170  0.500  0.851719  58.5173  24.9682  11.2491
  12162.523  12162.520  0.500  0.850181  58.2952  24.9117  11.2273
  12165.900  12165.890  0.500  0.848651  58.4378  25.0109  11.2759
  12169.285  12169.270  0.500  0.846815  58.3896  25.0362  11.2958
  12172.697  12172.680  0.500  0.845117  58.3383  25.0567  11.3174
  12176.105  12176.100  0.500  0.843284  58.2913  25.0825  11.3403
  12179.573  12179.550  0.500  0.841656  58.2512  25.106  11.3665
  12183.050  12183.010  0.500  0.839802  58.2004  25.1307  11.3915
  12186.483  12186.490  0.500  0.838090  58.1525  25.1531  11.4159
  12190.015  12189.990  0.500  0.836336  58.1056  25.1769  11.4402
  12193.543  12193.510  0.500  0.834690  58.0647  25.2006  11.4614
  12197.060  12197.050  0.500  0.833015  58.0106  25.2193  11.4795
  12200.612  12200.600  0.500  0.831624  57.8439  25.1819  11.4726
  12204.204  12204.180  0.500  0.829843  57.9222  25.2609  11.5135
  12207.792  12207.780  0.500  0.828377  57.884  25.2813  11.5254
  12211.422  12211.390  0.500  0.827031  57.8393  25.2958  11.5354
  12215.047  12215.020  0.500  0.825711  57.788  25.3067  11.5436
  12218.693  12218.680  0.500  0.824355  57.7408  25.3204  11.5492
  12222.368  12222.350  0.500  0.823210  57.699  25.331  11.556
  12226.045  12226.040  0.500  0.822264  57.6597  25.3377  11.561
  12229.757  12229.750  0.500  0.820992  57.6023  25.3447  11.5678
  12233.504  12233.480  0.500  0.820009  57.47  25.3114  11.5588
  12237.240  12237.220  0.500  0.819164  56.6843  24.9865  11.4111
  12241.024  12240.990  0.500  0.818114  57.4008  25.3289  11.5811
  12244.810  12244.780  0.500  0.817247  57.3821  25.3426  11.5947
  12248.599  12248.580  0.500  0.816279  57.333  25.3454  11.6096
  12252.443  12252.410  0.500  0.815491  57.2897  25.3462  11.6233
  12256.282  12256.250  0.500  0.814529  57.1033  25.2881  11.6092
  12260.124  12260.110  0.500  0.813493  57.1731  25.3453  11.649
  12264.027  12263.990  0.500  0.812343  56.1967  24.9411  11.4778
  12267.900  12267.890  0.500  0.811450  56.9876  25.3147  11.6548
  12271.828  12271.810  0.500  0.810205  56.8943  25.3047  11.6577
  12275.765  12275.750  0.500  0.809004  56.9841  25.3751  11.6967
  12279.712  12279.710  0.500  0.807883  56.9257  25.3775  11.7045
  12283.700  12283.680  0.500  0.806591  56.759  25.3359  11.6887
  12287.684  12287.680  0.500  0.805129  56.7826  25.3835  11.7087
  12291.717  12291.690  0.500  0.804179  55.4218  24.7987  11.4408
  12295.746  12295.730  0.500  0.802496  56.6539  25.3928  11.7169
  12299.784  12299.780  0.500  0.801040  56.4725  25.3483  11.6949
  12303.872  12303.850  0.500  0.799639  56.5934  25.4382  11.7371
  12307.942  12307.940  0.500  0.798040  56.5397  25.4548  11.7465
  12312.061  12312.050  0.500  0.796275  56.4834  25.4743  11.7565
  12316.222  12316.180  0.500  0.794707  56.4281  25.4893  11.7692
  12320.334  12320.330  0.500  0.793152  55.647  25.1756  11.6318
  12324.507  12324.490  0.500  0.791609  56.1999  25.465  11.7688
  12328.697  12328.680  0.500  0.789784  56.2338  25.5269  11.8064
  12332.897  12332.880  0.500  0.788400  56.197  25.5456  11.8239
  12337.152  12337.110  0.500  0.786644  56.1443  25.5665  11.8453
  12341.364  12341.350  0.500  0.784960  56.093  25.5861  11.8658
  12345.625  12345.610  0.500  0.783239  56.0336  25.6031  11.8838
  12349.910  12349.890  0.500  0.781751  55.8484  25.5565  11.8753
  12354.203  12354.190  0.500  0.780244  55.9361  25.6352  11.9234
  12358.527  12358.510  0.500  0.778642  55.8011  25.6143  11.9228
  12362.867  12362.850  0.500  0.777253  55.8176  25.6575  11.9536
  12367.223  12367.210  0.500  0.775607  55.7705  25.6781  11.9698
  12371.616  12371.590  0.500  0.774194  55.7074  25.6853  11.9824
  12375.992  12375.980  0.500  0.772802  55.6592  25.6988  11.9918
  12380.438  12380.400  0.500  0.771287  55.5969  25.709  12.0028
  12384.826  12384.830  0.500  0.770123  55.1431  25.5288  11.9236
  12389.319  12389.280  0.500  0.768835  55.5113  25.7324  12.0234
  12393.761  12393.750  0.500  0.767553  55.4481  25.7361  12.0295
  12398.253  12398.240  0.500  0.766145  55.3919  25.7462  12.0377
  12402.789  12402.750  0.500  0.764895  55.3266  25.7481  12.0443
  12407.288  12407.280  0.500  0.763738  55.2763  25.7544  12.0572
  12411.857  12411.830  0.500  0.762321  55.2097  25.7599  12.0642
  12416.403  12416.400  0.500  0.761124  55.1414  25.7588  12.0728
  12421.019  12420.980  0.500  0.759721  55.0967  25.7741  12.087
  12425.619  12425.590  0.500  0.758421  55.0353  25.7788  12.1017
  12430.216  12430.210  0.500  0.757093  54.9449  25.7707  12.1099
  12434.903  12434.860  0.500  0.755789  54.8471  25.7584  12.1141
  12439.527  12439.520  0.500  0.754473  54.8284  25.7835  12.1356
  12444.235  12444.200  0.500  0.753074  55.0143  25.9071  12.2032
  12448.926  12448.900  0.500  0.751604  54.953  25.9164  12.2195
  12453.649  12453.620  0.500  0.750044  54.7571  25.8643  12.2014
  12458.388  12458.360  0.500  0.748734  54.837  25.936  12.2456
  12463.144  12463.110  0.500  0.747182  54.771  25.945  12.2551
  12467.925  12467.890  0.500  0.745685  54.6938  25.9472  12.2625
  12472.695  12472.690  0.500  0.744167  54.6503  25.966  12.2763
  12477.537  12477.500  0.500  0.742606  54.5812  25.9737  12.2852
  12482.356  12482.330  0.500  0.740916  54.5042  25.9809  12.2924
  12487.226  12487.190  0.500  0.739516  54.2416  25.8919  12.2548
  12492.073  12492.060  0.500  0.737821  54.4221  26.0222  12.3203
  12496.985  12496.950  0.500  0.736154  54.355  26.0335  12.3308
  12501.901  12501.860  0.500  0.734589  54.2902  26.0432  12.3399
  12506.800  12506.790  0.500  0.733017  54.2251  26.0529  12.3519
  12511.757  12511.730  0.500  0.731463  54.1634  26.0637  12.364
  12516.726  12516.700  0.500  0.729859  54.1026  26.0762  12.3789
  12521.719  12521.690  0.500  0.728158  54.0365  26.0887  12.3921
  12526.723  12526.690  0.500  0.726570  53.9725  26.0992  12.409
  12531.738  12531.720  0.500  0.724916  53.9074  26.1109  12.4232
  12536.791  12536.760  0.500  0.723430  53.8362  26.1151  12.4356
  12541.868  12541.820  0.500  0.721900  53.5254  26.0042  12.3922
  12546.923  12546.900  0.500  0.720497  53.7367  26.1434  12.473
  12552.030  12552.000  0.500  0.718860  53.6662  26.1519  12.4855
  12557.154  12557.120  0.500  0.717477  53.6033  26.1574  12.4958
  12562.297  12562.260  0.500  0.715864  53.5391  26.1683  12.5109
  12567.437  12567.420  0.500  0.714527  53.4794  26.1741  12.5222
  12572.636  12572.600  0.500  0.713108  53.4127  26.1785  12.5346
  12577.826  12577.790  0.500  0.711710  53.3326  26.1759  12.5404
  12583.041  12583.010  0.500  0.710218  53.2826  26.1904  12.5544
  12588.268  12588.240  0.500  0.708975  53.2193  26.1918  12.5612
  12593.519  12593.490  0.500  0.707332  53.1527  26.202  12.574
  12598.803  12598.760  0.500  0.705941  53.0874  26.2063  12.5827
  12604.070  12604.050  0.500  0.704503  53.0244  26.2129  12.5913
  12609.383  12609.360  0.500  0.703075  52.9567  26.2168  12.603
  12614.736  12614.690  0.500  0.701513  52.8904  26.2249  12.6145
  12620.065  12620.040  0.500  0.700034  52.8211  26.2293  12.6267
  12625.469  12625.410  0.500  0.698548  52.7525  26.2342  12.6349
  12630.828  12630.790  0.500  0.697140  52.6985  26.2443  12.6493
  12636.234  12636.200  0.500  0.695590  52.6144  26.243  12.6595
  12641.658  12641.620  0.500  0.693971  52.5195  26.2381  12.6662
  12647.108  12647.070  0.500  0.692273  52.5078  26.2769  12.693
  12652.584  12652.530  0.500  0.690693  52.4406  26.2847  12.7063
  12658.044  12658.010  0.500  0.689346  52.3743  26.2869  12.7183
  12663.557  12663.510  0.500  0.687689  52.311  26.2986  12.7332
  12669.061  12669.030  0.500  0.685986  52.2418  26.3086  12.7451
  12674.612  12674.570  0.500  0.684574  52.1746  26.3119  12.758
  12680.140  12680.120  0.500  0.682959  52.1092  26.3214  12.7702
  12685.757  12685.700  0.500  0.681353  52.0377  26.3275  12.7806
  12691.330  12691.300  0.500  0.679816  51.9665  26.332  12.792
  12696.978  12696.910  0.500  0.678181  51.9013  26.3419  12.8017
  12702.603  12702.550  0.500  0.676600  51.8315  26.3481  12.8137
  12708.233  12708.200  0.500  0.674992  51.765  26.3567  12.8236
  12713.925  12713.870  0.500  0.673298  51.6924  26.3644  12.8363
  12719.586  12719.560  0.500  0.671684  51.6256  26.3728  12.8469