File: xdidata/Re/Re-L1-RheniumTrioxide.xdi
# XDI/1.0 BlueSky/1.10.0 BMM/2023-1.0-py310-tiled
# Beamline.name: BMM (06BM) -- Beamline for Materials Measurement (NIST)
# Beamline.xray_source: NSLS-II three-pole wiggler
# Beamline.collimation: paraboloid mirror, 5 nm Rh on 30 nm Pt
# Beamline.focusing: not in use
# Beamline.harmonic_rejection: flat mirror, Pt stripe, pitch = 7.0 mrad relative to beam
# Beamline.software: Bluesky 1.10.0, Ophyd 1.7.0, DataBroker 2.0.0b13, Python 3.10.8, 2023-1.0-py310-tiled
# Detector.I0: 10 cm N2
# Detector.I1: 25 cm N2
# Detector.I2: 25 cm N2
# Element.symbol: Re
# Element.edge: L1
# Element.reference: Re
# Element.reference_material: ReO2
# Facility.name: NSLS-II
# Facility.energy: 3.0
# Facility.current: 400.6
# Facility.mode: top-off
# Facility.GUP: 301027
# Facility.SAF: 310583
# Facility.cycle: 2023-2
# Mono.name: Si(111)
# Mono.d_spacing: 3.13519
# Mono.encoder_resolution: 0.0000050 deg/ct
# Mono.angle_offset: 16.0754 deg
# Mono.scan_mode: pseudo channel cut
# Mono.scan_type: step
# Mono.direction: forward in energy
# Sample.name: ReO3, Rhenium trioxide
# Sample.prep: powder on tape
# Sample.x: 145.711 mm
# Sample.y: 114.376 mm
# Sample.SDD_position: 205.000 mm
# Scan.experimenters: Bruce Ravel
# Scan.edge_energy: 12526.7
# Scan.start_time: 2023-06-27T19:00:02
# Scan.end_time: 2023-06-27T19:07:56
# Scan.transient_id: 85244
# Scan.uid: 5b1c23a2-73ca-4988-8661-fdb9ea4287b5
# Scan.plot_hint: ln(I0/It)  --  ln($5/$6)
# Column.1: energy eV
# Column.2: requested_energy eV
# Column.3: measurement_time seconds
# Column.4: xmu
# Column.5: I0 nA
# Column.6: It nA
# Column.7: Ir nA
# ///////////
# Welcome to BMM
# -----------
# energy  requested_energy  measurement_time  xmu  I0  It  Ir
  12326.738  12326.700  0.500  5.298304  56.0786  0.280397  0.009131
  12336.741  12336.700  0.500  5.294821  56.0339  0.281151  0.009185
  12346.754  12346.700  0.500  5.286997  55.9073  0.282719  0.009438
  12356.757  12356.700  0.500  5.278235  55.7272  0.284288  0.009528
  12366.797  12366.700  0.500  5.259614  55.6675  0.289321  0.009765
  12376.746  12376.700  0.500  5.239917  55.5452  0.294428  0.009891
  12386.785  12386.700  0.500  5.228418  55.4307  0.297219  0.010278
  12396.726  12396.700  0.500  5.229204  55.3002  0.296287  0.010029
  12406.724  12406.700  0.500  5.227103  55.1759  0.296243  0.010219
  12416.732  12416.700  0.500  5.218151  55.0338  0.298137  0.010438
  12426.763  12426.700  0.500  5.198995  54.9265  0.303310  0.010543
  12436.736  12436.700  0.500  5.176398  54.4521  0.307563  0.010833
  12446.725  12446.700  0.500  5.165032  54.7008  0.312499  0.010952
  12456.738  12456.700  0.500  5.160486  54.5848  0.313257  0.011089
  12466.739  12466.700  0.500  5.153992  54.4509  0.314525  0.011259
  12476.730  12476.700  0.500  5.151106  54.3349  0.314762  0.011343
  12486.737  12486.700  0.500  5.147138  53.9058  0.313518  0.011245
  12496.733  12496.700  0.500  5.144500  54.1114  0.315545  0.011531
  12498.673  12498.700  0.500  5.141931  54.0837  0.316194  0.011470
  12500.675  12500.700  0.500  5.140243  54.0623  0.316603  0.011448
  12502.684  12502.700  0.500  5.136723  54.0261  0.317507  0.011476
  12504.687  12504.700  0.500  5.133950  54.0017  0.318245  0.011602
  12506.677  12506.700  0.500  5.130539  53.9784  0.319195  0.011578
  12508.688  12508.700  0.500  5.129360  53.9466  0.319383  0.011631
  12510.680  12510.700  0.500  5.126584  53.9263  0.320150  0.011491
  12512.699  12512.700  0.500  5.124276  53.8921  0.320686  0.011838
  12514.685  12514.700  0.500  5.123091  53.8811  0.321001  0.011701
  12516.658  12516.700  0.500  5.123148  53.8488  0.320790  0.011715
  12516.944  12517.000  0.500  5.122799  53.8449  0.320879  0.011695
  12517.252  12517.300  0.500  5.122934  53.8422  0.320819  0.011676
  12517.539  12517.600  0.500  5.122773  53.8389  0.320852  0.011655
  12517.853  12517.900  0.500  5.123327  53.8329  0.320638  0.011638
  12518.160  12518.200  0.500  5.122925  53.8336  0.320771  0.011700
  12518.447  12518.500  0.500  5.123097  53.8185  0.320626  0.011606
  12518.768  12518.800  0.500  5.122915  53.8172  0.320677  0.011575
  12519.068  12519.100  0.500  5.122593  53.805  0.320707  0.011557
  12519.362  12519.400  0.500  5.122363  53.8036  0.320773  0.011549
  12519.676  12519.700  0.500  5.122849  53.7936  0.320557  0.011549
  12519.984  12520.000  0.500  5.124181  53.7903  0.320110  0.011594
  12520.271  12520.300  0.500  5.123190  53.7949  0.320456  0.011589
  12520.578  12520.600  0.500  5.124087  53.7874  0.320124  0.011460
  12520.872  12520.900  0.500  5.123744  53.7808  0.320194  0.011568
  12521.179  12521.200  0.500  5.124115  53.7744  0.320038  0.011475
  12521.493  12521.500  0.500  5.124436  53.7766  0.319948  0.011695
  12521.787  12521.800  0.500  5.124382  53.7675  0.319911  0.011358
  12522.081  12522.100  0.500  5.125484  53.7701  0.319574  0.011476
  12522.395  12522.400  0.500  5.125914  53.7473  0.319301  0.011485
  12522.683  12522.700  0.500  5.126493  53.7572  0.319175  0.011486
  12522.983  12523.000  0.500  5.127342  53.7508  0.318866  0.011338
  12523.284  12523.300  0.500  5.127249  53.7477  0.318877  0.011574
  12523.571  12523.600  0.500  5.128466  53.7378  0.318431  0.011567
  12523.879  12523.900  0.500  5.128372  53.7384  0.318465  0.011473
  12524.173  12524.200  0.500  5.128894  53.7317  0.318259  0.011405
  12524.466  12524.500  0.500  5.129195  53.7271  0.318135  0.011550
  12524.781  12524.800  0.500  5.130651  53.724  0.317654  0.011471
  12525.082  12525.100  0.500  5.131289  53.7223  0.317442  0.011456
  12525.376  12525.400  0.500  5.132769  53.7162  0.316936  0.011281
  12525.670  12525.700  0.500  5.133994  53.7085  0.316503  0.011228
  12525.977  12526.000  0.500  5.133718  53.7081  0.316588  0.011392
  12526.299  12526.300  0.500  5.135957  53.7069  0.315873  0.011218
  12526.572  12526.600  0.500  5.137542  53.6989  0.315326  0.011235
  12526.880  12526.900  0.500  5.139311  53.6873  0.314700  0.011200
  12527.174  12527.200  0.500  5.140183  53.6877  0.314428  0.011144
  12527.496  12527.500  0.500  5.142262  53.6816  0.313740  0.011134
  12527.790  12527.800  0.500  5.143455  53.6763  0.313335  0.011097
  12528.098  12528.100  0.500  5.145584  53.6671  0.312615  0.010978
  12528.392  12528.400  0.500  5.149268  53.6654  0.311455  0.010922
  12528.700  12528.700  0.500  5.149886  53.661  0.311237  0.010808
  12529.001  12529.000  0.500  5.152460  53.6586  0.310423  0.010907
  12529.302  12529.300  0.500  5.155671  53.6572  0.309420  0.010758
  12529.603  12529.600  0.500  5.158335  53.6472  0.308539  0.010730
  12529.904  12529.900  0.500  5.162525  53.648  0.307254  0.010663
  12530.212  12530.200  0.500  5.164727  53.6375  0.306518  0.010571
  12530.492  12530.500  0.500  5.168798  53.6381  0.305276  0.010561
  12530.807  12530.800  0.500  5.173295  53.6303  0.303862  0.010434
  12531.087  12531.100  0.500  5.177495  53.6227  0.302546  0.010331
  12531.402  12531.400  0.500  5.182564  53.6166  0.300982  0.010179
  12531.676  12531.700  0.500  5.186603  53.6124  0.299745  0.010105
  12531.991  12532.000  0.500  5.191719  53.6081  0.298192  0.010075
  12532.265  12532.300  0.500  5.196542  53.6016  0.296721  0.009929
  12532.593  12532.600  0.500  5.200661  53.5977  0.295479  0.009754
  12532.888  12532.900  0.500  5.204922  53.5968  0.294219  0.009759
  12533.189  12533.200  0.500  5.211146  53.5891  0.292351  0.009518
  12533.476  12533.500  0.500  5.215905  53.5829  0.290929  0.009554
  12533.805  12533.800  0.500  5.220717  53.5718  0.289473  0.009446
  12534.092  12534.100  0.500  5.225130  53.5726  0.288203  0.009429
  12534.401  12534.400  0.500  5.229874  53.5661  0.286804  0.009292
  12534.688  12534.700  0.500  5.234651  53.5564  0.285385  0.009293
  12535.003  12535.000  0.500  5.240337  53.5597  0.283784  0.009115
  12535.311  12535.300  0.500  5.242848  53.5487  0.283014  0.009149
  12535.613  12535.600  0.500  5.247110  53.5433  0.281782  0.008919
  12535.887  12535.900  0.500  5.251277  53.5394  0.280591  0.008849
  12536.222  12536.200  0.500  5.255522  53.5323  0.279365  0.008882
  12536.496  12536.500  0.500  5.258530  53.532  0.278524  0.008925
  12536.804  12536.800  0.500  5.262240  53.5299  0.277482  0.008839
  12537.099  12537.100  0.500  5.265967  53.5203  0.276400  0.008680
  12537.414  12537.400  0.500  5.269874  53.5127  0.275283  0.008579
  12537.702  12537.700  0.500  5.272475  53.518  0.274595  0.008660
  12537.996  12538.000  0.500  5.277078  53.4952  0.273218  0.008507
  12538.277  12538.300  0.500  5.279598  53.4922  0.272515  0.008358
  12538.599  12538.600  0.500  5.284815  53.4785  0.271028  0.008312
  12538.894  12538.900  0.500  5.287376  53.4754  0.270319  0.008260
  12539.182  12539.200  0.500  5.292326  53.4459  0.268835  0.008276
  12539.476  12539.500  0.500  5.296071  53.4261  0.267731  0.008147
  12539.798  12539.800  0.500  5.301490  53.3599  0.265954  0.007975
  12540.100  12540.100  0.500  5.306390  53.2681  0.264199  0.007756
  12540.395  12540.400  0.500  5.311705  53.1572  0.262251  0.007993
  12540.689  12540.700  0.500  5.316749  53.0678  0.260493  0.007454
  12541.012  12541.000  0.500  5.325254  53.0128  0.258019  0.007498
  12541.299  12541.300  0.500  5.332197  53.018  0.256260  0.007551
  12541.608  12541.600  0.500  5.338406  53.0798  0.254970  0.007458
  12541.903  12541.900  0.500  5.347622  53.1627  0.253025  0.007118
  12542.218  12542.200  0.500  5.357150  53.2505  0.251040  0.007252
  12542.506  12542.500  0.500  5.367005  53.3178  0.248893  0.007010
  12542.815  12542.800  0.500  5.375408  53.3747  0.247073  0.006880
  12543.103  12543.100  0.500  5.386167  53.4106  0.244593  0.006745
  12543.418  12543.400  0.500  5.398824  53.4283  0.241597  0.006656
  12543.692  12543.700  0.500  5.410259  53.4421  0.238912  0.006591
  12544.008  12544.000  0.500  5.422843  53.4321  0.235880  0.006496
  12544.303  12544.300  0.500  5.436549  53.4405  0.232706  0.006197
  12544.598  12544.600  0.500  5.449751  53.4272  0.229597  0.006004
  12544.886  12544.900  0.500  5.464785  53.4212  0.226145  0.005890
  12545.187  12545.200  0.500  5.481510  53.4159  0.222373  0.005729
  12545.482  12545.500  0.500  5.496820  53.4101  0.218970  0.005509
  12545.791  12545.800  0.500  5.513616  53.4034  0.215296  0.005579
  12546.086  12546.100  0.500  5.531120  53.4038  0.211562  0.005456
  12546.402  12546.400  0.500  5.549213  53.3965  0.207740  0.005464
  12546.697  12546.700  0.500  5.566742  53.3901  0.204106  0.005149
  12546.998  12547.000  0.500  5.584596  53.3976  0.200522  0.005054
  12547.293  12547.300  0.500  5.602540  53.3838  0.196905  0.004969
  12547.602  12547.600  0.500  5.617007  53.3798  0.194063  0.004868
  12547.897  12547.900  0.500  5.633660  53.3721  0.190830  0.004673
  12548.199  12548.200  0.500  5.648849  53.3688  0.187942  0.004567
  12548.508  12548.500  0.500  5.661550  53.3659  0.185560  0.004554
  12548.810  12548.800  0.500  5.673748  53.3599  0.183290  0.004346
  12549.119  12549.100  0.500  5.682981  53.3593  0.181603  0.004459
  12549.414  12549.400  0.500  5.692563  53.3561  0.179860  0.004298
  12549.716  12549.700  0.500  5.700680  53.3479  0.178379  0.004225
  12549.997  12550.000  0.500  5.703735  53.3508  0.177845  0.004156
  12550.313  12550.300  0.500  5.709405  53.3321  0.176777  0.004309
  12550.595  12550.600  0.500  5.711004  53.3428  0.176530  0.004184
  12550.917  12550.900  0.500  5.713998  53.3218  0.175933  0.004123
  12551.192  12551.200  0.500  5.716906  53.3215  0.175421  0.004083
  12551.487  12551.500  0.500  5.716835  53.3124  0.175404  0.004057
  12551.693  12551.700  0.500  5.717263  53.3164  0.175342  0.004028
  12552.696  12552.690  0.500  5.719227  53.2949  0.174927  0.004089
  12553.685  12553.690  0.500  5.724828  53.2928  0.173943  0.003987
  12554.736  12554.710  0.500  5.736587  53.2788  0.171864  0.003996
  12555.787  12555.760  0.500  5.756302  53.253  0.168428  0.003893
  12556.831  12556.820  0.500  5.778435  53.2406  0.164703  0.003775
  12557.910  12557.900  0.500  5.801414  53.2237  0.160910  0.003750
  12558.989  12559.000  0.500  5.817083  53.2208  0.158400  0.003631
  12560.131  12560.120  0.500  5.824468  53.1967  0.157163  0.003587
  12561.279  12561.260  0.500  5.827007  53.1817  0.156720  0.003695
  12562.428  12562.410  0.500  5.824562  53.1692  0.157067  0.003685
  12563.611  12563.590  0.500  5.822949  53.3318  0.157802  0.003574
  12564.808  12564.780  0.500  5.826725  53.3166  0.157162  0.003661
  12565.998  12566.000  0.500  5.832402  53.3021  0.156230  0.003575
  12567.224  12567.230  0.500  5.843416  53.2845  0.154468  0.003654
  12568.476  12568.480  0.500  5.853501  53.2723  0.152883  0.003593
  12569.771  12569.750  0.500  5.858243  53.254  0.152107  0.003651
  12571.059  12571.040  0.500  5.853268  53.2356  0.152813  0.003753
  12572.375  12572.350  0.500  5.839141  53.2185  0.154937  0.003941
  12573.670  12573.680  0.500  5.816890  53.2049  0.158383  0.003887
  12575.021  12575.030  0.500  5.787792  53.1879  0.163007  0.004234
  12576.406  12576.400  0.500  5.758583  53.1586  0.167746  0.004134
  12577.806  12577.780  0.500  5.731793  53.1297  0.172207  0.004524
  12579.206  12579.190  0.500  5.708763  53.1353  0.176238  0.004435
  12580.626  12580.610  0.500  5.692066  53.1116  0.179125  0.004659
  12582.061  12582.050  0.500  5.677588  53.095  0.181681  0.004548
  12583.524  12583.510  0.500  5.668212  53.0757  0.183325  0.004769
  12584.995  12584.990  0.500  5.660071  53.0598  0.184769  0.004752
  12586.520  12586.490  0.500  5.650425  53.0448  0.186507  0.004886
  12588.005  12588.010  0.500  5.639174  53.0279  0.188557  0.004861
  12589.559  12589.550  0.500  5.629030  52.9967  0.190367  0.004983
  12591.107  12591.110  0.500  5.618554  52.9752  0.192294  0.005006
  12592.690  12592.680  0.500  5.609233  52.9611  0.194043  0.005040
  12594.273  12594.280  0.500  5.597864  52.9432  0.196195  0.005212
  12595.884  12595.890  0.500  5.587781  52.9181  0.198090  0.005308
  12597.495  12597.530  0.500  5.578466  52.9013  0.199880  0.005266
  12599.162  12599.180  0.500  5.571309  52.8745  0.201214  0.005313
  12600.844  12600.850  0.500  5.567386  52.8483  0.201904  0.005329
  12602.519  12602.540  0.500  5.566404  52.8248  0.202013  0.005333
  12604.215  12604.250  0.500  5.568924  52.8115  0.201454  0.005326
  12605.967  12605.980  0.500  5.572170  52.7936  0.200733  0.005274
  12607.713  12607.730  0.500  5.576964  52.774  0.199699  0.005215
  12609.861  12609.490  0.500  5.581468  52.7435  0.198686  0.005155
  12611.234  12611.280  0.500  5.580419  52.7206  0.198809  0.005152
  12613.120  12613.080  0.500  5.577929  52.6826  0.199161  0.005096
  12615.041  12614.910  0.500  5.573804  52.6758  0.199958  0.005188
  12616.734  12616.750  0.500  5.571009  52.6359  0.200366  0.005155
  12618.594  12618.610  0.500  5.567459  52.6186  0.201012  0.005172
  12620.461  12620.490  0.500  5.571135  52.5814  0.200133  0.005341
  12622.363  12622.390  0.500  5.576437  52.4924  0.198738  0.005138
  12624.287  12624.310  0.500  5.586286  52.5205  0.196895  0.005112
  12626.233  12626.250  0.500  5.602077  52.5106  0.193774  0.004987
  12628.200  12628.210  0.500  5.621887  52.4307  0.189684  0.005085
  12630.160  12630.180  0.500  5.640232  52.4472  0.186295  0.004777
  12632.163  12632.180  0.500  5.654336  52.4442  0.183675  0.004908
  12634.160  12634.190  0.500  5.658833  52.3755  0.182612  0.004658
  12636.185  12636.220  0.500  5.660049  52.3729  0.182380  0.004751
  12638.273  12638.280  0.500  5.652643  52.3767  0.183750  0.004651
  12640.342  12640.350  0.500  5.642717  52.3395  0.185451  0.004840
  12642.424  12642.440  0.500  5.633725  52.2523  0.186814  0.004769
  12644.550  12644.550  0.500  5.624946  52.2941  0.188612  0.004991
  12646.669  12646.680  0.500  5.620875  52.2698  0.189294  0.004948
  12648.796  12648.820  0.500  5.617339  52.2301  0.189820  0.004982
  12650.979  12650.990  0.500  5.617666  52.2044  0.189664  0.005072
  12653.184  12653.180  0.500  5.617488  52.1898  0.189645  0.004889
  12655.383  12655.380  0.500  5.615264  52.1648  0.189976  0.005077
  12657.597  12657.600  0.500  5.609588  52.1398  0.190966  0.005020
  12659.839  12659.850  0.500  5.603939  52.1066  0.191926  0.005254
  12662.089  12662.110  0.500  5.597392  52.079  0.193084  0.005132
  12664.375  12664.390  0.500  5.591878  52.0518  0.194050  0.005242
  12666.696  12666.690  0.500  5.585179  52.0187  0.195230  0.005298
  12669.012  12669.010  0.500  5.577676  51.9936  0.196606  0.005198
  12671.356  12671.350  0.500  5.572479  51.9641  0.197518  0.005323
  12673.702  12673.700  0.500  5.568087  51.9339  0.198272  0.005459
  12676.069  12676.080  0.500  5.563480  51.9063  0.199082  0.005503
  12678.458  12678.470  0.500  5.559496  51.8785  0.199769  0.005522
  12680.897  12680.890  0.500  5.554282  51.8475  0.200694  0.005389
  12683.316  12683.320  0.500  5.552731  51.8138  0.200875  0.005526
  12685.778  12685.770  0.500  5.547341  51.7836  0.201843  0.005588
  12688.241  12688.250  0.500  5.540599  51.7577  0.203106  0.005628
  12690.719  12690.740  0.500  5.529140  51.7236  0.205311  0.005542
  12693.240  12693.250  0.500  5.518776  51.6918  0.207323  0.005766
  12695.769  12695.770  0.500  5.506331  51.6605  0.209792  0.005665
  12698.335  12698.320  0.500  5.499520  51.6293  0.211098  0.005920
  12700.894  12700.890  0.500  5.491232  51.5939  0.212709  0.005771
  12703.454  12703.470  0.500  5.487122  51.5678  0.213478  0.005871
  12706.086  12706.080  0.500  5.485356  51.533  0.213710  0.005873
  12708.712  12708.700  0.500  5.485791  51.5031  0.213494  0.005795
  12711.346  12711.350  0.500  5.489938  51.4704  0.212475  0.005859
  12714.002  12714.010  0.500  5.497941  51.4344  0.210634  0.005731
  12716.674  12716.690  0.500  5.505229  51.4047  0.208984  0.005675
  12719.375  12719.390  0.500  5.511634  51.3683  0.207502  0.005699
  12722.098  12722.110  0.500  5.516061  51.3359  0.206455  0.005670
  12724.857  12724.850  0.500  5.515074  51.301  0.206519  0.005800
  12727.583  12727.600  0.500  5.514815  51.2672  0.206436  0.005637
  12730.387  12730.380  0.500  5.511175  51.2281  0.207031  0.005693
  12733.165  12733.170  0.500  5.508336  51.1892  0.207462  0.005857
  12735.993  12735.990  0.500  5.503280  51.1057  0.208173  0.005761
  12738.794  12738.820  0.500  5.502876  50.4554  0.205608  0.005866
  12741.667  12741.670  0.500  5.501605  51.1009  0.208503  0.005769
  12744.563  12744.550  0.500  5.500232  51.0745  0.208681  0.005964
  12747.446  12747.440  0.500  5.499172  51.0389  0.208757  0.005841
  12750.337  12750.350  0.500  5.497431  51.0037  0.208977  0.005924
  12753.279  12753.270  0.500  5.493224  50.9726  0.209730  0.005932
  12756.237  12756.220  0.500  5.489638  50.9349  0.210328  0.006012
  12759.182  12759.190  0.500  5.486266  50.8995  0.210891  0.005981
  12762.164  12762.170  0.500  5.482811  50.8634  0.211471  0.006201
  12765.190  12765.180  0.500  5.479417  50.8307  0.212054  0.006117
  12768.210  12768.200  0.500  5.476262  50.7949  0.212574  0.006151
  12771.253  12771.250  0.500  5.471248  50.7566  0.213481  0.006276
  12774.305  12774.310  0.500  5.465014  50.7189  0.214657  0.006267
  12777.401  12777.390  0.500  5.460541  50.6859  0.215479  0.006217
  12780.498  12780.490  0.500  5.454292  50.6541  0.216694  0.006260
  12783.611  12783.610  0.500  5.449525  50.6114  0.217545  0.006320
  12786.783  12786.750  0.500  5.443821  50.5794  0.218652  0.006336
  12789.914  12789.900  0.500  5.437121  50.5506  0.219996  0.006470
  12793.081  12793.080  0.500  5.431441  50.5145  0.221091  0.006429
  12796.272  12796.270  0.500  5.421680  50.4838  0.223124  0.006642
  12799.507  12799.490  0.500  5.413776  50.4417  0.224707  0.006615
  12802.730  12802.720  0.500  5.403933  50.4089  0.226782  0.006665
  12805.976  12805.970  0.500  5.395830  50.3759  0.228478  0.006634
  12809.280  12809.250  0.500  5.389045  50.3433  0.229884  0.006788
  12812.572  12812.540  0.500  5.382617  50.307  0.231200  0.006866
  12815.851  12815.850  0.500  5.379718  50.2696  0.231699  0.006859
  12819.168  12819.170  0.500  5.378032  50.2409  0.231957  0.006811
  12822.544  12822.520  0.500  5.378675  50.203  0.231633  0.006849
  12825.915  12825.890  0.500  5.381283  50.1615  0.230839  0.007097
  12829.266  12829.270  0.500  5.382871  50.1257  0.230308  0.006798
  12832.698  12832.680  0.500  5.386643  50.0927  0.229290  0.007146
  12836.109  12836.100  0.500  5.388567  50.0458  0.228635  0.006902
  12839.559  12839.550  0.500  5.386467  50.0146  0.228973  0.006986
  12843.025  12843.010  0.500  5.382956  49.9695  0.229571  0.006894
  12846.508  12846.490  0.500  5.377960  49.9391  0.230580  0.006970
  12849.999  12849.990  0.500  5.372827  49.8975  0.231574  0.007060
  12853.521  12853.510  0.500  5.369616  49.8445  0.232072  0.007148
  12857.074  12857.050  0.500  5.364524  49.819  0.233138  0.007025
  12860.593  12860.600  0.500  5.360209  49.7896  0.234007  0.007112
  12864.215  12864.180  0.500  5.354063  49.7508  0.235266  0.007381
  12867.810  12867.780  0.500  5.348203  49.7036  0.236425  0.007336
  12871.392  12871.390  0.500  5.345105  49.6614  0.236957  0.007372
  12875.028  12875.020  0.500  5.340365  49.5706  0.237647  0.007425
  12878.708  12878.680  0.500  5.337040  49.4713  0.237961  0.007471
  12882.348  12882.350  0.500  5.334798  49.5554  0.238901  0.007453
  12886.047  12886.040  0.500  5.334625  49.5142  0.238743  0.007470
  12889.778  12889.750  0.500  5.328533  49.4663  0.239970  0.007460
  12893.496  12893.480  0.500  5.325636  49.4258  0.240469  0.007498
  12897.231  12897.220  0.500  5.318727  49.3842  0.241932  0.007547
  12900.997  12900.990  0.500  5.312253  49.2899  0.243039  0.007622
  12904.787  12904.780  0.500  5.307204  49.3007  0.244322  0.007782
  12908.594  12908.580  0.500  5.304789  49.2536  0.244679  0.007691
  12912.432  12912.410  0.500  5.301970  49.1986  0.245096  0.007764
  12916.251  12916.250  0.500  5.297724  48.6943  0.243616  0.007711
  12920.138  12920.110  0.500  5.294347  49.1397  0.246676  0.007859
  12924.027  12923.990  0.500  5.288625  49.0819  0.247800  0.007956
  12927.904  12927.890  0.500  5.282516  48.9521  0.248659  0.007973
  12931.834  12931.810  0.500  5.278144  48.9919  0.249951  0.008043
  12935.774  12935.750  0.500  5.273563  48.9581  0.250926  0.008012
  12939.738  12939.710  0.500  5.270207  48.8409  0.251167  0.008096
  12943.697  12943.680  0.500  5.268229  48.853  0.251726  0.008120
  12947.725  12947.680  0.500  5.264631  48.7965  0.252342  0.008154
  12951.689  12951.690  0.500  5.265513  48.7433  0.251844  0.008252
  12955.744  12955.730  0.500  5.264045  48.3543  0.250201  0.008127
  12959.801  12959.780  0.500  5.261841  48.7008  0.252550  0.008368
  12963.854  12963.850  0.500  5.258121  48.6541  0.253248  0.008258
  12967.967  12967.940  0.500  5.254434  48.6076  0.253941  0.008367
  12972.069  12972.050  0.500  5.248068  48.5592  0.255308  0.008470
  12976.210  12976.180  0.500  5.242199  48.4771  0.256377  0.008544
  12980.361  12980.330  0.500  5.234065  48.5546  0.258884  0.008571
  12984.500  12984.490  0.500  5.225361  48.5781  0.261273  0.008721
  12988.708  12988.680  0.500  5.214529  48.5281  0.263847  0.008788
  12992.911  12992.880  0.500  5.205466  48.4127  0.265616  0.008760
  12997.125  12997.110  0.500  5.196626  48.4372  0.268110  0.008937
  13001.385  13001.350  0.500  5.191115  48.3828  0.269289  0.008955
  13005.634  13005.610  0.500  5.187445  48.338  0.270029  0.009076
  13009.915  13009.890  0.500  5.186375  48.2876  0.270036  0.009156
  13014.235  13014.190  0.500  5.184560  48.2351  0.270232  0.009121
  13018.537  13018.510  0.500  5.182130  48.1901  0.270637  0.009246
  13022.878  13022.850  0.500  5.178884  48.1405  0.271237  0.009244
  13027.244  13027.210  0.500  5.174283  48.0925  0.272217  0.009327
  13031.614  13031.590  0.500  5.171447  48.0417  0.272702  0.009377
  13036.008  13035.980  0.500  5.168275  47.9927  0.273289  0.009392
  13040.428  13040.400  0.500  5.166291  47.9369  0.273513  0.009399
  13044.843  13044.830  0.500  5.163360  47.8914  0.274056  0.009460
  13049.329  13049.280  0.500  5.160799  47.7894  0.274173  0.009554
  13053.773  13053.750  0.500  5.159783  47.7824  0.274411  0.009568
  13058.279  13058.240  0.500  5.156912  47.7381  0.274946  0.009676
  13062.796  13062.750  0.500  5.153243  47.6807  0.275624  0.009629
  13067.301  13067.280  0.500  5.147199  47.6349  0.277029  0.009877
  13071.877  13071.830  0.500  5.139547  47.5555  0.278691  0.009791
  13076.433  13076.400  0.500  5.133381  47.5251  0.280236  0.009966
  13081.000  13080.980  0.500  5.125830  47.4753  0.282064  0.009931
  13085.623  13085.590  0.500  5.120484  47.4223  0.283260  0.010082
  13090.234  13090.210  0.500  5.114702  47.3673  0.284572  0.010158
  13094.878  13094.860  0.500  5.109275  47.241  0.285358  0.010281
  13099.570  13099.520  0.500  5.102672  47.261  0.287370  0.010260
  13104.213  13104.200  0.500  5.099511  47.1905  0.287849  0.010352
  13108.943  13108.900  0.500  5.094918  47.1396  0.288862  0.010374
  13113.660  13113.620  0.500  5.091218  47.1008  0.289695  0.010562
  13118.374  13118.360  0.500  5.086172  46.9832  0.290433  0.010522
  13123.166  13123.110  0.500  5.081693  46.9925  0.291795  0.010666
  13127.916  13127.890  0.500  5.076417  46.9268  0.292928  0.010594
  13132.731  13132.690  0.500  5.070421  46.8729  0.294352  0.010817
  13137.541  13137.500  0.500  5.064705  46.8256  0.295740  0.010809
  13142.355  13142.330  0.500  5.058456  46.7732  0.297260  0.010963
  13147.255  13147.190  0.500  5.051521  46.716  0.298963  0.011020
  13152.106  13152.060  0.500  5.044066  46.6539  0.300800  0.010991
  13156.984  13156.950  0.500  5.036979  46.6067  0.302633  0.011173
  13161.918  13161.860  0.500  5.031816  46.5457  0.303802  0.011247
  13166.810  13166.790  0.500  5.028297  46.4862  0.304482  0.011371
  13171.797  13171.730  0.500  5.026006  46.4233  0.304768  0.011326
  13176.727  13176.700  0.500  5.024425  46.3787  0.304957  0.011445
  13181.722  13181.690  0.500  5.022225  46.3212  0.305250  0.011405
  13186.743  13186.690  0.500  5.019288  46.2602  0.305745  0.011609
  13191.753  13191.720  0.500  5.016197  46.2027  0.306310  0.011607
  13196.797  13196.760  0.500  5.012136  46.143  0.307159  0.011690
  13201.860  13201.820  0.500  5.008644  46.087  0.307859  0.011728
  13206.935  13206.900  0.500  5.002794  46.0235  0.309239  0.011892
  13212.036  13212.000  0.500  4.996506  45.9618  0.310772  0.012068
  13217.142  13217.120  0.500  4.989665  45.8999  0.312484  0.011879
  13222.312  13222.260  0.500  4.985800  45.836  0.313257  0.012154
  13227.479  13227.420  0.500  4.978253  45.7179  0.314818  0.012137
  13232.627  13232.600  0.500  4.971686  45.7113  0.316846  0.012363
  13237.825  13237.790  0.500  4.963262  45.6494  0.319093  0.012517
  13243.043  13243.010  0.500  4.954316  45.5791  0.321465  0.012693
  13248.272  13248.240  0.500  4.947561  45.5143  0.323183  0.012632
  13253.537  13253.490  0.500  4.940430  45.435  0.324929  0.012762
  13258.790  13258.760  0.500  4.935324  45.3562  0.326026  0.012735
  13264.093  13264.050  0.500  4.930316  45.265  0.327004  0.012932
  13269.408  13269.360  0.500  4.926991  45.1185  0.327032  0.013024
  13274.728  13274.690  0.500  4.923693  44.7092  0.325135  0.012944
  13280.083  13280.040  0.500  4.922099  44.5516  0.324506  0.013046
  13285.457  13285.410  0.500  4.918292  44.4798  0.325219  0.013138
  13290.836  13290.790  0.500  4.915476  44.3182  0.324951  0.013066
  13296.235  13296.200  0.500  4.912166  44.3301  0.326116  0.013152
  13301.661  13301.620  0.500  4.909973  44.2339  0.326123  0.013311
  13307.131  13307.070  0.500  4.906024  44.1662  0.326912  0.013286
  13312.574  13312.530  0.500  4.901869  44.1486  0.328142  0.013475
  13318.053  13318.010  0.500  4.895156  44.1013  0.329999  0.013505
  13323.559  13323.510  0.500  4.887134  44.0172  0.332022  0.013649
  13329.070  13329.030  0.500  4.878287  43.9172  0.334212  0.013790
  13334.632  13334.570  0.500  4.869459  43.8794  0.336885  0.013973
  13340.152  13340.120  0.500  4.860500  43.8437  0.339640  0.014057
  13345.763  13345.700  0.500  4.850611  43.7964  0.342646  0.014232
  13351.347  13351.300  0.500  4.844474  43.7559  0.344436  0.014345
  13356.951  13356.910  0.500  4.838730  43.7041  0.346010  0.014364
  13362.607  13362.550  0.500  4.833701  43.6354  0.347208  0.014525
  13368.244  13368.200  0.500  4.829090  43.5566  0.348183  0.014628
  13373.926  13373.870  0.500  4.825089  43.4795  0.348960  0.014652
  13379.604  13379.560  0.500  4.820369  43.4279  0.350195  0.014959