File: xdidata/Re/Re-L3-RheniumTrioxide.xdi
# XDI/1.0 BlueSky/1.10.0 BMM/2023-1.0-py310-tiled
# Beamline.name: BMM (06BM) -- Beamline for Materials Measurement (NIST)
# Beamline.xray_source: NSLS-II three-pole wiggler
# Beamline.collimation: paraboloid mirror, 5 nm Rh on 30 nm Pt
# Beamline.focusing: not in use
# Beamline.harmonic_rejection: flat mirror, Pt stripe, pitch = 7.0 mrad relative to beam
# Beamline.software: Bluesky 1.10.0, Ophyd 1.7.0, DataBroker 2.0.0b13, Python 3.10.8, 2023-1.0-py310-tiled
# Detector.I0: 10 cm N2
# Detector.I1: 25 cm N2
# Detector.I2: 25 cm N2
# Element.symbol: Re
# Element.edge: L3
# Element.reference: Re
# Element.reference_material: ReO2
# Facility.name: NSLS-II
# Facility.energy: 3.0
# Facility.current: 399.5
# Facility.mode: top-off
# Facility.GUP: 301027
# Facility.SAF: 310583
# Facility.cycle: 2023-2
# Mono.name: Si(111)
# Mono.d_spacing: 3.13519
# Mono.encoder_resolution: 0.0000050 deg/ct
# Mono.angle_offset: 16.0754 deg
# Mono.scan_mode: pseudo channel cut
# Mono.scan_type: step
# Mono.direction: forward in energy
# Sample.name: ReO3, Rhenium trioxide
# Sample.prep: powder on tape
# Sample.x: 145.711 mm
# Sample.y: 114.376 mm
# Sample.SDD_position: 205.000 mm
# Scan.experimenters: Bruce Ravel
# Scan.edge_energy: 10535.3
# Scan.start_time: 2023-06-27T16:46:28
# Scan.end_time: 2023-06-27T16:54:12
# Scan.transient_id: 85163
# Scan.uid: 5704acc5-8d99-4cff-a870-016465c275ec
# Scan.plot_hint: ln(I0/It)  --  ln($5/$6)
# Column.1: energy eV
# Column.2: requested_energy eV
# Column.3: measurement_time seconds
# Column.4: xmu
# Column.5: I0 nA
# Column.6: It nA
# Column.7: Ir nA
# ///////////
# Welcome to BMM
# -----------
# energy  requested_energy  measurement_time  xmu  I0  It  Ir
  10335.269  10335.300  0.500  3.251718  90.2477  3.493279  0.461164
  10345.320  10345.300  0.500  3.240923  90.0922  3.525105  0.468198
  10355.382  10355.300  0.500  3.230545  89.9126  3.554779  0.474919
  10365.342  10365.300  0.500  3.219818  89.9939  3.596368  0.482532
  10375.378  10375.300  0.500  3.209482  89.7695  3.624669  0.489270
  10385.359  10385.300  0.500  3.199186  89.5951  3.655066  0.496063
  10395.365  10395.300  0.500  3.188847  89.4058  3.685248  0.502971
  10405.376  10405.300  0.500  3.178531  89.2262  3.715983  0.509391
  10415.355  10415.300  0.500  3.168760  89.0379  3.744554  0.516264
  10425.311  10425.300  0.500  3.158939  88.8551  3.773744  0.522817
  10435.315  10435.300  0.500  3.149671  88.6743  3.801135  0.529234
  10445.357  10445.300  0.500  3.140863  88.4859  3.826614  0.535487
  10455.381  10455.300  0.500  3.132652  88.3113  3.850548  0.540636
  10465.359  10465.300  0.500  3.125748  88.1207  3.868860  0.545008
  10475.360  10475.300  0.500  3.120681  87.929  3.880050  0.548169
  10485.371  10485.300  0.500  3.118180  87.7532  3.881992  0.548545
  10495.269  10495.300  0.500  3.121600  87.5657  3.860474  0.543824
  10505.319  10505.300  0.500  3.137866  87.3803  3.790146  0.528346
  10507.276  10507.300  0.500  3.143600  87.3447  3.766941  0.523285
  10509.281  10509.300  0.500  3.151118  87.3093  3.737208  0.516404
  10511.283  10511.300  0.500  3.160152  87.2422  3.700753  0.508241
  10513.295  10513.300  0.500  3.171996  87.1717  3.654224  0.497997
  10515.269  10515.300  0.500  3.186163  87.1873  3.603464  0.486674
  10517.287  10517.300  0.500  3.204687  87.1514  3.535875  0.471549
  10519.282  10519.300  0.500  3.228200  87.1115  3.452119  0.453170
  10521.283  10521.300  0.500  3.258687  87.0703  3.346881  0.430496
  10523.284  10523.300  0.500  3.299640  87.0364  3.211335  0.401524
  10525.281  10525.300  0.500  3.355008  86.9138  3.034080  0.365541
  10525.560  10525.600  0.500  3.364654  86.8358  3.002260  0.359638
  10525.858  10525.900  0.500  3.375093  86.771  2.968862  0.352771
  10526.165  10526.200  0.500  3.386658  86.7404  2.933690  0.345871
  10526.468  10526.500  0.500  3.398636  86.7442  2.898889  0.338956
  10526.761  10526.800  0.500  3.411793  86.772  2.861914  0.331452
  10527.073  10527.100  0.500  3.425347  86.8027  2.824385  0.323609
  10527.371  10527.400  0.500  3.439249  86.8211  2.785983  0.316479
  10527.669  10527.700  0.500  3.453894  86.8423  2.746149  0.308691
  10527.976  10528.000  0.500  3.470078  86.864  2.702738  0.300535
  10528.269  10528.300  0.500  3.485321  86.8813  2.662383  0.292678
  10528.567  10528.600  0.500  3.503346  86.8981  2.615330  0.283698
  10528.865  10528.900  0.500  3.520612  86.9106  2.570931  0.275556
  10529.178  10529.200  0.500  3.540237  86.9096  2.520939  0.266268
  10529.466  10529.500  0.500  3.561018  86.9067  2.469011  0.256866
  10529.769  10529.800  0.500  3.583346  86.9017  2.414352  0.246951
  10530.071  10530.100  0.500  3.608240  86.8979  2.354889  0.236811
  10530.374  10530.400  0.500  3.634246  86.8912  2.294261  0.226144
  10530.663  10530.700  0.500  3.662236  86.888  2.230853  0.215480
  10530.980  10531.000  0.500  3.693469  86.8828  2.162124  0.203875
  10531.273  10531.300  0.500  3.725847  86.8697  2.092924  0.192939
  10531.581  10531.600  0.500  3.761498  86.8646  2.019507  0.180994
  10531.889  10531.900  0.500  3.800659  86.855  1.941735  0.168897
  10532.177  10532.200  0.500  3.841362  86.8512  1.864203  0.157209
  10532.490  10532.500  0.500  3.885528  86.8464  1.783563  0.145279
  10532.798  10532.800  0.500  3.934749  86.8376  1.697727  0.133040
  10533.091  10533.100  0.500  3.983924  86.8315  1.616147  0.121808
  10533.384  10533.400  0.500  4.039713  86.822  1.528286  0.110565
  10533.697  10533.700  0.500  4.101653  86.8115  1.436322  0.098813
  10533.986  10534.000  0.500  4.166067  86.813  1.346743  0.087922
  10534.284  10534.300  0.500  4.239372  86.8053  1.251442  0.076934
  10534.587  10534.600  0.500  4.321479  86.7946  1.152652  0.066647
  10534.880  10534.900  0.500  4.411149  86.7878  1.053710  0.056555
  10535.183  10535.200  0.500  4.509922  86.7847  0.954573  0.047364
  10535.482  10535.500  0.500  4.620684  86.7743  0.854385  0.038525
  10535.790  10535.800  0.500  4.746112  86.7666  0.753603  0.030866
  10536.093  10536.100  0.500  4.889447  86.7613  0.652929  0.023919
  10536.401  10536.400  0.500  5.042727  86.7533  0.560090  0.018130
  10536.704  10536.700  0.500  5.213829  86.7492  0.471985  0.013288
  10537.002  10537.000  0.500  5.396906  86.7453  0.393006  0.009646
  10537.291  10537.300  0.500  5.606085  86.7344  0.318786  0.006648
  10537.595  10537.600  0.500  5.834638  86.7283  0.253635  0.004622
  10537.893  10537.900  0.500  6.083000  86.7211  0.197839  0.002944
  10538.196  10538.200  0.500  6.356493  86.7068  0.150475  0.001877
  10538.490  10538.500  0.500  6.647898  86.707  0.112437  0.001123
  10538.788  10538.800  0.500  6.975434  86.703  0.081029  0.000747
  10539.087  10539.100  0.500  7.325706  86.6877  0.057075  0.000450
  10539.390  10539.400  0.500  7.712899  86.6656  0.038742  0.000165
  10539.699  10539.700  0.500  8.118008  86.6357  0.025828  0.000125
  10540.012  10540.000  0.500  8.529392  86.6061  0.017111  0.000011
  10540.296  10540.300  0.500  8.943826  86.5809  0.011302  0.000085
  10540.604  10540.600  0.500  9.299406  86.5639  0.007919  0.000161
  10540.903  10540.900  0.500  9.603042  86.5719  0.005846  0.000058
  10541.201  10541.200  0.500  9.832283  86.5891  0.004649  0.000079
  10541.490  10541.500  0.500  10.0248  86.6044  0.003836  0.000094
  10541.794  10541.800  0.500  10.1708  86.6154  0.003315  0.000084
  10542.088  10542.100  0.500  10.2603  86.621  0.003031  0.000054
  10542.391  10542.400  0.500  10.3309  86.6226  0.002825  0.000029
  10542.685  10542.700  0.500  10.3427  86.6161  0.002791  0.000082
  10542.993  10543.000  0.500  10.3913  86.6115  0.002659  0.000027
  10543.302  10543.300  0.500  10.3749  86.6103  0.002703  0.000045
  10543.601  10543.600  0.500  10.4742  86.6093  0.002447  0.000111
  10543.909  10543.900  0.500  10.4258  86.5964  0.002568  0.000036
  10544.198  10544.200  0.500  10.4113  86.5907  0.002606  0.000048
  10544.497  10544.500  0.500  10.3932  86.5875  0.002653  -0.000045
  10544.801  10544.800  0.500  10.3668  86.5798  0.002724  0.000148
  10545.085  10545.100  0.500  10.2846  86.5663  0.002957  0.000073
  10545.384  10545.400  0.500  10.2165  86.5633  0.003165  -0.000007
  10545.693  10545.700  0.500  10.178  86.5592  0.003289  0.000163
  10546.001  10546.000  0.500  10.033  86.5522  0.003802  0.000078
  10546.305  10546.300  0.500  9.912590  86.5472  0.004288  0.000178
  10546.604  10546.600  0.500  9.762384  86.5347  0.004982  -0.000044
  10546.903  10546.900  0.500  9.593564  86.5289  0.005898  0.000144
  10547.207  10547.200  0.500  9.392230  86.5241  0.007213  0.000064
  10547.511  10547.500  0.500  9.187586  86.5122  0.008850  0.000100
  10547.810  10547.800  0.500  8.998229  86.5078  0.010695  0.000216
  10548.104  10548.100  0.500  8.778234  86.4962  0.013325  0.000242
  10548.403  10548.400  0.500  8.567805  86.49  0.016444  0.000265
  10548.702  10548.700  0.500  8.358086  86.4824  0.020280  0.000246
  10548.996  10549.000  0.500  8.139395  86.476  0.025235  0.000316
  10549.305  10549.300  0.500  7.928852  86.4675  0.031146  0.000429
  10549.594  10549.600  0.500  7.720344  86.4608  0.038363  0.000610
  10549.903  10549.900  0.500  7.520186  86.4523  0.046860  0.000920
  10550.207  10550.200  0.500  7.327197  86.4444  0.056830  0.001105
  10550.506  10550.500  0.500  7.148461  86.4379  0.067946  0.001294
  10550.810  10550.800  0.500  6.976960  86.4301  0.080651  0.001536
  10551.110  10551.100  0.500  6.823329  86.426  0.094040  0.001977
  10551.404  10551.400  0.500  6.683476  86.4205  0.108148  0.002248
  10551.708  10551.700  0.500  6.557648  86.4136  0.122640  0.002491
  10552.003  10552.000  0.500  6.443526  86.408  0.137457  0.002852
  10552.297  10552.300  0.500  6.342378  86.4047  0.152082  0.003182
  10552.596  10552.600  0.500  6.252562  86.396  0.166357  0.003728
  10552.900  10552.900  0.500  6.171880  86.3882  0.180319  0.003982
  10553.195  10553.200  0.500  6.099903  86.3814  0.193761  0.004228
  10553.499  10553.500  0.500  6.039484  86.3746  0.205812  0.004532
  10553.808  10553.800  0.500  5.986793  86.3643  0.216922  0.004809
  10554.108  10554.100  0.500  5.941968  86.3582  0.226850  0.005077
  10554.417  10554.400  0.500  5.906179  86.3529  0.235102  0.005393
  10554.706  10554.700  0.500  5.876823  86.3396  0.242068  0.005528
  10555.006  10555.000  0.500  5.853717  86.3227  0.247678  0.005548
  10555.300  10555.300  0.500  5.833377  86.2882  0.252667  0.005746
  10555.600  10555.600  0.500  5.816455  86.2502  0.256865  0.005964
  10555.899  10555.900  0.500  5.802288  86.2261  0.260458  0.006149
  10556.199  10556.200  0.500  5.790435  86.2012  0.263487  0.006097
  10556.508  10556.500  0.500  5.780724  86.1914  0.266028  0.006392
  10556.798  10556.800  0.500  5.771237  86.1914  0.268564  0.006363
  10557.093  10557.100  0.500  5.763837  86.2035  0.270597  0.006526
  10557.407  10557.400  0.500  5.758318  86.2138  0.272127  0.006663
  10557.721  10557.700  0.500  5.752186  86.1979  0.273750  0.006922
  10558.011  10558.000  0.500  5.747913  86.145  0.274754  0.006758
  10558.301  10558.300  0.500  5.746673  86.0877  0.274911  0.006900
  10558.605  10558.600  0.500  5.746364  86.0413  0.274848  0.006996
  10558.900  10558.900  0.500  5.747443  86.0262  0.274504  0.007222
  10559.205  10559.200  0.500  5.751706  86.0556  0.273429  0.007331
  10559.504  10559.500  0.500  5.755263  86.1093  0.272628  0.007096
  10559.804  10559.800  0.500  5.761785  86.1609  0.271019  0.007076
  10560.099  10560.100  0.500  5.767923  86.1954  0.269468  0.007067
  10560.288  10560.300  0.500  5.772848  86.2079  0.268183  0.007096
  10561.308  10561.290  0.500  5.796241  86.1995  0.261957  0.007086
  10562.309  10562.290  0.500  5.806978  86.1723  0.259077  0.007008
  10563.325  10563.310  0.500  5.794462  86.1569  0.262293  0.007176
  10564.379  10564.360  0.500  5.756514  86.1407  0.272387  0.007551
  10565.444  10565.420  0.500  5.701521  86.1114  0.287688  0.007739
  10566.504  10566.500  0.500  5.642459  86.0895  0.305113  0.008091
  10567.617  10567.600  0.500  5.584181  86.0652  0.323332  0.008634
  10568.731  10568.720  0.500  5.532320  86.0458  0.340466  0.009068
  10569.874  10569.860  0.500  5.489817  86.0267  0.355170  0.009509
  10571.037  10571.010  0.500  5.467060  86.0041  0.363250  0.009535
  10572.209  10572.190  0.500  5.473172  85.9789  0.360930  0.009437
  10573.382  10573.380  0.500  5.514885  85.9539  0.346084  0.009079
  10574.623  10574.600  0.500  5.593659  85.9322  0.319787  0.008283
  10575.850  10575.830  0.500  5.681802  85.9105  0.292733  0.007584
  10577.096  10577.080  0.500  5.745630  85.8831  0.274544  0.007031
  10578.367  10578.350  0.500  5.766068  85.8543  0.268900  0.006787
  10579.668  10579.640  0.500  5.742563  85.8277  0.275210  0.006826
  10580.959  10580.950  0.500  5.706915  85.802  0.285112  0.007013
  10582.294  10582.280  0.500  5.679228  85.7774  0.293032  0.007009
  10583.653  10583.630  0.500  5.676633  85.7457  0.293685  0.006747
  10585.013  10585.000  0.500  5.698177  85.7062  0.287293  0.006390
  10586.388  10586.380  0.500  5.736607  85.523  0.275871  0.005814
  10587.817  10587.790  0.500  5.785875  85.5793  0.262782  0.005447
  10589.222  10589.210  0.500  5.843445  85.6511  0.248289  0.004971
  10590.661  10590.650  0.500  5.903532  85.6227  0.233732  0.004567
  10592.120  10592.110  0.500  5.961154  85.6014  0.220589  0.004270
  10593.609  10593.590  0.500  6.017273  85.5733  0.208483  0.004105
  10595.098  10595.090  0.500  6.075245  85.5456  0.196676  0.003880
  10596.622  10596.610  0.500  6.138696  85.7979  0.185129  0.003872
  10598.166  10598.150  0.500  6.217124  85.729  0.171027  0.003671
  10599.710  10599.710  0.500  6.304083  85.6265  0.156596  0.003460
  10601.308  10601.280  0.500  6.378185  85.6938  0.145525  0.003047
  10602.892  10602.880  0.500  6.410091  85.6733  0.140922  0.003310
  10604.506  10604.490  0.500  6.392561  85.623  0.143330  0.003323
  10606.154  10606.130  0.500  6.334101  85.5027  0.151745  0.003510
  10607.783  10607.780  0.500  6.252622  85.5624  0.164742  0.003984
  10609.452  10609.450  0.500  6.156701  85.5381  0.181275  0.004493
  10611.156  10611.140  0.500  6.061786  85.4452  0.199107  0.004843
  10612.855  10612.850  0.500  5.973934  85.4161  0.217317  0.005600
  10614.599  10614.580  0.500  5.902326  85.4323  0.233493  0.006030
  10616.358  10616.330  0.500  5.854194  85.3976  0.244907  0.006278
  10618.093  10618.090  0.500  5.828045  85.3338  0.251208  0.006337
  10619.888  10619.880  0.500  5.826063  85.1067  0.251036  0.006576
  10621.703  10621.680  0.500  5.837135  85.2447  0.248675  0.006473
  10623.513  10623.510  0.500  5.853311  85.2618  0.244734  0.006196
  10625.378  10625.350  0.500  5.864604  85.2255  0.241882  0.006221
  10627.234  10627.210  0.500  5.859161  85.1851  0.243087  0.006166
  10629.100  10629.090  0.500  5.836310  85.1473  0.248596  0.006298
  10631.001  10630.990  0.500  5.803995  85.1083  0.256643  0.006370
  10632.928  10632.910  0.500  5.772564  85.074  0.264731  0.006556
  10634.864  10634.850  0.500  5.748507  85.0326  0.271045  0.006671
  10636.836  10636.810  0.500  5.727688  84.9897  0.276607  0.006881
  10638.775  10638.780  0.500  5.718308  84.9556  0.279102  0.006889
  10640.797  10640.780  0.500  5.720658  84.9008  0.278267  0.006876
  10642.801  10642.790  0.500  5.733169  84.5654  0.273722  0.006888
  10644.820  10644.820  0.500  5.756294  84.7259  0.267972  0.006661
  10646.894  10646.880  0.500  5.780756  84.8175  0.261779  0.006545
  10648.964  10648.950  0.500  5.801328  84.7731  0.256315  0.006348
  10651.045  10651.040  0.500  5.812455  84.7309  0.253352  0.006232
  10653.176  10653.150  0.500  5.816969  84.6828  0.252068  0.006074
  10655.293  10655.280  0.500  5.814404  84.6378  0.252581  0.006152
  10657.430  10657.420  0.500  5.810153  84.5924  0.253521  0.006047
  10659.608  10659.590  0.500  5.807039  84.532  0.254130  0.005870
  10661.786  10661.780  0.500  5.806901  84.259  0.253344  0.005789
  10663.990  10663.980  0.500  5.812640  84.3855  0.252273  0.005804
  10666.205  10666.200  0.500  5.825318  84.4365  0.249245  0.005649
  10668.470  10668.450  0.500  5.846796  84.3884  0.243810  0.005668
  10670.722  10670.710  0.500  5.874143  84.3378  0.237091  0.005445
  10673.004  10672.990  0.500  5.902837  84.285  0.230240  0.005489
  10675.321  10675.290  0.500  5.927700  84.2311  0.224442  0.005249
  10677.610  10677.610  0.500  5.943260  84.1421  0.220744  0.005264
  10679.964  10679.950  0.500  5.949939  83.7997  0.218382  0.005246
  10682.325  10682.300  0.500  5.950374  84.1093  0.219093  0.005275
  10684.691  10684.680  0.500  5.948192  84.0623  0.219449  0.005276
  10687.088  10687.070  0.500  5.943757  84.0138  0.220297  0.005266
  10689.491  10689.490  0.500  5.936241  83.969  0.221841  0.005390
  10691.940  10691.920  0.500  5.934426  83.9087  0.222085  0.005372
  10694.385  10694.370  0.500  5.938263  83.8638  0.221116  0.005629
  10696.856  10696.850  0.500  5.947936  83.7927  0.218801  0.005583
  10699.363  10699.340  0.500  5.959576  83.2079  0.214760  0.005532
  10701.866  10701.850  0.500  5.958454  83.7425  0.216382  0.005482
  10704.385  10704.370  0.500  5.943451  83.6912  0.219519  0.005717
  10706.935  10706.920  0.500  5.917562  83.6412  0.225142  0.005695
  10709.502  10709.490  0.500  5.889284  83.5866  0.231448  0.005966
  10712.089  10712.070  0.500  5.859357  83.5396  0.238345  0.006117
  10714.693  10714.680  0.500  5.826763  83.4889  0.246092  0.006338
  10717.308  10717.300  0.500  5.789948  83.4407  0.255173  0.006491
  10719.969  10719.950  0.500  5.753570  83.3867  0.264456  0.006578
  10722.617  10722.610  0.500  5.728912  83.3355  0.270891  0.007075
  10725.306  10725.290  0.500  5.719659  83.2764  0.273216  0.007021
  10727.991  10727.990  0.500  5.722614  83.2255  0.272243  0.006860
  10730.727  10730.710  0.500  5.730271  83.1698  0.269986  0.006909
  10733.465  10733.450  0.500  5.740902  83.1155  0.266956  0.006850
  10736.215  10736.200  0.500  5.753167  83.0601  0.263526  0.006694
  10738.995  10738.980  0.500  5.765496  83.01  0.260140  0.006578
  10741.798  10741.770  0.500  5.774456  82.8172  0.257221  0.006522
  10744.607  10744.590  0.500  5.776722  82.8904  0.256866  0.006716
  10747.417  10747.420  0.500  5.772425  82.8413  0.257819  0.006612
  10750.284  10750.270  0.500  5.762898  82.7813  0.260098  0.006615
  10753.162  10753.150  0.500  5.750393  82.7157  0.263163  0.006645
  10756.057  10756.040  0.500  5.745302  82.6673  0.264351  0.006704
  10758.969  10758.950  0.500  5.744607  82.609  0.264348  0.006816
  10761.873  10761.870  0.500  5.745601  82.5482  0.263891  0.006600
  10764.838  10764.820  0.500  5.741709  82.483  0.264711  0.006626
  10767.795  10767.790  0.500  5.738852  82.4358  0.265316  0.006789
  10770.784  10770.770  0.500  5.735610  82.3764  0.265986  0.006897
  10773.779  10773.780  0.500  5.736939  82.3165  0.265440  0.006761
  10776.816  10776.800  0.500  5.738810  82.2629  0.264771  0.006787
  10779.861  10779.850  0.500  5.740111  82.193  0.264202  0.006773
  10782.932  10782.910  0.500  5.740723  82.13  0.263838  0.006858
  10786.000  10785.990  0.500  5.737971  81.786  0.263457  0.006833
  10789.095  10789.090  0.500  5.739782  81.8927  0.263323  0.006963
  10792.222  10792.210  0.500  5.745261  81.9503  0.262069  0.006924
  10795.366  10795.350  0.500  5.756442  81.8954  0.258981  0.006799
  10798.497  10798.500  0.500  5.767763  81.8135  0.255810  0.006830
  10801.695  10801.680  0.500  5.780846  81.4767  0.251446  0.006734
  10804.881  10804.870  0.500  5.787903  81.6947  0.250346  0.006603
  10808.108  10808.090  0.500  5.790283  80.9136  0.247362  0.006693
  10811.338  10811.320  0.500  5.784608  81.6  0.250881  0.006824
  10814.575  10814.570  0.500  5.771280  81.3321  0.253412  0.006871
  10817.900  10817.850  0.500  5.747439  81.4722  0.259973  0.007145
  10821.140  10821.140  0.500  5.724443  81.407  0.265808  0.007033
  10824.474  10824.450  0.500  5.705212  81.3243  0.270694  0.007432
  10827.841  10827.770  0.500  5.688191  81.2092  0.274951  0.007376
  10831.124  10831.120  0.500  5.673893  80.8817  0.277786  0.007425
  10834.474  10834.490  0.500  5.660744  81.1317  0.282332  0.007625
  10837.863  10837.870  0.500  5.655762  81.0636  0.283504  0.007594
  10841.273  10841.280  0.500  5.657615  80.9821  0.282695  0.007706
  10844.687  10844.700  0.500  5.666437  80.9172  0.279987  0.007635
  10848.148  10848.150  0.500  5.675991  80.5699  0.276135  0.007502
  10851.601  10851.610  0.500  5.678577  80.797  0.276198  0.007665
  10855.087  10855.090  0.500  5.673041  80.455  0.276556  0.007541
  10858.591  10858.590  0.500  5.660809  80.6614  0.280678  0.007808
  10862.108  10862.110  0.500  5.650283  80.3925  0.282702  0.007716
  10865.662  10865.650  0.500  5.641988  80.5133  0.285485  0.007881
  10869.204  10869.200  0.500  5.634181  80.1543  0.286440  0.007908
  10872.773  10872.780  0.500  5.625021  80.3914  0.289931  0.008009
  10876.386  10876.380  0.500  5.613299  80.2267  0.292748  0.008083
  10880.002  10879.990  0.500  5.602977  80.2459  0.295857  0.008059
  10883.615  10883.620  0.500  5.596098  80.1812  0.297658  0.008288
  10887.281  10887.280  0.500  5.587693  80.0943  0.299845  0.008465
  10890.930  10890.950  0.500  5.582915  80.0273  0.301029  0.008298
  10894.638  10894.640  0.500  5.584900  79.9605  0.300182  0.008356
  10898.338  10898.350  0.500  5.589334  79.896  0.298613  0.008330
  10902.066  10902.080  0.500  5.594055  79.8288  0.296956  0.008307
  10905.818  10905.820  0.500  5.598270  79.7572  0.295442  0.008330
  10909.598  10909.590  0.500  5.599295  79.6829  0.294865  0.008202
  10913.355  10913.380  0.500  5.598495  79.6135  0.294843  0.008486
  10917.176  10917.180  0.500  5.594269  79.4758  0.295580  0.008384
  10920.995  10921.010  0.500  5.594582  79.4605  0.295430  0.008517
  10924.833  10924.850  0.500  5.595899  79.3985  0.294811  0.008449
  10928.704  10928.710  0.500  5.596736  79.3158  0.294258  0.008431
  10932.588  10932.590  0.500  5.593996  79.2474  0.294811  0.008603
  10936.486  10936.490  0.500  5.584305  79.1674  0.297381  0.008519
  10940.391  10940.410  0.500  5.575298  79.0942  0.299794  0.008775
  10944.347  10944.350  0.500  5.563896  79.0276  0.302977  0.008863
  10948.294  10948.310  0.500  5.550544  78.9503  0.306749  0.008966
  10952.281  10952.280  0.500  5.535886  78.828  0.310796  0.009077
  10956.277  10956.280  0.500  5.525103  78.7919  0.314022  0.009122
  10960.285  10960.290  0.500  5.515780  78.7097  0.316632  0.009359
  10964.344  10964.330  0.500  5.511109  78.6386  0.317828  0.009329
  10968.385  10968.380  0.500  5.514503  78.5629  0.316446  0.009349
  10972.455  10972.450  0.500  5.518911  78.4813  0.314726  0.009334
  10976.538  10976.540  0.500  5.522151  78.4064  0.313409  0.009351
  10980.656  10980.650  0.500  5.522369  78.2669  0.312783  0.009438
  10984.793  10984.780  0.500  5.520247  78.2483  0.313373  0.009411
  10988.933  10988.930  0.500  5.516788  78.1742  0.314161  0.009558
  10993.092  10993.090  0.500  5.509157  78.1053  0.316289  0.009588
  10997.280  10997.280  0.500  5.499766  78.0201  0.318925  0.009731
  11001.493  11001.480  0.500  5.487723  77.9436  0.322472  0.009748
  11005.709  11005.710  0.500  5.469328  77.8622  0.328116  0.010042
  11009.975  11009.950  0.500  5.448468  77.7684  0.334629  0.010267
  11014.214  11014.210  0.500  5.435267  77.6847  0.338711  0.010309
  11018.508  11018.490  0.500  5.425488  77.6146  0.341730  0.010444
  11022.806  11022.790  0.500  5.420733  77.5389  0.343025  0.010637
  11027.138  11027.110  0.500  5.417000  77.4608  0.343960  0.010500
  11031.464  11031.450  0.500  5.415723  77.3769  0.344027  0.010723
  11035.820  11035.810  0.500  5.412337  77.2958  0.344832  0.010690
  11040.211  11040.190  0.500  5.408029  77.2133  0.345952  0.010647
  11044.600  11044.580  0.500  5.407020  77.1386  0.345966  0.010843
  11049.019  11049.000  0.500  5.406809  77.0475  0.345630  0.010746
  11053.452  11053.430  0.500  5.406480  76.9605  0.345353  0.010844
  11057.905  11057.880  0.500  5.405004  76.8829  0.345515  0.010834
  11062.357  11062.350  0.500  5.405936  76.7795  0.344729  0.010882
  11066.870  11066.840  0.500  5.408053  76.7246  0.343754  0.010978
  11071.377  11071.350  0.500  5.407940  76.6393  0.343410  0.011012
  11075.914  11075.880  0.500  5.400530  76.5166  0.345410  0.010947
  11080.449  11080.430  0.500  5.387487  76.4578  0.349676  0.011263
  11085.031  11085.000  0.500  5.374190  76.3858  0.354023  0.011570
  11089.595  11089.580  0.500  5.362389  76.2775  0.357718  0.011622
  11094.227  11094.190  0.500  5.350120  76.2183  0.361852  0.011794
  11098.842  11098.810  0.500  5.342127  76.0435  0.363920  0.011846
  11103.493  11103.460  0.500  5.333934  76.0376  0.366885  0.012082
  11108.137  11108.120  0.500  5.324291  75.8883  0.369713  0.012097
  11112.844  11112.800  0.500  5.315512  75.7957  0.372518  0.012348
  11117.517  11117.500  0.500  5.311842  75.7623  0.373723  0.012430
  11122.259  11122.220  0.500  5.313399  75.6767  0.372720  0.012484
  11126.979  11126.960  0.500  5.315052  75.5806  0.371631  0.012445
  11131.745  11131.710  0.500  5.317010  75.5064  0.370540  0.012422
  11136.515  11136.490  0.500  5.317760  75.5559  0.370505  0.012609
  11141.333  11141.290  0.500  5.315547  75.5599  0.371346  0.012580
  11146.117  11146.100  0.500  5.309916  75.475  0.373023  0.012647
  11150.971  11150.930  0.500  5.307532  75.3827  0.373456  0.012687
  11155.817  11155.790  0.500  5.303859  75.3059  0.374449  0.012774
  11160.706  11160.660  0.500  5.294943  75.2123  0.377333  0.012877
  11165.578  11165.550  0.500  5.280641  75.1171  0.382283  0.013210
  11170.502  11170.460  0.500  5.263242  75.0027  0.388401  0.013372
  11175.415  11175.390  0.500  5.243659  74.9329  0.395713  0.013724
  11180.360  11180.330  0.500  5.223906  74.8344  0.403077  0.013966
  11185.325  11185.300  0.500  5.208396  74.7471  0.408900  0.014312
  11190.316  11190.290  0.500  5.198796  74.6509  0.412313  0.014555
  11195.317  11195.290  0.500  5.195908  74.5456  0.412922  0.014433
  11200.361  11200.320  0.500  5.196141  74.4634  0.412370  0.014483
  11205.383  11205.360  0.500  5.199135  74.3674  0.410608  0.014588
  11210.447  11210.420  0.500  5.201363  74.2774  0.409198  0.014510
  11215.532  11215.500  0.500  5.198678  74.1722  0.409717  0.014576
  11220.627  11220.600  0.500  5.195634  74.0607  0.410349  0.014871
  11225.760  11225.720  0.500  5.193841  73.9625  0.410539  0.014732
  11230.898  11230.860  0.500  5.192778  73.8477  0.410338  0.014882
  11236.051  11236.020  0.500  5.190901  73.7225  0.410412  0.014885
  11241.226  11241.200  0.500  5.186614  72.1258  0.403249  0.014753
  11246.422  11246.390  0.500  5.178532  73.7  0.415394  0.015276
  11251.645  11251.610  0.500  5.164568  73.5523  0.420390  0.015416
  11256.878  11256.840  0.500  5.150933  73.4324  0.425467  0.015502
  11262.111  11262.090  0.500  5.138077  73.3354  0.430403  0.015843
  11267.393  11267.360  0.500  5.126265  73.2279  0.434878  0.016085
  11272.680  11272.650  0.500  5.114071  73.1155  0.439538  0.016344
  11277.994  11277.960  0.500  5.105616  73.0103  0.442633  0.016453
  11283.313  11283.290  0.500  5.098439  72.9036  0.445169  0.016541
  11288.665  11288.640  0.500  5.092510  72.787  0.447100  0.016930
  11294.028  11294.010  0.500  5.087894  72.6575  0.448370  0.016893
  11299.429  11299.390  0.500  5.081782  71.4785  0.443798  0.016877
  11304.824  11304.800  0.500  5.077626  72.5441  0.452290  0.017099
  11310.258  11310.220  0.500  5.077123  72.3874  0.451541  0.017423
  11315.703  11315.670  0.500  5.081233  72.2508  0.448840  0.017247
  11321.169  11321.130  0.500  5.082902  71.8861  0.445829  0.017240
  11326.636  11326.610  0.500  5.081511  72.1036  0.447801  0.017334
  11332.136  11332.110  0.500  5.077862  71.9534  0.448502  0.017518
  11337.663  11337.630  0.500  5.069108  71.7623  0.451244  0.017499
  11343.185  11343.170  0.500  5.058516  71.6774  0.455509  0.017780
  11348.752  11348.720  0.500  5.044287  71.3507  0.459930  0.018157
  11354.324  11354.300  0.500  5.029079  70.8584  0.463757  0.018277
  11359.929  11359.900  0.500  5.019410  63.5035  0.419658  0.016654
  11365.529  11365.510  0.500  4.998666  71.7471  0.484073  0.019181
  11371.180  11371.150  0.500  4.986697  71.2799  0.486712  0.019546
  11376.836  11376.800  0.500  4.976602  69.7394  0.481024  0.019244
  11382.504  11382.470  0.500  4.967402  71.2578  0.496040  0.019969
  11388.189  11388.160  0.500  4.961331  70.8204  0.495998  0.020028