File: xdidata/Re/Re-L3-RheniumDioxide.xdi
# XDI/1.0 BlueSky/1.10.0 BMM/2023-1.0-py310-tiled
# Beamline.name: BMM (06BM) -- Beamline for Materials Measurement (NIST)
# Beamline.xray_source: NSLS-II three-pole wiggler
# Beamline.collimation: paraboloid mirror, 5 nm Rh on 30 nm Pt
# Beamline.focusing: not in use
# Beamline.harmonic_rejection: flat mirror, Pt stripe, pitch = 7.0 mrad relative to beam
# Beamline.software: Bluesky 1.10.0, Ophyd 1.7.0, DataBroker 2.0.0b13, Python 3.10.8, 2023-1.0-py310-tiled
# Detector.I0: 10 cm N2
# Detector.I1: 25 cm N2
# Detector.I2: 25 cm N2
# Element.symbol: Re
# Element.edge: L3
# Element.reference: Re
# Element.reference_material: ReO2
# Facility.name: NSLS-II
# Facility.energy: 3.0
# Facility.current: 400.2
# Facility.mode: top-off
# Facility.GUP: 301027
# Facility.SAF: 310583
# Facility.cycle: 2023-2
# Mono.name: Si(111)
# Mono.d_spacing: 3.13519
# Mono.encoder_resolution: 0.0000050 deg/ct
# Mono.angle_offset: 16.0754 deg
# Mono.scan_mode: pseudo channel cut
# Mono.scan_type: step
# Mono.direction: forward in energy
# Sample.name: ReO2, Rhenium dioxide
# Sample.prep: powder on tape
# Sample.x: 145.711 mm
# Sample.y: 114.376 mm
# Sample.SDD_position: 205.000 mm
# Scan.experimenters: Bruce Ravel
# Scan.edge_energy: 10535.3
# Scan.start_time: 2023-06-27T16:54:48
# Scan.end_time: 2023-06-27T17:02:25
# Scan.transient_id: 85168
# Scan.uid: 48c0d23d-b93d-456e-9737-9ce2d6d68dea
# Scan.plot_hint: ln(I0/It)  --  ln($5/$6)
# Column.1: energy eV
# Column.2: requested_energy eV
# Column.3: measurement_time seconds
# Column.4: xmu
# Column.5: I0 nA
# Column.6: It nA
# Column.7: Ir nA
# ///////////
# Welcome to BMM
# -----------
# energy  requested_energy  measurement_time  xmu  I0  It  Ir
  10335.283  10335.300  0.500  1.599110  90.425  18.2727  2.400864
  10345.311  10345.300  0.500  1.592961  90.2672  18.3534  2.425475
  10355.326  10355.300  0.500  1.586877  90.075  18.4261  2.449216
  10365.333  10365.300  0.500  1.580680  89.8968  18.5039  2.472532
  10375.369  10375.300  0.500  1.574635  89.6848  18.5722  2.494022
  10385.359  10385.300  0.500  1.568656  89.4947  18.644  2.518324
  10395.351  10395.300  0.500  1.562788  89.3107  18.7151  2.541390
  10405.343  10405.300  0.500  1.556840  89.1232  18.7873  2.564934
  10415.294  10415.300  0.500  1.551178  88.9402  18.8552  2.587368
  10425.330  10425.300  0.500  1.545484  88.7589  18.9242  2.609774
  10435.395  10435.300  0.500  1.540119  88.5748  18.9865  2.631093
  10445.414  10445.300  0.500  1.534904  88.383  19.0445  2.650936
  10455.339  10455.300  0.500  1.530195  88.2032  19.0954  2.669880
  10465.340  10465.300  0.500  1.525867  88.0217  19.1388  2.684179
  10475.332  10475.300  0.500  1.522726  87.8288  19.1569  2.693184
  10485.386  10485.300  0.500  1.521356  87.6554  19.1453  2.693230
  10495.422  10495.300  0.500  1.523397  87.469  19.0656  2.674688
  10505.290  10505.300  0.500  1.532598  87.2862  18.8515  2.614786
  10507.290  10507.300  0.500  1.535880  87.2465  18.7812  2.595258
  10509.296  10509.300  0.500  1.540302  87.2137  18.6913  2.570253
  10511.278  10511.300  0.500  1.545635  87.1422  18.5767  2.539410
  10513.285  10513.300  0.500  1.552605  87.0651  18.4313  2.499582
  10515.293  10515.300  0.500  1.561154  87.0899  18.2796  2.455848
  10517.287  10517.300  0.500  1.572255  87.0564  18.0709  2.397565
  10519.287  10519.300  0.500  1.586502  87.0156  17.8069  2.326864
  10521.288  10521.300  0.500  1.605360  86.9775  17.4666  2.235296
  10523.284  10523.300  0.500  1.630995  86.9327  17.0157  2.117642
  10525.296  10525.300  0.500  1.666375  86.8067  16.4004  1.964259
  10525.560  10525.600  0.500  1.672337  86.7334  16.2892  1.937918
  10525.863  10525.900  0.500  1.679418  86.6614  16.1608  1.907999
  10526.165  10526.200  0.500  1.686727  86.633  16.0379  1.878961
  10526.468  10526.500  0.500  1.694343  86.6397  15.9174  1.848792
  10526.761  10526.800  0.500  1.702598  86.6676  15.7916  1.817785
  10527.063  10527.100  0.500  1.711533  86.701  15.6572  1.784817
  10527.356  10527.400  0.500  1.720307  86.7199  15.5238  1.753155
  10527.659  10527.700  0.500  1.730335  86.7405  15.3726  1.717177
  10527.962  10528.000  0.500  1.740250  86.7609  15.2245  1.681939
  10528.274  10528.300  0.500  1.751446  86.7749  15.0574  1.644305
  10528.567  10528.600  0.500  1.763029  86.797  14.8878  1.605366
  10528.880  10528.900  0.500  1.775256  86.8051  14.7083  1.564259
  10529.178  10529.200  0.500  1.788615  86.8074  14.5135  1.521913
  10529.480  10529.500  0.500  1.802820  86.8013  14.3077  1.477059
  10529.783  10529.800  0.500  1.818404  86.8031  14.0868  1.429806
  10530.076  10530.100  0.500  1.835167  86.794  13.8512  1.380688
  10530.389  10530.400  0.500  1.853463  86.7879  13.5991  1.328708
  10530.682  10530.700  0.500  1.873330  86.7808  13.3305  1.275119
  10530.985  10531.000  0.500  1.894496  86.7725  13.0501  1.220201
  10531.293  10531.300  0.500  1.918508  86.7658  12.7395  1.160020
  10531.591  10531.600  0.500  1.943158  86.7612  12.4286  1.102316
  10531.884  10531.900  0.500  1.970512  86.7514  12.0919  1.040686
  10532.187  10532.200  0.500  2.000211  86.7491  11.7377  0.979312
  10532.480  10532.500  0.500  2.032387  86.7399  11.3649  0.915784
  10532.783  10532.800  0.500  2.066903  86.7286  10.9779  0.852408
  10533.091  10533.100  0.500  2.107174  86.7227  10.5438  0.784029
  10533.380  10533.400  0.500  2.147569  86.713  10.1253  0.721049
  10533.683  10533.700  0.500  2.194087  86.7065  9.664333  0.655092
  10533.995  10534.000  0.500  2.247812  86.7009  9.158224  0.586655
  10534.293  10534.300  0.500  2.306819  86.6968  8.633051  0.519680
  10534.587  10534.600  0.500  2.370397  86.6872  8.100366  0.455937
  10534.895  10534.900  0.500  2.444301  86.6791  7.522601  0.392304
  10535.198  10535.200  0.500  2.527323  86.6702  6.922570  0.331431
  10535.506  10535.500  0.500  2.620198  86.6627  6.308041  0.274588
  10535.799  10535.800  0.500  2.720624  86.6551  5.704822  0.224235
  10536.093  10536.100  0.500  2.833688  86.6518  5.094747  0.178715
  10536.401  10536.400  0.500  2.968225  86.644  4.453024  0.136526
  10536.690  10536.700  0.500  3.111223  86.633  3.859192  0.102643
  10536.988  10537.000  0.500  3.268142  86.6255  3.298451  0.075197
  10537.282  10537.300  0.500  3.437492  86.6202  2.784422  0.053956
  10537.585  10537.600  0.500  3.622726  86.6094  2.313317  0.037232
  10537.893  10537.900  0.500  3.831880  86.6  1.876522  0.024634
  10538.201  10538.200  0.500  4.051223  86.5956  1.506858  0.015893
  10538.495  10538.500  0.500  4.274981  86.5859  1.204610  0.010287
  10538.798  10538.800  0.500  4.514912  86.5765  0.947542  0.006227
  10539.097  10539.100  0.500  4.758335  86.5615  0.742688  0.003903
  10539.405  10539.400  0.500  5.003989  86.5384  0.580770  0.002338
  10539.699  10539.700  0.500  5.247021  86.5107  0.455321  0.001559
  10540.016  10540.000  0.500  5.476284  86.4767  0.361892  0.000933
  10540.296  10540.300  0.500  5.687461  86.4527  0.292918  0.000740
  10540.599  10540.600  0.500  5.880599  86.4348  0.241422  0.000481
  10540.893  10540.900  0.500  6.054450  86.4335  0.202893  0.000524
  10541.187  10541.200  0.500  6.206699  86.4456  0.174264  0.000341
  10541.495  10541.500  0.500  6.335703  86.4654  0.153208  0.000499
  10541.789  10541.800  0.500  6.428726  86.478  0.139619  0.000212
  10542.102  10542.100  0.500  6.488828  86.4803  0.131479  0.000217
  10542.401  10542.400  0.500  6.512407  86.7141  0.128762  0.000252
  10542.700  10542.700  0.500  6.498319  86.7141  0.130589  0.000242
  10543.003  10543.000  0.500  6.449768  86.7102  0.137079  0.000178
  10543.302  10543.300  0.500  6.367301  86.7012  0.148848  0.000349
  10543.605  10543.600  0.500  6.247594  86.6946  0.167763  0.000289
  10543.899  10543.900  0.500  6.103324  86.6904  0.193790  0.000383
  10544.203  10544.200  0.500  5.938952  86.6803  0.228384  0.000566
  10544.502  10544.500  0.500  5.756972  86.6742  0.273949  0.000518
  10544.796  10544.800  0.500  5.561817  86.6735  0.332981  0.000861
  10545.090  10545.100  0.500  5.364217  86.6595  0.405664  0.001198
  10545.389  10545.400  0.500  5.163183  86.6525  0.495951  0.001783
  10545.688  10545.700  0.500  4.967229  86.6466  0.603269  0.002330
  10545.996  10546.000  0.500  4.775872  86.6394  0.730433  0.003555
  10546.295  10546.300  0.500  4.598759  86.6289  0.871860  0.004801
  10546.589  10546.600  0.500  4.438421  86.6247  1.023434  0.006686
  10546.913  10546.900  0.500  4.286166  86.6194  1.191672  0.008823
  10547.211  10547.200  0.500  4.149337  86.6096  1.366256  0.011559
  10547.511  10547.500  0.500  4.028930  86.5985  1.540877  0.014608
  10547.805  10547.800  0.500  3.923317  86.5885  1.712321  0.018127
  10548.099  10548.100  0.500  3.827947  86.5854  1.883599  0.022026
  10548.393  10548.400  0.500  3.741124  86.5734  2.054162  0.026073
  10548.683  10548.700  0.500  3.662730  86.5693  2.221573  0.030408
  10548.996  10549.000  0.500  3.591277  86.5587  2.385827  0.035124
  10549.300  10549.300  0.500  3.528821  86.5491  2.539307  0.039866
  10549.609  10549.600  0.500  3.475314  86.5401  2.678601  0.044564
  10549.903  10549.900  0.500  3.429444  86.5281  2.803938  0.048892
  10550.202  10550.200  0.500  3.390412  86.5205  2.915290  0.052943
  10550.506  10550.500  0.500  3.357064  86.5152  3.013965  0.056693
  10550.801  10550.800  0.500  3.330089  86.5058  3.096035  0.059761
  10551.105  10551.100  0.500  3.306903  86.5002  3.168454  0.062893
  10551.409  10551.400  0.500  3.288861  86.4901  3.225762  0.065202
  10551.703  10551.700  0.500  3.274168  86.4841  3.273279  0.067314
  10551.998  10552.000  0.500  3.262037  86.4771  3.312962  0.069023
  10552.297  10552.300  0.500  3.252504  86.4692  3.344390  0.070268
  10552.596  10552.600  0.500  3.244571  86.4685  3.371000  0.071467
  10552.891  10552.900  0.500  3.237521  86.4553  3.394328  0.072431
  10553.190  10553.200  0.500  3.231612  86.4507  3.414265  0.073276
  10553.499  10553.500  0.500  3.225818  86.4459  3.433913  0.074432
  10553.808  10553.800  0.500  3.220482  86.4373  3.451944  0.075243
  10554.098  10554.100  0.500  3.215071  86.4296  3.470361  0.076212
  10554.407  10554.400  0.500  3.209024  86.4176  3.490927  0.077134
  10554.706  10554.700  0.500  3.202743  86.4113  3.512668  0.077926
  10555.006  10555.000  0.500  3.196455  86.3874  3.533848  0.079167
  10555.300  10555.300  0.500  3.189683  86.352  3.556403  0.080272
  10555.605  10555.600  0.500  3.182093  86.3243  3.582347  0.081516
  10555.895  10555.900  0.500  3.174440  86.2949  3.608639  0.082847
  10556.194  10556.200  0.500  3.165843  86.2741  3.638919  0.084227
  10556.503  10556.500  0.500  3.157144  86.2668  3.670399  0.085627
  10556.803  10556.800  0.500  3.147948  86.2669  3.704312  0.087526
  10557.107  10557.100  0.500  3.138771  86.2725  3.738707  0.089265
  10557.416  10557.400  0.500  3.129267  86.2851  3.774961  0.091043
  10557.706  10557.700  0.500  3.120177  86.2703  3.808777  0.092754
  10558.016  10558.000  0.500  3.110803  86.2237  3.842572  0.094742
  10558.311  10558.300  0.500  3.101565  86.1607  3.875404  0.096278
  10558.605  10558.600  0.500  3.092298  86.1126  3.909295  0.098052
  10558.900  10558.900  0.500  3.083389  86.0939  3.943425  0.100134
  10559.205  10559.200  0.500  3.074583  86.1204  3.979528  0.101931
  10559.495  10559.500  0.500  3.066581  86.1725  4.013929  0.103383
  10559.799  10559.800  0.500  3.058889  86.2295  4.047600  0.105362
  10560.099  10560.100  0.500  3.051887  86.2616  4.077556  0.106805
  10560.297  10560.300  0.500  3.047320  86.2748  4.096846  0.108004
  10561.308  10561.290  0.500  3.031107  86.2654  4.163357  0.111610
  10562.294  10562.290  0.500  3.023780  86.2464  4.193052  0.113158
  10563.310  10563.310  0.500  3.024029  86.2295  4.191186  0.112962
  10564.375  10564.360  0.500  3.030480  86.2073  4.163161  0.111224
  10565.429  10565.420  0.500  3.038645  86.1843  4.128210  0.109203
  10566.514  10566.500  0.500  3.045673  86.1627  4.098265  0.107718
  10567.627  10567.600  0.500  3.050444  86.1381  4.077597  0.106394
  10568.731  10568.720  0.500  3.052987  86.1136  4.066084  0.105701
  10569.879  10569.860  0.500  3.054819  86.0911  4.057580  0.105411
  10571.042  10571.010  0.500  3.055825  86.0697  4.052496  0.104939
  10572.204  10572.190  0.500  3.057333  86.0482  4.045376  0.104520
  10573.387  10573.380  0.500  3.059970  86.0208  4.033439  0.103894
  10574.623  10574.600  0.500  3.064371  85.999  4.014706  0.102604
  10575.860  10575.830  0.500  3.071356  85.9716  3.985496  0.101342
  10577.096  10577.080  0.500  3.080500  85.9538  3.948400  0.099310
  10578.367  10578.350  0.500  3.091873  85.9257  3.902473  0.096586
  10579.658  10579.640  0.500  3.106771  85.8969  3.843475  0.093934
  10580.959  10580.950  0.500  3.125940  85.8713  3.769376  0.089957
  10582.294  10582.280  0.500  3.148944  85.8458  3.682563  0.085581
  10583.644  10583.630  0.500  3.178161  85.8161  3.575288  0.080370
  10585.018  10585.000  0.500  3.211435  85.7777  3.456734  0.074993
  10586.388  10586.380  0.500  3.243705  85.5947  3.339825  0.069670
  10587.807  10587.790  0.500  3.274720  85.6505  3.239939  0.065245
  10589.237  10589.210  0.500  3.300859  85.7265  3.159149  0.061868
  10590.652  10590.650  0.500  3.318826  85.7004  3.101954  0.059566
  10592.130  10592.110  0.500  3.327244  85.669  3.074822  0.058342
  10593.604  10593.590  0.500  3.324205  85.6506  3.083521  0.058947
  10595.089  10595.090  0.500  3.310314  85.622  3.125609  0.060616
  10596.622  10596.610  0.500  3.289365  85.595  3.190766  0.063351
  10598.166  10598.150  0.500  3.263152  85.5364  3.273271  0.067167
  10599.715  10599.710  0.500  3.235842  85.4563  3.360744  0.071081
  10601.308  10601.280  0.500  3.210169  85.5149  3.450506  0.075073
  10602.902  10602.880  0.500  3.186938  85.4912  3.530626  0.078723
  10604.496  10604.490  0.500  3.166227  85.4557  3.603015  0.082513
  10606.144  10606.130  0.500  3.147992  85.3313  3.663977  0.085424
  10607.793  10607.780  0.500  3.132198  85.3945  3.725066  0.088501
  10609.452  10609.450  0.500  3.117747  85.3795  3.778621  0.091228
  10611.161  10611.140  0.500  3.105436  85.2959  3.821684  0.093829
  10612.865  10612.850  0.500  3.095255  85.2671  3.859482  0.095446
  10614.594  10614.580  0.500  3.087882  85.2863  3.888923  0.097177
  10616.343  10616.330  0.500  3.083128  85.2635  3.906409  0.097835
  10618.103  10618.090  0.500  3.079826  85.2015  3.916482  0.098613
  10619.883  10619.880  0.500  3.078384  84.9824  3.912045  0.098522
  10621.707  10621.680  0.500  3.078501  85.1207  3.917954  0.098872
  10623.523  10623.510  0.500  3.080505  85.1473  3.911330  0.098281
  10625.358  10625.350  0.500  3.084220  85.1195  3.895551  0.097728
  10627.224  10627.210  0.500  3.089215  85.0837  3.874513  0.096268
  10629.100  10629.090  0.500  3.094962  85.0489  3.850733  0.095012
  10631.001  10630.990  0.500  3.099562  85.0174  3.831641  0.094110
  10632.932  10632.910  0.500  3.103210  84.9845  3.816215  0.093415
  10634.860  10634.850  0.500  3.104872  84.9476  3.808220  0.092862
  10636.817  10636.810  0.500  3.105024  84.9129  3.806088  0.092967
  10638.799  10638.780  0.500  3.103264  84.8751  3.811094  0.093044
  10640.788  10640.780  0.500  3.101006  84.826  3.817504  0.093323
  10642.806  10642.790  0.500  3.098920  84.4876  3.810213  0.093444
  10644.840  10644.820  0.500  3.097395  84.6613  3.823874  0.093941
  10646.890  10646.880  0.500  3.098625  84.754  3.823355  0.093817
  10648.964  10648.950  0.500  3.102416  84.7091  3.806869  0.092772
  10651.055  10651.040  0.500  3.110101  84.6726  3.776098  0.091524
  10653.146  10653.150  0.500  3.120279  84.6244  3.735731  0.089151
  10655.297  10655.280  0.500  3.132305  84.5813  3.689197  0.086988
  10657.430  10657.420  0.500  3.144161  84.5375  3.643824  0.084576
  10659.612  10659.590  0.500  3.155085  84.4884  3.602143  0.082834
  10661.791  10661.780  0.500  3.163031  84.213  3.561989  0.081107
  10663.985  10663.980  0.500  3.168185  84.3314  3.548657  0.080221
  10666.220  10666.200  0.500  3.170133  84.3952  3.544431  0.079874
  10668.470  10668.450  0.500  3.168807  84.3472  3.547116  0.080050
  10670.717  10670.710  0.500  3.165697  84.2977  3.556073  0.080640
  10673.009  10672.990  0.500  3.160378  84.2486  3.572958  0.081413
  10675.287  10675.290  0.500  3.154433  84.2002  3.592199  0.082446
  10677.625  10677.610  0.500  3.147554  84.1054  3.612921  0.083488
  10679.979  10679.950  0.500  3.139930  83.7661  3.625884  0.084400
  10682.300  10682.300  0.500  3.131999  84.0813  3.668508  0.086212
  10684.686  10684.680  0.500  3.123571  84.0397  3.697729  0.087878
  10687.068  10687.070  0.500  3.114825  83.9856  3.727807  0.089309
  10689.506  10689.490  0.500  3.106272  83.9437  3.757956  0.091044
  10691.940  10691.920  0.500  3.099104  83.8886  3.782501  0.092204
  10694.380  10694.370  0.500  3.093228  83.835  3.802359  0.093533
  10696.871  10696.850  0.500  3.088407  83.7702  3.817785  0.094248
  10699.348  10699.340  0.500  3.084181  83.1908  3.807435  0.094452
  10701.856  10701.850  0.500  3.080546  83.7234  3.845765  0.095546
  10704.395  10704.370  0.500  3.077200  83.6713  3.856254  0.096265
  10706.920  10706.920  0.500  3.074780  83.6199  3.863223  0.096748
  10709.512  10709.490  0.500  3.073018  83.5663  3.867555  0.096945
  10712.069  10712.070  0.500  3.072485  83.5186  3.867408  0.096965
  10714.708  10714.680  0.500  3.072888  83.4663  3.863425  0.096960
  10717.308  10717.300  0.500  3.073604  83.4129  3.858191  0.096767
  10719.964  10719.950  0.500  3.074521  83.3666  3.852520  0.096398
  10722.627  10722.610  0.500  3.075386  83.3103  3.846584  0.096109
  10725.301  10725.290  0.500  3.075287  83.2605  3.844668  0.096179
  10728.011  10727.990  0.500  3.074521  83.2046  3.845029  0.096194
  10730.722  10730.710  0.500  3.072893  83.1539  3.848946  0.096434
  10733.460  10733.450  0.500  3.071180  83.1034  3.853206  0.096588
  10736.215  10736.200  0.500  3.070464  83.0559  3.853762  0.096840
  10738.990  10738.980  0.500  3.069689  82.9983  3.854077  0.096748
  10741.793  10741.770  0.500  3.070477  82.8114  3.842371  0.096374
  10744.601  10744.590  0.500  3.071489  82.8796  3.841644  0.096173
  10747.432  10747.420  0.500  3.073518  82.8336  3.831730  0.095829
  10750.274  10750.270  0.500  3.075340  82.7691  3.821775  0.095149
  10753.157  10753.150  0.500  3.076667  82.7176  3.814332  0.095020
  10756.042  10756.040  0.500  3.076940  82.6637  3.810809  0.094625
  10758.959  10758.950  0.500  3.076831  82.6089  3.808695  0.094676
  10761.893  10761.870  0.500  3.075863  82.5511  3.809716  0.094628
  10764.823  10764.820  0.500  3.073871  82.4881  3.814398  0.094967
  10767.810  10767.790  0.500  3.071805  82.4279  3.819497  0.095432
  10770.778  10770.770  0.500  3.069249  82.3714  3.826647  0.095636
  10773.804  10773.780  0.500  3.066074  82.3109  3.835996  0.096022
  10776.806  10776.800  0.500  3.062691  82.2618  3.846702  0.096835
  10779.871  10779.850  0.500  3.058149  82.2042  3.861504  0.097798
  10782.917  10782.910  0.500  3.052987  82.137  3.878316  0.098621
  10786.020  10785.990  0.500  3.047474  81.7945  3.883494  0.099415
  10789.095  10789.090  0.500  3.041305  81.8952  3.912337  0.100756
  10792.222  10792.210  0.500  3.035770  81.957  3.937023  0.102181
  10795.346  10795.350  0.500  3.030565  81.893  3.954479  0.103082
  10798.512  10798.500  0.500  3.026251  81.8231  3.968187  0.104017
  10801.665  10801.680  0.500  3.022508  81.4789  3.966312  0.104458
  10804.896  10804.870  0.500  3.019105  81.6966  3.990461  0.105266
  10808.113  10808.090  0.500  3.016428  80.9047  3.962377  0.104780
  10811.358  10811.320  0.500  3.014571  81.608  4.004249  0.105878
  10815.564  10814.570  0.500  3.013465  81.2672  3.991940  0.105874
  10817.884  10817.850  0.500  3.013490  81.7598  4.016034  0.106542
  10821.227  10821.140  0.500  3.014123  81.6933  4.010231  0.106145
  10824.485  10824.450  0.500  3.014087  81.6116  4.006367  0.105955
  10827.780  10827.770  0.500  3.013893  81.5091  4.002112  0.106116
  10831.124  10831.120  0.500  3.012546  81.1749  3.991071  0.105624
  10834.489  10834.490  0.500  3.011243  81.4245  4.008566  0.106352
  10837.888  10837.870  0.500  3.008635  81.3467  4.015190  0.106801
  10841.284  10841.280  0.500  3.005055  81.2824  4.026405  0.107419
  10844.707  10844.700  0.500  3.000773  81.2059  4.039881  0.108371
  10848.168  10848.150  0.500  2.996899  80.8526  4.037916  0.108771
  10851.627  10851.610  0.500  2.994578  81.0819  4.058777  0.109673
  10855.118  10855.090  0.500  2.992782  80.7335  4.048605  0.109442
  10858.612  10858.590  0.500  2.991849  80.9406  4.062773  0.109970
  10862.118  10862.110  0.500  2.991478  80.6768  4.051036  0.109709
  10865.667  10865.650  0.500  2.990763  80.7981  4.060030  0.110164
  10869.209  10869.200  0.500  2.990469  80.4391  4.043179  0.109507
  10872.779  10872.780  0.500  2.989130  80.6806  4.060752  0.110034
  10876.386  10876.380  0.500  2.987153  80.5144  4.060410  0.110236
  10879.992  10879.990  0.500  2.984737  80.5264  4.070835  0.110930
  10883.615  10883.620  0.500  2.981339  80.4562  4.081131  0.111322
  10887.281  10887.280  0.500  2.978403  80.3887  4.089697  0.112194
  10890.945  10890.950  0.500  2.975191  80.3188  4.099284  0.112547
  10894.643  10894.640  0.500  2.972410  80.2396  4.106651  0.113113
  10898.353  10898.350  0.500  2.969447  80.1785  4.115697  0.113877
  10902.076  10902.080  0.500  2.966121  80.1008  4.125409  0.114270
  10905.828  10905.820  0.500  2.962288  80.0367  4.137938  0.115279
  10909.592  10909.590  0.500  2.958107  79.9533  4.150943  0.116187
  10913.375  10913.380  0.500  2.954305  79.8852  4.163208  0.116905
  10917.181  10917.180  0.500  2.950458  79.7435  4.171837  0.117441
  10920.995  10921.010  0.500  2.946443  79.7362  4.188242  0.118591
  10924.848  10924.850  0.500  2.942635  79.6654  4.200482  0.119096
  10928.704  10928.710  0.500  2.939380  79.5933  4.210365  0.119799
  10932.583  10932.590  0.500  2.935998  79.51  4.220209  0.120849
  10936.491  10936.490  0.500  2.933170  79.4355  4.228198  0.121186
  10940.402  10940.410  0.500  2.930746  79.3614  4.234504  0.121681
  10944.362  10944.350  0.500  2.928833  79.292  4.238903  0.121997
  10948.305  10948.310  0.500  2.926512  79.2076  4.244229  0.122733
  10952.292  10952.280  0.500  2.924401  79.0945  4.247127  0.122856
  10956.282  10956.280  0.500  2.921445  79.054  4.257513  0.123520
  10960.291  10960.290  0.500  2.917836  78.9829  4.269068  0.124326
  10964.349  10964.330  0.500  2.913909  78.9024  4.281496  0.125082
  10968.379  10968.380  0.500  2.909519  78.824  4.296064  0.126261
  10972.465  10972.450  0.500  2.904899  78.7523  4.312028  0.127358
  10976.543  10976.540  0.500  2.900421  78.6698  4.326845  0.128231
  10980.661  10980.650  0.500  2.896293  78.5242  4.336699  0.129008
  10984.793  10984.780  0.500  2.893022  78.514  4.350348  0.129869
  10988.943  10988.930  0.500  2.890181  78.4386  4.358529  0.130664
  10993.087  10993.090  0.500  2.887902  78.3691  4.364603  0.131011
  10997.296  10997.280  0.500  2.885823  78.2835  4.368914  0.131524
  11001.503  11001.480  0.500  2.883721  78.1954  4.373179  0.131599
  11005.719  11005.710  0.500  2.882015  78.126  4.376759  0.132092
  11009.975  11009.950  0.500  2.880307  78.0297  4.378835  0.132204
  11014.214  11014.210  0.500  2.878510  77.9292  4.381058  0.132314
  11018.513  11018.490  0.500  2.876712  77.8846  4.386434  0.133059
  11022.795  11022.790  0.500  2.874323  77.7935  4.391781  0.133373
  11027.138  11027.110  0.500  2.871884  77.7197  4.398326  0.133985
  11031.454  11031.450  0.500  2.869713  77.6318  4.402908  0.134277
  11035.836  11035.810  0.500  2.866566  77.5379  4.411439  0.135195
  11040.205  11040.190  0.500  2.863137  77.4487  4.421498  0.135855
  11044.610  11044.580  0.500  2.859743  77.385  4.432882  0.136589
  11049.003  11049.000  0.500  2.855578  77.2994  4.446461  0.137646
  11053.452  11053.430  0.500  2.850962  77.2203  4.462459  0.138716
  11057.900  11057.880  0.500  2.846833  77.1352  4.475982  0.139670
  11062.378  11062.350  0.500  2.842154  77.0215  4.490352  0.141000
  11066.859  11066.840  0.500  2.837052  76.9647  4.509987  0.142185
  11071.382  11071.350  0.500  2.832256  76.886  4.527039  0.143615
  11075.903  11075.880  0.500  2.827386  76.7667  4.542079  0.144769
  11080.465  11080.430  0.500  2.823053  76.6987  4.557761  0.145745
  11085.031  11085.000  0.500  2.819487  76.616  4.569115  0.146759
  11089.616  11089.580  0.500  2.816355  76.5207  4.577741  0.147324
  11094.217  11094.190  0.500  2.813627  76.4477  4.585871  0.148122
  11098.842  11098.810  0.500  2.810616  76.2819  4.589723  0.148500
  11103.488  11103.460  0.500  2.807643  76.2696  4.602651  0.149408
  11108.158  11108.120  0.500  2.804865  76.1308  4.607050  0.149923
  11112.839  11112.800  0.500  2.801391  76.0295  4.616930  0.150566
  11117.534  11117.500  0.500  2.797654  76.002  4.632543  0.151861
  11122.259  11122.220  0.500  2.794000  75.91  4.643869  0.153094
  11126.995  11126.960  0.500  2.790030  75.8348  4.657729  0.154040
  11131.745  11131.710  0.500  2.785758  75.7243  4.670846  0.154896
  11136.526  11136.490  0.500  2.782136  75.6483  4.683092  0.155995
  11141.317  11141.290  0.500  2.778782  75.5634  4.693553  0.156870
  11146.128  11146.100  0.500  2.775734  75.4698  4.702051  0.157939
  11150.960  11150.930  0.500  2.772791  75.3814  4.710385  0.158012
  11155.834  11155.790  0.500  2.769835  75.2945  4.718884  0.159167
  11160.685  11160.660  0.500  2.766738  75.2042  4.727844  0.160104
  11165.578  11165.550  0.500  2.763124  75.1099  4.739013  0.160939
  11170.486  11170.460  0.500  2.759810  75.0148  4.748717  0.161898
  11175.421  11175.390  0.500  2.756379  74.9271  4.759470  0.162974
  11180.365  11180.330  0.500  2.752564  74.8255  4.771185  0.163711
  11185.330  11185.300  0.500  2.749047  74.743  4.782714  0.164923
  11190.311  11190.290  0.500  2.744945  74.6501  4.796407  0.165800
  11195.328  11195.290  0.500  2.741309  74.5533  4.807635  0.166869
  11200.334  11200.320  0.500  2.737462  74.4603  4.820150  0.168141
  11205.388  11205.360  0.500  2.733381  74.3628  4.833516  0.169083
  11210.441  11210.420  0.500  2.729186  74.262  4.847259  0.170111
  11215.543  11215.500  0.500  2.724795  74.1574  4.861729  0.171452
  11220.627  11220.600  0.500  2.720817  74.0681  4.875231  0.172874
  11225.755  11225.720  0.500  2.716428  73.9627  4.889710  0.174001
  11230.876  11230.860  0.500  2.712569  73.8327  4.899992  0.174994
  11236.057  11236.020  0.500  2.708380  73.7063  4.912133  0.176215
  11241.237  11241.200  0.500  2.704421  72.0944  4.823767  0.173601
  11246.428  11246.390  0.500  2.700246  73.6862  4.950901  0.179200
  11251.634  11251.610  0.500  2.696366  73.5478  4.960813  0.179937
  11256.878  11256.840  0.500  2.693265  73.4326  4.968425  0.180819
  11262.111  11262.090  0.500  2.689709  73.3319  4.979287  0.181945
  11267.393  11267.360  0.500  2.686078  73.2177  4.989617  0.182755
  11272.674  11272.650  0.500  2.683031  73.1119  4.997612  0.183859
  11277.972  11277.960  0.500  2.679393  72.9972  5.007956  0.184823
  11283.335  11283.290  0.500  2.675630  72.8897  5.019430  0.186153
  11288.665  11288.640  0.500  2.671621  72.7497  5.029920  0.187176
  11294.044  11294.010  0.500  2.667558  72.6185  5.041288  0.188507
  11299.418  11299.390  0.500  2.663207  71.5151  4.986338  0.186859
  11304.846  11304.800  0.500  2.658609  72.5266  5.080168  0.191356
  11310.241  11310.220  0.500  2.653927  72.3834  5.093932  0.192786
  11315.708  11315.670  0.500  2.649135  72.2329  5.107755  0.194301
  11321.164  11321.130  0.500  2.644855  71.8762  5.104337  0.195194
  11326.641  11326.610  0.500  2.640713  72.102  5.141623  0.197245
  11332.136  11332.110  0.500  2.636757  71.9659  5.152261  0.198475
  11337.658  11337.630  0.500  2.632670  71.756  5.158268  0.199372
  11343.191  11343.170  0.500  2.628704  71.665  5.172204  0.200661
  11348.752  11348.720  0.500  2.624660  71.3657  5.171471  0.201580
  11354.340  11354.300  0.500  2.620912  70.8537  5.153646  0.201747
  11359.929  11359.900  0.500  2.616714  63.1393  4.611851  0.181276
  11365.552  11365.510  0.500  2.612850  71.7374  5.260165  0.207481
  11371.174  11371.150  0.500  2.608790  71.2651  5.246788  0.207516
  11376.825  11376.800  0.500  2.604803  69.7422  5.155181  0.205031
  11382.504  11382.470  0.500  2.600894  71.2562  5.287725  0.211238
  11388.189  11388.160  0.500  2.596880  70.8322  5.277402  0.211763