File: xdidata/Re/Re-L3-Rhenium_metal.xdi
# XDI/1.0 BlueSky/1.10.0 BMM/2023-1.0-py310-tiled
# Beamline.name: BMM (06BM) -- Beamline for Materials Measurement (NIST)
# Beamline.xray_source: NSLS-II three-pole wiggler
# Beamline.collimation: paraboloid mirror, 5 nm Rh on 30 nm Pt
# Beamline.focusing: not in use
# Beamline.harmonic_rejection: flat mirror, Pt stripe, pitch = 7.0 mrad relative to beam
# Beamline.software: Bluesky 1.10.0, Ophyd 1.7.0, DataBroker 2.0.0b13, Python 3.10.8, 2023-1.0-py310-tiled
# Detector.I0: 10 cm N2
# Detector.I1: 25 cm N2
# Detector.I2: 25 cm N2
# Element.symbol: Re
# Element.edge: L3
# Element.reference: Re
# Element.reference_material: ReO2
# Facility.name: NSLS-II
# Facility.energy: 3.0
# Facility.current: 400.2
# Facility.mode: top-off
# Facility.GUP: 301027
# Facility.SAF: 310583
# Facility.cycle: 2023-2
# Mono.name: Si(111)
# Mono.d_spacing: 3.13519
# Mono.encoder_resolution: 0.0000050 deg/ct
# Mono.angle_offset: 16.0754 deg
# Mono.scan_mode: pseudo channel cut
# Mono.scan_type: step
# Mono.direction: forward in energy
# Sample.name: Re metal powder
# Sample.prep: powder on tape
# Sample.x: 145.711 mm
# Sample.y: 114.376 mm
# Sample.SDD_position: 205.000 mm
# Scan.experimenters: Bruce Ravel
# Scan.edge_energy: 10535.3
# Scan.start_time: 2023-06-27T16:38:16
# Scan.end_time: 2023-06-27T16:45:56
# Scan.transient_id: 85158
# Scan.uid: 2201814a-d1c6-4d52-9a96-520896fe0036
# Scan.plot_hint: ln(I0/It)  --  ln($5/$6)
# Column.1: energy eV
# Column.2: requested_energy eV
# Column.3: measurement_time seconds
# Column.4: xmu
# Column.5: I0 nA
# Column.6: It nA
# Column.7: Ir nA
# ///////////
# Welcome to BMM
# -----------
# energy  requested_energy  measurement_time  xmu  I0  It  Ir
  10335.292  10335.300  0.500  3.226643  90.3908  3.587660  0.473128
  10345.320  10345.300  0.500  3.216807  90.2225  3.616375  0.479476
  10355.326  10355.300  0.500  3.207308  90.0465  3.643769  0.485838
  10365.342  10365.300  0.500  3.197726  89.8588  3.671181  0.492287
  10375.374  10375.300  0.500  3.188450  89.6514  3.696839  0.498478
  10385.355  10385.300  0.500  3.179132  89.4623  3.723576  0.504666
  10395.351  10395.300  0.500  3.170046  89.2802  3.749916  0.511164
  10405.352  10405.300  0.500  3.160808  89.0982  3.777003  0.517230
  10415.402  10415.300  0.500  3.151932  88.9117  3.802699  0.523732
  10425.349  10425.300  0.500  3.143300  88.7308  3.827865  0.529976
  10435.310  10435.300  0.500  3.135083  88.5541  3.851762  0.535805
  10445.319  10445.300  0.500  3.127297  88.3511  3.872969  0.541320
  10455.396  10455.300  0.500  3.120533  88.1785  3.891639  0.545919
  10465.311  10465.300  0.500  3.114937  87.9954  3.905347  0.549993
  10475.360  10475.300  0.500  3.111667  87.8093  3.909854  0.551576
  10485.357  10485.300  0.500  3.111693  87.6266  3.901621  0.550810
  10495.364  10495.300  0.500  3.118817  87.4475  3.866003  0.543933
  10505.271  10505.300  0.500  3.141585  87.2646  3.771075  0.524944
  10507.281  10507.300  0.500  3.149672  87.2305  3.739239  0.518893
  10509.291  10509.300  0.500  3.159758  87.1884  3.699929  0.510588
  10511.288  10511.300  0.500  3.171990  87.1242  3.652253  0.500981
  10513.280  10513.300  0.500  3.187286  87.0535  3.593897  0.489270
  10515.283  10515.300  0.500  3.206730  87.0678  3.525270  0.475842
  10517.297  10517.300  0.500  3.232085  87.0379  3.435830  0.457986
  10519.282  10519.300  0.500  3.264291  87.0022  3.325575  0.436475
  10521.283  10521.300  0.500  3.307580  86.9572  3.183040  0.409197
  10523.279  10523.300  0.500  3.366864  86.9176  2.998453  0.374918
  10525.291  10525.300  0.500  3.450268  86.7935  2.754575  0.331789
  10525.560  10525.600  0.500  3.464950  86.708  2.711756  0.324350
  10525.863  10525.900  0.500  3.481247  86.6435  2.665934  0.316595
  10526.165  10526.200  0.500  3.499035  86.6148  2.618065  0.308248
  10526.463  10526.500  0.500  3.517943  86.6259  2.569356  0.300032
  10526.766  10526.800  0.500  3.537628  86.6534  2.520073  0.291676
  10527.068  10527.100  0.500  3.559765  86.6842  2.465776  0.282891
  10527.376  10527.400  0.500  3.582045  86.7042  2.412001  0.273506
  10527.669  10527.700  0.500  3.605735  86.7205  2.355976  0.264579
  10527.967  10528.000  0.500  3.631337  86.7423  2.297001  0.255049
  10528.264  10528.300  0.500  3.657573  86.7625  2.238041  0.245604
  10528.572  10528.600  0.500  3.686607  86.7804  2.174446  0.236177
  10528.865  10528.900  0.500  3.716498  86.787  2.110572  0.225909
  10529.163  10529.200  0.500  3.749868  86.7925  2.041435  0.215510
  10529.466  10529.500  0.500  3.786253  86.7827  1.968268  0.204748
  10529.773  10529.800  0.500  3.825428  86.7778  1.892547  0.193676
  10530.071  10530.100  0.500  3.869525  86.7743  1.810830  0.182049
  10530.369  10530.400  0.500  3.915607  86.7699  1.729189  0.170514
  10530.682  10530.700  0.500  3.969048  86.758  1.638981  0.158341
  10530.975  10531.000  0.500  4.024112  86.7524  1.551072  0.146465
  10531.283  10531.300  0.500  4.085928  86.7465  1.457995  0.134364
  10531.595  10531.600  0.500  4.155028  86.7379  1.360514  0.121796
  10531.889  10531.900  0.500  4.227631  86.7319  1.265150  0.110302
  10532.182  10532.200  0.500  4.308291  86.7298  1.167082  0.098426
  10532.485  10532.500  0.500  4.398114  86.718  1.066676  0.087169
  10532.788  10532.800  0.500  4.492961  86.7115  0.970083  0.076487
  10533.096  10533.100  0.500  4.601085  86.7058  0.870608  0.066123
  10533.384  10533.400  0.500  4.713837  86.6976  0.777703  0.056437
  10533.687  10533.700  0.500  4.841560  86.6916  0.684407  0.047472
  10533.981  10534.000  0.500  4.980674  86.6905  0.595515  0.039385
  10534.289  10534.300  0.500  5.140770  86.6791  0.507348  0.031625
  10534.582  10534.600  0.500  5.309617  86.6743  0.428502  0.025051
  10534.880  10534.900  0.500  5.503482  86.6681  0.352962  0.019361
  10535.188  10535.200  0.500  5.722571  86.6586  0.283485  0.014370
  10535.491  10535.500  0.500  5.951828  86.6527  0.225391  0.010441
  10535.795  10535.800  0.500  6.203193  86.6453  0.175280  0.007273
  10536.098  10536.100  0.500  6.473121  86.6384  0.133804  0.005138
  10536.406  10536.400  0.500  6.757431  86.6362  0.100690  0.003411
  10536.694  10536.700  0.500  7.047733  86.6277  0.075312  0.002081
  10536.993  10537.000  0.500  7.330925  86.623  0.056735  0.001302
  10537.291  10537.300  0.500  7.610294  86.616  0.042903  0.000864
  10537.599  10537.600  0.500  7.878243  86.605  0.032815  0.000576
  10537.903  10537.900  0.500  8.116054  86.5986  0.025867  0.000328
  10538.191  10538.200  0.500  8.321512  86.5892  0.021061  0.000324
  10538.495  10538.500  0.500  8.514283  86.5821  0.017367  0.000211
  10538.784  10538.800  0.500  8.665579  86.5711  0.014927  0.000196
  10539.097  10539.100  0.500  8.807294  86.5596  0.012953  0.000018
  10539.386  10539.400  0.500  8.900851  86.5298  0.011792  0.000147
  10539.684  10539.700  0.500  8.967256  86.542  0.011036  0.000015
  10539.983  10540.000  0.500  9.022865  86.7423  0.010463  0.000011
  10540.296  10540.300  0.500  9.038667  86.7154  0.010296  0.000060
  10540.604  10540.600  0.500  9.038292  86.697  0.010297  -0.000086
  10540.903  10540.900  0.500  8.982521  86.7038  0.010889  0.000090
  10541.206  10541.200  0.500  8.933661  86.7126  0.011435  -0.000070
  10541.510  10541.500  0.500  8.833517  86.7253  0.012641  0.000000
  10541.799  10541.800  0.500  8.747131  86.7417  0.013785  -0.000040
  10542.092  10542.100  0.500  8.625411  86.7445  0.015569  0.000100
  10542.396  10542.400  0.500  8.507554  86.7452  0.017517  0.000049
  10542.675  10542.700  0.500  8.386895  86.7423  0.019763  0.000039
  10542.993  10543.000  0.500  8.255726  86.7299  0.022530  0.000007
  10543.283  10543.300  0.500  8.125910  86.7227  0.025650  -0.000071
  10543.596  10543.600  0.500  7.999618  86.722  0.029103  0.000068
  10543.895  10543.900  0.500  7.874180  86.7145  0.032990  0.000081
  10544.193  10544.200  0.500  7.755432  86.7031  0.037144  0.000013
  10544.502  10544.500  0.500  7.639103  86.698  0.041724  0.000210
  10544.801  10544.800  0.500  7.532391  86.6898  0.046419  0.000144
  10545.100  10545.100  0.500  7.431391  86.6839  0.051348  0.000196
  10545.399  10545.400  0.500  7.340223  86.674  0.056243  0.000188
  10545.693  10545.700  0.500  7.261681  86.6702  0.060836  0.000194
  10545.996  10546.000  0.500  7.192212  86.6641  0.065208  0.000322
  10546.295  10546.300  0.500  7.131844  86.6542  0.069258  0.000352
  10546.599  10546.600  0.500  7.077563  86.6506  0.073118  0.000412
  10546.908  10546.900  0.500  7.034097  86.6425  0.076359  0.000626
  10547.211  10547.200  0.500  6.996336  86.635  0.079291  0.000589
  10547.506  10547.500  0.500  6.966066  86.6281  0.081721  0.000791
  10547.814  10547.800  0.500  6.935182  86.6231  0.084280  0.000875
  10548.113  10548.100  0.500  6.912212  86.6121  0.086227  0.001055
  10548.408  10548.400  0.500  6.889132  86.6063  0.088234  0.001031
  10548.692  10548.700  0.500  6.868692  86.5948  0.090044  0.001280
  10549.001  10549.000  0.500  6.847632  86.5921  0.091958  0.001438
  10549.295  10549.300  0.500  6.832511  86.5796  0.093346  0.001462
  10549.590  10549.600  0.500  6.811932  86.5764  0.095283  0.001620
  10549.894  10549.900  0.500  6.796859  86.573  0.096726  0.001741
  10550.207  10550.200  0.500  6.784200  86.561  0.097945  0.001786
  10550.502  10550.500  0.500  6.773570  86.5499  0.098979  0.001792
  10550.801  10550.800  0.500  6.768282  86.5472  0.099501  0.001975
  10551.105  10551.100  0.500  6.762132  86.5415  0.100108  0.001958
  10551.399  10551.400  0.500  6.759237  86.5272  0.100381  0.001958
  10551.698  10551.700  0.500  6.755021  86.5259  0.100804  0.002111
  10552.003  10552.000  0.500  6.753430  86.5142  0.100951  0.002151
  10552.297  10552.300  0.500  6.750931  86.5092  0.101198  0.002029
  10552.596  10552.600  0.500  6.749571  86.5016  0.101326  0.002209
  10552.896  10552.900  0.500  6.746133  86.4955  0.101668  0.002211
  10553.205  10553.200  0.500  6.741368  86.4868  0.102144  0.002232
  10553.504  10553.500  0.500  6.734844  86.4792  0.102803  0.002167
  10553.808  10553.800  0.500  6.725132  86.4717  0.103797  0.002377
  10554.108  10554.100  0.500  6.711750  86.4678  0.105191  0.002308
  10554.407  10554.400  0.500  6.699417  86.4568  0.106483  0.002471
  10554.697  10554.700  0.500  6.679922  86.4501  0.108571  0.002409
  10555.001  10555.000  0.500  6.660363  86.4299  0.110689  0.002532
  10555.296  10555.300  0.500  6.636176  86.3911  0.113348  0.002587
  10555.590  10555.600  0.500  6.610649  86.354  0.116229  0.002667
  10555.895  10555.900  0.500  6.585224  86.3282  0.119186  0.002732
  10556.199  10556.200  0.500  6.556317  86.3065  0.122651  0.002864
  10556.508  10556.500  0.500  6.526633  86.2987  0.126335  0.003141
  10556.798  10556.800  0.500  6.497452  86.3018  0.130080  0.003052
  10557.107  10557.100  0.500  6.467550  86.3155  0.134050  0.003341
  10557.407  10557.400  0.500  6.441234  86.3203  0.137632  0.003229
  10557.706  10557.700  0.500  6.413635  86.3061  0.141461  0.003548
  10558.006  10558.000  0.500  6.387204  86.2579  0.145168  0.003507
  10558.311  10558.300  0.500  6.362371  86.1971  0.148713  0.003780
  10558.596  10558.600  0.500  6.340359  86.1498  0.151940  0.003941
  10558.900  10558.900  0.500  6.317760  86.1383  0.155392  0.003987
  10559.195  10559.200  0.500  6.299267  86.1682  0.158347  0.004127
  10559.500  10559.500  0.500  6.281371  86.2238  0.161310  0.004223
  10559.799  10559.800  0.500  6.264074  86.2697  0.164212  0.004244
  10560.104  10560.100  0.500  6.252472  86.3036  0.166194  0.004361
  10560.297  10560.300  0.500  6.243196  86.3144  0.167764  0.004464
  10561.313  10561.290  0.500  6.221126  86.3024  0.171484  0.004622
  10562.309  10562.290  0.500  6.217821  86.2848  0.172016  0.004728
  10563.325  10563.310  0.500  6.229891  86.263  0.169909  0.004704
  10564.379  10564.360  0.500  6.248748  86.2434  0.166697  0.004575
  10565.439  10565.420  0.500  6.263850  86.2198  0.164154  0.004380
  10566.509  10566.500  0.500  6.267461  86.1991  0.163523  0.004431
  10567.632  10567.600  0.500  6.260127  86.1778  0.164686  0.004264
  10568.746  10568.720  0.500  6.241281  86.1573  0.167779  0.004467
  10569.864  10569.860  0.500  6.216763  86.1308  0.171891  0.004469
  10571.037  10571.010  0.500  6.193407  86.1119  0.175914  0.004785
  10572.214  10572.190  0.500  6.171152  86.0821  0.179811  0.004619
  10573.392  10573.380  0.500  6.151132  86.0636  0.183407  0.004794
  10574.623  10574.600  0.500  6.127984  86.0358  0.187642  0.004859
  10575.840  10575.830  0.500  6.102005  86.0084  0.192519  0.004957
  10577.091  10577.080  0.500  6.074633  85.991  0.197822  0.005088
  10578.372  10578.350  0.500  6.044538  85.9612  0.203795  0.005132
  10579.648  10579.640  0.500  6.021451  85.9393  0.208501  0.005111
  10580.968  10580.950  0.500  6.010658  85.9142  0.210702  0.005055
  10582.308  10582.280  0.500  6.012802  85.8808  0.210169  0.004940
  10583.639  10583.630  0.500  6.026663  85.8491  0.207200  0.004626
  10585.013  10585.000  0.500  6.045760  85.8103  0.203189  0.004557
  10586.417  10586.380  0.500  6.067135  85.6192  0.198448  0.004139
  10587.798  10587.790  0.500  6.083196  85.686  0.195439  0.003993
  10589.227  10589.210  0.500  6.096819  85.7617  0.192965  0.003813
  10590.671  10590.650  0.500  6.106041  85.7289  0.191121  0.003857
  10592.120  10592.110  0.500  6.116974  85.6988  0.188976  0.003603
  10593.599  10593.590  0.500  6.125439  85.6737  0.187328  0.003734
  10595.108  10595.090  0.500  6.137465  85.6461  0.185029  0.003644
  10596.607  10596.610  0.500  6.148389  85.6157  0.182954  0.003769
  10598.161  10598.150  0.500  6.155871  85.5512  0.181453  0.003871
  10599.729  10599.710  0.500  6.161975  85.4658  0.180169  0.003929
  10601.283  10601.280  0.500  6.165451  85.5228  0.179664  0.003968
  10602.897  10602.880  0.500  6.164553  85.4948  0.179766  0.004132
  10604.506  10604.490  0.500  6.162119  85.4435  0.180096  0.004215
  10606.134  10606.130  0.500  6.157615  85.328  0.180665  0.004346
  10607.808  10607.780  0.500  6.153490  85.3844  0.181532  0.004384
  10609.472  10609.450  0.500  6.146714  85.3582  0.182709  0.004490
  10611.161  10611.140  0.500  6.138648  85.2788  0.184018  0.004593
  10612.870  10612.850  0.500  6.125806  85.2396  0.186311  0.004757
  10614.589  10614.580  0.500  6.112039  85.2541  0.188926  0.004771
  10616.339  10616.330  0.500  6.098706  85.2261  0.191398  0.004787
  10618.108  10618.090  0.500  6.082231  85.1624  0.194432  0.005125
  10619.878  10619.880  0.500  6.064694  84.9317  0.197336  0.005056
  10621.707  10621.680  0.500  6.045072  85.077  0.201591  0.005184
  10623.528  10623.510  0.500  6.024110  85.0955  0.205906  0.005227
  10625.363  10625.350  0.500  6.007431  85.0592  0.209280  0.005426
  10627.229  10627.210  0.500  6.000010  85.0215  0.210745  0.005400
  10629.095  10629.090  0.500  6.002436  84.9868  0.210149  0.005298
  10631.011  10630.990  0.500  6.014393  84.9475  0.207555  0.005243
  10632.937  10632.910  0.500  6.031156  84.915  0.204026  0.005176
  10634.860  10634.850  0.500  6.047221  84.8716  0.200672  0.005042
  10636.832  10636.810  0.500  6.057560  84.8335  0.198519  0.004886
  10638.795  10638.780  0.500  6.067321  84.7902  0.196490  0.004965
  10640.793  10640.780  0.500  6.072593  84.7385  0.195338  0.004860
  10642.811  10642.790  0.500  6.078076  84.3881  0.193467  0.005047
  10644.825  10644.820  0.500  6.081603  84.5686  0.193198  0.004746
  10646.899  10646.880  0.500  6.088225  84.6583  0.192126  0.004781
  10648.960  10648.950  0.500  6.089521  84.6188  0.191788  0.004661
  10651.045  10651.040  0.500  6.093096  84.5692  0.190992  0.004742
  10653.176  10653.150  0.500  6.099206  84.521  0.189720  0.004583
  10655.288  10655.280  0.500  6.111518  84.4736  0.187293  0.004381
  10657.435  10657.420  0.500  6.125379  84.4285  0.184617  0.004448
  10659.608  10659.590  0.500  6.139287  84.3701  0.181941  0.004264
  10661.781  10661.780  0.500  6.148957  84.096  0.179605  0.004203
  10664.000  10663.980  0.500  6.154525  84.2252  0.178882  0.004136
  10666.210  10666.200  0.500  6.156502  84.275  0.178634  0.004158
  10668.460  10668.450  0.500  6.150909  84.2314  0.179543  0.004007
  10670.732  10670.710  0.500  6.139833  84.1828  0.181438  0.004150
  10672.994  10672.990  0.500  6.118527  84.1263  0.185221  0.004261
  10675.306  10675.290  0.500  6.089941  84.0776  0.190481  0.004483
  10677.615  10677.610  0.500  6.053545  83.981  0.197315  0.004614
  10679.959  10679.950  0.500  6.019460  83.6392  0.203325  0.004755
  10682.315  10682.300  0.500  5.991798  83.956  0.209820  0.005103
  10684.696  10684.680  0.500  5.975638  83.913  0.213129  0.005136
  10687.093  10687.070  0.500  5.973547  83.8626  0.213447  0.005301
  10689.496  10689.490  0.500  5.977504  83.813  0.212478  0.005091
  10691.935  10691.920  0.500  5.988424  83.7572  0.210031  0.005333
  10694.380  10694.370  0.500  6.000570  83.709  0.207376  0.005090
  10696.871  10696.850  0.500  6.010825  83.6372  0.205084  0.005247
  10699.358  10699.340  0.500  6.016700  83.0594  0.202474  0.005114
  10701.851  10701.850  0.500  6.021207  83.5878  0.202846  0.005144
  10704.400  10704.370  0.500  6.026287  83.5367  0.201695  0.004998
  10706.925  10706.920  0.500  6.034748  83.4819  0.199864  0.005180
  10709.507  10709.490  0.500  6.040453  83.4323  0.198609  0.004977
  10712.079  10712.070  0.500  6.046120  83.3887  0.197383  0.004964
  10714.703  10714.680  0.500  6.047369  83.3344  0.197009  0.005047
  10717.318  10717.300  0.500  6.045580  83.2809  0.197235  0.005050
  10719.964  10719.950  0.500  6.046858  83.2287  0.196859  0.005080
  10722.627  10722.610  0.500  6.054961  83.1747  0.195144  0.004889
  10725.301  10725.290  0.500  6.066697  83.1203  0.192741  0.005031
  10727.996  10727.990  0.500  6.080224  83.0722  0.190041  0.004817
  10730.722  10730.710  0.500  6.091637  83.0149  0.187755  0.004842
  10733.455  10733.450  0.500  6.094361  82.9688  0.187140  0.004778
  10736.220  10736.200  0.500  6.089148  82.9083  0.187981  0.004811
  10738.995  10738.980  0.500  6.069380  82.8506  0.191601  0.004800
  10741.783  10741.770  0.500  6.043342  82.6582  0.196198  0.004988
  10744.612  10744.590  0.500  6.014175  82.7389  0.202203  0.005095
  10747.437  10747.420  0.500  5.987452  82.6794  0.207529  0.005241
  10750.279  10750.270  0.500  5.968239  82.6328  0.211436  0.005397
  10753.167  10753.150  0.500  5.959275  82.5733  0.213186  0.005418
  10756.057  10756.040  0.500  5.956167  82.516  0.213701  0.005298
  10758.964  10758.950  0.500  5.953535  82.4568  0.214111  0.005367
  10761.888  10761.870  0.500  5.945850  82.4038  0.215624  0.005560
  10764.828  10764.820  0.500  5.937325  82.3523  0.217334  0.005473
  10767.805  10767.790  0.500  5.927337  82.2884  0.219345  0.005564
  10770.773  10770.770  0.500  5.921510  82.2332  0.220479  0.005536
  10773.794  10773.780  0.500  5.924320  82.1729  0.219700  0.005556
  10776.796  10776.800  0.500  5.932499  82.1151  0.217757  0.005534
  10779.871  10779.850  0.500  5.950539  82.0549  0.213707  0.005478
  10782.922  10782.910  0.500  5.969529  81.9872  0.209514  0.005386
  10786.000  10785.990  0.500  5.987845  81.6525  0.204872  0.005189
  10789.080  10789.090  0.500  6.001988  81.87  0.202532  0.005290
  10792.227  10792.210  0.500  6.010086  82.0734  0.201398  0.005271
  10795.356  10795.350  0.500  6.013550  82.0115  0.200550  0.005316
  10798.527  10798.500  0.500  6.011340  81.9397  0.200818  0.005297
  10801.685  10801.680  0.500  6.005969  81.5983  0.201058  0.005325
  10804.901  10804.870  0.500  5.994769  81.8128  0.203857  0.005418
  10808.093  10808.090  0.500  5.981755  81.0258  0.204541  0.005557
  10811.323  10811.320  0.500  5.968339  81.7221  0.209085  0.005705
  10814.564  10814.570  0.500  5.955628  81.4649  0.211093  0.005841
  10817.854  10817.850  0.500  5.941727  81.598  0.214398  0.005817
  10821.140  10821.140  0.500  5.928352  81.5373  0.217123  0.005929
  10824.449  10824.450  0.500  5.912909  81.4724  0.220326  0.005802
  10827.826  10827.770  0.500  5.901979  81.3449  0.222399  0.006001
  10831.118  10831.120  0.500  5.895422  81.0084  0.222936  0.005947
  10834.586  10834.490  0.500  5.891300  81.2648  0.224566  0.006090
  10837.908  10837.870  0.500  5.888281  81.1906  0.225039  0.006035
  10841.279  10841.280  0.500  5.886092  81.1136  0.225318  0.006065
  10844.697  10844.700  0.500  5.882823  81.0482  0.225874  0.006128
  10848.158  10848.150  0.500  5.881823  80.6903  0.225101  0.006075
  10851.627  10851.610  0.500  5.882814  80.9142  0.225502  0.006175
  10855.103  10855.090  0.500  5.886341  80.5757  0.223768  0.006109
  10858.607  10858.590  0.500  5.892487  80.782  0.222967  0.006106
  10862.118  10862.110  0.500  5.901969  80.5086  0.220115  0.006082
  10865.667  10865.650  0.500  5.911499  80.6494  0.218409  0.006022
  10869.209  10869.200  0.500  5.920257  80.2863  0.215529  0.005875
  10872.799  10872.780  0.500  5.928024  80.5259  0.214500  0.005970
  10876.407  10876.380  0.500  5.930606  80.3561  0.213496  0.005841
  10880.007  10879.990  0.500  5.926536  80.3735  0.214413  0.005892
  10883.630  10883.620  0.500  5.914882  80.306  0.216744  0.006169
  10887.297  10887.280  0.500  5.897915  80.2395  0.220270  0.006020
  10890.940  10890.950  0.500  5.878394  80.1699  0.224418  0.006361
  10894.643  10894.640  0.500  5.860502  80.0929  0.228250  0.006332
  10898.358  10898.350  0.500  5.848201  80.0251  0.230879  0.006553
  10902.076  10902.080  0.500  5.838479  79.9535  0.232926  0.006670
  10905.828  10905.820  0.500  5.832070  79.8848  0.234222  0.006707
  10909.582  10909.590  0.500  5.826561  79.8142  0.235308  0.006644
  10913.370  10913.380  0.500  5.822464  79.7431  0.236064  0.006761
  10917.181  10917.180  0.500  5.822239  79.5952  0.235679  0.006855
  10921.011  10921.010  0.500  5.821383  79.5983  0.235890  0.006734
  10924.853  10924.850  0.500  5.818353  79.5232  0.236383  0.006839
  10928.719  10928.710  0.500  5.812271  79.4531  0.237615  0.006743
  10932.567  10932.590  0.500  5.807015  79.3752  0.238633  0.006915
  10936.501  10936.490  0.500  5.802635  79.2985  0.239449  0.006887
  10940.402  10940.410  0.500  5.801540  79.2378  0.239528  0.007151
  10944.347  10944.350  0.500  5.802416  79.1566  0.239073  0.006992
  10948.315  10948.310  0.500  5.803115  79.078  0.238668  0.006953
  10952.281  10952.280  0.500  5.803483  78.9528  0.238203  0.006885
  10956.282  10956.280  0.500  5.804978  78.9182  0.237743  0.007061
  10960.291  10960.290  0.500  5.809016  78.8399  0.236550  0.006887
  10964.349  10964.330  0.500  5.814643  78.7637  0.234995  0.006860
  10968.374  10968.380  0.500  5.819208  78.6882  0.233701  0.006862
  10972.465  10972.450  0.500  5.819591  78.6128  0.233387  0.006867
  10976.549  10976.540  0.500  5.817341  78.5234  0.233647  0.007128
  10980.661  10980.650  0.500  5.809843  78.3846  0.234989  0.007090
  10984.788  10984.780  0.500  5.793924  78.3703  0.238716  0.007259
  10988.933  10988.930  0.500  5.773639  78.3  0.243390  0.007348
  10993.092  10993.090  0.500  5.753381  78.2176  0.248109  0.007550
  10997.285  10997.280  0.500  5.738476  78.1401  0.251585  0.007670
  11001.487  11001.480  0.500  5.724442  78.0638  0.254892  0.007826
  11005.709  11005.710  0.500  5.713598  77.9758  0.257380  0.007777
  11009.970  11009.950  0.500  5.704527  77.9034  0.259485  0.008027
  11014.235  11014.210  0.500  5.696837  77.7981  0.261134  0.007953
  11018.503  11018.490  0.500  5.695010  77.7468  0.261440  0.008005
  11022.816  11022.790  0.500  5.695939  77.6658  0.260925  0.008056
  11027.112  11027.110  0.500  5.698953  77.5862  0.259872  0.008008
  11031.469  11031.450  0.500  5.702991  77.5063  0.258559  0.007997
  11035.815  11035.810  0.500  5.706927  77.4282  0.257284  0.007976
  11040.232  11040.190  0.500  5.709898  77.3435  0.256240  0.007941
  11044.579  11044.580  0.500  5.714634  77.249  0.254717  0.007982
  11049.030  11049.000  0.500  5.714423  77.1784  0.254539  0.008092
  11053.442  11053.430  0.500  5.715126  77.0984  0.254096  0.007907
  11057.905  11057.880  0.500  5.713105  77.0164  0.254339  0.008218
  11062.362  11062.350  0.500  5.709701  76.8955  0.254806  0.008065
  11066.870  11066.840  0.500  5.703881  76.8405  0.256110  0.008290
  11071.382  11071.350  0.500  5.696049  76.7778  0.257913  0.008257
  11075.898  11075.880  0.500  5.688367  76.6582  0.259497  0.008334
  11080.444  11080.430  0.500  5.680846  76.5787  0.261185  0.008390
  11085.015  11085.000  0.500  5.673482  76.5002  0.262845  0.008708
  11089.611  11089.580  0.500  5.665325  76.4002  0.264652  0.008615
  11094.211  11094.190  0.500  5.656076  76.331  0.266869  0.008696
  11098.842  11098.810  0.500  5.644171  76.1555  0.269444  0.008972
  11103.477  11103.460  0.500  5.631985  76.1612  0.272768  0.008919
  11108.158  11108.120  0.500  5.617777  76.0105  0.276124  0.009147
  11112.833  11112.800  0.500  5.606958  75.9207  0.278798  0.009241
  11117.539  11117.500  0.500  5.595485  75.8926  0.281911  0.009248
  11122.249  11122.220  0.500  5.589521  75.7983  0.283244  0.009437
  11126.989  11126.960  0.500  5.584030  75.7103  0.284473  0.009576
  11131.745  11131.710  0.500  5.582489  75.612  0.284542  0.009464
  11136.526  11136.490  0.500  5.582420  75.5453  0.284311  0.009726
  11141.317  11141.290  0.500  5.584238  75.4503  0.283437  0.009496
  11146.134  11146.100  0.500  5.585270  75.3684  0.282838  0.009678
  11150.960  11150.930  0.500  5.585288  75.2767  0.282488  0.009588
  11155.823  11155.790  0.500  5.584866  75.1803  0.282246  0.009664
  11160.695  11160.660  0.500  5.586455  75.1018  0.281503  0.009539
  11165.589  11165.550  0.500  5.586742  75.0067  0.281066  0.009670
  11170.475  11170.460  0.500  5.586025  74.9228  0.280953  0.009618
  11175.421  11175.390  0.500  5.583202  74.8258  0.281383  0.009856
  11180.349  11180.330  0.500  5.578495  74.721  0.282314  0.009789
  11185.336  11185.300  0.500  5.571039  74.6384  0.284113  0.009834
  11190.316  11190.290  0.500  5.561838  74.547  0.286388  0.009836
  11195.323  11195.290  0.500  5.551060  74.4489  0.289110  0.010151
  11200.340  11200.320  0.500  5.541878  74.3455  0.291372  0.010179
  11205.394  11205.360  0.500  5.535319  74.2493  0.292910  0.010394
  11210.463  11210.420  0.500  5.527175  74.1677  0.294980  0.010497
  11215.537  11215.500  0.500  5.520631  74.0682  0.296518  0.010649
  11220.616  11220.600  0.500  5.515138  73.9616  0.297723  0.010812
  11225.755  11225.720  0.500  5.505595  73.8515  0.300130  0.010629
  11230.887  11230.860  0.500  5.494883  73.7527  0.302957  0.011056
  11236.062  11236.020  0.500  5.478487  73.6111  0.307374  0.011161
  11241.226  11241.200  0.500  5.463962  71.9223  0.304716  0.010999
  11246.422  11246.390  0.500  5.453308  73.5886  0.315115  0.011609
  11251.634  11251.610  0.500  5.446732  73.4396  0.316552  0.011781
  11256.862  11256.840  0.500  5.443139  73.3263  0.317201  0.011830
  11262.111  11262.090  0.500  5.442189  73.2248  0.317063  0.011726
  11267.388  11267.360  0.500  5.442906  73.1205  0.316384  0.011852
  11272.691  11272.650  0.500  5.445123  73.005  0.315185  0.011777
  11277.983  11277.960  0.500  5.448818  72.9054  0.313594  0.011817
  11283.313  11283.290  0.500  5.452746  72.7813  0.311833  0.011660
  11288.659  11288.640  0.500  5.456745  72.6647  0.310091  0.011768
  11294.039  11294.010  0.500  5.456805  72.5279  0.309489  0.011681
  11299.412  11299.390  0.500  5.453563  71.3179  0.305313  0.011514
  11304.841  11304.800  0.500  5.444414  72.4374  0.312956  0.011846
  11310.247  11310.220  0.500  5.434542  72.2779  0.315365  0.012103
  11315.708  11315.670  0.500  5.422931  72.1337  0.318412  0.012284
  11321.158  11321.130  0.500  5.411613  71.7721  0.320422  0.012423
  11326.641  11326.610  0.500  5.400680  71.9964  0.324957  0.012684
  11332.136  11332.110  0.500  5.390525  71.8544  0.327626  0.012784
  11337.652  11337.630  0.500  5.381162  71.6419  0.329730  0.012969
  11343.202  11343.170  0.500  5.372924  71.5764  0.332153  0.012903
  11348.752  11348.720  0.500  5.366197  71.2475  0.332859  0.013032
  11354.329  11354.300  0.500  5.359734  70.73  0.332583  0.013007
  11359.912  11359.900  0.500  5.351438  63.7122  0.302080  0.012011
  11365.541  11365.510  0.500  5.342576  71.637  0.342678  0.013728
  11371.169  11371.150  0.500  5.334397  71.1633  0.343208  0.013809
  11376.836  11376.800  0.500  5.326473  69.6283  0.338476  0.013638
  11382.487  11382.470  0.500  5.318896  71.1478  0.348493  0.013992
  11388.189  11388.160  0.500  5.311365  70.7007  0.348921  0.014287