File: xdidata/Re/Re-L1-AmmoniumPerrhenate.xdi
# XDI/1.0 BlueSky/1.10.0 BMM/2023-1.0-py310-tiled
# Beamline.name: BMM (06BM) -- Beamline for Materials Measurement (NIST)
# Beamline.xray_source: NSLS-II three-pole wiggler
# Beamline.collimation: paraboloid mirror, 5 nm Rh on 30 nm Pt
# Beamline.focusing: not in use
# Beamline.harmonic_rejection: flat mirror, Pt stripe, pitch = 7.0 mrad relative to beam
# Beamline.software: Bluesky 1.10.0, Ophyd 1.7.0, DataBroker 2.0.0b13, Python 3.10.8, 2023-1.0-py310-tiled
# Detector.I0: 10 cm N2
# Detector.I1: 25 cm N2
# Detector.I2: 25 cm N2
# Element.symbol: Re
# Element.edge: L1
# Element.reference: Re
# Element.reference_material: ReO2
# Facility.name: NSLS-II
# Facility.energy: 3.0
# Facility.current: 399.3
# Facility.mode: top-off
# Facility.GUP: 301027
# Facility.SAF: 310583
# Facility.cycle: 2023-2
# Mono.name: Si(111)
# Mono.d_spacing: 3.13519
# Mono.encoder_resolution: 0.0000050 deg/ct
# Mono.angle_offset: 16.0754 deg
# Mono.scan_mode: pseudo channel cut
# Mono.scan_type: step
# Mono.direction: forward in energy
# Sample.name: NH4ReO4, Ammonium perrhenate
# Sample.prep: powder on tape
# Sample.x: 145.711 mm
# Sample.y: 114.376 mm
# Sample.SDD_position: 205.000 mm
# Scan.experimenters: Bruce Ravel
# Scan.edge_energy: 12526.7
# Scan.start_time: 2023-06-27T18:43:03
# Scan.end_time: 2023-06-27T18:50:43
# Scan.transient_id: 85234
# Scan.uid: 8e855c53-5529-4d10-b8fa-0d70eacc2ec4
# Scan.plot_hint: ln(I0/It)  --  ln($5/$6)
# Column.1: energy eV
# Column.2: requested_energy eV
# Column.3: measurement_time seconds
# Column.4: xmu
# Column.5: I0 nA
# Column.6: It nA
# Column.7: Ir nA
# ///////////
# Welcome to BMM
# -----------
# energy  requested_energy  measurement_time  xmu  I0  It  Ir
  12326.685  12326.700  0.500  3.129444  55.1757  2.413501  0.081440
  12336.728  12336.700  0.500  3.121049  55.1251  2.431615  0.082618
  12346.741  12346.700  0.500  3.113161  55.047  2.447401  0.083869
  12356.764  12356.700  0.500  3.105479  54.8603  2.457911  0.084726
  12366.690  12366.700  0.500  3.099438  54.9825  2.478310  0.085806
  12376.719  12376.700  0.500  3.093500  54.875  2.488195  0.086501
  12386.751  12386.700  0.500  3.088782  54.7586  2.494661  0.087422
  12396.793  12396.700  0.500  3.083950  54.6653  2.502474  0.088289
  12406.684  12406.700  0.500  3.079366  54.4934  2.506063  0.089076
  12416.739  12416.700  0.500  3.074143  55.0063  2.542899  0.090750
  12426.729  12426.700  0.500  3.069147  54.9218  2.551711  0.091571
  12436.716  12436.700  0.500  3.063783  54.4661  2.544146  0.091319
  12446.698  12446.700  0.500  3.058327  54.6933  2.568737  0.092830
  12456.697  12456.700  0.500  3.052197  54.5724  2.578818  0.093419
  12466.705  12466.700  0.500  3.046108  54.45  2.588750  0.094441
  12476.716  12476.700  0.500  3.040081  54.3152  2.597954  0.095291
  12486.710  12486.700  0.500  3.034450  53.8693  2.591171  0.095598
  12496.713  12496.700  0.500  3.029199  54.1015  2.616043  0.097316
  12498.666  12498.700  0.500  3.028341  54.0727  2.616897  0.097331
  12500.661  12500.700  0.500  3.027499  54.0502  2.618010  0.097323
  12502.657  12502.700  0.500  3.026767  54.0144  2.618190  0.097483
  12504.660  12504.700  0.500  3.025948  53.9885  2.619079  0.097401
  12506.643  12506.700  0.500  3.025878  53.9685  2.618293  0.097514
  12508.641  12508.700  0.500  3.025604  53.9468  2.617958  0.097601
  12510.652  12510.700  0.500  3.025208  53.9214  2.617762  0.097567
  12512.651  12512.700  0.500  3.025211  53.8833  2.615904  0.097293
  12514.664  12514.700  0.500  3.025700  53.8643  2.613704  0.097300
  12516.665  12516.700  0.500  3.026701  53.8433  2.610068  0.097115
  12516.944  12517.000  0.500  3.026448  53.8369  2.610419  0.096947
  12517.245  12517.300  0.500  3.026566  53.8344  2.609994  0.096954
  12517.539  12517.600  0.500  3.027028  53.8257  2.608364  0.097092
  12517.846  12517.900  0.500  3.027476  53.8212  2.606979  0.096742
  12518.146  12518.200  0.500  3.027564  53.8154  2.606469  0.096697
  12518.454  12518.500  0.500  3.027667  53.8115  2.606011  0.096659
  12518.740  12518.800  0.500  3.027944  53.8071  2.605075  0.096725
  12519.048  12519.100  0.500  3.028474  53.806  2.603644  0.096656
  12519.369  12519.400  0.500  3.028682  53.7969  2.602662  0.096567
  12519.656  12519.700  0.500  3.028835  53.7905  2.601953  0.096357
  12519.949  12520.000  0.500  3.029387  53.7907  2.600526  0.096447
  12520.250  12520.300  0.500  3.029939  53.7801  2.598579  0.096308
  12520.564  12520.600  0.500  3.030502  53.7785  2.597040  0.096459
  12520.844  12520.900  0.500  3.030600  53.7718  2.596460  0.096205
  12521.159  12521.200  0.500  3.030932  53.7664  2.595340  0.096074
  12521.480  12521.500  0.500  3.031565  53.7714  2.593940  0.095959
  12521.774  12521.800  0.500  3.032211  53.7627  2.591842  0.095771
  12522.067  12522.100  0.500  3.032895  53.7503  2.589473  0.095724
  12522.368  12522.400  0.500  3.033335  53.7486  2.588250  0.095616
  12522.676  12522.700  0.500  3.034195  53.744  2.585805  0.095573
  12522.970  12523.000  0.500  3.034831  53.745  2.584206  0.095343
  12523.284  12523.300  0.500  3.035642  53.7346  2.581613  0.095161
  12523.585  12523.600  0.500  3.036498  53.7331  2.579335  0.094859
  12523.892  12523.900  0.500  3.037378  53.7229  2.576578  0.094758
  12524.186  12524.200  0.500  3.038160  53.7216  2.574501  0.094807
  12524.487  12524.500  0.500  3.039277  53.7176  2.571433  0.094561
  12524.788  12524.800  0.500  3.040256  53.7175  2.568912  0.094262
  12525.089  12525.100  0.500  3.041716  53.7122  2.564912  0.094062
  12525.389  12525.400  0.500  3.042829  53.7047  2.561700  0.093921
  12525.697  12525.700  0.500  3.044421  53.6971  2.557267  0.093619
  12526.005  12526.000  0.500  3.046085  53.6899  2.552672  0.093385
  12526.292  12526.300  0.500  3.047448  53.6867  2.549039  0.093114
  12526.586  12526.600  0.500  3.049677  53.6888  2.543465  0.092913
  12526.894  12526.900  0.500  3.051219  53.6751  2.538900  0.092543
  12527.188  12527.200  0.500  3.053439  53.6782  2.533413  0.092043
  12527.482  12527.500  0.500  3.055763  53.6664  2.526978  0.091804
  12527.810  12527.800  0.500  3.058408  53.6707  2.520507  0.091282
  12528.098  12528.100  0.500  3.060917  53.6548  2.513445  0.090832
  12528.392  12528.400  0.500  3.063991  53.6517  2.505585  0.090383
  12528.700  12528.700  0.500  3.067122  53.6484  2.497598  0.089760
  12528.980  12529.000  0.500  3.070710  53.6361  2.488082  0.089346
  12529.288  12529.300  0.500  3.074330  53.6276  2.478701  0.088648
  12529.589  12529.600  0.500  3.078924  53.63  2.467447  0.088055
  12529.883  12529.900  0.500  3.083313  53.6349  2.456867  0.087231
  12530.177  12530.200  0.500  3.088586  53.6246  2.443477  0.086673
  12530.478  12530.500  0.500  3.094636  53.6268  2.428836  0.085554
  12530.786  12530.800  0.500  3.100608  53.609  2.413574  0.084882
  12531.060  12531.100  0.500  3.107323  53.6054  2.397262  0.083913
  12531.382  12531.400  0.500  3.115407  53.5982  2.377641  0.082968
  12531.697  12531.700  0.500  3.124514  53.5942  2.355909  0.081719
  12531.970  12532.000  0.500  3.133133  53.5943  2.335694  0.080816
  12532.285  12532.300  0.500  3.143732  53.5793  2.310425  0.079397
  12532.593  12532.600  0.500  3.155222  53.5795  2.284036  0.078395
  12532.888  12532.900  0.500  3.166075  53.5754  2.259209  0.076839
  12533.196  12533.200  0.500  3.178833  53.5625  2.230034  0.075834
  12533.497  12533.500  0.500  3.191100  53.56  2.202740  0.074377
  12533.784  12533.800  0.500  3.203256  53.5567  2.175990  0.073236
  12534.099  12534.100  0.500  3.216538  53.5512  2.147062  0.071847
  12534.401  12534.400  0.500  3.227809  53.5461  2.122797  0.070786
  12534.688  12534.700  0.500  3.238098  53.5416  2.100889  0.069816
  12535.010  12535.000  0.500  3.247176  53.5458  2.082068  0.068922
  12535.298  12535.300  0.500  3.254531  53.53  2.066201  0.067963
  12535.599  12535.600  0.500  3.259354  53.5283  2.056194  0.067615
  12535.907  12535.900  0.500  3.262086  53.5227  2.050371  0.067043
  12536.202  12536.200  0.500  3.261890  53.5187  2.050618  0.066835
  12536.489  12536.500  0.500  3.260042  53.5145  2.054250  0.066781
  12536.811  12536.800  0.500  3.255833  53.5098  2.062732  0.066885
  12537.099  12537.100  0.500  3.250247  53.498  2.073831  0.066817
  12537.393  12537.400  0.500  3.243135  53.4956  2.088537  0.067273
  12537.709  12537.700  0.500  3.235455  53.4964  2.104672  0.067620
  12537.996  12538.000  0.500  3.227313  53.483  2.121346  0.067915
  12538.291  12538.300  0.500  3.219091  53.4793  2.138710  0.068008
  12538.606  12538.600  0.500  3.211295  53.4718  2.155148  0.068423
  12538.901  12538.900  0.500  3.203752  53.4565  2.170843  0.068329
  12539.202  12539.200  0.500  3.197750  53.4387  2.183186  0.068474
  12539.490  12539.500  0.500  3.191930  53.4184  2.195096  0.068346
  12539.785  12539.800  0.500  3.186945  53.3611  2.203700  0.068353
  12540.073  12540.100  0.500  3.183106  53.2832  2.208943  0.068286
  12540.395  12540.400  0.500  3.179827  53.1696  2.211474  0.067766
  12540.683  12540.700  0.500  3.177472  53.0782  2.212879  0.067295
  12540.998  12541.000  0.500  3.176585  53.0084  2.211929  0.066939
  12541.293  12541.300  0.500  3.175884  52.992  2.212798  0.066338
  12541.587  12541.600  0.500  3.175826  53.0354  2.214738  0.066168
  12541.889  12541.900  0.500  3.176314  53.117  2.217060  0.065499
  12542.211  12542.200  0.500  3.177318  53.2068  2.218583  0.065256
  12542.492  12542.500  0.500  3.179061  53.2815  2.217826  0.064679
  12542.787  12542.800  0.500  3.181089  53.3444  2.215947  0.064116
  12543.096  12543.100  0.500  3.183301  53.3942  2.213117  0.063160
  12543.397  12543.400  0.500  3.186276  53.4067  2.207058  0.062847
  12543.699  12543.700  0.500  3.189695  53.4166  2.199934  0.062102
  12544.001  12544.000  0.500  3.193439  53.4208  2.191883  0.061308
  12544.296  12544.300  0.500  3.196765  53.4127  2.184272  0.060672
  12544.598  12544.600  0.500  3.201486  53.4155  2.174100  0.060123
  12544.906  12544.900  0.500  3.206830  53.3984  2.161821  0.059083
  12545.201  12545.200  0.500  3.211282  53.3958  2.152113  0.058369
  12545.517  12545.500  0.500  3.217239  53.3935  2.139238  0.057619
  12545.812  12545.800  0.500  3.222950  53.4019  2.127392  0.056892
  12546.100  12546.100  0.500  3.229124  53.3841  2.113593  0.056136
  12546.402  12546.400  0.500  3.235427  53.3773  2.100047  0.055471
  12546.703  12546.700  0.500  3.241643  53.3793  2.087109  0.054770
  12547.005  12547.000  0.500  3.248459  53.3663  2.072425  0.054120
  12547.314  12547.300  0.500  3.255118  53.3649  2.058620  0.053318
  12547.609  12547.600  0.500  3.261660  53.3647  2.045188  0.052791
  12547.884  12547.900  0.500  3.268130  53.3741  2.032356  0.052026
  12548.199  12548.200  0.500  3.275292  53.3524  2.017031  0.051495
  12548.494  12548.500  0.500  3.281548  53.349  2.004323  0.050777
  12548.803  12548.800  0.500  3.287295  53.3415  1.992557  0.050616
  12549.105  12549.100  0.500  3.293511  53.3381  1.980085  0.049847
  12549.387  12549.400  0.500  3.299224  53.3443  1.969034  0.049374
  12549.675  12549.700  0.500  3.305031  53.3308  1.957137  0.048727
  12549.991  12550.000  0.500  3.310455  53.3319  1.946591  0.048229
  12550.279  12550.300  0.500  3.315628  53.3253  1.936308  0.047745
  12550.588  12550.600  0.500  3.320342  53.3209  1.927044  0.047420
  12550.904  12550.900  0.500  3.326166  53.3145  1.915621  0.047197
  12551.185  12551.200  0.500  3.330760  53.3133  1.906798  0.046613
  12551.487  12551.500  0.500  3.336139  53.3057  1.896300  0.046187
  12551.693  12551.700  0.500  3.339445  53.3035  1.889964  0.046094
  12552.716  12552.690  0.500  3.356412  53.2838  1.857481  0.044833
  12553.692  12553.690  0.500  3.371993  53.2759  1.828491  0.043953
  12554.729  12554.710  0.500  3.388113  53.263  1.798816  0.043208
  12555.801  12555.760  0.500  3.402217  53.246  1.773058  0.042766
  12556.838  12556.820  0.500  3.413122  53.2302  1.753307  0.042425
  12557.910  12557.900  0.500  3.421650  53.2175  1.738002  0.042225
  12559.003  12559.000  0.500  3.426747  53.2018  1.728659  0.042169
  12560.131  12560.120  0.500  3.428825  53.1866  1.724577  0.042297
  12561.272  12561.260  0.500  3.427858  53.1703  1.725715  0.042234
  12562.428  12562.410  0.500  3.425808  53.1546  1.728747  0.042419
  12563.604  12563.590  0.500  3.423496  53.1481  1.732536  0.042476
  12564.808  12564.780  0.500  3.422887  53.1304  1.733016  0.042500
  12566.033  12566.000  0.500  3.424340  53.1147  1.729987  0.042732
  12567.237  12567.230  0.500  3.427661  53.0994  1.723754  0.042846
  12568.483  12568.480  0.500  3.433233  53.0787  1.713507  0.043171
  12569.743  12569.750  0.500  3.439551  53.0625  1.702196  0.043309
  12571.059  12571.040  0.500  3.445923  53.0471  1.690895  0.043447
  12572.361  12572.350  0.500  3.452152  53.0295  1.679835  0.043712
  12573.704  12573.680  0.500  3.456209  53.0144  1.672558  0.043813
  12575.041  12575.030  0.500  3.458435  52.9993  1.668366  0.044118
  12576.413  12576.400  0.500  3.458417  52.9696  1.667460  0.044318
  12577.792  12577.780  0.500  3.457029  52.9451  1.669003  0.044537
  12579.171  12579.190  0.500  3.454640  52.9349  1.672673  0.044897
  12580.626  12580.610  0.500  3.451473  52.9254  1.677678  0.045165
  12582.068  12582.050  0.500  3.447299  52.9028  1.683975  0.045424
  12583.524  12583.510  0.500  3.441152  52.8971  1.694177  0.045874
  12585.008  12584.990  0.500  3.433830  53.0573  1.711794  0.046432
  12586.514  12586.490  0.500  3.424286  53.0383  1.727592  0.046851
  12587.998  12588.010  0.500  3.414756  53.0151  1.743373  0.047460
  12589.552  12589.550  0.500  3.404188  52.9977  1.761313  0.048110
  12591.128  12591.110  0.500  3.394722  52.9824  1.777553  0.048385
  12592.703  12592.680  0.500  3.386529  52.9641  1.791556  0.048900
  12594.293  12594.280  0.500  3.378543  52.9423  1.805178  0.049191
  12595.898  12595.890  0.500  3.371971  52.9213  1.816361  0.049568
  12597.530  12597.530  0.500  3.366579  52.9047  1.825609  0.049926
  12599.183  12599.180  0.500  3.361346  52.8851  1.834507  0.050198
  12600.879  12600.850  0.500  3.355922  52.8568  1.843497  0.050423
  12602.567  12602.540  0.500  3.351273  52.8305  1.851165  0.050573
  12604.278  12604.250  0.500  3.346884  52.823  1.859042  0.050749
  12606.002  12605.980  0.500  3.342866  52.8021  1.865790  0.050653
  12607.741  12607.730  0.500  3.339545  52.7828  1.871314  0.050618
  12609.494  12609.490  0.500  3.336641  52.7624  1.876029  0.050681
  12611.310  12611.280  0.500  3.334316  52.7356  1.879442  0.050609
  12613.092  12613.080  0.500  3.332417  52.7103  1.882113  0.050600
  12614.923  12614.910  0.500  3.330736  52.6978  1.884829  0.050450
  12616.748  12616.750  0.500  3.329239  52.6677  1.886578  0.050430
  12618.614  12618.610  0.500  3.328706  52.6456  1.886788  0.050379
  12620.496  12620.490  0.500  3.328170  52.6118  1.886588  0.050415
  12622.405  12622.390  0.500  3.327942  52.5351  1.884266  0.050239
  12624.322  12624.310  0.500  3.327926  52.5501  1.884838  0.050336
  12626.240  12626.250  0.500  3.328758  52.5461  1.883123  0.050516
  12628.200  12628.210  0.500  3.329342  52.4704  1.879316  0.050397
  12630.195  12630.180  0.500  3.329900  52.4951  1.879149  0.050679
  12632.198  12632.180  0.500  3.330378  52.4737  1.877485  0.050823
  12634.209  12634.190  0.500  3.330678  52.4093  1.874621  0.050637
  12636.227  12636.220  0.500  3.331848  52.407  1.872348  0.050707
  12638.280  12638.280  0.500  3.333475  52.4079  1.869334  0.051003
  12640.370  12640.350  0.500  3.334483  52.3816  1.866513  0.050870
  12642.459  12642.440  0.500  3.336345  52.2853  1.859616  0.050710
  12644.571  12644.550  0.500  3.337944  52.3341  1.858376  0.050739
  12646.669  12646.680  0.500  3.339708  52.3085  1.854196  0.050815
  12648.824  12648.820  0.500  3.341333  52.2714  1.849872  0.050849
  12651.000  12650.990  0.500  3.342527  52.2512  1.846951  0.050883
  12653.198  12653.180  0.500  3.343785  52.2367  1.844116  0.050981
  12655.390  12655.380  0.500  3.344541  52.2079  1.841705  0.050949
  12657.597  12657.600  0.500  3.344483  52.1819  1.840896  0.051282
  12659.867  12659.850  0.500  3.344919  52.1524  1.839054  0.051372
  12662.131  12662.110  0.500  3.344182  52.123  1.839370  0.051303
  12664.396  12664.390  0.500  3.343606  52.0985  1.839566  0.051522
  12666.703  12666.690  0.500  3.343075  52.0698  1.839530  0.051812
  12669.019  12669.010  0.500  3.341671  52.0395  1.841044  0.052005
  12671.377  12671.350  0.500  3.340470  52.0134  1.842331  0.051909
  12673.716  12673.700  0.500  3.338248  51.9816  1.845301  0.052189
  12676.069  12676.080  0.500  3.336559  51.9552  1.847481  0.052465
  12678.493  12678.470  0.500  3.333666  51.9326  1.852027  0.052640
  12680.918  12680.890  0.500  3.330882  51.8959  1.855877  0.052740
  12683.330  12683.320  0.500  3.328204  51.8669  1.859813  0.052987
  12685.778  12685.770  0.500  3.324889  51.8369  1.864910  0.052906
  12688.262  12688.250  0.500  3.321273  51.8103  1.870707  0.053147
  12690.761  12690.740  0.500  3.317932  51.7795  1.875850  0.053253
  12693.275  12693.250  0.500  3.314715  51.7408  1.880487  0.053470
  12695.783  12695.770  0.500  3.310752  51.7157  1.887040  0.053823
  12698.328  12698.320  0.500  3.307617  51.6901  1.892029  0.053887
  12700.915  12700.890  0.500  3.303939  51.6542  1.897682  0.054046
  12703.489  12703.470  0.500  3.300709  51.6217  1.902623  0.054141
  12706.072  12706.080  0.500  3.297379  51.5887  1.907748  0.054247
  12708.712  12708.700  0.500  3.294322  51.556  1.912375  0.054571
  12711.374  12711.350  0.500  3.291180  51.5304  1.917441  0.054765
  12714.030  12714.010  0.500  3.288146  51.4928  1.921865  0.054896
  12716.702  12716.690  0.500  3.285404  51.4699  1.926285  0.055336
  12719.424  12719.390  0.500  3.282620  51.4346  1.930329  0.055542
  12722.133  12722.110  0.500  3.279977  51.3963  1.933995  0.055823
  12724.879  12724.850  0.500  3.277203  51.3661  1.938232  0.055957
  12727.597  12727.600  0.500  3.274674  51.3263  1.941631  0.056121
  12730.409  12730.380  0.500  3.272339  51.2927  1.944896  0.056423
  12733.200  12733.170  0.500  3.270111  51.2518  1.947681  0.056582
  12736.000  12735.990  0.500  3.268142  51.173  1.948519  0.056687
  12738.822  12738.820  0.500  3.266330  50.5053  1.926583  0.056206
  12741.703  12741.670  0.500  3.264280  51.1693  1.955919  0.057178
  12744.577  12744.550  0.500  3.262355  51.1398  1.958559  0.057230
  12747.446  12747.440  0.500  3.260580  51.1071  1.960780  0.057666
  12750.358  12750.350  0.500  3.258979  51.071  1.962535  0.057796
  12753.287  12753.270  0.500  3.257912  51.0384  1.963376  0.058127
  12756.237  12756.220  0.500  3.256351  51.0026  1.965064  0.058372
  12759.196  12759.190  0.500  3.255048  50.9692  1.966339  0.058614
  12762.207  12762.170  0.500  3.254054  50.9312  1.966825  0.058542
  12765.226  12765.180  0.500  3.252578  50.8939  1.968289  0.058725
  12768.218  12768.200  0.500  3.251051  50.8599  1.969980  0.058906
  12771.282  12771.250  0.500  3.250253  50.8249  1.970197  0.059145
  12774.341  12774.310  0.500  3.249207  50.7833  1.970645  0.059502
  12777.422  12777.390  0.500  3.248219  50.7457  1.971134  0.059430
  12780.513  12780.490  0.500  3.246581  50.7136  1.973112  0.059658
  12783.640  12783.610  0.500  3.245167  50.6761  1.974444  0.059668
  12786.783  12786.750  0.500  3.243810  50.6398  1.975712  0.059833
  12789.907  12789.900  0.500  3.242046  50.5998  1.977637  0.060023
  12793.110  12793.080  0.500  3.240272  50.5618  1.979659  0.060103
  12796.322  12796.270  0.500  3.238687  50.523  1.981276  0.060316
  12799.514  12799.490  0.500  3.236551  50.4839  1.983976  0.060487
  12802.744  12802.720  0.500  3.234811  50.4473  1.985990  0.060626
  12806.004  12805.970  0.500  3.232560  50.413  1.989115  0.060723
  12809.280  12809.250  0.500  3.230467  50.3738  1.991732  0.061007
  12812.543  12812.540  0.500  3.228056  50.334  1.994960  0.061032
  12815.880  12815.850  0.500  3.225959  50.2918  1.997473  0.061483
  12819.204  12819.170  0.500  3.223057  50.2531  2.001738  0.061568
  12822.530  12822.520  0.500  3.220736  50.215  2.004866  0.061964
  12825.929  12825.890  0.500  3.218174  50.1706  2.008234  0.062045
  12829.309  12829.270  0.500  3.215470  50.1348  2.012235  0.062552
  12832.690  12832.680  0.500  3.212911  50.1008  2.016021  0.062738
  12836.117  12836.100  0.500  3.210085  50.0453  2.019485  0.062879
  12839.588  12839.550  0.500  3.207088  50.0131  2.024244  0.063224
  12843.040  12843.010  0.500  3.204326  49.9663  2.027944  0.063574
  12846.515  12846.490  0.500  3.201635  49.9285  2.031872  0.063832
  12850.042  12849.990  0.500  3.198937  49.8835  2.035522  0.063990
  12853.521  12853.510  0.500  3.196271  49.8287  2.038717  0.064158
  12857.081  12857.050  0.500  3.193296  49.8047  2.043804  0.064662
  12860.651  12860.600  0.500  3.190669  49.7729  2.047871  0.064661
  12864.186  12864.180  0.500  3.187930  49.7248  2.051506  0.064868
  12867.795  12867.780  0.500  3.185278  49.6837  2.055255  0.065340
  12871.428  12871.390  0.500  3.182322  49.6369  2.059395  0.065650
  12875.035  12875.020  0.500  3.179652  49.5353  2.060673  0.065806
  12878.715  12878.680  0.500  3.177484  49.4227  2.060455  0.065947
  12882.391  12882.350  0.500  3.174344  49.5137  2.070739  0.066376
  12886.069  12886.040  0.500  3.171648  49.4715  2.074559  0.066700
  12889.770  12889.750  0.500  3.169194  49.4228  2.077609  0.066851
  12893.525  12893.480  0.500  3.166855  49.3804  2.080688  0.067481
  12897.245  12897.220  0.500  3.164221  49.3324  2.084149  0.067368
  12901.048  12900.990  0.500  3.161927  49.236  2.084852  0.067863
  12904.831  12904.780  0.500  3.159515  49.2437  2.090213  0.068177
  12908.616  12908.580  0.500  3.157111  49.1957  2.093204  0.068504
  12912.447  12912.410  0.500  3.154924  49.1379  2.095320  0.068733
  12916.309  12916.250  0.500  3.151887  48.6544  2.081012  0.068245
  12920.152  12920.110  0.500  3.150201  49.0779  2.102670  0.069373
  12924.034  12923.990  0.500  3.147973  49.0216  2.104941  0.069463
  12927.940  12927.890  0.500  3.145577  48.8992  2.104723  0.069583
  12931.899  12931.810  0.500  3.143004  48.919  2.111001  0.070001
  12935.715  12935.750  0.500  3.140966  48.8879  2.113961  0.070065
  12939.709  12939.710  0.500  3.138438  48.7847  2.114838  0.070398
  12943.675  12943.680  0.500  3.136163  48.762  2.118669  0.070736
  12947.688  12947.680  0.500  3.133790  48.7181  2.121792  0.071097
  12951.711  12951.690  0.500  3.131198  48.6635  2.124915  0.071451
  12955.744  12955.730  0.500  3.129127  48.2553  2.111457  0.071249
  12959.801  12959.780  0.500  3.126364  48.6213  2.133356  0.072124
  12963.883  12963.850  0.500  3.123246  48.5656  2.137571  0.072532
  12967.967  12967.940  0.500  3.120773  48.526  2.141115  0.072554
  12972.084  12972.050  0.500  3.118283  48.4722  2.144071  0.073144
  12976.195  12976.180  0.500  3.115720  48.3863  2.145765  0.073251
  12980.361  12980.330  0.500  3.112796  48.3795  2.151749  0.073403
  12984.522  12984.490  0.500  3.109809  48.3323  2.156080  0.073691
  12988.701  12988.680  0.500  3.106897  48.2818  2.160104  0.074036
  12992.897  12992.880  0.500  3.104142  48.1657  2.160857  0.074334
  12997.139  12997.110  0.500  3.101264  48.191  2.168222  0.074720
  13001.378  13001.350  0.500  3.098503  48.1459  2.172183  0.075143
  13005.634  13005.610  0.500  3.094812  48.0938  2.177856  0.075302
  13009.922  13009.890  0.500  3.092313  48.0452  2.181099  0.075742
  13014.206  13014.190  0.500  3.088947  47.9969  2.186254  0.076172
  13018.529  13018.510  0.500  3.086110  47.9485  2.190253  0.076533
  13022.885  13022.850  0.500  3.082867  47.8979  2.195048  0.077062
  13027.252  13027.210  0.500  3.079717  47.8462  2.199598  0.077355
  13031.614  13031.590  0.500  3.076689  47.7934  2.203832  0.077503
  13036.001  13035.980  0.500  3.073634  47.744  2.208290  0.078099
  13040.435  13040.400  0.500  3.070853  47.6897  2.211925  0.078471
  13044.858  13044.830  0.500  3.067817  47.6396  2.216319  0.079114
  13049.306  13049.280  0.500  3.064617  47.5475  2.219122  0.079135
  13053.780  13053.750  0.500  3.061388  47.5355  2.225736  0.079558
  13058.286  13058.240  0.500  3.058707  47.4864  2.229407  0.080043
  13062.781  13062.750  0.500  3.055670  47.4314  2.233603  0.080413
  13067.316  13067.280  0.500  3.053006  47.3862  2.237423  0.080763
  13071.862  13071.830  0.500  3.049599  47.3131  2.241595  0.081039
  13076.441  13076.400  0.500  3.046899  47.2713  2.245670  0.081406
  13081.023  13080.980  0.500  3.043612  47.2236  2.250792  0.081816
  13085.623  13085.590  0.500  3.041266  47.173  2.253663  0.082275
  13090.249  13090.210  0.500  3.038298  47.1193  2.257787  0.082592
  13094.900  13094.860  0.500  3.035369  46.9925  2.258318  0.082663
  13099.555  13099.520  0.500  3.032703  47.0105  2.265213  0.083384
  13104.228  13104.200  0.500  3.029943  46.9447  2.268293  0.083817
  13108.950  13108.900  0.500  3.026755  46.8885  2.272812  0.084307
  13113.645  13113.620  0.500  3.024005  46.8605  2.277708  0.084409
  13118.389  13118.360  0.500  3.021116  46.7445  2.278642  0.084572
  13123.181  13123.110  0.500  3.018525  46.7457  2.284612  0.085111
  13127.909  13127.890  0.500  3.015288  46.7648  2.292957  0.085791
  13132.731  13132.690  0.500  3.012546  46.7532  2.298686  0.086063
  13137.541  13137.500  0.500  3.009917  46.7077  2.302493  0.086687
  13142.362  13142.330  0.500  3.006491  46.6549  2.307780  0.087092
  13147.240  13147.190  0.500  3.004062  46.5961  2.310480  0.087446
  13152.114  13152.060  0.500  3.000657  46.5404  2.315589  0.087908
  13156.969  13156.950  0.500  2.997729  46.4868  2.319705  0.088196
  13161.910  13161.860  0.500  2.994661  46.4301  2.323993  0.088772
  13166.810  13166.790  0.500  2.991576  46.3683  2.328072  0.089074
  13171.759  13171.730  0.500  2.988583  46.298  2.331512  0.089472
  13176.742  13176.700  0.500  2.985122  46.2617  2.337757  0.089963
  13181.737  13181.690  0.500  2.982398  46.2053  2.341279  0.090421
  13186.735  13186.690  0.500  2.979104  46.1435  2.345862  0.090786
  13191.753  13191.720  0.500  2.975702  46.0848  2.350858  0.091220
  13196.797  13196.760  0.500  2.972072  46.0227  2.356229  0.091671
  13201.845  13201.820  0.500  2.969309  45.9634  2.359704  0.092008
  13206.942  13206.900  0.500  2.965785  45.9045  2.364999  0.092828
  13212.029  13212.000  0.500  2.962710  45.8476  2.369345  0.093078
  13217.149  13217.120  0.500  2.958867  45.7804  2.374978  0.093517
  13222.305  13222.260  0.500  2.955712  45.724  2.379549  0.094200
  13227.456  13227.420  0.500  2.952528  45.6083  2.381097  0.094510
  13232.627  13232.600  0.500  2.948908  45.5967  2.389126  0.095055
  13237.833  13237.790  0.500  2.945321  45.5305  2.394229  0.095607
  13243.051  13243.010  0.500  2.941834  45.4633  2.399047  0.096052
  13248.280  13248.240  0.500  2.938565  45.3939  2.403225  0.096441
  13253.529  13253.490  0.500  2.935063  45.3239  2.407942  0.096750
  13258.782  13258.760  0.500  2.932140  45.24  2.410515  0.097384
  13264.085  13264.050  0.500  2.928690  45.1435  2.413691  0.097990
  13269.416  13269.360  0.500  2.925306  45.0041  2.414391  0.098188
  13274.736  13274.690  0.500  2.921861  44.5991  2.400922  0.097899
  13280.090  13280.040  0.500  2.918647  44.4352  2.399796  0.098388
  13285.434  13285.410  0.500  2.914946  44.368  2.405055  0.098804
  13290.829  13290.790  0.500  2.911542  44.2091  2.404613  0.098808
  13296.250  13296.200  0.500  2.908422  44.2193  2.412684  0.099626
  13301.661  13301.620  0.500  2.905212  44.1263  2.415352  0.100412
  13307.108  13307.070  0.500  2.901954  44.0621  2.419707  0.100398
  13312.589  13312.530  0.500  2.898653  44.0431  2.426661  0.101267
  13318.037  13318.010  0.500  2.895444  44.001  2.432130  0.101794
  13323.567  13323.510  0.500  2.892296  43.9184  2.435220  0.102352
  13329.078  13329.030  0.500  2.888869  43.8207  2.438142  0.102469
  13334.617  13334.570  0.500  2.885692  43.7879  2.444073  0.103285
  13340.176  13340.120  0.500  2.882213  43.7487  2.450394  0.103781
  13345.732  13345.700  0.500  2.878980  43.7117  2.456249  0.104330
  13351.331  13351.300  0.500  2.875803  43.6648  2.461421  0.104951
  13356.959  13356.910  0.500  2.872763  43.6219  2.466490  0.105495
  13362.584  13362.550  0.500  2.868951  43.5608  2.472442  0.106090
  13368.229  13368.200  0.500  2.866008  43.4824  2.475269  0.106732
  13373.918  13373.870  0.500  2.862691  43.4104  2.479378  0.106824
  13379.596  13379.560  0.500  2.859429  43.3556  2.484338  0.107716