File: xdidata/Re/Re-L1-RheniumDioxide.xdi
# XDI/1.0 BlueSky/1.10.0 BMM/2023-1.0-py310-tiled
# Beamline.name: BMM (06BM) -- Beamline for Materials Measurement (NIST)
# Beamline.xray_source: NSLS-II three-pole wiggler
# Beamline.collimation: paraboloid mirror, 5 nm Rh on 30 nm Pt
# Beamline.focusing: not in use
# Beamline.harmonic_rejection: flat mirror, Pt stripe, pitch = 7.0 mrad relative to beam
# Beamline.software: Bluesky 1.10.0, Ophyd 1.7.0, DataBroker 2.0.0b13, Python 3.10.8, 2023-1.0-py310-tiled
# Detector.I0: 10 cm N2
# Detector.I1: 25 cm N2
# Detector.I2: 25 cm N2
# Element.symbol: Re
# Element.edge: L1
# Element.reference: Re
# Element.reference_material: ReO2
# Facility.name: NSLS-II
# Facility.energy: 3.0
# Facility.current: 399.9
# Facility.mode: top-off
# Facility.GUP: 301027
# Facility.SAF: 310583
# Facility.cycle: 2023-2
# Mono.name: Si(111)
# Mono.d_spacing: 3.13519
# Mono.encoder_resolution: 0.0000050 deg/ct
# Mono.angle_offset: 16.0754 deg
# Mono.scan_mode: pseudo channel cut
# Mono.scan_type: step
# Mono.direction: forward in energy
# Sample.name: ReO2, Rhenium dioxide
# Sample.prep: powder on tape
# Sample.x: 145.711 mm
# Sample.y: 114.376 mm
# Sample.SDD_position: 205.000 mm
# Scan.experimenters: Bruce Ravel
# Scan.edge_energy: 12526.7
# Scan.start_time: 2023-06-27T19:08:28
# Scan.end_time: 2023-06-27T19:16:12
# Scan.transient_id: 85249
# Scan.uid: 518c6d96-d78a-4c02-b8ef-6abf002c69a0
# Scan.plot_hint: ln(I0/It)  --  ln($5/$6)
# Column.1: energy eV
# Column.2: requested_energy eV
# Column.3: measurement_time seconds
# Column.4: xmu
# Column.5: I0 nA
# Column.6: It nA
# Column.7: Ir nA
# ///////////
# Welcome to BMM
# -----------
# energy  requested_energy  measurement_time  xmu  I0  It  Ir
  12326.638  12326.700  0.500  2.798637  56.0222  3.411359  0.111812
  12336.708  12336.700  0.500  2.790890  55.9425  3.432999  0.113408
  12346.728  12346.700  0.500  2.783743  55.8381  3.451166  0.114918
  12356.757  12356.700  0.500  2.776813  55.6484  3.463365  0.115874
  12366.737  12366.700  0.500  2.771771  55.5919  3.477337  0.117032
  12376.779  12376.700  0.500  2.766593  55.4818  3.488464  0.118121
  12386.738  12386.700  0.500  2.759850  55.3605  3.504392  0.119503
  12396.760  12396.700  0.500  2.752026  55.2388  3.524153  0.121034
  12406.805  12406.700  0.500  2.745456  55.1147  3.539410  0.122483
  12416.705  12416.700  0.500  2.740243  54.9542  3.547549  0.123285
  12426.729  12426.700  0.500  2.736037  54.8493  3.555704  0.124005
  12436.743  12436.700  0.500  2.731937  54.3753  3.539452  0.124028
  12446.739  12446.700  0.500  2.727909  54.6306  3.570428  0.125652
  12456.744  12456.700  0.500  2.722681  54.5112  3.581300  0.126551
  12466.753  12466.700  0.500  2.717177  54.3717  3.591847  0.127802
  12476.737  12476.700  0.500  2.711402  54.2441  3.604169  0.128939
  12486.744  12486.700  0.500  2.705120  53.8256  3.598904  0.129430
  12496.747  12496.700  0.500  2.699725  54.0254  3.631803  0.131376
  12498.707  12498.700  0.500  2.698490  53.9956  3.634285  0.131541
  12500.675  12500.700  0.500  2.697570  53.9837  3.636830  0.131779
  12502.691  12502.700  0.500  2.696835  53.9545  3.637535  0.131987
  12504.680  12504.700  0.500  2.696855  53.9182  3.635014  0.131762
  12506.684  12506.700  0.500  2.696088  53.897  3.636371  0.131887
  12508.688  12508.700  0.500  2.695998  53.8765  3.635319  0.131982
  12510.673  12510.700  0.500  2.695800  53.8528  3.634442  0.131852
  12512.672  12512.700  0.500  2.696377  53.8231  3.630334  0.131944
  12514.671  12514.700  0.500  2.696539  53.7982  3.628071  0.131651
  12516.692  12516.700  0.500  2.697731  53.7638  3.621430  0.131024
  12516.965  12517.000  0.500  2.697542  53.7604  3.621886  0.131290
  12517.252  12517.300  0.500  2.697666  53.7566  3.621185  0.131148
  12517.559  12517.600  0.500  2.698006  53.7519  3.619636  0.131004
  12517.866  12517.900  0.500  2.698417  53.7404  3.617373  0.130906
  12518.153  12518.200  0.500  2.698193  53.7461  3.618566  0.130788
  12518.460  12518.500  0.500  2.698634  53.7405  3.616598  0.130893
  12518.747  12518.800  0.500  2.698867  53.7328  3.615235  0.130777
  12519.068  12519.100  0.500  2.698864  53.7281  3.614928  0.130847
  12519.348  12519.400  0.500  2.699013  53.7234  3.614075  0.130673
  12519.649  12519.700  0.500  2.699452  53.719  3.612191  0.130310
  12519.956  12520.000  0.500  2.699701  53.7152  3.611040  0.130431
  12520.250  12520.300  0.500  2.700070  53.7152  3.609703  0.130259
  12520.578  12520.600  0.500  2.700647  53.7105  3.607312  0.130196
  12520.865  12520.900  0.500  2.700767  53.7089  3.606770  0.129976
  12521.166  12521.200  0.500  2.701536  53.7034  3.603629  0.130067
  12521.473  12521.500  0.500  2.701861  53.6889  3.601484  0.129846
  12521.767  12521.800  0.500  2.702187  53.6925  3.600547  0.129655
  12522.102  12522.100  0.500  2.702713  53.6836  3.598060  0.129474
  12522.382  12522.400  0.500  2.703163  53.6776  3.596039  0.129435
  12522.689  12522.700  0.500  2.703738  53.6738  3.593718  0.129240
  12522.976  12523.000  0.500  2.704204  53.6673  3.591605  0.129090
  12523.284  12523.300  0.500  2.704919  53.659  3.588484  0.128936
  12523.592  12523.600  0.500  2.705566  53.6572  3.586043  0.128816
  12523.885  12523.900  0.500  2.706253  53.6478  3.582955  0.128584
  12524.193  12524.200  0.500  2.707134  53.6458  3.579665  0.128396
  12524.487  12524.500  0.500  2.707689  53.644  3.577556  0.127832
  12524.801  12524.800  0.500  2.708560  53.6333  3.573732  0.127875
  12525.095  12525.100  0.500  2.709332  53.6373  3.571237  0.127687
  12525.389  12525.400  0.500  2.710742  53.6288  3.565641  0.127354
  12525.677  12525.700  0.500  2.711762  53.6249  3.561747  0.127154
  12525.984  12526.000  0.500  2.712663  53.6185  3.558118  0.126579
  12526.285  12526.300  0.500  2.713927  53.6245  3.554017  0.126414
  12526.579  12526.600  0.500  2.715389  53.6124  3.548027  0.126080
  12526.873  12526.900  0.500  2.716936  53.7802  3.553627  0.125808
  12527.174  12527.200  0.500  2.718580  53.7788  3.547703  0.125343
  12527.475  12527.500  0.500  2.720303  53.7689  3.540941  0.125243
  12527.776  12527.800  0.500  2.722296  53.7664  3.533724  0.124358
  12528.077  12528.100  0.500  2.724248  53.7685  3.526971  0.123948
  12528.392  12528.400  0.500  2.726708  53.7629  3.517940  0.123200
  12528.686  12528.700  0.500  2.729123  53.7551  3.508943  0.122938
  12528.987  12529.000  0.500  2.731800  53.7467  3.499015  0.121948
  12529.281  12529.300  0.500  2.734299  53.7513  3.490582  0.121376
  12529.603  12529.600  0.500  2.737752  53.7393  3.477775  0.120560
  12529.897  12529.900  0.500  2.740406  53.7418  3.468716  0.119779
  12530.218  12530.200  0.500  2.744004  53.7367  3.455933  0.118757
  12530.492  12530.500  0.500  2.747326  53.7264  3.443807  0.118074
  12530.821  12530.800  0.500  2.751190  53.7249  3.430434  0.117098
  12531.101  12531.100  0.500  2.754459  53.7224  3.419077  0.116309
  12531.409  12531.400  0.500  2.759075  53.7129  3.402733  0.115266
  12531.703  12531.700  0.500  2.763119  53.7101  3.388823  0.114321
  12531.998  12532.000  0.500  2.767088  53.7059  3.375131  0.113421
  12532.292  12532.300  0.500  2.771208  53.6982  3.360776  0.112055
  12532.579  12532.600  0.500  2.775523  53.6959  3.346163  0.111366
  12532.888  12532.900  0.500  2.779885  53.6921  3.331361  0.110464
  12533.182  12533.200  0.500  2.784078  53.6906  3.317332  0.109194
  12533.483  12533.500  0.500  2.788268  53.686  3.303179  0.108349
  12533.784  12533.800  0.500  2.792797  53.6776  3.287732  0.107602
  12534.092  12534.100  0.500  2.797203  53.6821  3.273555  0.106642
  12534.387  12534.400  0.500  2.801035  53.6718  3.260407  0.105522
  12534.688  12534.700  0.500  2.805246  53.6604  3.246020  0.104678
  12534.996  12535.000  0.500  2.808833  53.6664  3.234758  0.103814
  12535.298  12535.300  0.500  2.812458  53.6469  3.221881  0.103061
  12535.599  12535.600  0.500  2.815885  53.6496  3.211017  0.102390
  12535.900  12535.900  0.500  2.818882  53.6429  3.201016  0.101610
  12536.208  12536.200  0.500  2.822107  53.6414  3.190619  0.100981
  12536.496  12536.500  0.500  2.825177  53.6284  3.180063  0.100269
  12536.811  12536.800  0.500  2.827777  53.621  3.171367  0.099849
  12537.106  12537.100  0.500  2.830212  53.6231  3.163781  0.098991
  12537.421  12537.400  0.500  2.833495  53.6149  3.152929  0.098505
  12537.702  12537.700  0.500  2.836970  53.6088  3.141633  0.097986
  12537.996  12538.000  0.500  2.840066  53.6031  3.131591  0.097114
  12538.298  12538.300  0.500  2.843698  53.5918  3.119580  0.096206
  12538.599  12538.600  0.500  2.847736  53.5877  3.106769  0.095468
  12538.894  12538.900  0.500  2.852400  53.5754  3.091600  0.094459
  12539.189  12539.200  0.500  2.856814  53.5489  3.076465  0.093572
  12539.490  12539.500  0.500  2.861833  53.5219  3.059520  0.092642
  12539.798  12539.800  0.500  2.867566  53.4619  3.038617  0.091313
  12540.093  12540.100  0.500  2.873323  53.3696  3.015957  0.090310
  12540.395  12540.400  0.500  2.879136  53.2559  2.992093  0.088673
  12540.703  12540.700  0.500  2.885746  53.163  2.967192  0.087680
  12541.005  12541.000  0.500  2.892022  53.1244  2.946486  0.086208
  12541.306  12541.300  0.500  2.898957  53.1251  2.926166  0.085049
  12541.608  12541.600  0.500  2.905277  53.1956  2.911585  0.083913
  12541.916  12541.900  0.500  2.912866  53.2787  2.894088  0.082662
  12542.204  12542.200  0.500  2.919782  53.3629  2.878685  0.081529
  12542.513  12542.500  0.500  2.926812  53.436  2.862433  0.080672
  12542.794  12542.800  0.500  2.933628  53.4852  2.845612  0.079460
  12543.116  12543.100  0.500  2.940952  53.536  2.827525  0.078603
  12543.404  12543.400  0.500  2.948044  53.5433  2.807926  0.077132
  12543.713  12543.700  0.500  2.955600  53.546  2.786933  0.076010
  12544.008  12544.000  0.500  2.962439  53.5478  2.768033  0.074829
  12544.309  12544.300  0.500  2.969841  53.538  2.747116  0.073826
  12544.591  12544.600  0.500  2.976928  53.5397  2.727799  0.072609
  12544.899  12544.900  0.500  2.983842  53.5333  2.708683  0.071558
  12545.180  12545.200  0.500  2.990425  53.526  2.690540  0.070371
  12545.496  12545.500  0.500  2.997530  53.5211  2.671246  0.069483
  12545.791  12545.800  0.500  3.003907  53.5146  2.653945  0.068487
  12546.093  12546.100  0.500  3.010651  53.506  2.635683  0.067618
  12546.381  12546.400  0.500  3.016584  53.5047  2.620028  0.066961
  12546.703  12546.700  0.500  3.022463  53.5039  2.604633  0.066018
  12546.998  12547.000  0.500  3.027769  53.4986  2.590594  0.065222
  12547.300  12547.300  0.500  3.034181  53.4874  2.573496  0.064409
  12547.588  12547.600  0.500  3.038825  53.4904  2.561719  0.063745
  12547.911  12547.900  0.500  3.044285  53.4811  2.547326  0.062961
  12548.199  12548.200  0.500  3.049227  53.4808  2.534755  0.062343
  12548.501  12548.500  0.500  3.053731  53.4682  2.522766  0.061907
  12548.796  12548.800  0.500  3.058592  53.4608  2.510187  0.061204
  12549.112  12549.100  0.500  3.062117  53.4626  2.501438  0.060711
  12549.400  12549.400  0.500  3.066378  53.45  2.490214  0.060012
  12549.716  12549.700  0.500  3.070262  53.4516  2.480636  0.059559
  12549.997  12550.000  0.500  3.073906  53.4498  2.471529  0.059223
  12550.313  12550.300  0.500  3.077575  53.4429  2.462158  0.058987
  12550.595  12550.600  0.500  3.080809  53.4411  2.454125  0.058348
  12550.904  12550.900  0.500  3.084343  53.4398  2.445410  0.058160
  12551.199  12551.200  0.500  3.086980  53.4347  2.438738  0.057398
  12551.494  12551.500  0.500  3.089875  53.4248  2.431238  0.057391
  12551.686  12551.700  0.500  3.091519  53.4271  2.427345  0.056903
  12552.689  12552.690  0.500  3.098687  53.4108  2.409275  0.056182
  12553.692  12553.690  0.500  3.102114  53.3959  2.400364  0.055711
  12554.729  12554.710  0.500  3.102177  53.3818  2.399577  0.055787
  12555.787  12555.760  0.500  3.099460  53.3687  2.405515  0.056064
  12556.838  12556.820  0.500  3.094839  53.3522  2.415912  0.056481
  12557.917  12557.900  0.500  3.090832  53.3461  2.425335  0.057123
  12559.017  12559.000  0.500  3.087873  53.3293  2.431757  0.057259
  12560.138  12560.120  0.500  3.085596  53.3161  2.436697  0.057723
  12561.279  12561.260  0.500  3.084682  53.3011  2.438237  0.057737
  12562.428  12562.410  0.500  3.083939  53.2854  2.439330  0.057970
  12563.618  12563.590  0.500  3.082738  53.2671  2.441424  0.057966
  12564.801  12564.780  0.500  3.080200  53.2561  2.447119  0.058341
  12565.998  12566.000  0.500  3.075363  53.2433  2.458395  0.058818
  12567.237  12567.230  0.500  3.068307  53.2289  2.475133  0.059788
  12568.497  12568.480  0.500  3.058763  53.2064  2.497814  0.060897
  12569.785  12569.750  0.500  3.048749  53.1916  2.522249  0.062347
  12571.059  12571.040  0.500  3.038312  53.1707  2.547710  0.063478
  12572.368  12572.350  0.500  3.028689  53.1561  2.571641  0.064883
  12573.684  12573.680  0.500  3.020444  53.1399  2.592141  0.065997
  12575.034  12575.030  0.500  3.013308  53.1323  2.610330  0.067007
  12576.420  12576.400  0.500  3.007761  53.091  2.622808  0.067576
  12577.813  12577.780  0.500  3.003667  53.0769  2.632873  0.068226
  12579.206  12579.190  0.500  3.000264  53.0658  2.641294  0.068575
  12580.620  12580.610  0.500  2.997410  53.0443  2.647768  0.069123
  12582.048  12582.050  0.500  2.995173  53.0332  2.653146  0.069247
  12583.524  12583.510  0.500  2.993079  53.0134  2.657713  0.069533
  12585.008  12584.990  0.500  2.991284  52.9981  2.661716  0.069840
  12586.514  12586.490  0.500  2.989920  52.982  2.664543  0.070091
  12588.019  12588.010  0.500  2.988328  52.9595  2.667652  0.070276
  12589.546  12589.550  0.500  2.987022  52.9415  2.670231  0.070388
  12591.107  12591.110  0.500  2.985449  52.9284  2.673776  0.070480
  12592.710  12592.680  0.500  2.983934  52.9108  2.676935  0.070896
  12594.293  12594.280  0.500  2.982938  52.8886  2.678479  0.070855
  12595.898  12595.890  0.500  2.982780  52.8611  2.677509  0.070794
  12597.530  12597.530  0.500  2.981801  52.8434  2.679240  0.071009
  12599.197  12599.180  0.500  2.982316  52.825  2.676923  0.070955
  12600.851  12600.850  0.500  2.983044  52.7912  2.673267  0.070710
  12602.561  12602.540  0.500  2.984090  52.7687  2.669334  0.070493
  12604.250  12604.250  0.500  2.985294  52.7636  2.665863  0.070336
  12605.995  12605.980  0.500  2.987469  52.7392  2.658841  0.070073
  12607.748  12607.730  0.500  2.989647  52.718  2.651987  0.069548
  12609.508  12609.490  0.500  2.992292  52.6958  2.643873  0.069314
  12611.262  12611.280  0.500  2.994740  52.6732  2.636274  0.068788
  12613.078  12613.080  0.500  2.997562  52.6566  2.628013  0.068435
  12614.909  12614.910  0.500  2.999949  52.6314  2.620498  0.067894
  12616.727  12616.750  0.500  3.001403  52.6108  2.615666  0.067744
  12618.594  12618.610  0.500  3.002306  52.5931  2.612424  0.067537
  12620.468  12620.490  0.500  3.002022  52.5543  2.611238  0.067581
  12622.370  12622.390  0.500  3.000562  52.4706  2.610893  0.067668
  12624.294  12624.310  0.500  2.998886  52.5109  2.617279  0.067715
  12626.212  12626.250  0.500  2.996798  52.4798  2.621197  0.068197
  12628.784  12628.210  0.500  2.993676  52.3911  2.624950  0.068488
  12630.126  12630.180  0.500  2.991783  52.4297  2.631855  0.068966
  12632.351  12632.180  0.500  2.989006  52.4064  2.638004  0.069065
  12634.348  12634.190  0.500  2.987061  52.3319  2.639383  0.069547
  12636.227  12636.220  0.500  2.985145  52.334  2.644552  0.069789
  12638.301  12638.280  0.500  2.983983  52.3348  2.647667  0.069861
  12640.376  12640.350  0.500  2.982299  52.3041  2.650573  0.069901
  12642.466  12642.440  0.500  2.980852  52.2086  2.649563  0.070021
  12644.571  12644.550  0.500  2.978767  52.2614  2.657781  0.070521
  12646.718  12646.680  0.500  2.976628  52.2381  2.662284  0.070594
  12648.845  12648.820  0.500  2.974188  52.1962  2.666646  0.071012
  12650.993  12650.990  0.500  2.971258  52.1741  2.673337  0.071260
  12653.191  12653.180  0.500  2.968085  52.1533  2.680767  0.071930
  12655.411  12655.380  0.500  2.965120  52.1339  2.687727  0.072286
  12657.638  12657.600  0.500  2.961793  52.1028  2.695073  0.072703
  12659.874  12659.850  0.500  2.959310  52.0669  2.699914  0.073155
  12662.110  12662.110  0.500  2.956334  52.0489  2.707025  0.073473
  12664.389  12664.390  0.500  2.953801  52.0163  2.712189  0.073823
  12666.703  12666.690  0.500  2.951747  51.9836  2.716056  0.074183
  12669.040  12669.010  0.500  2.949173  51.9595  2.721793  0.074397
  12671.384  12671.350  0.500  2.947072  51.9236  2.725634  0.074744
  12673.716  12673.700  0.500  2.945072  51.8986  2.729778  0.075011
  12676.097  12676.080  0.500  2.943662  51.8752  2.732394  0.075241
  12678.472  12678.470  0.500  2.942444  51.8431  2.734032  0.075391
  12680.890  12680.890  0.500  2.941248  51.8117  2.735648  0.075499
  12683.337  12683.320  0.500  2.940709  51.7833  2.735623  0.075476
  12685.785  12685.770  0.500  2.940027  51.7501  2.735735  0.075317
  12688.262  12688.250  0.500  2.939786  51.7211  2.734857  0.075772
  12690.719  12690.740  0.500  2.939589  51.8342  2.741379  0.075706
  12693.254  12693.250  0.500  2.938954  51.8313  2.742964  0.075923
  12695.790  12695.770  0.500  2.938747  51.8026  2.742018  0.075585
  12698.342  12698.320  0.500  2.939023  51.7719  2.739634  0.075791
  12700.922  12700.890  0.500  2.938665  51.7377  2.738805  0.075407
  12703.482  12703.470  0.500  2.938700  51.6996  2.736693  0.075574
  12706.086  12706.080  0.500  2.937749  51.6714  2.737800  0.075673
  12708.719  12708.700  0.500  2.936169  51.6393  2.740425  0.075846
  12711.360  12711.350  0.500  2.934693  51.6073  2.742773  0.076049
  12714.023  12714.010  0.500  2.932417  51.5725  2.747171  0.076301
  12716.688  12716.690  0.500  2.930289  51.5412  2.751352  0.076773
  12719.382  12719.390  0.500  2.928190  51.5085  2.755381  0.076813
  12722.119  12722.110  0.500  2.925532  51.4721  2.760766  0.077252
  12724.857  12724.850  0.500  2.923076  51.4406  2.765862  0.077349
  12727.597  12727.600  0.500  2.921399  51.407  2.768694  0.077970
  12730.366  12730.380  0.500  2.919640  51.3736  2.771767  0.078101
  12733.172  12733.170  0.500  2.917886  51.329  2.774224  0.078202
  12735.993  12735.990  0.500  2.915594  51.2432  2.775937  0.078496
  12738.822  12738.820  0.500  2.913710  50.6213  2.747421  0.077929
  12741.653  12741.670  0.500  2.911343  51.2445  2.787836  0.079105
  12744.528  12744.550  0.500  2.908521  51.2173  2.794228  0.079724
  12747.439  12747.440  0.500  2.905976  51.1801  2.799317  0.079862
  12750.366  12750.350  0.500  2.902969  51.1456  2.805852  0.080139
  12753.258  12753.270  0.500  2.900203  51.1073  2.811515  0.080739
  12756.216  12756.220  0.500  2.897649  51.072  2.816762  0.081214
  12759.196  12759.190  0.500  2.895182  51.0398  2.821938  0.081486
  12762.178  12762.170  0.500  2.892189  51.0048  2.828454  0.081774
  12765.169  12765.180  0.500  2.889813  50.967  2.833082  0.082345
  12768.196  12768.200  0.500  2.887350  50.9295  2.837981  0.082666
  12771.275  12771.250  0.500  2.885053  50.8906  2.842333  0.083165
  12774.319  12774.310  0.500  2.882646  50.8477  2.846780  0.083243
  12777.387  12777.390  0.500  2.880753  50.8187  2.850548  0.083623
  12780.491  12780.490  0.500  2.878952  50.7746  2.853207  0.083552
  12783.626  12783.610  0.500  2.877624  50.7398  2.855040  0.084054
  12786.762  12786.750  0.500  2.875689  50.7024  2.858465  0.084073
  12789.907  12789.900  0.500  2.874547  50.6627  2.859487  0.084286
  12793.096  12793.080  0.500  2.872858  50.6253  2.862208  0.084511
  12796.286  12796.270  0.500  2.871481  50.5868  2.863969  0.084622
  12799.493  12799.490  0.500  2.869978  50.5449  2.865905  0.084686
  12802.730  12802.720  0.500  2.868596  50.5113  2.867962  0.085086
  12805.990  12805.970  0.500  2.867126  50.4724  2.869967  0.085273
  12809.259  12809.250  0.500  2.865213  50.4323  2.873178  0.085498
  12812.536  12812.540  0.500  2.863123  50.3921  2.876892  0.085710
  12815.873  12815.850  0.500  2.861416  50.3573  2.879819  0.085879
  12819.204  12819.170  0.500  2.858896  50.313  2.884548  0.086405
  12822.523  12822.520  0.500  2.856389  50.2773  2.889733  0.086815
  12825.893  12825.890  0.500  2.853878  50.2284  2.894179  0.087023
  12829.295  12829.270  0.500  2.851556  50.1934  2.898885  0.087398
  12832.683  12832.680  0.500  2.848892  50.1519  2.904220  0.087914
  12836.109  12836.100  0.500  2.846894  50.1034  2.907212  0.088130
  12839.574  12839.550  0.500  2.845195  50.0726  2.910366  0.088439
  12843.018  12843.010  0.500  2.843120  50.0188  2.913278  0.088758
  12846.493  12846.490  0.500  2.841473  49.9854  2.916128  0.088577
  12850.021  12849.990  0.500  2.839795  49.9396  2.918355  0.089148
  12853.528  12853.510  0.500  2.837774  49.8872  2.921186  0.089266
  12857.067  12857.050  0.500  2.835353  49.8571  2.926498  0.089788
  12860.614  12860.600  0.500  2.832860  49.8204  2.931648  0.090048
  12864.215  12864.180  0.500  2.830165  49.7782  2.937073  0.090682
  12867.781  12867.780  0.500  2.827847  49.7363  2.941411  0.090760
  12871.421  12871.390  0.500  2.824764  49.6877  2.947604  0.091177
  12875.056  12875.020  0.500  2.822232  49.582  2.948795  0.091574
  12878.701  12878.680  0.500  2.820035  49.4875  2.949647  0.091913
  12882.362  12882.350  0.500  2.817799  49.5651  2.960885  0.092565
  12886.076  12886.040  0.500  2.815330  49.5196  2.965476  0.092747
  12889.749  12889.750  0.500  2.812744  49.4737  2.970402  0.093154
  12893.510  12893.480  0.500  2.809938  49.4284  2.976023  0.093585
  12897.238  12897.220  0.500  2.807659  49.3814  2.979978  0.094046
  12900.982  12900.990  0.500  2.805174  49.2867  2.981662  0.094202
  12904.794  12904.780  0.500  2.802763  49.2934  2.989264  0.094964
  12908.594  12908.580  0.500  2.799816  49.2446  2.995120  0.095207
  12912.418  12912.410  0.500  2.797258  49.1909  2.999515  0.095828
  12916.273  12916.250  0.500  2.795123  48.675  2.974402  0.095060
  12920.131  12920.110  0.500  2.792593  49.1243  3.009463  0.096428
  12923.990  12923.990  0.500  2.790547  49.0708  3.012343  0.096537
  12927.911  12927.890  0.500  2.788139  48.9314  3.011028  0.096715
  12931.841  12931.810  0.500  2.785613  48.9748  3.021317  0.097427
  12935.752  12935.750  0.500  2.783732  48.9391  3.024797  0.097806
  12939.745  12939.710  0.500  2.780593  48.8242  3.027185  0.098256
  12943.719  12943.680  0.500  2.778217  48.8269  3.034552  0.098731
  12947.688  12947.680  0.500  2.775065  48.7747  3.040882  0.099344
  12951.704  12951.690  0.500  2.772193  48.719  3.046144  0.099654
  12955.759  12955.730  0.500  2.769642  48.335  3.029854  0.099367
  12959.779  12959.780  0.500  2.766809  48.6768  3.059935  0.100639
  12963.883  12963.850  0.500  2.763919  48.6207  3.065255  0.100992
  12967.967  12967.940  0.500  2.761699  48.5746  3.069157  0.101232
  12972.062  12972.050  0.500  2.759584  48.5286  3.072740  0.101769
  12976.217  12976.180  0.500  2.757493  48.4424  3.073701  0.101943
  12980.354  12980.330  0.500  2.755523  48.4309  3.079035  0.102565
  12984.507  12984.490  0.500  2.753596  48.385  3.082044  0.102767
  12988.708  12988.680  0.500  2.751115  48.3325  3.086350  0.102949
  12992.889  12992.880  0.500  2.749125  48.2136  3.084890  0.103216
  12997.132  12997.110  0.500  2.746423  48.24  3.094931  0.103899
  13001.385  13001.350  0.500  2.744106  48.1878  3.098751  0.104208
  13005.634  13005.610  0.500  2.741581  48.1406  3.103544  0.104494
  13009.922  13009.890  0.500  2.738885  48.0915  3.108747  0.105167
  13014.213  13014.190  0.500  2.736319  48.0412  3.113478  0.105506
  13018.522  13018.510  0.500  2.733112  47.9913  3.120233  0.106175
  13022.885  13022.850  0.500  2.730724  47.9435  3.124581  0.106612
  13027.222  13027.210  0.500  2.727412  47.8915  3.131544  0.106849
  13031.621  13031.590  0.500  2.725067  47.8416  3.135622  0.107634
  13036.016  13035.980  0.500  2.721430  47.7872  3.143473  0.108050
  13040.421  13040.400  0.500  2.718437  47.7351  3.149460  0.108719
  13044.873  13044.830  0.500  2.715490  47.6884  3.155657  0.109216
  13049.321  13049.280  0.500  2.712340  47.5872  3.158901  0.109714
  13053.765  13053.750  0.500  2.709048  47.5838  3.169092  0.110244
  13058.272  13058.240  0.500  2.706287  47.531  3.174322  0.111062
  13062.766  13062.750  0.500  2.703130  47.4754  3.180635  0.111521
  13067.294  13067.280  0.500  2.700397  47.4285  3.186193  0.112045
  13071.877  13071.830  0.500  2.698245  47.3529  3.187966  0.112401
  13076.426  13076.400  0.500  2.695478  47.3134  3.194134  0.112886
  13081.023  13080.980  0.500  2.692743  47.2681  3.199817  0.113196
  13085.623  13085.590  0.500  2.690514  47.2184  3.203582  0.113738
  13090.226  13090.210  0.500  2.687805  47.1654  3.208668  0.114254
  13094.908  13094.860  0.500  2.684898  47.0347  3.209089  0.114493
  13099.533  13099.520  0.500  2.682084  47.0578  3.219711  0.115211
  13104.228  13104.200  0.500  2.679145  46.9864  3.224288  0.115600
  13108.935  13108.900  0.500  2.676250  46.9349  3.230096  0.116231
  13113.638  13113.620  0.500  2.673380  46.9051  3.237323  0.117055
  13118.404  13118.360  0.500  2.670381  46.7791  3.238320  0.117324
  13123.151  13123.110  0.500  2.667571  46.7848  3.247832  0.118086
  13127.931  13127.890  0.500  2.664950  46.7195  3.251807  0.118587
  13132.753  13132.690  0.500  2.662700  46.6625  3.255158  0.118779
  13137.518  13137.500  0.500  2.659598  46.6246  3.262620  0.119449
  13142.362  13142.330  0.500  2.656877  46.5623  3.267135  0.120150
  13147.232  13147.190  0.500  2.653787  46.5083  3.273451  0.120421
  13152.076  13152.060  0.500  2.650820  46.4552  3.279423  0.121328
  13156.991  13156.950  0.500  2.647876  46.4005  3.285220  0.121803
  13161.903  13161.860  0.500  2.644547  46.3415  3.291986  0.122555
  13166.825  13166.790  0.500  2.641865  46.2834  3.296688  0.122875
  13171.767  13171.730  0.500  2.639222  46.2188  3.300801  0.123426
  13176.735  13176.700  0.500  2.636129  46.1736  3.307785  0.124003
  13181.744  13181.690  0.500  2.632916  46.1143  3.314170  0.124626
  13186.705  13186.690  0.500  2.630411  46.0613  3.318663  0.125105
  13191.760  13191.720  0.500  2.627081  45.9997  3.325283  0.125770
  13196.804  13196.760  0.500  2.623894  45.9431  3.331786  0.126646
  13201.852  13201.820  0.500  2.620640  45.8823  3.338228  0.127047
  13206.957  13206.900  0.500  2.617564  45.822  3.344109  0.127836
  13212.006  13212.000  0.500  2.614717  45.7616  3.349223  0.128331
  13217.165  13217.120  0.500  2.611812  45.7041  3.354750  0.129159
  13222.312  13222.260  0.500  2.608514  45.6327  3.360572  0.129702
  13227.449  13227.420  0.500  2.605701  45.5192  3.361652  0.130115
  13232.650  13232.600  0.500  2.602675  45.5122  3.371320  0.130783
  13237.810  13237.790  0.500  2.599660  45.4486  3.376778  0.131371
  13243.043  13243.010  0.500  2.596767  45.3836  3.381719  0.131817
  13248.280  13248.240  0.500  2.593833  45.3173  3.386704  0.132570
  13253.521  13253.490  0.500  2.591051  45.2456  3.390758  0.133311
  13258.805  13258.760  0.500  2.588002  45.1642  3.395000  0.133789
  13264.085  13264.050  0.500  2.584743  45.0661  3.398683  0.134351
  13269.385  13269.360  0.500  2.581827  44.928  3.398158  0.134917
  13274.743  13274.690  0.500  2.578037  44.5064  3.379055  0.134266
  13280.083  13280.040  0.500  2.575089  44.3587  3.377784  0.134804
  13285.457  13285.410  0.500  2.571429  44.2852  3.384550  0.135470
  13290.821  13290.790  0.500  2.568379  44.1329  3.383217  0.135809
  13296.227  13296.200  0.500  2.564956  44.1429  3.395582  0.136687
  13301.677  13301.620  0.500  2.561631  44.0477  3.399548  0.137423
  13307.100  13307.070  0.500  2.558492  43.9829  3.405220  0.138243
  13312.582  13312.530  0.500  2.555628  43.9695  3.413948  0.139140
  13318.037  13318.010  0.500  2.552558  43.922  3.420738  0.139697
  13323.567  13323.510  0.500  2.549528  43.8419  3.424862  0.140105
  13329.054  13329.030  0.500  2.546693  43.7472  3.427167  0.140675
  13334.609  13334.570  0.500  2.543261  43.7088  3.435931  0.141748
  13340.160  13340.120  0.500  2.540031  43.6804  3.444811  0.142213
  13345.739  13345.700  0.500  2.537074  43.6336  3.451307  0.143225
  13351.355  13351.300  0.500  2.533825  43.5882  3.458942  0.143864
  13356.951  13356.910  0.500  2.530866  43.5433  3.465612  0.144735
  13362.591  13362.550  0.500  2.527569  43.4793  3.471950  0.145430
  13368.252  13368.200  0.500  2.524182  43.3964  3.477090  0.145870
  13373.926  13373.870  0.500  2.521534  43.339  3.481697  0.146720
  13379.604  13379.560  0.500  2.518277  43.2744  3.487847  0.147397