File: xdidata/Re/Re-L3-AmmoniumPerrhenate.xdi
# XDI/1.0 BlueSky/1.10.0 BMM/2023-1.0-py310-tiled
# Beamline.name: BMM (06BM) -- Beamline for Materials Measurement (NIST)
# Beamline.xray_source: NSLS-II three-pole wiggler
# Beamline.collimation: paraboloid mirror, 5 nm Rh on 30 nm Pt
# Beamline.focusing: not in use
# Beamline.harmonic_rejection: flat mirror, Pt stripe, pitch = 7.0 mrad relative to beam
# Beamline.software: Bluesky 1.10.0, Ophyd 1.7.0, DataBroker 2.0.0b13, Python 3.10.8, 2023-1.0-py310-tiled
# Detector.I0: 10 cm N2
# Detector.I1: 25 cm N2
# Detector.I2: 25 cm N2
# Element.symbol: Re
# Element.edge: L3
# Element.reference: Re
# Element.reference_material: ReO2
# Facility.name: NSLS-II
# Facility.energy: 3.0
# Facility.current: 400.9
# Facility.mode: top-off
# Facility.GUP: 301027
# Facility.SAF: 310583
# Facility.cycle: 2023-2
# Mono.name: Si(111)
# Mono.d_spacing: 3.13519
# Mono.encoder_resolution: 0.0000050 deg/ct
# Mono.angle_offset: 16.0754 deg
# Mono.scan_mode: pseudo channel cut
# Mono.scan_type: step
# Mono.direction: forward in energy
# Sample.name: NH4ReO4, Ammonium perrhenate
# Sample.prep: powder on tape
# Sample.x: 145.711 mm
# Sample.y: 114.376 mm
# Sample.SDD_position: 205.000 mm
# Scan.experimenters: Bruce Ravel
# Scan.edge_energy: 10535.3
# Scan.start_time: 2023-06-27T16:30:02
# Scan.end_time: 2023-06-27T16:37:40
# Scan.transient_id: 85153
# Scan.uid: 27e023b9-72bc-4680-93cf-c74abc5f67f9
# Scan.plot_hint: ln(I0/It)  --  ln($5/$6)
# Column.1: energy eV
# Column.2: requested_energy eV
# Column.3: measurement_time seconds
# Column.4: xmu
# Column.5: I0 nA
# Column.6: It nA
# Column.7: Ir nA
# ///////////
# Welcome to BMM
# -----------
# energy  requested_energy  measurement_time  xmu  I0  It  Ir
  10335.310  10335.300  0.500  1.659925  90.3575  17.1818  2.280185
  10345.343  10345.300  0.500  1.653568  90.2037  17.2619  2.302291
  10355.354  10355.300  0.500  1.647542  90.0262  17.3321  2.325775
  10365.342  10365.300  0.500  1.641376  89.8336  17.4019  2.347723
  10375.336  10375.300  0.500  1.635869  89.6201  17.4565  2.367322
  10385.369  10385.300  0.500  1.630009  89.4371  17.5232  2.389539
  10395.360  10395.300  0.500  1.624013  89.2699  17.5956  2.412466
  10405.352  10405.300  0.500  1.617968  89.0888  17.6664  2.434109
  10415.369  10415.300  0.500  1.612133  88.9152  17.7352  2.456409
  10425.311  10425.300  0.500  1.606722  88.7459  17.7974  2.476527
  10435.414  10435.300  0.500  1.601244  88.5623  17.8582  2.497651
  10445.324  10445.300  0.500  1.596144  88.3601  17.9085  2.516011
  10455.287  10455.300  0.500  1.591432  88.1786  17.9561  2.533332
  10465.283  10465.300  0.500  1.587479  88.0109  17.993  2.546505
  10475.293  10475.300  0.500  1.584816  87.8271  18.0033  2.554987
  10485.376  10485.300  0.500  1.583863  87.6497  17.984  2.552713
  10495.388  10495.300  0.500  1.586915  87.4715  17.8928  2.532366
  10505.343  10505.300  0.500  1.597719  87.2918  17.6642  2.472541
  10507.309  10507.300  0.500  1.601452  87.2591  17.5918  2.452317
  10509.301  10509.300  0.500  1.606251  87.2174  17.4992  2.428053
  10511.283  10511.300  0.500  1.612056  87.1606  17.3865  2.397905
  10513.290  10513.300  0.500  1.619688  87.0825  17.2389  2.360178
  10515.293  10515.300  0.500  1.628591  87.1039  17.0903  2.316950
  10517.302  10517.300  0.500  1.640438  87.0669  16.8818  2.261425
  10519.297  10519.300  0.500  1.654864  87.0342  16.6338  2.194159
  10521.297  10521.300  0.500  1.674207  86.9956  16.3079  2.107180
  10523.279  10523.300  0.500  1.699184  86.955  15.8982  1.998182
  10525.286  10525.300  0.500  1.733162  86.8251  15.3441  1.856923
  10525.555  10525.600  0.500  1.738744  86.7546  15.2463  1.832813
  10525.867  10525.900  0.500  1.745620  86.6855  15.1298  1.805817
  10526.170  10526.200  0.500  1.752259  86.6503  15.0236  1.778962
  10526.463  10526.500  0.500  1.759555  86.6596  14.916  1.750669
  10526.766  10526.800  0.500  1.767117  86.6851  14.808  1.722713
  10527.063  10527.100  0.500  1.775053  86.7164  14.6962  1.693908
  10527.366  10527.400  0.500  1.783599  86.7387  14.5749  1.664014
  10527.664  10527.700  0.500  1.792302  86.7572  14.4517  1.632762
  10527.962  10528.000  0.500  1.801436  86.7805  14.3241  1.600329
  10528.269  10528.300  0.500  1.811338  86.7952  14.1854  1.567221
  10528.567  10528.600  0.500  1.821387  86.8115  14.0462  1.532027
  10528.880  10528.900  0.500  1.832268  86.8221  13.8959  1.495214
  10529.178  10529.200  0.500  1.843561  86.8337  13.7417  1.458678
  10529.490  10529.500  0.500  1.856223  86.8151  13.5659  1.417382
  10529.773  10529.800  0.500  1.869117  86.81  13.3913  1.376392
  10530.086  10530.100  0.500  1.884033  86.8109  13.1932  1.330896
  10530.379  10530.400  0.500  1.898976  86.8005  12.9959  1.286412
  10530.687  10530.700  0.500  1.915543  86.795  12.7816  1.238149
  10530.990  10531.000  0.500  1.933065  86.7861  12.5583  1.188853
  10531.293  10531.300  0.500  1.952212  86.7868  12.3202  1.137639
  10531.591  10531.600  0.500  1.972682  86.7798  12.0696  1.084257
  10531.889  10531.900  0.500  1.994166  86.7727  11.8121  1.030876
  10532.196  10532.200  0.500  2.017731  86.7616  11.5355  0.974883
  10532.480  10532.500  0.500  2.041947  86.7541  11.2586  0.920206
  10532.798  10532.800  0.500  2.069610  86.7499  10.9509  0.860724
  10533.077  10533.100  0.500  2.097317  86.7331  10.6496  0.804860
  10533.384  10533.400  0.500  2.128681  86.7269  10.32  0.745294
  10533.683  10533.700  0.500  2.161454  86.7275  9.987336  0.688038
  10533.986  10534.000  0.500  2.199547  86.715  9.612652  0.625978
  10534.284  10534.300  0.500  2.239123  86.7166  9.239817  0.566994
  10534.587  10534.600  0.500  2.283540  86.7039  8.837100  0.506375
  10534.880  10534.900  0.500  2.331930  86.7014  8.419411  0.447243
  10535.183  10535.200  0.500  2.386786  86.693  7.969226  0.388576
  10535.482  10535.500  0.500  2.446646  86.6815  7.505187  0.333051
  10535.799  10535.800  0.500  2.513639  86.6805  7.018789  0.279703
  10536.088  10536.100  0.500  2.586020  86.6765  6.528412  0.231397
  10536.386  10536.400  0.500  2.667586  86.6612  6.015986  0.186888
  10536.694  10536.700  0.500  2.760064  86.6603  5.484531  0.146487
  10536.998  10537.000  0.500  2.860105  86.6506  4.961854  0.112861
  10537.296  10537.300  0.500  2.971099  86.6421  4.440145  0.084691
  10537.599  10537.600  0.500  3.091908  86.6375  3.934664  0.062353
  10537.903  10537.900  0.500  3.228827  86.6286  3.430831  0.044296
  10538.201  10538.200  0.500  3.376265  86.6195  2.960209  0.030901
  10538.495  10538.500  0.500  3.538897  86.6143  2.515744  0.021045
  10538.798  10538.800  0.500  3.725619  86.6085  2.087109  0.013857
  10539.097  10539.100  0.500  3.932677  86.5918  1.696434  0.009000
  10539.395  10539.400  0.500  4.162631  86.5711  1.347614  0.005801
  10539.689  10539.700  0.500  4.415971  86.5436  1.045691  0.003439
  10539.992  10540.000  0.500  4.698103  86.5112  0.788338  0.002107
  10540.286  10540.300  0.500  4.996988  86.4851  0.584490  0.001403
  10540.589  10540.600  0.500  5.327538  86.4714  0.419906  0.000881
  10540.878  10540.900  0.500  5.653842  86.4691  0.302990  0.000651
  10541.196  10541.200  0.500  6.015284  86.4839  0.211121  0.000326
  10541.485  10541.500  0.500  6.347537  86.509  0.151482  0.000295
  10541.789  10541.800  0.500  6.677424  86.5218  0.108932  0.000156
  10542.092  10542.100  0.500  6.980738  86.5307  0.080440  0.000211
  10542.396  10542.400  0.500  7.242293  86.5297  0.061927  0.000161
  10542.704  10542.700  0.500  7.480363  86.5218  0.048803  0.000150
  10542.989  10543.000  0.500  7.658121  86.5169  0.040853  0.000161
  10543.302  10543.300  0.500  7.790854  86.5092  0.035772  0.000210
  10543.601  10543.600  0.500  7.850002  86.5041  0.033715  0.000185
  10543.899  10543.900  0.500  7.837214  86.499  0.034147  0.000216
  10544.203  10544.200  0.500  7.719618  86.4816  0.038400  0.000121
  10544.497  10544.500  0.500  7.525271  86.4746  0.046634  0.000164
  10544.806  10544.800  0.500  7.253899  86.4726  0.061172  0.000170
  10545.100  10545.100  0.500  6.945732  86.4695  0.083247  0.000499
  10545.399  10545.400  0.500  6.609448  86.4661  0.116520  0.000676
  10545.697  10545.700  0.500  6.279309  86.452  0.162071  0.000656
  10545.992  10546.000  0.500  5.962318  86.4448  0.222504  0.001299
  10546.295  10546.300  0.500  5.660149  86.4378  0.300976  0.001977
  10546.585  10546.600  0.500  5.385546  86.4283  0.396043  0.002848
  10546.888  10546.900  0.500  5.144234  86.4243  0.504108  0.003962
  10547.192  10547.200  0.500  4.921210  86.4117  0.629968  0.005779
  10547.501  10547.500  0.500  4.731886  86.4049  0.761213  0.007681
  10547.805  10547.800  0.500  4.568891  86.4065  0.895988  0.010032
  10548.104  10548.100  0.500  4.424562  86.3945  1.034959  0.012681
  10548.408  10548.400  0.500  4.303824  86.3868  1.167670  0.015539
  10548.707  10548.700  0.500  4.205231  86.3799  1.288559  0.018474
  10549.011  10549.000  0.500  4.121610  86.3692  1.400769  0.021474
  10549.305  10549.300  0.500  4.057644  86.3624  1.493181  0.024247
  10549.599  10549.600  0.500  4.008911  86.3534  1.567587  0.026978
  10549.908  10549.900  0.500  3.972749  86.3483  1.625215  0.029384
  10550.198  10550.200  0.500  3.950396  86.3429  1.661849  0.031123
  10550.497  10550.500  0.500  3.937689  86.3385  1.683015  0.032608
  10550.791  10550.800  0.500  3.934046  86.3229  1.688852  0.033691
  10551.095  10551.100  0.500  3.937339  86.3255  1.683350  0.034333
  10551.385  10551.400  0.500  3.945898  86.3196  1.668889  0.034734
  10551.698  10551.700  0.500  3.959411  86.3032  1.646178  0.034815
  10551.998  10552.000  0.500  3.976352  86.2956  1.618381  0.034771
  10552.292  10552.300  0.500  3.994896  86.2932  1.588602  0.034613
  10552.596  10552.600  0.500  4.016160  86.2861  1.555051  0.034037
  10552.905  10552.900  0.500  4.038473  86.275  1.520542  0.033663
  10553.200  10553.200  0.500  4.059698  86.2753  1.488613  0.033106
  10553.509  10553.500  0.500  4.081018  86.2628  1.457001  0.032721
  10553.808  10553.800  0.500  4.100648  86.2634  1.428689  0.032116
  10554.098  10554.100  0.500  4.115548  86.2516  1.407367  0.031833
  10554.407  10554.400  0.500  4.126375  86.2411  1.392041  0.031754
  10554.706  10554.700  0.500  4.131913  86.233  1.384223  0.031892
  10555.001  10555.000  0.500  4.130489  86.209  1.385810  0.032049
  10555.296  10555.300  0.500  4.121830  86.1774  1.397350  0.032611
  10555.595  10555.600  0.500  4.107540  86.1491  1.416996  0.033124
  10555.890  10555.900  0.500  4.087549  86.1211  1.445139  0.034323
  10556.189  10556.200  0.500  4.062389  86.0978  1.481559  0.035364
  10556.494  10556.500  0.500  4.034742  86.0827  1.522824  0.036696
  10556.788  10556.800  0.500  4.004350  86.0839  1.569839  0.038273
  10557.093  10557.100  0.500  3.971367  86.0953  1.622694  0.039929
  10557.397  10557.400  0.500  3.938799  86.1135  1.676766  0.041663
  10557.697  10557.700  0.500  3.906025  86.0953  1.732264  0.043704
  10558.011  10558.000  0.500  3.871517  86.0393  1.791920  0.045595
  10558.311  10558.300  0.500  3.838992  85.9775  1.849830  0.047506
  10558.600  10558.600  0.500  3.808384  85.9387  1.906465  0.049397
  10558.905  10558.900  0.500  3.777556  85.9247  1.965833  0.051589
  10559.205  10559.200  0.500  3.749221  85.9541  2.023022  0.053542
  10559.500  10559.500  0.500  3.722393  86.0142  2.079483  0.055472
  10559.814  10559.800  0.500  3.696089  86.0632  2.136124  0.057532
  10560.109  10560.100  0.500  3.672831  86.0959  2.187217  0.059325
  10560.302  10560.300  0.500  3.657611  86.1034  2.220957  0.060284
  10561.298  10561.290  0.500  3.593877  86.1008  2.367042  0.065354
  10562.304  10562.290  0.500  3.542962  86.0842  2.490201  0.069374
  10563.334  10563.310  0.500  3.500232  86.0551  2.598036  0.072269
  10564.389  10564.360  0.500  3.465297  86.0352  2.689781  0.074240
  10565.439  10565.420  0.500  3.440141  86.0152  2.757662  0.075347
  10566.509  10566.500  0.500  3.424269  85.9997  2.801276  0.076037
  10567.608  10567.600  0.500  3.414867  85.9712  2.826798  0.076182
  10568.741  10568.720  0.500  3.407942  85.9472  2.845650  0.076381
  10569.879  10569.860  0.500  3.400170  85.9297  2.867270  0.076671
  10571.022  10571.010  0.500  3.389660  85.9041  2.896700  0.077432
  10572.209  10572.190  0.500  3.375704  85.8824  2.936664  0.078455
  10573.387  10573.380  0.500  3.357382  85.8592  2.990159  0.079525
  10574.613  10574.600  0.500  3.334722  85.8365  3.057882  0.080934
  10575.855  10575.830  0.500  3.310495  85.8147  3.132072  0.082181
  10577.087  10577.080  0.500  3.288682  85.7852  3.200045  0.083158
  10578.362  10578.350  0.500  3.270339  85.7674  3.258608  0.083594
  10579.643  10579.640  0.500  3.257403  85.7408  3.300013  0.083329
  10580.968  10580.950  0.500  3.252119  85.7092  3.316272  0.081884
  10582.303  10582.280  0.500  3.255157  85.6793  3.305060  0.079348
  10583.648  10583.630  0.500  3.266508  85.6467  3.266515  0.076170
  10585.018  10585.000  0.500  3.284589  85.6099  3.206601  0.071966
  10586.388  10586.380  0.500  3.305711  85.4319  3.133054  0.067846
  10587.788  10587.790  0.500  3.328093  85.4863  3.065661  0.064087
  10589.212  10589.210  0.500  3.350892  85.5586  2.999090  0.061037
  10590.656  10590.650  0.500  3.372967  85.6505  2.936763  0.058362
  10592.120  10592.110  0.500  3.393761  85.767  2.880240  0.056735
  10593.595  10593.590  0.500  3.413293  85.7384  2.823585  0.056034
  10595.113  10595.090  0.500  3.431888  85.7053  2.770497  0.055606
  10596.632  10596.610  0.500  3.450729  85.6783  2.717931  0.055975
  10598.175  10598.150  0.500  3.471089  85.6138  2.661147  0.056437
  10599.754  10599.710  0.500  3.492042  85.5301  2.603419  0.056908
  10601.303  10601.280  0.500  3.511116  85.5817  2.555774  0.057418
  10602.902  10602.880  0.500  3.529133  85.5515  2.509253  0.057932
  10604.510  10604.490  0.500  3.545611  85.5053  2.466913  0.058215
  10606.149  10606.130  0.500  3.560252  85.3883  2.427732  0.058711
  10607.813  10607.780  0.500  3.574017  85.456  2.396441  0.058673
  10609.472  10609.450  0.500  3.585459  85.4262  2.368350  0.059043
  10611.146  10611.140  0.500  3.593896  85.3415  2.346125  0.059386
  10612.875  10612.850  0.500  3.599347  85.309  2.332484  0.059698
  10614.594  10614.580  0.500  3.600274  85.3194  2.330605  0.060228
  10616.348  10616.330  0.500  3.598265  85.2876  2.334420  0.060508
  10618.093  10618.090  0.500  3.594087  85.2328  2.342689  0.060975
  10619.893  10619.880  0.500  3.587933  85.0025  2.350782  0.061339
  10621.693  10621.680  0.500  3.581112  85.1422  2.370758  0.061913
  10623.523  10623.510  0.500  3.572069  85.1676  2.393010  0.062037
  10625.358  10625.350  0.500  3.562115  85.1231  2.415685  0.062563
  10627.224  10627.210  0.500  3.550889  85.0903  2.442015  0.062811
  10629.100  10629.090  0.500  3.538920  85.0495  2.470236  0.062989
  10631.006  10630.990  0.500  3.527848  85.0127  2.496659  0.063490
  10632.932  10632.910  0.500  3.516900  84.9774  2.523091  0.063784
  10634.879  10634.850  0.500  3.506118  84.9342  2.549145  0.064333
  10636.836  10636.810  0.500  3.494509  84.9022  2.577941  0.064976
  10638.795  10638.780  0.500  3.481813  84.8546  2.609417  0.065723
  10640.802  10640.780  0.500  3.468765  84.8135  2.642405  0.066983
  10642.801  10642.790  0.500  3.455666  84.4763  2.666603  0.067542
  10644.850  10644.820  0.500  3.443525  84.6425  2.704487  0.068648
  10646.890  10646.880  0.500  3.431955  84.7261  2.738661  0.069415
  10648.969  10648.950  0.500  3.420979  84.6821  2.767447  0.069709
  10651.045  10651.040  0.500  3.411360  84.639  2.792772  0.069892
  10653.176  10653.150  0.500  3.402632  84.598  2.815890  0.069474
  10655.302  10655.280  0.500  3.394996  84.5558  2.836058  0.069094
  10657.435  10657.420  0.500  3.389135  84.5098  2.851179  0.068514
  10659.608  10659.590  0.500  3.384354  84.449  2.862783  0.068055
  10661.786  10661.780  0.500  3.381557  84.1732  2.861425  0.067134
  10664.005  10663.980  0.500  3.381120  84.3086  2.867281  0.067161
  10666.215  10666.200  0.500  3.381191  84.3567  2.868712  0.066972
  10668.475  10668.450  0.500  3.382520  84.3127  2.863408  0.066880
  10670.722  10670.710  0.500  3.384671  84.2612  2.855511  0.066959
  10673.009  10672.990  0.500  3.387872  84.2163  2.844869  0.067109
  10675.296  10675.290  0.500  3.392333  84.1627  2.830403  0.067097
  10677.635  10677.610  0.500  3.397121  84.0708  2.813807  0.067152
  10679.964  10679.950  0.500  3.403452  83.7313  2.784758  0.067230
  10682.305  10682.300  0.500  3.409704  84.0516  2.777991  0.067522
  10684.706  10684.680  0.500  3.416493  84.0015  2.757545  0.067693
  10687.078  10687.070  0.500  3.423499  83.953  2.736716  0.067532
  10689.516  10689.490  0.500  3.431242  83.9056  2.714071  0.067959
  10691.940  10691.920  0.500  3.438215  83.8555  2.693605  0.067884
  10694.395  10694.370  0.500  3.445219  83.7979  2.672969  0.067918
  10696.866  10696.850  0.500  3.451384  83.7396  2.654690  0.067669
  10699.368  10699.340  0.500  3.457213  83.1596  2.620982  0.067179
  10701.856  10701.850  0.500  3.461678  83.6938  2.626067  0.067572
  10704.390  10704.370  0.500  3.464976  83.6387  2.615697  0.067663
  10706.930  10706.920  0.500  3.467577  83.5869  2.607285  0.067444
  10709.507  10709.490  0.500  3.468775  83.5358  2.602572  0.067379
  10712.089  10712.070  0.500  3.469304  83.4882  2.599714  0.067451
  10714.693  10714.680  0.500  3.468573  83.4338  2.599920  0.067350
  10717.313  10717.300  0.500  3.467474  83.3821  2.601165  0.067400
  10719.964  10719.950  0.500  3.465570  83.3373  2.604722  0.067299
  10722.627  10722.610  0.500  3.463131  83.2868  2.609503  0.067358
  10725.306  10725.290  0.500  3.459393  83.2341  2.617618  0.067483
  10728.001  10727.990  0.500  3.455471  83.1834  2.626303  0.067914
  10730.707  10730.710  0.500  3.450859  83.1286  2.636705  0.068160
  10733.470  10733.450  0.500  3.445747  83.076  2.648541  0.068708
  10736.210  10736.200  0.500  3.440501  83.0204  2.660690  0.069024
  10738.990  10738.980  0.500  3.434697  82.963  2.674326  0.069514
  10741.778  10741.770  0.500  3.428658  82.7735  2.684382  0.069559
  10744.601  10744.590  0.500  3.422234  82.8535  2.704292  0.070044
  10747.422  10747.420  0.500  3.415616  82.8051  2.720657  0.070101
  10750.289  10750.270  0.500  3.409188  82.75  2.736381  0.070786
  10753.167  10753.150  0.500  3.402532  82.6963  2.752868  0.070744
  10756.052  10756.040  0.500  3.395981  82.6349  2.768902  0.071171
  10758.964  10758.950  0.500  3.388797  82.5756  2.786866  0.071480
  10761.878  10761.870  0.500  3.382451  82.5213  2.802762  0.072068
  10764.828  10764.820  0.500  3.376239  82.4603  2.818143  0.072375
  10767.805  10767.790  0.500  3.370852  82.4071  2.831539  0.073009
  10770.784  10770.770  0.500  3.365527  82.3488  2.844644  0.073345
  10773.794  10773.780  0.500  3.361038  82.2887  2.855354  0.073986
  10776.811  10776.800  0.500  3.356684  82.2274  2.865678  0.074660
  10779.866  10779.850  0.500  3.353125  82.1727  2.873980  0.075051
  10782.927  10782.910  0.500  3.350493  82.1122  2.879436  0.075842
  10786.005  10785.990  0.500  3.348099  81.7739  2.874445  0.075899
  10789.110  10789.090  0.500  3.346842  81.8747  2.881606  0.076720
  10792.212  10792.210  0.500  3.345561  81.9303  2.887258  0.077277
  10795.361  10795.350  0.500  3.344902  81.8703  2.887048  0.077650
  10798.512  10798.500  0.500  3.344926  81.8019  2.884567  0.077991
  10801.690  10801.680  0.500  3.345102  81.4571  2.871902  0.077991
  10804.901  10804.870  0.500  3.345354  81.6821  2.879110  0.078460
  10808.098  10808.090  0.500  3.345528  80.903  2.851150  0.077953
  10811.333  10811.320  0.500  3.346735  81.5967  2.872128  0.078441
  10814.575  10814.570  0.500  3.347665  81.3259  2.859934  0.078283
  10817.874  10817.850  0.500  3.349416  81.4766  2.860223  0.078391
  10821.145  10821.140  0.500  3.350981  81.4101  2.853418  0.078132
  10824.474  10824.450  0.500  3.352906  81.3411  2.845520  0.077790
  10827.775  10827.770  0.500  3.354375  81.2317  2.837522  0.077670
  10831.134  10831.120  0.500  3.354157  80.8999  2.826548  0.077440
  10834.510  10834.490  0.500  3.353988  81.1479  2.835688  0.077734
  10837.893  10837.870  0.500  3.354709  81.0816  2.831330  0.077722
  10841.294  10841.280  0.500  3.354719  81.013  2.828908  0.077884
  10844.712  10844.700  0.500  3.352496  80.9402  2.832655  0.078466
  10848.158  10848.150  0.500  3.350145  80.592  2.827106  0.078718
  10851.606  10851.610  0.500  3.347943  80.8147  2.841169  0.079216
  10855.093  10855.090  0.500  3.345666  80.4651  2.835326  0.079091
  10858.596  10858.590  0.500  3.342587  80.6773  2.851574  0.079413
  10862.164  10862.110  0.500  3.339747  80.4206  2.850582  0.079655
  10865.642  10865.650  0.500  3.335960  80.5454  2.865841  0.080034
  10869.209  10869.200  0.500  3.332614  80.176  2.862256  0.079865
  10873.220  10872.780  0.500  3.328385  80.4127  2.882870  0.080802
  10876.438  10876.380  0.500  3.324434  80.246  2.888284  0.080956
  10880.007  10879.990  0.500  3.320177  80.2571  2.901009  0.081431
  10883.615  10883.620  0.500  3.315576  80.1906  2.911974  0.081942
  10887.276  10887.280  0.500  3.311148  80.1255  2.922518  0.082629
  10890.951  10890.950  0.500  3.306628  80.0531  2.933106  0.083166
  10894.653  10894.640  0.500  3.301914  79.9813  2.944323  0.083767
  10898.348  10898.350  0.500  3.297224  79.9159  2.955748  0.084336
  10902.087  10902.080  0.500  3.292564  79.8451  2.966920  0.084989
  10905.812  10905.820  0.500  3.287551  79.7665  2.978896  0.085599
  10909.598  10909.590  0.500  3.283010  79.692  2.989661  0.086237
  10913.370  10913.380  0.500  3.278446  79.6206  3.000643  0.086707
  10917.176  10917.180  0.500  3.274001  79.4943  3.009229  0.087481
  10920.995  10921.010  0.500  3.269645  79.476  3.021671  0.088146
  10924.833  10924.850  0.500  3.265493  79.4081  3.031651  0.088740
  10928.693  10928.710  0.500  3.261623  79.3353  3.040615  0.089502
  10932.562  10932.590  0.500  3.257868  79.26  3.049158  0.089913
  10936.470  10936.490  0.500  3.254718  79.1893  3.056050  0.090263
  10940.397  10940.410  0.500  3.251097  79.1191  3.064417  0.090889
  10944.326  10944.350  0.500  3.248327  79.0415  3.069904  0.091115
  10948.305  10948.310  0.500  3.245531  78.9692  3.075684  0.091486
  10952.266  10952.280  0.500  3.243002  78.8488  3.078770  0.091616
  10956.277  10956.280  0.500  3.240513  78.8101  3.084928  0.092323
  10960.306  10960.290  0.500  3.238420  78.7412  3.088687  0.092729
  10964.318  10964.330  0.500  3.236274  78.6617  3.092199  0.093091
  10968.385  10968.380  0.500  3.234191  78.5912  3.095867  0.093653
  10972.439  10972.450  0.500  3.232025  78.5156  3.099599  0.094284
  10976.538  10976.540  0.500  3.230580  78.4405  3.101111  0.094903
  10980.651  10980.650  0.500  3.228476  78.287  3.101562  0.095005
  10984.772  10984.780  0.500  3.226846  78.2841  3.106505  0.095530
  10988.928  10988.930  0.500  3.224570  78.2116  3.110700  0.096046
  10993.076  10993.090  0.500  3.222621  78.123  3.113239  0.096218
  10997.270  10997.280  0.500  3.220510  78.0497  3.116891  0.096616
  11001.466  11001.480  0.500  3.218185  77.9697  3.120944  0.096772
  11005.714  11005.710  0.500  3.215905  77.9042  3.125438  0.097349
  11009.944  11009.950  0.500  3.213146  77.8175  3.130584  0.097424
  11014.214  11014.210  0.500  3.210328  77.7211  3.135529  0.097701
  11018.508  11018.490  0.500  3.207412  77.6592  3.142184  0.098057
  11022.790  11022.790  0.500  3.204359  77.5754  3.148392  0.098579
  11027.138  11027.110  0.500  3.201193  77.5028  3.155420  0.098999
  11031.454  11031.450  0.500  3.197586  77.4161  3.163277  0.099424
  11035.825  11035.810  0.500  3.193923  77.3368  3.171633  0.100019
  11040.200  11040.190  0.500  3.190263  77.2572  3.179987  0.100577
  11044.589  11044.580  0.500  3.186390  77.1764  3.188986  0.101121
  11049.003  11049.000  0.500  3.182038  77.0962  3.199570  0.102023
  11053.452  11053.430  0.500  3.177916  77.0109  3.209229  0.102735
  11057.889  11057.880  0.500  3.173811  76.9283  3.218974  0.103639
  11062.367  11062.350  0.500  3.169258  76.827  3.229405  0.104317
  11066.854  11066.840  0.500  3.164651  76.7675  3.241805  0.105162
  11071.366  11071.350  0.500  3.160070  76.6814  3.253037  0.106366
  11075.898  11075.880  0.500  3.155553  76.5748  3.263221  0.107063
  11080.444  11080.430  0.500  3.150964  76.5196  3.275869  0.107960
  11085.031  11085.000  0.500  3.146456  76.4348  3.287021  0.108859
  11089.590  11089.580  0.500  3.141894  76.3293  3.297496  0.109299
  11094.217  11094.190  0.500  3.137455  76.4854  3.318939  0.110154
  11098.821  11098.810  0.500  3.133242  76.3594  3.327461  0.110995
  11103.488  11103.460  0.500  3.128914  76.3414  3.341103  0.111744
  11108.132  11108.120  0.500  3.124940  76.207  3.348500  0.112278
  11112.844  11112.800  0.500  3.121109  76.1165  3.357363  0.112989
  11117.523  11117.500  0.500  3.116738  76.0839  3.370629  0.113843
  11122.249  11122.220  0.500  3.112821  75.995  3.379899  0.114612
  11126.973  11126.960  0.500  3.109065  75.9123  3.388926  0.115369
  11131.745  11131.710  0.500  3.105501  75.8279  3.397244  0.116134
  11136.510  11136.490  0.500  3.102012  75.7438  3.405340  0.116684
  11141.328  11141.290  0.500  3.098412  75.665  3.414066  0.117506
  11146.134  11146.100  0.500  3.094879  75.575  3.422074  0.118126
  11150.949  11150.930  0.500  3.091502  75.4778  3.429234  0.118542
  11155.817  11155.790  0.500  3.088435  75.4029  3.436351  0.119228
  11160.701  11160.660  0.500  3.085014  75.3133  3.444034  0.119739
  11165.578  11165.550  0.500  3.081700  75.2197  3.451169  0.120438
  11170.492  11170.460  0.500  3.078595  75.128  3.457678  0.121122
  11175.415  11175.390  0.500  3.075361  75.0429  3.464953  0.121746
  11180.365  11180.330  0.500  3.072043  74.9469  3.472022  0.122418
  11185.319  11185.300  0.500  3.068740  74.8518  3.479088  0.123169
  11190.316  11190.290  0.500  3.065455  74.7637  3.486428  0.123816
  11195.306  11195.290  0.500  3.061890  74.6865  3.495262  0.124716
  11200.356  11200.320  0.500  3.058609  74.5842  3.501947  0.125325
  11205.383  11205.360  0.500  3.054841  74.4924  3.510842  0.126330
  11210.458  11210.420  0.500  3.051452  74.4003  3.518403  0.127130
  11215.537  11215.500  0.500  3.048112  74.3  3.525416  0.128006
  11220.638  11220.600  0.500  3.043840  74.2015  3.535817  0.128794
  11225.749  11225.720  0.500  3.039950  74.0965  3.544572  0.129701
  11230.892  11230.860  0.500  3.036134  73.9861  3.552828  0.130360
  11236.046  11236.020  0.500  3.031810  73.8477  3.561547  0.131224
  11241.221  11241.200  0.500  3.026837  72.1068  3.494922  0.129564
  11246.422  11246.390  0.500  3.023277  73.8294  3.591175  0.133143
  11251.645  11251.610  0.500  3.018809  73.688  3.600350  0.134287
  11256.845  11256.840  0.500  3.014505  73.5607  3.609633  0.134997
  11262.111  11262.090  0.500  3.009847  73.4657  3.621803  0.136114
  11267.382  11267.360  0.500  3.005542  73.3601  3.632199  0.136786
  11272.691  11272.650  0.500  3.000719  73.2587  3.644715  0.137445
  11277.983  11277.960  0.500  2.996291  73.1483  3.655371  0.138765
  11283.319  11283.290  0.500  2.991489  73.0386  3.667457  0.139465
  11288.659  11288.640  0.500  2.986727  72.9361  3.679796  0.140387
  11294.044  11294.010  0.500  2.982194  72.8033  3.689780  0.141459
  11299.423  11299.390  0.500  2.976710  71.4877  3.643028  0.140274
  11304.830  11304.800  0.500  2.972841  72.6892  3.718618  0.143993
  11310.247  11310.220  0.500  2.968332  72.5501  3.728275  0.144769
  11315.691  11315.670  0.500  2.963589  72.4002  3.738259  0.145997
  11321.169  11321.130  0.500  2.959313  72.0203  3.734581  0.146537
  11326.641  11326.610  0.500  2.954548  72.2624  3.765027  0.148280
  11332.147  11332.110  0.500  2.950279  72.1314  3.774285  0.149213
  11337.652  11337.630  0.500  2.945927  71.912  3.779212  0.150013
  11343.202  11343.170  0.500  2.941557  71.8595  3.792994  0.151397
  11348.729  11348.720  0.500  2.937207  71.5076  3.790873  0.151602
  11354.324  11354.300  0.500  2.932954  70.9955  3.779764  0.151945
  11359.912  11359.900  0.500  2.933139  64.7521  3.446732  0.138957
  11365.552  11365.510  0.500  2.924910  71.9019  3.858938  0.156253
  11371.180  11371.150  0.500  2.920616  71.447  3.851027  0.156613
  11376.831  11376.800  0.500  2.916647  69.8966  3.782445  0.154330
  11382.498  11382.470  0.500  2.912543  71.437  3.881700  0.159095
  11388.183  11388.160  0.500  2.908148  70.9591  3.872716  0.159265