File: xdidata/Re/Re-L3-RheniumOxide.xdi
# XDI/1.0 BlueSky/1.10.0 BMM/2023-1.0-py310-tiled
# Beamline.name: BMM (06BM) -- Beamline for Materials Measurement (NIST)
# Beamline.xray_source: NSLS-II three-pole wiggler
# Beamline.collimation: paraboloid mirror, 5 nm Rh on 30 nm Pt
# Beamline.focusing: not in use
# Beamline.harmonic_rejection: flat mirror, Pt stripe, pitch = 7.0 mrad relative to beam
# Beamline.software: Bluesky 1.10.0, Ophyd 1.7.0, DataBroker 2.0.0b13, Python 3.10.8, 2023-1.0-py310-tiled
# Detector.I0: 10 cm N2
# Detector.I1: 25 cm N2
# Detector.I2: 25 cm N2
# Element.symbol: Re
# Element.edge: L3
# Element.reference: Re
# Element.reference_material: ReO2
# Facility.name: NSLS-II
# Facility.energy: 3.0
# Facility.current: 399.2
# Facility.mode: top-off
# Facility.GUP: 301027
# Facility.SAF: 310583
# Facility.cycle: 2023-2
# Mono.name: Si(111)
# Mono.d_spacing: 3.13519
# Mono.encoder_resolution: 0.0000050 deg/ct
# Mono.angle_offset: 16.0754 deg
# Mono.scan_mode: pseudo channel cut
# Mono.scan_type: step
# Mono.direction: forward in energy
# Sample.name: ReO2
# Sample.prep: powder on tape
# Sample.x: 109.138 mm
# Sample.y: 153.150 mm
# Sample.SDD_position: 205.000 mm
# Scan.experimenters: Bruce Ravel
# Scan.edge_energy: 10535.3
# Scan.start_time: 2023-05-28T18:14:35
# Scan.end_time: 2023-05-28T18:22:46
# Scan.transient_id: 78903
# Scan.uid: 741b7d23-8b99-4040-9f1f-c6106763412c
# Scan.plot_hint: ln(It/Ir)  --  ln($6/$7)
# Column.1: energy eV
# Column.2: requested_energy eV
# Column.3: measurement_time seconds
# Column.4: xmu
# Column.5: I0 nA
# Column.6: It nA
# Column.7: Ir nA
# ///////////
# Welcome to BMM
# -----------
# energy  requested_energy  measurement_time  xmu  I0  It  Ir
  10335.297  10335.300  0.500  2.009502  90.4203  141.812  19.0106
  10345.343  10345.300  0.500  2.004060  90.3044  141.726  19.1028
  10355.349  10355.300  0.500  1.998600  90.1207  141.526  19.1803
  10365.365  10365.300  0.500  1.993121  89.8987  141.265  19.2501
  10375.332  10375.300  0.500  1.987845  89.9652  141.453  19.3777
  10385.359  10385.300  0.500  1.982323  89.7684  141.247  19.4567
  10395.379  10395.300  0.500  1.977056  89.6206  141.096  19.5384
  10405.310  10405.300  0.500  1.971912  89.4476  140.917  19.6143
  10415.322  10415.300  0.500  1.966849  89.2765  140.724  19.6869
  10425.330  10425.300  0.500  1.961823  89.1038  140.539  19.76
  10435.338  10435.300  0.500  1.957006  88.9189  140.332  19.8262
  10445.334  10445.300  0.500  1.952560  88.7333  140.135  19.8865
  10455.324  10455.300  0.500  1.948370  88.5592  139.941  19.9424
  10465.359  10465.300  0.500  1.944950  88.3852  139.748  19.9832
  10475.365  10475.300  0.500  1.942462  88.2199  139.57  20.0074
  10485.371  10485.300  0.500  1.941750  88.0337  139.364  19.9922
  10495.340  10495.300  0.500  1.944494  87.8704  139.189  19.9124
  10505.343  10505.300  0.500  1.954938  87.7111  139.023  19.682
  10507.285  10507.300  0.500  1.958467  87.6556  138.956  19.6032
  10509.286  10509.300  0.500  1.963313  87.613  138.904  19.5011
  10511.268  10511.300  0.500  1.968900  87.5239  138.765  19.373
  10513.276  10513.300  0.500  1.976357  87.5207  138.786  19.2321
  10515.269  10515.300  0.500  1.985450  87.4978  138.764  19.0549
  10517.268  10517.300  0.500  1.997461  87.4476  138.69  18.8173
  10519.277  10519.300  0.500  2.012642  87.4223  138.691  18.534
  10521.278  10521.300  0.500  2.032877  87.3888  138.635  18.1554
  10523.275  10523.300  0.500  2.060588  87.3387  138.584  17.6528
  10525.272  10525.300  0.500  2.098569  87.153  138.301  16.9601
  10525.560  10525.600  0.500  2.105571  87.0863  138.188  16.828
  10525.858  10525.900  0.500  2.113154  87.0566  138.147  16.6959
  10526.151  10526.200  0.500  2.120981  87.0707  138.184  16.5702
  10526.458  10526.500  0.500  2.129772  87.0647  138.169  16.4234
  10526.751  10526.800  0.500  2.138842  87.1023  138.23  16.2823
  10527.068  10527.100  0.500  2.148817  87.126  138.268  16.1251
  10527.356  10527.400  0.500  2.158740  87.1746  138.349  15.9753
  10527.669  10527.700  0.500  2.169559  87.1779  138.345  15.8028
  10527.976  10528.000  0.500  2.181288  87.2179  138.424  15.6275
  10528.274  10528.300  0.500  2.192945  87.2407  138.461  15.4505
  10528.586  10528.600  0.500  2.205910  87.2515  138.483  15.2539
  10528.889  10528.900  0.500  2.219615  87.2204  138.44  15.0417
  10529.178  10529.200  0.500  2.234149  87.242  138.479  14.8287
  10529.490  10529.500  0.500  2.250627  87.2128  138.428  14.581
  10529.778  10529.800  0.500  2.267284  87.2139  138.428  14.3402
  10530.076  10530.100  0.500  2.286045  87.1999  138.408  14.0716
  10530.389  10530.400  0.500  2.307460  87.1971  138.404  13.7731
  10530.677  10530.700  0.500  2.328710  87.1885  138.395  13.4826
  10530.990  10531.000  0.500  2.353596  87.1877  138.397  13.1514
  10531.283  10531.300  0.500  2.379687  87.1709  138.369  12.8101
  10531.586  10531.600  0.500  2.409021  87.1861  138.398  12.4425
  10531.889  10531.900  0.500  2.441240  87.1518  138.344  12.0432
  10532.177  10532.200  0.500  2.473938  87.1565  138.357  11.6569
  10532.480  10532.500  0.500  2.512187  87.146  138.351  11.219
  10532.774  10532.800  0.500  2.551610  87.1402  138.344  10.7847
  10533.086  10533.100  0.500  2.598287  87.1331  138.327  10.2917
  10533.389  10533.400  0.500  2.647989  87.1249  138.311  9.791544
  10533.683  10533.700  0.500  2.701437  87.1466  138.352  9.284639
  10533.981  10534.000  0.500  2.764611  87.1124  138.311  8.713645
  10534.274  10534.300  0.500  2.831688  87.1187  138.311  8.148352
  10534.592  10534.600  0.500  2.913985  87.1098  138.309  7.504514
  10534.885  10534.900  0.500  2.999941  87.0765  138.255  6.883717
  10535.203  10535.200  0.500  3.103791  87.069  138.26  6.204956
  10535.487  10535.500  0.500  3.211018  87.0855  138.272  5.574504
  10535.804  10535.800  0.500  3.343551  87.0509  138.218  4.880664
  10536.088  10536.100  0.500  3.481121  87.0543  138.237  4.253949
  10536.401  10536.400  0.500  3.645768  87.0472  138.237  3.608165
  10536.690  10536.700  0.500  3.815641  87.0401  138.22  3.044098
  10537.002  10537.000  0.500  4.011792  87.0298  138.209  2.501705
  10537.291  10537.300  0.500  4.214496  87.0282  138.206  2.042651
  10537.599  10537.600  0.500  4.438598  86.9944  138.158  1.631993
  10537.898  10537.900  0.500  4.672275  87.0158  138.181  1.292130
  10538.196  10538.200  0.500  4.909686  87.0026  138.166  1.018949
  10538.500  10538.500  0.500  5.159069  86.9997  138.166  0.794049
  10538.793  10538.800  0.500  5.402716  87.0047  138.162  0.622329
  10539.101  10539.100  0.500  5.663202  86.964  138.1  0.479399
  10539.376  10539.400  0.500  5.891868  86.9239  138.049  0.381266
  10539.689  10539.700  0.500  6.131754  86.8949  138.012  0.299867
  10539.987  10540.000  0.500  6.349857  86.8747  137.97  0.241033
  10540.291  10540.300  0.500  6.547073  86.8723  137.962  0.197880
  10540.594  10540.600  0.500  6.720064  86.8615  137.956  0.166438
  10540.893  10540.900  0.500  6.869209  86.8638  137.959  0.143381
  10541.201  10541.200  0.500  6.986213  86.8949  138.009  0.127595
  10541.495  10541.500  0.500  7.060816  86.9086  138.052  0.118459
  10541.803  10541.800  0.500  7.099882  86.9135  138.06  0.113927
  10542.107  10542.100  0.500  7.098311  86.8985  138.048  0.114096
  10542.391  10542.400  0.500  7.061810  86.905  138.044  0.118335
  10542.709  10542.700  0.500  6.981961  86.8996  138.039  0.128167
  10542.998  10543.000  0.500  6.876670  86.8861  138.031  0.142389
  10543.311  10543.300  0.500  6.731074  86.881  138.026  0.164700
  10543.601  10543.600  0.500  6.567287  86.8821  138.031  0.194017
  10543.895  10543.900  0.500  6.384269  86.8623  138.006  0.232941
  10544.208  10544.200  0.500  6.179320  86.8599  138  0.285913
  10544.497  10544.500  0.500  5.980887  86.8663  138.01  0.348694
  10544.796  10544.800  0.500  5.773971  86.8625  138.007  0.428841
  10545.100  10545.100  0.500  5.567055  86.8438  137.981  0.527325
  10545.399  10545.400  0.500  5.372063  86.8459  137.99  0.640898
  10545.697  10545.700  0.500  5.185829  86.8313  137.977  0.772025
  10545.996  10546.000  0.500  5.007282  86.8225  137.959  0.922813
  10546.290  10546.300  0.500  4.846627  86.8145  137.936  1.083467
  10546.594  10546.600  0.500  4.698662  86.797  137.923  1.256132
  10546.893  10546.900  0.500  4.566208  86.8085  137.934  1.434141
  10547.216  10547.200  0.500  4.440302  86.791  137.907  1.626248
  10547.506  10547.500  0.500  4.336703  86.7833  137.904  1.803722
  10547.805  10547.800  0.500  4.243481  86.7955  137.917  1.980142
  10548.113  10548.100  0.500  4.156018  86.7624  137.878  2.160528
  10548.398  10548.400  0.500  4.082846  86.749  137.847  2.324022
  10548.712  10548.700  0.500  4.013680  86.746  137.834  2.490208
  10548.996  10549.000  0.500  3.957938  86.7378  137.848  2.633233
  10549.300  10549.300  0.500  3.905977  86.7504  137.853  2.773772
  10549.609  10549.600  0.500  3.860851  86.7061  137.803  2.900774
  10549.884  10549.900  0.500  3.825415  86.7384  137.851  3.006446
  10550.202  10550.200  0.500  3.792349  86.7085  137.807  3.106515
  10550.492  10550.500  0.500  3.767128  86.7121  137.812  3.185988
  10550.791  10550.800  0.500  3.745460  86.696  137.783  3.255091
  10551.110  10551.100  0.500  3.727280  86.6996  137.787  3.314897
  10551.390  10551.400  0.500  3.713561  86.6932  137.785  3.360637
  10551.694  10551.700  0.500  3.701876  86.6925  137.791  3.400305
  10551.998  10552.000  0.500  3.692606  86.673  137.763  3.431267
  10552.297  10552.300  0.500  3.684841  86.6826  137.78  3.458441
  10552.606  10552.600  0.500  3.677762  86.652  137.737  3.481912
  10552.896  10552.900  0.500  3.671997  86.6508  137.747  3.502299
  10553.209  10553.200  0.500  3.665935  86.6442  137.729  3.523133
  10553.509  10553.500  0.500  3.660194  86.623  137.696  3.542572
  10553.794  10553.800  0.500  3.654614  86.6376  137.72  3.563012
  10554.112  10554.100  0.500  3.648404  86.61  137.685  3.584311
  10554.412  10554.400  0.500  3.641941  86.5878  137.641  3.606398
  10554.706  10554.700  0.500  3.635414  86.5671  137.618  3.629403
  10555.011  10555.000  0.500  3.627696  86.5559  137.587  3.656693
  10555.296  10555.300  0.500  3.620028  86.4927  137.504  3.682626
  10555.595  10555.600  0.500  3.611588  86.4835  137.481  3.713214
  10555.895  10555.900  0.500  3.603110  86.4536  137.446  3.743872
  10556.194  10556.200  0.500  3.593832  86.4499  137.449  3.778847
  10556.494  10556.500  0.500  3.584520  86.4505  137.445  3.814111
  10556.788  10556.800  0.500  3.575626  86.4839  137.501  3.849750
  10557.098  10557.100  0.500  3.565599  86.48  137.501  3.888520
  10557.392  10557.400  0.500  3.556477  86.4674  137.47  3.923277
  10557.697  10557.700  0.500  3.546915  86.3843  137.33  3.956953
  10558.006  10558.000  0.500  3.537476  86.3208  137.232  3.991617
  10558.306  10558.300  0.500  3.528364  86.316  137.229  4.028073
  10558.610  10558.600  0.500  3.518980  86.3269  137.253  4.066749
  10558.900  10558.900  0.500  3.510740  86.371  137.347  4.103217
  10559.210  10559.200  0.500  3.502760  86.4355  137.445  4.139028
  10559.509  10559.500  0.500  3.495393  86.4862  137.533  4.172321
  10559.809  10559.800  0.500  3.488770  86.5139  137.567  4.201065
  10560.109  10560.100  0.500  3.482684  86.5239  137.58  4.227110
  10560.292  10560.300  0.500  3.479662  86.5195  137.578  4.239850
  10561.298  10561.290  0.500  3.467371  86.5214  137.596  4.292851
  10562.290  10562.290  0.500  3.464278  86.4905  137.552  4.304783
  10563.315  10563.310  0.500  3.467934  86.4707  137.516  4.287941
  10564.389  10564.360  0.500  3.476508  86.4627  137.525  4.251617
  10565.425  10565.420  0.500  3.485289  86.4386  137.494  4.213489
  10566.504  10566.500  0.500  3.492042  86.4233  137.487  4.184926
  10567.608  10567.600  0.500  3.495983  86.4028  137.459  4.167596
  10568.746  10568.720  0.500  3.499024  86.6024  137.781  4.164685
  10569.879  10569.860  0.500  3.500711  86.6322  137.841  4.159484
  10571.017  10571.010  0.500  3.502578  86.6279  137.849  4.151956
  10572.190  10572.190  0.500  3.504958  86.6219  137.85  4.142128
  10573.397  10573.380  0.500  3.508213  86.6033  137.823  4.127843
  10574.594  10574.600  0.500  3.513960  86.5777  137.79  4.103218
  10575.816  10575.830  0.500  3.522344  86.5698  137.798  4.069202
  10577.062  10577.080  0.500  3.532800  86.5523  137.774  4.026163
  10578.328  10578.350  0.500  3.546083  86.5267  137.731  3.971800
  10579.634  10579.640  0.500  3.563164  86.5121  137.723  3.904305
  10580.959  10580.950  0.500  3.584407  86.4808  137.684  3.821161
  10582.265  10582.280  0.500  3.610133  86.4646  137.663  3.723553
  10583.673  10583.630  0.500  3.643327  86.4217  137.597  3.600254
  10584.965  10585.000  0.500  3.676226  86.3758  137.528  3.481972
  10586.816  10586.380  0.500  3.716141  86.1489  137.197  3.337690
  10587.837  10587.790  0.500  3.741664  86.322  137.487  3.260450
  10589.344  10589.210  0.500  3.767047  86.3238  137.514  3.179359
  10590.627  10590.650  0.500  3.781327  86.2951  137.462  3.133091
  10592.091  10592.110  0.500  3.786038  86.2727  137.44  3.117860
  10593.565  10593.590  0.500  3.779816  86.2469  137.408  3.136602
  10595.079  10595.090  0.500  3.762018  86.2199  137.377  3.192211
  10596.598  10596.610  0.500  3.738035  86.2061  137.385  3.269872
  10598.136  10598.150  0.500  3.710305  86.0884  137.209  3.357508
  10599.695  10599.710  0.500  3.681513  86.0592  137.17  3.454593
  10601.259  10601.280  0.500  3.655657  86.0815  137.215  3.546243
  10602.872  10602.880  0.500  3.631698  86.0485  137.18  3.631319
  10604.491  10604.490  0.500  3.610818  85.9841  137.088  3.705439
  10606.125  10606.130  0.500  3.592543  85.9184  136.984  3.770918
  10607.774  10607.780  0.500  3.576236  85.9541  137.052  3.834833
  10609.433  10609.450  0.500  3.561970  85.9263  137.042  3.889650
  10611.127  10611.140  0.500  3.550090  85.7998  136.847  3.930513
  10612.841  10612.850  0.500  3.540128  85.8449  136.923  3.972070
  10614.575  10614.580  0.500  3.532922  85.8293  136.912  4.000492
  10616.324  10616.330  0.500  3.528586  85.7908  136.865  4.016504
  10618.084  10618.090  0.500  3.525840  85.6878  136.711  4.022999
  10619.868  10619.880  0.500  3.524864  85.4573  136.367  4.016808
  10621.663  10621.680  0.500  3.525855  85.685  136.745  4.023935
  10623.498  10623.510  0.500  3.528406  85.6524  136.706  4.012553
  10625.353  10625.350  0.500  3.532948  85.6148  136.654  3.992851
  10627.224  10627.210  0.500  3.538699  85.5619  136.6  3.968381
  10629.085  10629.090  0.500  3.544548  85.5345  136.562  3.944142
  10630.967  10630.990  0.500  3.549762  85.4976  136.526  3.922582
  10632.898  10632.910  0.500  3.553232  85.4918  136.511  3.908578
  10634.855  10634.850  0.500  3.554762  85.4363  136.437  3.900472
  10636.812  10636.810  0.500  3.554595  85.4107  136.417  3.900569
  10638.770  10638.780  0.500  3.552863  85.3488  136.334  3.904955
  10640.768  10640.780  0.500  3.550858  85.299  136.271  3.910982
  10642.786  10642.790  0.500  3.548886  84.7613  135.44  3.894798
  10644.835  10644.820  0.500  3.548404  85.212  136.174  3.917808
  10646.880  10646.880  0.500  3.550221  85.2118  136.19  3.911138
  10648.950  10648.950  0.500  3.555402  85.1751  136.135  3.889346
  10651.030  10651.040  0.500  3.564268  85.1393  136.086  3.853654
  10653.161  10653.150  0.500  3.576165  85.1076  136.066  3.807506
  10655.297  10655.280  0.500  3.588533  85.0424  135.977  3.758256
  10657.430  10657.420  0.500  3.601328  85.0015  135.932  3.709230
  10659.588  10659.590  0.500  3.611984  84.9308  135.823  3.666989
  10661.776  10661.780  0.500  3.620008  84.3964  135.001  3.615670
  10663.985  10663.980  0.500  3.624739  84.8874  135.786  3.619514
  10666.200  10666.200  0.500  3.626285  84.8447  135.753  3.613062
  10668.436  10668.450  0.500  3.624634  84.8183  135.725  3.618274
  10670.717  10670.710  0.500  3.620784  84.7609  135.643  3.630032
  10672.994  10672.990  0.500  3.615398  84.7172  135.591  3.648248
  10675.292  10675.290  0.500  3.608864  84.6618  135.522  3.670286
  10677.595  10677.610  0.500  3.601849  84.5074  135.309  3.690328
  10679.959  10679.950  0.500  3.593396  84.4077  135.169  3.717798
  10682.295  10682.300  0.500  3.585336  84.5477  135.4  3.754296
  10684.686  10684.680  0.500  3.576398  84.4893  135.321  3.785769
  10687.073  10687.070  0.500  3.567165  84.4575  135.28  3.819748
  10689.496  10689.490  0.500  3.558826  84.4055  135.219  3.849978
  10691.925  10691.920  0.500  3.551521  84.3643  135.176  3.876988
  10694.375  10694.370  0.500  3.545663  84.3112  135.092  3.897341
  10696.866  10696.850  0.500  3.540844  84.2404  134.999  3.913463
  10699.343  10699.340  0.500  3.536464  83.8928  134.467  3.915161
  10701.841  10701.850  0.500  3.532944  84.1871  134.961  3.943391
  10704.385  10704.370  0.500  3.529992  84.1339  134.889  3.952929
  10706.925  10706.920  0.500  3.527919  84.0914  134.846  3.959874
  10709.487  10709.490  0.500  3.526206  84.0375  134.772  3.964501
  10712.079  10712.070  0.500  3.526444  83.9864  134.724  3.962155
  10714.698  10714.680  0.500  3.526688  83.9341  134.645  3.958861
  10717.288  10717.300  0.500  3.527524  83.8833  134.591  3.953969
  10719.954  10719.950  0.500  3.528908  83.8519  134.548  3.947219
  10722.612  10722.610  0.500  3.529665  83.7795  134.457  3.941585
  10725.301  10725.290  0.500  3.529843  83.7276  134.402  3.939246
  10727.996  10727.990  0.500  3.528856  83.6797  134.335  3.941184
  10730.732  10730.710  0.500  3.527543  83.6266  134.278  3.944674
  10733.460  10733.450  0.500  3.525927  83.5909  134.236  3.949841
  10736.215  10736.200  0.500  3.525308  83.5516  134.184  3.950744
  10739.005  10738.980  0.500  3.525104  83.4759  134.1  3.949075
  10741.768  10741.770  0.500  3.525962  83.2825  133.806  3.937031
  10744.586  10744.590  0.500  3.527823  83.3626  133.961  3.934282
  10747.432  10747.420  0.500  3.529975  83.3134  133.915  3.924464
  10750.284  10750.270  0.500  3.532045  83.2501  133.817  3.913482
  10753.162  10753.150  0.500  3.533536  83.203  133.757  3.905909
  10756.057  10756.040  0.500  3.534219  83.148  133.678  3.900938
  10758.949  10758.950  0.500  3.534301  83.0867  133.608  3.898561
  10761.883  10761.870  0.500  3.533173  83.0366  133.543  3.901062
  10764.833  10764.820  0.500  3.531511  82.9887  133.484  3.905832
  10767.790  10767.790  0.500  3.529280  82.9268  133.409  3.912366
  10770.799  10770.770  0.500  3.526898  82.8802  133.359  3.920229
  10773.794  10773.780  0.500  3.523830  82.813  133.284  3.930051
  10776.806  10776.800  0.500  3.520067  82.7653  133.225  3.943123
  10779.871  10779.850  0.500  3.515524  82.704  133.14  3.958547
  10782.917  10782.910  0.500  3.510431  82.6378  133.068  3.976622
  10785.985  10785.990  0.500  3.504465  82.2885  132.52  3.983936
  10789.115  10789.090  0.500  3.498705  82.4641  132.834  4.016429
  10792.212  10792.210  0.500  3.492982  82.4763  132.86  4.040289
  10795.361  10795.350  0.500  3.488123  82.4025  132.767  4.057102
  10798.507  10798.500  0.500  3.483673  82.3307  132.675  4.072382
  10801.695  10801.680  0.500  3.480165  82.0649  132.278  4.074481
  10804.896  10804.870  0.500  3.476908  82.2128  132.526  4.095413
  10808.093  10808.090  0.500  3.474379  81.221  130.957  4.057172
  10811.343  10811.320  0.500  3.473037  82.1268  132.459  4.109230
  10814.585  10814.570  0.500  3.472332  81.7732  131.906  4.094956
  10817.864  10817.850  0.500  3.472421  82.0344  132.332  4.107818
  10821.161  10821.140  0.500  3.472925  81.9455  132.209  4.101925
  10824.459  10824.450  0.500  3.473503  81.8879  132.135  4.097272
  10827.790  10827.770  0.500  3.473147  81.7357  131.914  4.091874
  10831.139  10831.120  0.500  3.471718  81.4892  131.541  4.086130
  10834.500  10834.490  0.500  3.470566  81.6896  131.892  4.101757
  10837.898  10837.870  0.500  3.468064  81.6184  131.803  4.109279
  10841.294  10841.280  0.500  3.464013  81.5525  131.717  4.123268
  10844.717  10844.700  0.500  3.459914  81.4789  131.631  4.137493
  10848.158  10848.150  0.500  3.456286  81.1312  131.083  4.135250
  10851.642  10851.610  0.500  3.454059  81.3745  131.496  4.157513
  10855.118  10855.090  0.500  3.452701  81.0199  130.947  4.145792
  10858.617  10858.590  0.500  3.452010  81.2405  131.324  4.160587
  10862.144  10862.110  0.500  3.451827  81.1083  131.143  4.155611
  10865.662  10865.650  0.500  3.451638  81.1132  131.183  4.157665
  10869.224  10869.200  0.500  3.451024  80.8796  130.823  4.148816
  10872.789  10872.780  0.500  3.450086  80.9876  131.014  4.158768
  10876.417  10876.380  0.500  3.448048  80.783  130.701  4.157287
  10879.997  10879.990  0.500  3.445486  80.8546  130.845  4.172546
  10883.635  10883.620  0.500  3.442903  80.7886  130.782  4.181316
  10887.292  10887.280  0.500  3.439916  80.7199  130.696  4.191092
  10890.971  10890.950  0.500  3.437097  80.6572  130.614  4.200281
  10894.658  10894.640  0.500  3.434209  80.5851  130.525  4.209548
  10898.374  10898.350  0.500  3.431143  80.5186  130.438  4.219670
  10902.107  10902.080  0.500  3.428074  80.444  130.343  4.229554
  10905.838  10905.820  0.500  3.424434  80.3622  130.239  4.241587
  10909.629  10909.590  0.500  3.420242  80.5178  130.511  4.268299
  10913.411  10913.380  0.500  3.416527  80.457  130.436  4.281731
  10917.217  10917.180  0.500  3.412614  80.3132  130.238  4.291978
  10921.021  10921.010  0.500  3.408930  80.3336  130.293  4.309659
  10924.884  10924.850  0.500  3.405086  80.2687  130.213  4.323580
  10928.725  10928.710  0.500  3.401948  80.2086  130.148  4.335016
  10932.635  10932.590  0.500  3.398745  80.125  130.034  4.345093
  10936.501  10936.490  0.500  3.396045  80.0598  129.954  4.354195
  10940.443  10940.410  0.500  3.394097  79.9814  129.855  4.359347
  10944.357  10944.350  0.500  3.392128  79.9196  129.786  4.365616
  10948.341  10948.310  0.500  3.390272  79.8361  129.68  4.370147
  10952.302  10952.280  0.500  3.387919  79.7549  129.568  4.376651
  10956.318  10956.280  0.500  3.385096  79.7008  129.501  4.386783
  10960.301  10960.290  0.500  3.381874  79.6269  129.413  4.397931
  10964.375  10964.330  0.500  3.377816  79.5466  129.295  4.411784
  10968.406  10968.380  0.500  3.373391  79.4739  129.209  4.428420
  10972.481  10972.450  0.500  3.368881  79.4076  129.125  4.445541
  10976.559  10976.540  0.500  3.364346  79.326  129.019  4.462076
  10980.682  10980.650  0.500  3.360630  79.1884  128.826  4.471990
  10984.798  10984.780  0.500  3.357453  79.171  128.834  4.486509
  10988.959  10988.930  0.500  3.354749  79.0921  128.729  4.494958
  10993.118  10993.090  0.500  3.352735  79.0191  128.631  4.500626
  10997.301  10997.280  0.500  3.350581  78.9393  128.535  4.506961
  11001.509  11001.480  0.500  3.348894  78.8656  128.437  4.511107
  11005.719  11005.710  0.500  3.347253  78.7861  128.34  4.515106
  11009.975  11009.950  0.500  3.345971  78.7096  128.233  4.517145
  11014.235  11014.210  0.500  3.344392  78.5778  128.047  4.517719
  11018.529  11018.490  0.500  3.342700  78.5503  128.028  4.524680
  11022.811  11022.790  0.500  3.340573  78.4699  127.929  4.530819
  11027.154  11027.110  0.500  3.338389  78.3935  127.833  4.537305
  11031.480  11031.450  0.500  3.335959  78.3055  127.712  4.544039
  11035.841  11035.810  0.500  3.333113  78.223  127.599  4.552977
  11040.211  11040.190  0.500  3.330017  78.1462  127.504  4.563699
  11044.605  11044.580  0.500  3.326463  78.0628  127.391  4.575882
  11049.030  11049.000  0.500  3.322386  77.9756  127.272  4.590263
  11053.452  11053.430  0.500  3.318286  77.8931  127.163  4.605184
  11057.921  11057.880  0.500  3.313778  77.8093  127.061  4.622297
  11062.373  11062.350  0.500  3.309137  77.7155  126.936  4.639218
  11066.875  11066.840  0.500  3.304303  77.6462  126.853  4.658654
  11071.371  11071.350  0.500  3.299633  77.5617  126.743  4.676385
  11075.919  11075.880  0.500  3.294848  77.4197  126.545  4.691489
  11080.460  11080.430  0.500  3.290511  77.39  126.52  4.710955
  11085.031  11085.000  0.500  3.287085  77.3125  126.412  4.723087
  11089.606  11089.580  0.500  3.284392  77.1777  126.228  4.728918
  11094.222  11094.190  0.500  3.281699  77.1373  126.186  4.740108
  11098.826  11098.810  0.500  3.279384  76.9894  125.97  4.742968
  11103.493  11103.460  0.500  3.276647  76.9617  125.958  4.755504
  11108.142  11108.120  0.500  3.273539  76.8593  125.817  4.764954
  11112.860  11112.800  0.500  3.270475  76.7593  125.691  4.774804
  11117.501  11117.500  0.500  3.267100  76.7019  125.593  4.787201
  11122.233  11122.220  0.500  3.262965  76.613  125.489  4.803053
  11126.984  11126.960  0.500  3.259129  76.5241  125.369  4.816918
  11131.750  11131.710  0.500  3.255262  76.4373  125.263  4.831493
  11136.532  11136.490  0.500  3.251634  76.3474  125.138  4.844215
  11141.322  11141.290  0.500  3.248726  76.2652  125.036  4.854365
  11146.139  11146.100  0.500  3.245733  76.1715  124.917  4.864287
  11150.944  11150.930  0.500  3.243091  76.0913  124.804  4.872742
  11155.828  11155.790  0.500  3.240129  75.9944  124.687  4.882604
  11160.685  11160.660  0.500  3.236798  75.9125  124.57  4.894276
  11165.578  11165.550  0.500  3.233985  75.8178  124.446  4.903203
  11170.481  11170.460  0.500  3.230701  75.7329  124.328  4.914648
  11175.415  11175.390  0.500  3.227044  75.6405  124.204  4.927739
  11180.349  11180.330  0.500  3.223935  75.5492  124.084  4.938332
  11185.319  11185.300  0.500  3.220086  75.4498  123.953  4.952125
  11190.311  11190.290  0.500  3.216413  75.3572  123.832  4.965477
  11195.306  11195.290  0.500  3.212773  75.262  123.701  4.978333
  11200.356  11200.320  0.500  3.208930  75.1672  123.567  4.992083
  11205.394  11205.360  0.500  3.205076  75.0708  123.446  5.006454
  11210.463  11210.420  0.500  3.200888  74.978  123.318  5.022236
  11215.532  11215.500  0.500  3.196780  74.8819  123.191  5.037749
  11220.627  11220.600  0.500  3.192712  74.7853  123.059  5.052846
  11225.760  11225.720  0.500  3.189003  74.6842  122.934  5.066470
  11230.887  11230.860  0.500  3.185183  74.5735  122.789  5.079851
  11236.057  11236.020  0.500  3.180982  74.4406  122.581  5.092597
  11241.221  11241.200  0.500  3.177409  72.1094  118.776  4.952188
  11246.422  11246.390  0.500  3.173418  74.3821  122.552  5.130079
  11251.645  11251.610  0.500  3.170127  74.2571  122.369  5.139294
  11256.867  11256.840  0.500  3.166526  74.1531  122.221  5.151584
  11262.133  11262.090  0.500  3.163423  74.0448  122.083  5.161760
  11267.382  11267.360  0.500  3.160188  73.9385  121.94  5.172428
  11272.696  11272.650  0.500  3.157211  73.8351  121.795  5.181656
  11277.977  11277.960  0.500  3.153803  73.7337  121.657  5.193469
  11283.324  11283.290  0.500  3.150330  73.6248  121.512  5.205318
  11288.676  11288.640  0.500  3.146323  73.5156  121.348  5.219184
  11294.028  11294.010  0.500  3.142495  73.381  121.162  5.231162
  11299.412  11299.390  0.500  3.138107  71.5214  118.12  5.122257
  11304.813  11304.800  0.500  3.133647  73.2558  121.012  5.271106
  11310.241  11310.220  0.500  3.129352  73.1233  120.825  5.285619
  11315.675  11315.670  0.500  3.124819  72.9729  120.61  5.300209
  11321.147  11321.130  0.500  3.121112  72.0988  119.176  5.256625
  11326.625  11326.610  0.500  3.116521  72.8459  120.461  5.337757
  11332.136  11332.110  0.500  3.112858  72.7175  120.267  5.348727
  11337.663  11337.630  0.500  3.109344  72.4362  119.84  5.348489
  11343.179  11343.170  0.500  3.105066  72.4566  119.89  5.373653
  11348.752  11348.720  0.500  3.101588  71.8646  118.955  5.350319
  11354.324  11354.300  0.500  3.097822  71.3992  118.209  5.336839
  11359.929  11359.900  0.500  3.093028  70.2078  116.261  5.274095
  11365.524  11365.510  0.500  3.090189  72.4625  120.02  5.460117
  11371.180  11371.150  0.500  3.086345  72.1443  119.526  5.458573
  11376.797  11376.800  0.500  3.081975  70.9125  117.511  5.390043
  11382.493  11382.470  0.500  3.078550  72.0319  119.384  5.494739
  11388.177  11388.160  0.500  3.074770  71.4447  118.438  5.471851