File: xdidata/Re/Re-L1-RheniumOxide.xdi
# XDI/1.0 BlueSky/1.10.0 BMM/2023-1.0-py310-tiled
# Beamline.name: BMM (06BM) -- Beamline for Materials Measurement (NIST)
# Beamline.xray_source: NSLS-II three-pole wiggler
# Beamline.collimation: paraboloid mirror, 5 nm Rh on 30 nm Pt
# Beamline.focusing: not in use
# Beamline.harmonic_rejection: flat mirror, Pt stripe, pitch = 7.0 mrad relative to beam
# Beamline.software: Bluesky 1.10.0, Ophyd 1.7.0, DataBroker 2.0.0b13, Python 3.10.8, 2023-1.0-py310-tiled
# Detector.I0: 10 cm N2
# Detector.I1: 25 cm N2
# Detector.I2: 25 cm N2
# Element.symbol: Re
# Element.edge: L1
# Element.reference: Re
# Element.reference_material: ReO2
# Facility.name: NSLS-II
# Facility.energy: 3.0
# Facility.current: 400.7
# Facility.mode: top-off
# Facility.GUP: 301027
# Facility.SAF: 310583
# Facility.cycle: 2023-2
# Mono.name: Si(111)
# Mono.d_spacing: 3.13519
# Mono.encoder_resolution: 0.0000050 deg/ct
# Mono.angle_offset: 16.0754 deg
# Mono.scan_mode: pseudo channel cut
# Mono.scan_type: step
# Mono.direction: forward in energy
# Sample.name: ReO2
# Sample.prep: powder on tape
# Sample.x: 109.138 mm
# Sample.y: 153.150 mm
# Sample.SDD_position: 205.000 mm
# Scan.experimenters: Bruce Ravel
# Scan.edge_energy: 12526.7
# Scan.start_time: 2023-05-28T19:51:48
# Scan.end_time: 2023-05-28T19:59:31
# Scan.transient_id: 78966
# Scan.uid: 7d4191fd-b95f-4834-b987-4d8f362ef69e
# Scan.plot_hint: ln(It/Ir)  --  ln($6/$7)
# Column.1: energy eV
# Column.2: requested_energy eV
# Column.3: measurement_time seconds
# Column.4: xmu
# Column.5: I0 nA
# Column.6: It nA
# Column.7: Ir nA
# ///////////
# Welcome to BMM
# -----------
# energy  requested_energy  measurement_time  xmu  I0  It  Ir
  12326.705  12326.700  0.500  3.250028  56.041  96.1769  3.729079
  12336.774  12336.700  0.500  3.242736  55.9586  96.0688  3.752150
  12346.761  12346.700  0.500  3.236054  55.8295  95.8813  3.769929
  12356.764  12356.700  0.500  3.229571  55.5826  95.483  3.778687
  12366.757  12366.700  0.500  3.224676  55.5858  95.5182  3.798631
  12376.773  12376.700  0.500  3.220033  55.4592  95.3289  3.808750
  12386.698  12386.700  0.500  3.213470  55.3308  95.1366  3.826094
  12396.713  12396.700  0.500  3.205830  55.1901  94.9244  3.846836
  12406.711  12406.700  0.500  3.199539  55.0625  94.7285  3.863127
  12416.732  12416.700  0.500  3.194813  54.9127  94.5035  3.872202
  12426.770  12426.700  0.500  3.190444  54.7935  94.3262  3.881861
  12436.635  12436.700  0.500  3.186956  54.1711  93.2814  3.852278
  12446.705  12446.700  0.500  3.183797  54.6007  94.0491  3.896272
  12456.724  12456.700  0.500  3.179114  54.4832  93.8691  3.907069
  12466.705  12466.700  0.500  3.174050  54.3318  93.6505  3.917756
  12476.716  12476.700  0.500  3.168220  54.2108  93.4662  3.932914
  12486.696  12486.700  0.500  3.162221  53.8725  92.9075  3.932927
  12496.706  12496.700  0.500  3.156938  53.9697  93.1026  3.962060
  12498.652  12498.700  0.500  3.156202  53.9419  93.0637  3.963322
  12500.647  12500.700  0.500  3.155341  53.9103  93.0175  3.964766
  12502.657  12502.700  0.500  3.154821  53.8863  92.9751  3.965016
  12504.639  12504.700  0.500  3.154437  53.8557  92.9354  3.964848
  12506.643  12506.700  0.500  3.154186  53.8257  92.8861  3.963741
  12508.661  12508.700  0.500  3.154083  53.7994  92.8442  3.962361
  12510.639  12510.700  0.500  3.154156  53.7724  92.8016  3.960255
  12512.644  12512.700  0.500  3.154414  53.7482  92.759  3.957416
  12514.658  12514.700  0.500  3.155038  53.7219  92.719  3.953239
  12516.658  12516.700  0.500  3.156200  53.6955  92.6812  3.947041
  12516.951  12517.000  0.500  3.156520  53.6915  92.6727  3.945415
  12517.238  12517.300  0.500  3.156745  53.6857  92.6701  3.944417
  12517.539  12517.600  0.500  3.156745  53.6805  92.6521  3.943648
  12517.846  12517.900  0.500  3.157283  53.6775  92.6507  3.941468
  12518.146  12518.200  0.500  3.157356  53.6695  92.6421  3.940814
  12518.440  12518.500  0.500  3.157579  53.6649  92.6349  3.939632
  12518.740  12518.800  0.500  3.158333  53.6558  92.6265  3.936307
  12519.061  12519.100  0.500  3.158275  53.6543  92.6231  3.936390
  12519.348  12519.400  0.500  3.158446  53.6523  92.6137  3.935316
  12519.642  12519.700  0.500  3.158900  53.6463  92.6117  3.933444
  12519.949  12520.000  0.500  3.159189  53.6459  92.6142  3.932416
  12520.250  12520.300  0.500  3.159607  53.6409  92.593  3.929871
  12520.551  12520.600  0.500  3.160102  53.6314  92.5871  3.927676
  12520.858  12520.900  0.500  3.160564  53.6254  92.577  3.925433
  12521.166  12521.200  0.500  3.161005  53.6223  92.5759  3.923658
  12521.466  12521.500  0.500  3.161509  53.6198  92.5614  3.921067
  12521.753  12521.800  0.500  3.162214  53.6158  92.5556  3.918056
  12522.061  12522.100  0.500  3.162407  53.6075  92.5499  3.917058
  12522.361  12522.400  0.500  3.163238  53.6042  92.5419  3.913467
  12522.655  12522.700  0.500  3.163777  53.5946  92.5356  3.911092
  12522.956  12523.000  0.500  3.164197  53.5929  92.5266  3.909068
  12523.291  12523.300  0.500  3.165414  53.5905  92.5225  3.904142
  12523.578  12523.600  0.500  3.165834  53.5811  92.5068  3.901843
  12523.872  12523.900  0.500  3.166581  53.5796  92.5047  3.898838
  12524.179  12524.200  0.500  3.167438  53.5733  92.4961  3.895137
  12524.480  12524.500  0.500  3.168393  53.569  92.483  3.890864
  12524.774  12524.800  0.500  3.169547  53.5627  92.4847  3.886450
  12525.089  12525.100  0.500  3.170430  53.5598  92.468  3.882318
  12525.396  12525.400  0.500  3.171915  53.5545  92.4522  3.875897
  12525.683  12525.700  0.500  3.172930  53.5501  92.4493  3.871842
  12525.991  12526.000  0.500  3.174466  53.5418  92.4451  3.865722
  12526.285  12526.300  0.500  3.176215  53.5376  92.4315  3.858399
  12526.593  12526.600  0.500  3.177672  53.5327  92.4296  3.852702
  12526.887  12526.900  0.500  3.179385  53.5278  92.4202  3.845719
  12527.202  12527.200  0.500  3.181709  53.5224  92.4137  3.836522
  12527.489  12527.500  0.500  3.183557  53.513  92.4089  3.829241
  12527.783  12527.800  0.500  3.186019  53.5123  92.3929  3.819162
  12528.091  12528.100  0.500  3.188407  53.5072  92.3892  3.809901
  12528.385  12528.400  0.500  3.190987  53.5035  92.3879  3.800031
  12528.700  12528.700  0.500  3.193840  53.498  92.3757  3.788704
  12529.014  12529.000  0.500  3.197013  53.491  92.3684  3.776405
  12529.302  12529.300  0.500  3.199911  53.4845  92.3574  3.765025
  12529.582  12529.600  0.500  3.203338  53.4816  92.3505  3.751865
  12529.883  12529.900  0.500  3.206971  53.4756  92.3455  3.738055
  12530.184  12530.200  0.500  3.210670  53.4734  92.3326  3.723737
  12530.478  12530.500  0.500  3.213996  53.47  92.33  3.711269
  12530.793  12530.800  0.500  3.218282  53.4625  92.3198  3.694984
  12531.087  12531.100  0.500  3.222174  53.4585  92.3085  3.680180
  12531.375  12531.400  0.500  3.225996  53.4547  92.3039  3.665961
  12531.683  12531.700  0.500  3.230314  53.4506  92.2967  3.649878
  12531.977  12532.000  0.500  3.234607  53.4437  92.2828  3.633699
  12532.278  12532.300  0.500  3.238874  53.437  92.2775  3.618018
  12532.593  12532.600  0.500  3.243256  53.4297  92.2714  3.601961
  12532.888  12532.900  0.500  3.247458  53.4259  92.2592  3.586381
  12533.182  12533.200  0.500  3.251427  53.4236  92.2534  3.571952
  12533.490  12533.500  0.500  3.255841  53.4148  92.2429  3.555815
  12533.798  12533.800  0.500  3.259758  53.4126  92.2383  3.541737
  12534.079  12534.100  0.500  3.263614  53.4078  92.2369  3.528053
  12534.401  12534.400  0.500  3.267508  53.4027  92.2249  3.513884
  12534.716  12534.700  0.500  3.271450  53.3926  92.2179  3.499792
  12534.996  12535.000  0.500  3.274474  53.3877  92.2064  3.488794
  12535.304  12535.300  0.500  3.277824  53.3815  92.194  3.476660
  12535.613  12535.600  0.500  3.280874  53.3766  92.1828  3.465646
  12535.887  12535.900  0.500  3.283536  53.3717  92.1796  3.456313
  12536.208  12536.200  0.500  3.286914  53.3648  92.1697  3.444290
  12536.503  12536.500  0.500  3.290040  53.3616  92.1589  3.433134
  12536.804  12536.800  0.500  3.293205  53.348  92.143  3.421699
  12537.099  12537.100  0.500  3.296249  53.3459  92.1416  3.411247
  12537.400  12537.400  0.500  3.299893  53.3355  92.1198  3.398034
  12537.709  12537.700  0.500  3.304142  53.3229  92.1043  3.383055
  12538.003  12538.000  0.500  3.308351  53.3123  92.0859  3.368174
  12538.318  12538.300  0.500  3.313043  53.2951  92.0487  3.351053
  12538.613  12538.600  0.500  3.317607  53.2714  92.0072  3.334290
  12538.901  12538.900  0.500  3.322905  53.216  91.9202  3.313538
  12539.202  12539.200  0.500  3.328844  53.1238  91.7572  3.288074
  12539.504  12539.500  0.500  3.334540  53.0153  91.5666  3.262609
  12539.785  12539.800  0.500  3.340554  52.9184  91.4083  3.237436
  12540.100  12540.100  0.500  3.346838  52.8561  91.3066  3.213579
  12540.402  12540.400  0.500  3.353816  52.8504  91.2962  3.190870
  12540.683  12540.700  0.500  3.360187  52.9034  91.3773  3.173418
  12540.998  12541.000  0.500  3.367291  52.985  91.5316  3.156279
  12541.293  12541.300  0.500  3.374693  53.0808  91.6907  3.138447
  12541.574  12541.600  0.500  3.381719  53.153  91.8087  3.120484
  12541.882  12541.900  0.500  3.389217  53.2149  91.9099  3.100588
  12542.198  12542.200  0.500  3.396793  53.2554  91.9905  3.079885
  12542.492  12542.500  0.500  3.404033  53.2729  92.025  3.058814
  12542.794  12542.800  0.500  3.411218  53.2779  92.0389  3.037374
  12543.103  12543.100  0.500  3.419023  53.2803  92.0435  3.013912
  12543.384  12543.400  0.500  3.425900  53.2737  92.0281  2.992753
  12543.679  12543.700  0.500  3.433249  53.2716  92.035  2.971065
  12544.015  12544.000  0.500  3.440767  53.2711  92.0253  2.948501
  12544.296  12544.300  0.500  3.447521  53.2661  92.0126  2.928248
  12544.598  12544.600  0.500  3.454323  53.2585  91.9964  2.907888
  12544.899  12544.900  0.500  3.461583  53.2502  91.992  2.886713
  12545.215  12545.200  0.500  3.467705  53.2467  91.9782  2.868667
  12545.496  12545.500  0.500  3.474288  53.2383  91.9748  2.849737
  12545.805  12545.800  0.500  3.480790  53.2356  91.969  2.831089
  12546.107  12546.100  0.500  3.486420  53.2273  91.9581  2.814864
  12546.395  12546.400  0.500  3.492265  53.2251  91.9546  2.798352
  12546.697  12546.700  0.500  3.497610  53.343  92.1612  2.789687
  12547.005  12547.000  0.500  3.502854  53.3921  92.2468  2.777674
  12547.300  12547.300  0.500  3.507550  53.3969  92.2578  2.764990
  12547.602  12547.600  0.500  3.512773  53.3995  92.2561  2.750536
  12547.911  12547.900  0.500  3.517413  53.3951  92.2482  2.737568
  12548.199  12548.200  0.500  3.521189  53.3902  92.2429  2.727093
  12548.501  12548.500  0.500  3.525871  53.3872  92.2409  2.714295
  12548.803  12548.800  0.500  3.530321  53.3781  92.229  2.701894
  12549.085  12549.100  0.500  3.533680  53.3753  92.2246  2.692708
  12549.407  12549.400  0.500  3.537421  53.3731  92.2093  2.682208
  12549.709  12549.700  0.500  3.541443  53.3627  92.2043  2.671294
  12550.004  12550.000  0.500  3.544421  53.358  92.1909  2.662963
  12550.299  12550.300  0.500  3.547521  53.3516  92.1862  2.654589
  12550.602  12550.600  0.500  3.550591  53.3495  92.1805  2.646286
  12550.890  12550.900  0.500  3.553244  53.3467  92.1766  2.639165
  12551.185  12551.200  0.500  3.555452  53.3434  92.1702  2.633161
  12551.501  12551.500  0.500  3.558105  53.3368  92.1614  2.625933
  12551.707  12551.700  0.500  3.559418  53.3339  92.1526  2.622239
  12552.703  12552.690  0.500  3.564162  53.3198  92.1325  2.609260
  12553.698  12553.690  0.500  3.565344  53.305  92.114  2.605652
  12554.722  12554.710  0.500  3.563157  53.2866  92.0826  2.610469
  12555.780  12555.760  0.500  3.558965  53.2708  92.0564  2.620687
  12556.845  12556.820  0.500  3.554792  53.2567  92.0331  2.630977
  12557.938  12557.900  0.500  3.550240  53.2414  92.0168  2.642514
  12559.024  12559.000  0.500  3.548093  53.231  91.9966  2.647613
  12560.144  12560.120  0.500  3.546834  53.2128  91.9681  2.650126
  12561.265  12561.260  0.500  3.546164  53.1976  91.9384  2.651046
  12562.428  12562.410  0.500  3.545076  53.18  91.918  2.653344
  12563.590  12563.590  0.500  3.543415  53.1629  91.8937  2.657055
  12564.801  12564.780  0.500  3.539702  53.1489  91.8709  2.666274
  12565.998  12566.000  0.500  3.533500  53.1314  91.84  2.681962
  12567.258  12567.230  0.500  3.524658  53.1133  91.8105  2.704910
  12568.497  12568.480  0.500  3.514148  53.0986  91.7921  2.732942
  12569.764  12569.750  0.500  3.503509  53.0762  91.7594  2.761187
  12571.059  12571.040  0.500  3.493921  53.059  91.7394  2.787181
  12572.340  12572.350  0.500  3.484888  53.0415  91.7169  2.811780
  12573.691  12573.680  0.500  3.476854  53.0238  91.6807  2.833344
  12575.027  12575.030  0.500  3.470753  53.0035  91.6401  2.849424
  12576.427  12576.400  0.500  3.465732  52.9639  91.5788  2.861847
  12577.806  12577.780  0.500  3.462234  52.9579  91.5686  2.871557
  12579.226  12579.190  0.500  3.458721  52.9493  91.5606  2.881411
  12580.606  12580.610  0.500  3.456484  52.9272  91.5356  2.887075
  12582.061  12582.050  0.500  3.454524  52.9054  91.4967  2.891512
  12583.504  12583.510  0.500  3.452638  52.8877  91.4704  2.896136
  12585.008  12584.990  0.500  3.451185  52.8728  91.4466  2.899592
  12586.500  12586.490  0.500  3.449829  52.8485  91.4083  2.902312
  12588.040  12588.010  0.500  3.448262  52.8262  91.3713  2.905686
  12589.559  12589.550  0.500  3.446973  52.806  91.3436  2.908552
  12591.114  12591.110  0.500  3.446153  52.7853  91.3111  2.909904
  12592.703  12592.680  0.500  3.445082  52.7655  91.278  2.911963
  12594.286  12594.280  0.500  3.444544  52.7434  91.2494  2.912618
  12595.877  12595.890  0.500  3.443712  52.727  91.2199  2.914102
  12597.550  12597.530  0.500  3.443515  52.6965  91.1888  2.913682
  12599.197  12599.180  0.500  3.443875  52.6761  91.1428  2.911163
  12600.872  12600.850  0.500  3.444833  52.6374  91.0776  2.906293
  12602.533  12602.540  0.500  3.446368  52.6324  91.0655  2.901451
  12604.243  12604.250  0.500  3.448086  52.6126  91.0359  2.895530
  12605.995  12605.980  0.500  3.450400  52.588  91.0047  2.887846
  12607.755  12607.730  0.500  3.452946  52.5637  90.9705  2.879422
  12609.487  12609.490  0.500  3.455417  52.5396  90.9317  2.871091
  12611.303  12611.280  0.500  3.458344  52.52  90.9024  2.861773
  12613.071  12613.080  0.500  3.461641  52.4946  90.8688  2.851300
  12614.909  12614.910  0.500  3.463347  52.4671  90.8269  2.845129
  12616.748  12616.750  0.500  3.464553  52.4407  90.7807  2.840255
  12618.628  12618.610  0.500  3.464872  52.4161  90.7432  2.838175
  12620.523  12620.490  0.500  3.464596  52.3408  90.6214  2.835148
  12622.405  12622.390  0.500  3.463004  52.3312  90.6034  2.839101
  12624.308  12624.310  0.500  3.461421  52.3332  90.6081  2.843747
  12626.247  12626.250  0.500  3.458970  52.313  90.5762  2.849721
  12628.214  12628.210  0.500  3.456091  52.2281  90.431  2.853356
  12630.181  12630.180  0.500  3.453634  52.2697  90.5159  2.863063
  12632.198  12632.180  0.500  3.451216  52.2375  90.4685  2.868490
  12634.188  12634.190  0.500  3.449286  52.1431  90.308  2.868934
  12636.227  12636.220  0.500  3.447634  52.188  90.3869  2.876188
  12638.308  12638.280  0.500  3.446217  52.1648  90.3487  2.879047
  12640.390  12640.350  0.500  3.445246  52.1177  90.2756  2.879515
  12642.480  12642.440  0.500  3.443337  52.0708  90.2  2.882600
  12644.557  12644.550  0.500  3.441600  52.0834  90.2209  2.888279
  12646.676  12646.680  0.500  3.439246  52.0555  90.1817  2.893827
  12648.824  12648.820  0.500  3.436235  52.0122  90.1067  2.900144
  12651.007  12650.990  0.500  3.433157  51.9971  90.0907  2.908566
  12653.191  12653.180  0.500  3.430121  51.9703  90.0545  2.916238
  12655.390  12655.380  0.500  3.427206  51.9381  90.0068  2.923199
  12657.604  12657.600  0.500  3.424375  51.9103  89.9632  2.930068
  12659.881  12659.850  0.500  3.421565  51.8801  89.9205  2.936919
  12662.124  12662.110  0.500  3.419056  51.8533  89.8723  2.942720
  12664.417  12664.390  0.500  3.416565  51.8182  89.8123  2.948089
  12666.696  12666.690  0.500  3.414124  51.787  89.774  2.954036
  12669.012  12669.010  0.500  3.412142  51.7573  89.7238  2.958238
  12671.377  12671.350  0.500  3.409674  51.7278  89.6846  2.964253
  12673.723  12673.700  0.500  3.407900  51.6963  89.6317  2.967765
  12676.083  12676.080  0.500  3.406644  51.6653  89.5824  2.969862
  12678.479  12678.470  0.500  3.405646  51.6256  89.5282  2.971027
  12680.911  12680.890  0.500  3.404756  51.6016  89.4885  2.972356
  12683.358  12683.320  0.500  3.404181  51.5693  89.4421  2.972519
  12685.771  12685.770  0.500  3.403923  51.5422  89.3986  2.971842
  12688.248  12688.250  0.500  3.403408  51.512  89.3455  2.971607
  12690.768  12690.740  0.500  3.403493  51.4733  89.2843  2.969318
  12693.261  12693.250  0.500  3.403086  51.4471  89.2551  2.969556
  12695.748  12695.770  0.500  3.403491  51.4134  89.1959  2.966383
  12698.320  12698.320  0.500  3.403179  51.3822  89.1503  2.965793
  12700.908  12700.890  0.500  3.403341  51.3461  89.1  2.963642
  12703.496  12703.470  0.500  3.402713  51.3099  89.0445  2.963656
  12706.079  12706.080  0.500  3.402255  51.2778  88.9933  2.963307
  12708.705  12708.700  0.500  3.400997  51.2416  88.9453  2.965436
  12711.353  12711.350  0.500  3.398997  51.2092  88.883  2.969294
  12714.009  12714.010  0.500  3.397056  51.1761  88.8363  2.973498
  12716.688  12716.690  0.500  3.394590  51.142  88.7876  2.979208
  12719.396  12719.390  0.500  3.392144  51.1028  88.7083  2.983836
  12722.133  12722.110  0.500  3.390159  51.0698  88.6627  2.988226
  12724.864  12724.850  0.500  3.388018  51.034  88.609  2.992818
  12727.590  12727.600  0.500  3.386176  51.0009  88.5542  2.996483
  12730.394  12730.380  0.500  3.384707  50.96  88.4952  2.998886
  12733.193  12733.170  0.500  3.383011  50.9054  88.4135  3.001204
  12736.007  12735.990  0.500  3.381348  50.7005  88.0572  2.994082
  12738.822  12738.820  0.500  3.378891  50.5519  87.8039  2.992816
  12741.667  12741.670  0.500  3.376667  50.8275  88.294  3.016222
  12744.556  12744.550  0.500  3.373888  50.8015  88.2456  3.022957
  12747.439  12747.440  0.500  3.371170  50.7643  88.193  3.029379
  12750.351  12750.350  0.500  3.368237  50.7236  88.137  3.036348
  12753.279  12753.270  0.500  3.365722  50.6832  88.0682  3.041619
  12756.223  12756.220  0.500  3.362892  50.6473  88.0084  3.048167
  12759.211  12759.190  0.500  3.360448  50.6127  87.9626  3.054035
  12762.207  12762.170  0.500  3.358108  50.5667  87.8989  3.058974
  12765.211  12765.180  0.500  3.355462  50.5304  87.8376  3.064939
  12768.189  12768.200  0.500  3.353084  50.4984  87.7866  3.070452
  12771.261  12771.250  0.500  3.350903  50.4552  87.7214  3.074868
  12774.326  12774.310  0.500  3.348591  50.4171  87.6606  3.079853
  12777.408  12777.390  0.500  3.347247  50.3842  87.6078  3.082136
  12780.498  12780.490  0.500  3.345396  50.3393  87.5388  3.085416
  12783.633  12783.610  0.500  3.343354  50.3032  87.4759  3.089498
  12786.769  12786.750  0.500  3.342520  50.2595  87.4091  3.089717
  12789.914  12789.900  0.500  3.341183  50.2168  87.3413  3.091452
  12793.110  12793.080  0.500  3.339744  50.1819  87.2849  3.093905
  12796.315  12796.270  0.500  3.338206  50.1422  87.2271  3.096615
  12799.486  12799.490  0.500  3.336601  50.104  87.1707  3.099582
  12802.737  12802.720  0.500  3.335586  50.0564  87.1036  3.100344
  12805.990  12805.970  0.500  3.333825  50.0162  87.0359  3.103394
  12809.273  12809.250  0.500  3.332135  49.9809  86.9811  3.106683
  12812.551  12812.540  0.500  3.330594  49.9362  86.9113  3.108979
  12815.880  12815.850  0.500  3.328188  49.896  86.8437  3.114046
  12819.204  12819.170  0.500  3.326010  49.852  86.7754  3.118381
  12822.537  12822.520  0.500  3.323650  49.8028  86.7021  3.123107
  12825.922  12825.890  0.500  3.321463  49.7327  86.5854  3.125731
  12829.309  12829.270  0.500  3.318660  49.734  86.5952  3.134863
  12832.676  12832.680  0.500  3.316423  49.6764  86.5031  3.138540
  12836.124  12836.100  0.500  3.314234  49.6358  86.445  3.143305
  12839.581  12839.550  0.500  3.312707  49.5889  86.3679  3.145298
  12843.047  12843.010  0.500  3.311269  49.552  86.3155  3.147915
  12846.508  12846.490  0.500  3.309485  49.4925  86.2198  3.150039
  12850.021  12849.990  0.500  3.307867  49.4524  86.1558  3.152799
  12853.543  12853.510  0.500  3.305991  49.4125  86.0983  3.156611
  12857.052  12857.050  0.500  3.303094  49.3828  86.0512  3.164038
  12860.622  12860.600  0.500  3.301042  49.335  85.9774  3.167816
  12864.200  12864.180  0.500  3.298460  49.2894  85.9056  3.173352
  12867.802  12867.780  0.500  3.295891  49.2409  85.83  3.178715
  12871.436  12871.390  0.500  3.293404  49.1892  85.7309  3.182954
  12875.042  12875.020  0.500  3.291007  49.0995  85.6009  3.185752
  12878.694  12878.680  0.500  3.288740  49.0746  85.5608  3.191490
  12882.377  12882.350  0.500  3.286595  49.0616  85.5474  3.197839
  12886.083  12886.040  0.500  3.284403  49.0166  85.4732  3.202077
  12889.756  12889.750  0.500  3.281915  48.9653  85.4024  3.207395
  12893.518  12893.480  0.500  3.279640  48.919  85.3236  3.211737
  12897.253  12897.220  0.500  3.276480  48.8684  85.2452  3.218936
  12901.004  12900.990  0.500  3.274238  48.8009  85.1291  3.221770
  12904.823  12904.780  0.500  3.271925  48.9361  85.3763  3.238610
  12908.623  12908.580  0.500  3.269296  48.895  85.3134  3.244741
  12912.411  12912.410  0.500  3.267173  48.8403  85.2205  3.248097
  12916.288  12916.250  0.500  3.264864  48.3367  84.3457  3.222186
  12920.138  12920.110  0.500  3.262423  48.7814  85.1384  3.260418
  12924.027  12923.990  0.500  3.260071  48.7278  85.0548  3.264884
  12927.911  12927.890  0.500  3.258567  48.3619  84.4287  3.245727
  12931.856  12931.810  0.500  3.255767  48.6423  84.9181  3.273698
  12935.774  12935.750  0.500  3.253365  48.5799  84.8217  3.277845
  12939.774  12939.710  0.500  3.251136  48.2564  84.2722  3.263880
  12943.712  12943.680  0.500  3.248068  48.4898  84.6791  3.289712
  12947.703  12947.680  0.500  3.245318  48.4247  84.5709  3.294561
  12951.697  12951.690  0.500  3.242584  48.2645  84.3022  3.293082
  12955.759  12955.730  0.500  3.239909  48.2188  84.2344  3.299247
  12959.808  12959.780  0.500  3.237711  48.274  84.3366  3.310516
  12963.920  12963.850  0.500  3.234952  48.2486  84.297  3.318105
  12967.967  12967.940  0.500  3.232725  48.1918  84.2144  3.322247
  12972.084  12972.050  0.500  3.230558  48.1458  84.1452  3.326717
  12976.217  12976.180  0.500  3.228501  48.0797  84.0344  3.329176
  12980.346  12980.330  0.500  3.226551  48.0444  83.9841  3.333679
  12984.529  12984.490  0.500  3.224715  47.992  83.8989  3.336417
  12988.715  12988.680  0.500  3.222494  47.938  83.8098  3.340287
  12992.904  12992.880  0.500  3.220333  47.7152  83.4413  3.332793
  12997.169  12997.110  0.500  3.218358  47.8396  83.6631  3.348258
  13001.400  13001.350  0.500  3.215649  47.7866  83.5722  3.353692
  13005.626  13005.610  0.500  3.213578  47.7222  83.4717  3.356602
  13009.937  13009.890  0.500  3.210740  47.6806  83.4101  3.363661
  13014.235  13014.190  0.500  3.208525  47.6109  83.2989  3.366622
  13018.537  13018.510  0.500  3.205678  47.5677  83.2361  3.373676
  13022.885  13022.850  0.500  3.203066  47.5206  83.1502  3.379012
  13027.266  13027.210  0.500  3.200150  47.4611  83.0679  3.385522
  13031.621  13031.590  0.500  3.197459  47.3961  82.9616  3.390302
  13036.038  13035.980  0.500  3.194210  47.3595  82.9072  3.399105
  13040.443  13040.400  0.500  3.191111  47.306  82.8162  3.405912
  13044.873  13044.830  0.500  3.188015  47.2466  82.724  3.412672
  13049.336  13049.280  0.500  3.185350  47.1113  82.4924  3.412193
  13053.810  13053.750  0.500  3.182321  47.1349  82.5368  3.424389
  13058.272  13058.240  0.500  3.179610  47.0759  82.4516  3.430140
  13062.789  13062.750  0.500  3.176490  47.0282  82.3792  3.437836
  13067.324  13067.280  0.500  3.174065  46.9768  82.2899  3.442449
  13071.862  13071.830  0.500  3.171754  46.8487  82.0757  3.441433
  13076.433  13076.400  0.500  3.169261  46.8372  82.075  3.449994
  13081.023  13080.980  0.500  3.167061  46.7861  81.989  3.453970
  13085.623  13085.590  0.500  3.164400  46.7431  81.9263  3.460522
  13090.256  13090.210  0.500  3.161840  46.6815  81.8212  3.464942
  13094.923  13094.860  0.500  3.159156  46.5728  81.6458  3.466808
  13099.555  13099.520  0.500  3.156483  46.5723  81.6487  3.476213
  13104.221  13104.200  0.500  3.153884  46.4964  81.5257  3.480007
  13108.965  13108.900  0.500  3.150853  46.4523  81.4633  3.487898
  13113.630  13113.620  0.500  3.148132  46.4032  81.3827  3.493942
  13118.404  13118.360  0.500  3.145213  46.2825  81.1757  3.495245
  13123.158  13123.110  0.500  3.142463  46.2919  81.1984  3.505850
  13127.916  13127.890  0.500  3.140298  46.2155  81.0856  3.508566
  13132.746  13132.690  0.500  3.137547  46.1539  80.9738  3.513382
  13137.541  13137.500  0.500  3.135136  46.0915  80.8796  3.517762
  13142.362  13142.330  0.500  3.132442  46.0507  80.8248  3.524865
  13147.232  13147.190  0.500  3.129359  45.9939  80.7276  3.531496
  13152.106  13152.060  0.500  3.126628  45.9177  80.5982  3.535475
  13156.984  13156.950  0.500  3.123993  45.8624  80.5197  3.541354
  13161.895  13161.860  0.500  3.121027  45.8059  80.4233  3.547623
  13166.825  13166.790  0.500  3.117922  45.7326  80.3027  3.553316
  13171.759  13171.730  0.500  3.115132  45.6872  80.2462  3.560734
  13176.765  13176.700  0.500  3.112536  45.6112  80.1117  3.564008
  13181.744  13181.690  0.500  3.109490  45.5658  80.0418  3.571760
  13186.728  13186.690  0.500  3.106541  45.5025  79.9386  3.577690
  13191.768  13191.720  0.500  3.103753  45.4399  79.8302  3.582817
  13196.782  13196.760  0.500  3.100959  45.3855  79.75  3.589231
  13201.845  13201.820  0.500  3.097764  45.3179  79.6436  3.595912
  13206.942  13206.900  0.500  3.095104  45.2457  79.5293  3.600315
  13212.029  13212.000  0.500  3.091927  45.176  79.4241  3.606997
  13217.157  13217.120  0.500  3.089287  45.1126  79.3081  3.611249
  13222.312  13222.260  0.500  3.086162  45.039  79.1879  3.617060
  13227.449  13227.420  0.500  3.083439  44.9359  79.0273  3.619568
  13232.643  13232.600  0.500  3.080331  44.9164  78.9983  3.629501
  13237.833  13237.790  0.500  3.078057  44.8524  78.89  3.632778
  13243.028  13243.010  0.500  3.075101  44.7693  78.7562  3.637349
  13248.288  13248.240  0.500  3.072371  44.6997  78.6424  3.642023
  13253.529  13253.490  0.500  3.069431  44.6215  78.5138  3.646774
  13258.820  13258.760  0.500  3.066419  44.5198  78.3446  3.649893
  13264.093  13264.050  0.500  3.063402  44.4367  78.21  3.654633
  13269.393  13269.360  0.500  3.060418  44.2576  77.8987  3.650966
  13274.728  13274.690  0.500  3.057276  43.7807  77.073  3.623632
  13280.075  13280.040  0.500  3.053928  43.744  77.0191  3.633241
  13285.457  13285.410  0.500  3.051101  43.6161  76.8074  3.633513
  13290.836  13290.790  0.500  3.047572  43.4604  76.5367  3.633504
  13296.220  13296.200  0.500  3.044601  43.4956  76.6134  3.647972
  13301.661  13301.620  0.500  3.041595  43.3872  76.4279  3.650096
  13307.139  13307.070  0.500  3.038559  43.3345  76.346  3.657272
  13312.566  13312.530  0.500  3.035575  43.3159  76.3279  3.667328
  13318.045  13318.010  0.500  3.033064  43.2669  76.2478  3.672692
  13323.543  13323.510  0.500  3.029807  43.163  76.0763  3.676386
  13329.070  13329.030  0.500  3.026962  43.0257  75.8326  3.675049
  13334.624  13334.570  0.500  3.023753  43.0329  75.8688  3.688622
  13340.176  13340.120  0.500  3.020800  42.9984  75.8106  3.696692
  13345.763  13345.700  0.500  3.017922  42.9292  75.7059  3.702226
  13351.347  13351.300  0.500  3.015013  42.9113  75.6779  3.711639
  13356.967  13356.910  0.500  3.012227  42.8402  75.5657  3.716473
  13362.591  13362.550  0.500  3.008924  42.7801  75.4686  3.723978
  13368.244  13368.200  0.500  3.006025  42.702  75.3339  3.728122
  13373.918  13373.870  0.500  3.003003  42.6095  75.1785  3.731691
  13379.604  13379.560  0.500  2.999715  42.5761  75.1345  3.741791