File: xdidata/Data/Nd/Nd-L3-Nd-hydroxide.xdi
# XDI/1.0 BlueSky/1.10.0 BMM/2023-1.0-py310-tiled
# Beamline.name: BMM (06BM) -- Beamline for Materials Measurement (NIST)
# Beamline.xray_source: NSLS-II three-pole wiggler
# Beamline.collimation: paraboloid mirror, 5 nm Rh on 30 nm Pt
# Beamline.focusing: not in use
# Beamline.harmonic_rejection: flat mirror, Si stripe, pitch = 7.0 mrad relative to beam
# Beamline.software: Bluesky 1.10.0, Ophyd 1.7.0, DataBroker 2.0.0b13, Python 3.10.8, 2023-1.0-py310-tiled
# Detector.I0: 10 cm N2
# Detector.I1: 25 cm N2
# Detector.I2: 25 cm N2
# Element.symbol: Nd
# Element.edge: L3
# Element.reference: Nd
# Element.reference_material: Nd2O3
# Facility.name: NSLS-II
# Facility.energy: 3.0
# Facility.current: 399.6
# Facility.mode: top-off
# Facility.GUP: 123456
# Facility.SAF: 301027
# Facility.cycle: 2023-2
# Mono.name: Si(111)
# Mono.d_spacing: 3.13519
# Mono.encoder_resolution: 0.0000050 deg/ct
# Mono.angle_offset: 16.0754 deg
# Mono.scan_mode: pseudo channel cut
# Mono.scan_type: step
# Mono.direction: forward in energy
# Sample.name: Nd(OH)3
# Sample.prep: Powder in PEG pellet
# Sample.x: 149.848 mm
# Sample.y: 114.690 mm
# Sample.SDD_position: 205.000 mm
# Scan.experimenters: Bruce Ravel
# Scan.edge_energy: 6207.9
# Scan.start_time: 2023-05-08T16:55:58
# Scan.end_time: 2023-05-08T17:01:38
# Scan.transient_id: 75422
# Scan.uid: 4084e6b8-60f4-4115-ac8a-853f14113207
# Scan.plot_hint: ln(I0/It)  --  ln($5/$6)
# Column.1: energy eV
# Column.2: requested_energy eV
# Column.3: measurement_time seconds
# Column.4: xmu
# Column.5: I0 nA
# Column.6: It nA
# Column.7: Ir nA
# ///////////
# sample courtesy Martin Stennett, University of Sheffield
# -----------
# energy  requested_energy  measurement_time  xmu  I0  It  Ir
  6007.902  6007.900  0.500  2.535321  147.948  11.7228  1.625037
  6017.912  6017.900  0.500  2.519384  148.097  11.9232  1.668406
  6027.914  6027.900  0.500  2.503119  148.311  12.1362  1.714258
  6037.907  6037.900  0.500  2.487897  148.55  12.3422  1.760726
  6047.913  6047.900  0.500  2.472833  148.788  12.5496  1.806529
  6057.917  6057.900  0.500  2.457280  148.714  12.74  1.851765
  6067.913  6067.900  0.500  2.441536  148.732  12.9437  1.899315
  6077.917  6077.900  0.500  2.426464  148.98  13.1622  1.948843
  6087.913  6087.900  0.500  2.411587  149.137  13.3735  1.999229
  6097.909  6097.900  0.500  2.396806  149.393  13.596  2.051142
  6107.910  6107.900  0.500  2.381762  149.606  13.8217  2.104529
  6117.908  6117.900  0.500  2.367271  149.81  14.0427  2.157212
  6127.976  6127.900  0.500  2.352236  150.059  14.279  2.213197
  6137.885  6137.900  0.500  2.337967  150.261  14.5037  2.267833
  6147.885  6147.900  0.500  2.324003  150.449  14.7261  2.322926
  6157.886  6157.900  0.500  2.310437  150.543  14.9365  2.376482
  6167.897  6167.900  0.500  2.298181  150.658  15.1323  2.427405
  6177.901  6177.900  0.500  2.287379  150.906  15.3218  2.476221
  6179.891  6179.900  0.500  2.285734  150.966  15.3532  2.484685
  6181.890  6181.900  0.500  2.284387  150.996  15.3769  2.492108
  6183.886  6183.900  0.500  2.283263  151.029  15.3976  2.498661
  6185.886  6185.900  0.500  2.281650  151.037  15.4232  2.505045
  6187.890  6187.900  0.500  2.281710  151.06  15.4247  2.507654
  6189.889  6189.900  0.500  2.281787  151.63  15.4816  2.519349
  6191.886  6191.900  0.500  2.282843  151.651  15.4674  2.517637
  6193.895  6193.900  0.500  2.285030  151.67  15.4356  2.513395
  6195.893  6195.900  0.500  2.288879  151.704  15.3798  2.502860
  6197.893  6197.900  0.500  2.295647  151.709  15.2765  2.482421
  6198.388  6198.400  0.500  2.298137  151.712  15.2388  2.475215
  6198.884  6198.900  0.500  2.301316  151.726  15.1919  2.465833
  6199.389  6199.400  0.500  2.303618  151.703  15.1546  2.457720
  6199.887  6199.900  0.500  2.306979  151.708  15.1043  2.447951
  6200.387  6200.400  0.500  2.310684  151.723  15.0499  2.436218
  6200.886  6200.900  0.500  2.315160  151.719  14.9823  2.422403
  6201.388  6201.400  0.500  2.320292  151.717  14.9054  2.406852
  6201.888  6201.900  0.500  2.326460  151.715  14.8136  2.387700
  6202.390  6202.400  0.500  2.333852  151.718  14.7048  2.364259
  6202.888  6202.900  0.500  2.342473  151.72  14.5788  2.338093
  6203.390  6203.400  0.500  2.353135  151.709  14.4231  2.305787
  6203.892  6203.900  0.500  2.365910  151.717  14.2407  2.266909
  6204.390  6204.400  0.500  2.380030  151.719  14.0413  2.225941
  6204.889  6204.900  0.500  2.396084  151.725  13.8182  2.179729
  6205.391  6205.400  0.500  2.412689  151.715  13.5897  2.132541
  6205.891  6205.900  0.500  2.430320  151.724  13.353  2.083539
  6206.390  6206.400  0.500  2.451199  151.72  13.0768  2.027822
  6206.890  6206.900  0.500  2.474767  151.72  12.7722  1.966134
  6207.388  6207.400  0.500  2.499799  151.734  12.4576  1.903000
  6207.889  6207.900  0.500  2.527716  151.734  12.1147  1.834341
  6208.394  6208.400  0.500  2.562525  151.742  11.7008  1.752657
  6208.896  6208.900  0.500  2.606951  151.755  11.1933  1.654748
  6209.394  6209.400  0.500  2.664674  151.76  10.5659  1.534601
  6209.892  6209.900  0.500  2.744015  151.756  9.759676  1.384234
  6210.397  6210.400  0.500  2.850430  151.761  8.774749  1.205310
  6210.898  6210.900  0.500  2.989654  151.759  7.634217  1.006606
  6211.401  6211.400  0.500  3.178431  151.769  6.321319  0.788857
  6211.895  6211.900  0.500  3.419173  151.78  4.969200  0.578284
  6212.394  6212.400  0.500  3.705167  151.791  3.733461  0.399558
  6212.895  6212.900  0.500  4.026209  151.787  2.708162  0.263103
  6213.394  6213.400  0.500  4.336849  151.798  1.985163  0.175049
  6213.900  6213.900  0.500  4.574138  151.79  1.565742  0.128010
  6214.399  6214.400  0.500  4.710003  151.79  1.366835  0.106764
  6214.895  6214.900  0.500  4.723666  151.779  1.348186  0.104529
  6215.396  6215.400  0.500  4.628487  151.78  1.482815  0.118290
  6215.897  6215.900  0.500  4.461298  151.777  1.752623  0.147216
  6216.400  6216.400  0.500  4.257786  151.785  2.148303  0.191771
  6216.903  6216.900  0.500  4.053744  151.79  2.634657  0.250488
  6217.401  6217.400  0.500  3.867143  151.798  3.175328  0.319205
  6217.896  6217.900  0.500  3.697178  151.787  3.763317  0.398197
  6218.397  6218.400  0.500  3.548014  151.791  4.368817  0.483508
  6218.902  6218.900  0.500  3.423937  151.805  4.946395  0.568985
  6219.404  6219.400  0.500  3.317602  151.811  5.501584  0.653780
  6219.904  6219.900  0.500  3.228080  151.818  6.017095  0.734581
  6220.398  6220.400  0.500  3.156671  151.807  6.462015  0.807106
  6220.897  6220.900  0.500  3.096746  151.811  6.861272  0.873127
  6221.400  6221.400  0.500  3.047288  151.807  7.208949  0.932023
  6221.901  6221.900  0.500  3.010863  151.811  7.476565  0.977384
  6222.403  6222.400  0.500  2.984578  151.813  7.675782  1.012283
  6222.902  6222.900  0.500  2.966412  151.817  7.816707  1.037019
  6223.401  6223.400  0.500  2.955699  151.813  7.900702  1.051913
  6223.899  6223.900  0.500  2.949678  151.818  7.948689  1.060347
  6224.403  6224.400  0.500  2.946393  151.822  7.975043  1.064705
  6224.901  6224.900  0.500  2.944538  151.821  7.989759  1.067710
  6225.404  6225.400  0.500  2.943301  151.806  7.998907  1.069439
  6225.903  6225.900  0.500  2.941082  151.82  8.017374  1.072550
  6226.403  6226.400  0.500  2.937954  151.826  8.042846  1.077354
  6226.898  6226.900  0.500  2.933393  151.831  8.079873  1.083923
  6227.401  6227.400  0.500  2.927200  151.846  8.130857  1.093232
  6227.904  6227.900  0.500  2.919415  151.849  8.194588  1.104451
  6228.402  6228.400  0.500  2.910778  151.854  8.265912  1.117453
  6228.903  6228.900  0.500  2.901377  151.847  8.343616  1.131411
  6229.401  6229.400  0.500  2.893856  151.843  8.406390  1.143275
  6229.900  6229.900  0.500  2.886411  151.83  8.468479  1.154496
  6230.397  6230.400  0.500  2.880328  151.833  8.520324  1.164300
  6230.902  6230.900  0.500  2.876292  151.841  8.555201  1.170417
  6231.401  6231.400  0.500  2.874266  151.843  8.572703  1.173905
  6231.900  6231.900  0.500  2.874170  151.845  8.573637  1.174488
  6232.399  6232.400  0.500  2.876242  151.854  8.556409  1.171392
  6232.900  6232.900  0.500  2.880800  151.851  8.517315  1.164997
  6233.898  6233.890  0.500  2.896448  151.851  8.385078  1.141608
  6234.899  6234.890  0.500  2.919250  151.848  8.195874  1.108368
  6235.913  6235.910  0.500  2.946603  151.844  7.974509  1.069597
  6236.971  6236.960  0.500  2.973844  151.847  7.760353  1.032125
  6238.034  6238.020  0.500  3.001153  151.87  7.552429  0.996784
  6239.105  6239.100  0.500  3.027746  151.876  7.354549  0.963252
  6240.213  6240.200  0.500  3.053473  151.887  7.168245  0.931784
  6241.330  6241.320  0.500  3.078348  151.889  6.992227  0.902505
  6242.468  6242.460  0.500  3.101295  151.904  6.834312  0.875997
  6243.622  6243.610  0.500  3.119597  151.908  6.710510  0.855941
  6244.798  6244.790  0.500  3.131662  151.897  6.629598  0.842965
  6245.989  6245.980  0.500  3.136306  151.906  6.599230  0.837754
  6247.211  6247.200  0.500  3.134215  151.905  6.613014  0.840386
  6248.440  6248.430  0.500  3.126091  151.921  6.667648  0.850121
  6249.692  6249.680  0.500  3.112687  151.92  6.757587  0.865159
  6250.958  6250.950  0.500  3.096114  151.928  6.870901  0.884897
  6252.249  6252.240  0.500  3.076696  151.922  7.005348  0.908416
  6253.559  6253.550  0.500  3.054723  151.917  7.160723  0.934438
  6254.893  6254.880  0.500  3.031102  151.92  7.332040  0.964753
  6256.242  6256.230  0.500  3.006506  151.929  7.515055  0.997106
  6257.612  6257.600  0.500  2.982215  151.928  7.699798  1.030268
  6258.988  6258.980  0.500  2.960934  151.952  7.866616  1.059812
  6260.404  6260.390  0.500  2.943846  151.937  8.001416  1.084544
  6261.819  6261.810  0.500  2.931553  151.926  8.099827  1.102627
  6263.260  6263.250  0.500  2.923726  151.948  8.164621  1.115162
  6264.719  6264.710  0.500  2.919824  151.954  8.196893  1.121863
  6266.202  6266.190  0.500  2.917524  151.973  8.216803  1.125680
  6267.699  6267.690  0.500  2.916530  151.995  8.226121  1.128088
  6269.224  6269.210  0.500  2.915458  151.997  8.235090  1.129650
  6270.759  6270.750  0.500  2.915280  151.99  8.236190  1.131164
  6272.324  6272.310  0.500  2.916893  151.985  8.222602  1.129345
  6273.888  6273.880  0.500  2.920693  151.998  8.192119  1.124220
  6275.492  6275.480  0.500  2.927002  152.007  8.141072  1.115609
  6277.096  6277.090  0.500  2.933856  152.018  8.086077  1.106321
  6278.744  6278.730  0.500  2.940745  152.022  8.030772  1.097603
  6280.386  6280.380  0.500  2.947976  152.02  7.972781  1.087692
  6282.062  6282.050  0.500  2.956831  152.034  7.903242  1.075982
  6283.752  6283.740  0.500  2.967152  152.014  7.821081  1.061925
  6285.457  6285.450  0.500  2.977101  152.004  7.743132  1.048352
  6287.193  6287.180  0.500  2.984967  152.002  7.682369  1.038374
  6288.937  6288.930  0.500  2.989314  151.998  7.648830  1.032864
  6290.699  6290.690  0.500  2.989271  152.002  7.649375  1.033642
  6292.493  6292.480  0.500  2.986351  152.007  7.671971  1.038187
  6294.287  6294.280  0.500  2.981827  152.022  7.707536  1.045327
  6296.119  6296.110  0.500  2.976886  152.017  7.745465  1.052614
  6297.961  6297.950  0.500  2.970885  152.021  7.792303  1.061807
  6299.817  6299.810  0.500  2.962744  152.02  7.855923  1.074527
  6301.703  6301.690  0.500  2.952072  152.019  7.940141  1.090265
  6303.599  6303.590  0.500  2.940972  151.991  8.027301  1.107203
  6305.520  6305.510  0.500  2.930778  151.981  8.109049  1.122715
  6307.463  6307.450  0.500  2.920925  151.965  8.188470  1.137917
  6309.423  6309.410  0.500  2.911451  151.983  8.267365  1.153454
  6311.387  6311.380  0.500  2.901567  151.982  8.349422  1.169684
  6313.387  6313.380  0.500  2.894205  151.977  8.410870  1.181599
  6315.402  6315.390  0.500  2.888686  151.98  8.457560  1.191602
  6317.431  6317.420  0.500  2.886448  151.975  8.476247  1.195055
  6319.487  6319.480  0.500  2.885683  151.962  8.482026  1.197736
  6321.559  6321.550  0.500  2.884724  151.938  8.488820  1.199232
  6323.652  6323.640  0.500  2.884116  151.935  8.493812  1.200996
  6325.763  6325.750  0.500  2.883729  151.927  8.496634  1.202454
  6327.884  6327.880  0.500  2.883141  151.916  8.501016  1.204609
  6330.029  6330.020  0.500  2.881772  151.903  8.511960  1.207555
  6332.205  6332.190  0.500  2.879530  151.893  8.530470  1.211999
  6334.393  6334.380  0.500  2.877991  151.882  8.543017  1.215296
  6336.593  6336.580  0.500  2.877290  151.873  8.548488  1.217361
  6338.811  6338.800  0.500  2.877233  151.867  8.548625  1.218292
  6341.059  6341.050  0.500  2.876572  151.848  8.553196  1.220548
  6343.316  6343.310  0.500  2.874637  151.833  8.568947  1.224507
  6345.602  6345.590  0.500  2.874518  151.816  8.569005  1.225593
  6347.901  6347.890  0.500  2.875766  151.804  8.557622  1.223849
  6350.222  6350.210  0.500  2.878081  151.784  8.536721  1.221401
  6352.560  6352.550  0.500  2.879760  151.761  8.521137  1.219107
  6354.909  6354.900  0.500  2.880610  151.747  8.513073  1.218689
  6357.289  6357.280  0.500  2.878501  151.722  8.529654  1.222843
  6359.679  6359.670  0.500  2.874103  151.705  8.566315  1.231101
  6362.103  6362.090  0.500  2.867925  151.707  8.619479  1.241919
  6364.530  6364.520  0.500  2.861892  151.694  8.670925  1.253425
  6366.980  6366.970  0.500  2.854543  151.675  8.733768  1.266274
  6369.460  6369.450  0.500  2.846132  151.662  8.806767  1.281243
  6371.948  6371.940  0.500  2.837743  151.64  8.879709  1.296983
  6374.453  6374.450  0.500  2.828916  151.622  8.957358  1.313133
  6376.976  6376.970  0.500  2.821382  151.598  9.023665  1.327164
  6379.529  6379.520  0.500  2.815102  151.582  9.079534  1.338902
  6382.097  6382.090  0.500  2.810590  151.567  9.119687  1.348062
  6384.681  6384.670  0.500  2.807300  151.531  9.147622  1.355208
  6387.289  6387.280  0.500  2.803640  151.524  9.180723  1.362425
  6389.911  6389.900  0.500  2.800935  151.483  9.203091  1.367932
  6392.558  6392.550  0.500  2.798960  151.443  9.218825  1.372889
  6395.221  6395.210  0.500  2.796909  151.431  9.237011  1.377220
  6397.900  6397.890  0.500  2.795189  151.41  9.251660  1.381792
  6400.599  6400.590  0.500  2.793022  151.39  9.270485  1.386781
  6403.317  6403.310  0.500  2.789760  151.348  9.298244  1.393319
  6406.062  6406.050  0.500  2.785998  151.301  9.330383  1.400818
  6408.811  6408.800  0.500  2.782410  151.284  9.362823  1.409586
  6411.588  6411.580  0.500  2.778288  151.259  9.399932  1.417887
  6414.380  6414.370  0.500  2.774313  151.288  9.439202  1.426707
  6417.197  6417.190  0.500  2.770755  151.778  9.503534  1.439460
  6420.024  6420.020  0.500  2.767131  151.738  9.535506  1.447427
  6422.877  6422.870  0.500  2.763271  151.668  9.567980  1.455428
  6425.754  6425.750  0.500  2.759334  151.637  9.603736  1.464089
  6428.648  6428.640  0.500  2.755517  151.56  9.635597  1.472434
  6431.556  6431.550  0.500  2.752354  151.463  9.659906  1.479506
  6434.478  6434.470  0.500  2.749049  151.379  9.686534  1.485969
  6437.425  6437.420  0.500  2.746142  151.342  9.712378  1.493029
  6440.395  6440.390  0.500  2.743604  151.324  9.735899  1.499188
  6443.374  6443.370  0.500  2.741303  151.3  9.756775  1.505204
  6446.386  6446.380  0.500  2.737674  151.213  9.786601  1.512694
  6449.407  6449.400  0.500  2.733963  149.758  9.728451  1.506479
  6452.458  6452.450  0.500  2.729689  151.024  9.852742  1.529947
  6455.520  6455.510  0.500  2.723630  151.033  9.913185  1.544261
  6458.600  6458.590  0.500  2.717527  148.366  9.797802  1.530289
  6461.698  6461.690  0.500  2.710813  150.817  10.0267  1.571510
  6464.819  6464.810  0.500  2.703688  148.277  9.928330  1.561089
  6467.957  6467.950  0.500  2.697615  150.64  10.148  1.600129
  6471.111  6471.100  0.500  2.692428  150.647  10.2013  1.613330
  6474.283  6474.280  0.500  2.687210  148.779  10.1275  1.605926
  6477.479  6477.470  0.500  2.682580  150.456  10.2891  1.635405
  6480.697  6480.690  0.500  2.678626  150.438  10.3287  1.645246
  6483.927  6483.920  0.500  2.675134  150.374  10.3604  1.654051
  6487.175  6487.170  0.500  2.671704  150.319  10.3922  1.663067
  6490.462  6490.450  0.500  2.668651  150.262  10.42  1.670267
  6493.748  6493.740  0.500  2.665716  150.191  10.4457  1.677803
  6497.054  6497.050  0.500  2.662688  150.119  10.4724  1.685471
  6500.378  6500.370  0.500  2.659032  150.041  10.5053  1.695037
  6503.729  6503.720  0.500  2.655325  149.973  10.5395  1.704495
  6507.097  6507.090  0.500  2.649904  149.879  10.5902  1.717264
  6510.480  6510.470  0.500  2.644431  149.782  10.6414  1.730387
  6513.893  6513.880  0.500  2.638995  149.699  10.6934  1.743618
  6517.324  6517.300  0.500  2.633697  149.625  10.745  1.757044
  6520.770  6520.750  0.500  2.628415  149.547  10.7962  1.770497
  6524.227  6524.210  0.500  2.623232  149.437  10.8443  1.783093
  6527.682  6527.690  0.500  2.619038  149.336  10.8826  1.794018
  6531.219  6531.190  0.500  2.614310  149.246  10.9276  1.806172
  6534.739  6534.710  0.500  2.609862  149.129  10.9677  1.817731
  6538.265  6538.250  0.500  2.605378  149.032  11.0098  1.828761
  6541.814  6541.800  0.500  2.601013  148.896  11.0479  1.839597
  6545.375  6545.380  0.500  2.596585  148.781  11.0883  1.851248
  6548.970  6548.980  0.500  2.591941  148.657  11.1306  1.863271
  6552.592  6552.590  0.500  2.587479  148.516  11.1698  1.874273
  6556.238  6556.220  0.500  2.582778  148.417  11.2149  1.886734
  6559.879  6559.880  0.500  2.577924  148.279  11.259  1.899417
  6563.566  6563.550  0.500  2.572404  148.161  11.3123  1.914703
  6567.256  6567.240  0.500  2.566164  148.069  11.3761  1.931080
  6570.941  6570.950  0.500  2.559587  147.968  11.4434  1.949171
  6574.700  6574.680  0.500  2.553429  147.854  11.5052  1.965621
  6578.437  6578.420  0.500  2.547590  147.76  11.5652  1.982191
  6582.214  6582.190  0.500  2.542167  147.616  11.6167  1.996135
  6585.995  6585.980  0.500  2.537100  147.277  11.6489  2.007170
  6589.772  6589.780  0.500  2.532124  147.331  11.7113  2.023098
  6593.626  6593.610  0.500  2.527209  147.228  11.7608  2.037645
  6597.469  6597.450  0.500  2.522089  147.088  11.8099  2.052146
  6601.298  6601.310  0.500  2.516859  146.952  11.8609  2.066059
  6605.212  6605.190  0.500  2.512026  146.801  11.9061  2.080292
  6609.097  6609.090  0.500  2.507231  146.712  11.9561  2.093885
  6613.019  6613.010  0.500  2.502398  146.594  12.0044  2.108351
  6616.956  6616.950  0.500  2.497697  146.449  12.049  2.121956
  6620.919  6620.910  0.500  2.492914  146.3  12.0944  2.135966
  6624.875  6624.880  0.500  2.488002  146.175  12.1436  2.151227
  6628.896  6628.880  0.500  2.482480  145.993  12.1957  2.166161
  6632.905  6632.890  0.500  2.476848  145.936  12.2598  2.183384
  6636.924  6636.930  0.500  2.470979  145.816  12.3218  2.202081
  6640.996  6640.980  0.500  2.464638  145.664  12.3872  2.220923
  6645.038  6645.050  0.500  2.458378  145.55  12.4553  2.239980
  6649.125  6649.140  0.500  2.452544  145.427  12.5176  2.258084
  6653.265  6653.250  0.500  2.446842  145.299  12.578  2.275806
  6657.370  6657.380  0.500  2.441728  145.166  12.631  2.292575
  6661.522  6661.530  0.500  2.436383  145.026  12.6864  2.308790
  6665.677  6665.690  0.500  2.430965  144.912  12.7452  2.326704
  6669.867  6669.880  0.500  2.425504  144.778  12.8032  2.344318
  6674.072  6674.080  0.500  2.419571  144.639  12.8671  2.363080
  6678.290  6678.310  0.500  2.413759  144.486  12.9283  2.381958
  6682.536  6682.550  0.500  2.407317  144.378  13.0022  2.402967
  6686.798  6686.810  0.500  2.401657  144.238  13.0633  2.422332
  6691.076  6691.090  0.500  2.395940  144.099  13.1255  2.440717
  6695.373  6695.390  0.500  2.391180  143.944  13.174  2.457018
  6699.688  6699.710  0.500  2.386037  143.794  13.2281  2.474420