File: xdidata/Data/Nd/Nd-L1-Nd-hydroxide.xdi
# XDI/1.0 BlueSky/1.10.0 BMM/2023-1.0-py310-tiled
# Beamline.name: BMM (06BM) -- Beamline for Materials Measurement (NIST)
# Beamline.xray_source: NSLS-II three-pole wiggler
# Beamline.collimation: paraboloid mirror, 5 nm Rh on 30 nm Pt
# Beamline.focusing: not in use
# Beamline.harmonic_rejection: flat mirror, Si stripe, pitch = 7.0 mrad relative to beam
# Beamline.software: Bluesky 1.10.0, Ophyd 1.7.0, DataBroker 2.0.0b13, Python 3.10.8, 2023-1.0-py310-tiled
# Detector.I0: 10 cm N2
# Detector.I1: 25 cm N2
# Detector.I2: 25 cm N2
# Element.symbol: Nd
# Element.edge: L1
# Element.reference: Nd
# Element.reference_material: Nd2O3
# Facility.name: NSLS-II
# Facility.energy: 3.0
# Facility.current: 399.0
# Facility.mode: top-off
# Facility.GUP: 123456
# Facility.SAF: 301027
# Facility.cycle: 2023-2
# Mono.name: Si(111)
# Mono.d_spacing: 3.13519
# Mono.encoder_resolution: 0.0000050 deg/ct
# Mono.angle_offset: 16.0754 deg
# Mono.scan_mode: pseudo channel cut
# Mono.scan_type: step
# Mono.direction: forward in energy
# Sample.name: Nd(OH)3
# Sample.prep: Powder in PEG pellet
# Sample.x: 149.848 mm
# Sample.y: 114.690 mm
# Sample.SDD_position: 205.000 mm
# Scan.experimenters: Bruce Ravel
# Scan.edge_energy: 7126.0
# Scan.start_time: 2023-05-08T20:30:51
# Scan.end_time: 2023-05-08T20:36:40
# Scan.transient_id: 75586
# Scan.uid: f69ae175-dc34-4b99-9302-0dbb4bdee89c
# Scan.plot_hint: ln(I0/It)  --  ln($5/$6)
# Column.1: energy eV
# Column.2: requested_energy eV
# Column.3: measurement_time seconds
# Column.4: xmu
# Column.5: I0 nA
# Column.6: It nA
# Column.7: Ir nA
# ///////////
# sample courtesy Martin Stennett, University of Sheffield
# -----------
# energy  requested_energy  measurement_time  xmu  I0  It  Ir
  6926.012  6926.000  0.500  2.485233  149.887  12.4865  2.423325
  6936.012  6936.000  0.500  2.474177  149.866  12.6235  2.465224
  6946.019  6946.000  0.500  2.463332  149.929  12.7666  2.507246
  6956.008  6956.000  0.500  2.454657  149.973  12.8816  2.543837
  6966.016  6966.000  0.500  2.444312  150.586  13.0687  2.595260
  6976.015  6976.000  0.500  2.429884  150.589  13.2589  2.652240
  6986.030  6986.000  0.500  2.416673  150.599  13.4362  2.706040
  6996.011  6996.000  0.500  2.405588  150.591  13.5851  2.752003
  7006.011  7006.000  0.500  2.396635  150.572  13.7056  2.791009
  7016.014  7016.000  0.500  2.386955  150.533  13.8353  2.833423
  7026.013  7026.000  0.500  2.375167  150.528  13.999  2.884278
  7036.017  7036.000  0.500  2.363796  150.475  14.154  2.933710
  7046.010  7046.000  0.500  2.353361  150.435  14.2988  2.980846
  7056.008  7056.000  0.500  2.343700  150.381  14.4323  3.025247
  7066.017  7066.000  0.500  2.333870  150.274  14.5646  3.069120
  7075.998  7076.000  0.500  2.323663  149.548  14.6429  3.103690
  7086.002  7086.000  0.500  2.311467  150.024  14.8698  3.171521
  7095.992  7096.000  0.500  2.300881  149.973  15.0229  3.222958
  7097.995  7098.000  0.500  2.299324  149.983  15.0473  3.231440
  7099.990  7100.000  0.500  2.297251  149.963  15.0765  3.241231
  7101.995  7102.000  0.500  2.295787  149.927  15.0949  3.248467
  7103.995  7104.000  0.500  2.293820  149.886  15.1206  3.256568
  7105.995  7106.000  0.500  2.291981  149.88  15.1477  3.265768
  7107.993  7108.000  0.500  2.290181  149.847  15.1718  3.275105
  7110.003  7110.000  0.500  2.288311  149.801  15.1955  3.282795
  7111.992  7112.000  0.500  2.286828  149.645  15.2022  3.288520
  7113.998  7114.000  0.500  2.285355  149.508  15.2107  3.292878
  7115.991  7116.000  0.500  2.284007  149.479  15.2282  3.299281
  7116.483  7116.500  0.500  2.283794  149.446  15.2281  3.300144
  7116.981  7117.000  0.500  2.283375  149.453  15.2351  3.301942
  7117.484  7117.500  0.500  2.283374  149.418  15.2316  3.301745
  7117.980  7118.000  0.500  2.282912  149.389  15.2357  3.304282
  7118.487  7118.500  0.500  2.282871  149.36  15.2334  3.304271
  7118.983  7119.000  0.500  2.282420  149.313  15.2355  3.304443
  7119.484  7119.500  0.500  2.282295  149.3  15.236  3.305502
  7119.982  7120.000  0.500  2.282116  149.289  15.2376  3.306916
  7120.481  7120.500  0.500  2.281934  149.236  15.235  3.306641
  7120.984  7121.000  0.500  2.281782  149.25  15.2387  3.307915
  7121.490  7121.500  0.500  2.281668  149.227  15.2382  3.307534
  7121.986  7122.000  0.500  2.281748  149.202  15.2344  3.307494
  7122.485  7122.500  0.500  2.281698  149.163  15.2311  3.307202
  7122.991  7123.000  0.500  2.281773  149.131  15.2267  3.307344
  7123.486  7123.500  0.500  2.281854  149.103  15.2227  3.305677
  7123.987  7124.000  0.500  2.282157  149.098  15.2175  3.305569
  7124.486  7124.500  0.500  2.282091  149.066  15.2153  3.305105
  7124.988  7125.000  0.500  2.282280  149.019  15.2076  3.303255
  7125.489  7125.500  0.500  2.282512  148.986  15.2007  3.302568
  7125.995  7126.000  0.500  2.283016  148.964  15.1908  3.300054
  7126.497  7126.500  0.500  2.284047  148.934  15.1721  3.295967
  7126.992  7127.000  0.500  2.284687  148.907  15.1596  3.292427
  7127.498  7127.500  0.500  2.285732  148.874  15.1405  3.288264
  7127.994  7128.000  0.500  2.286937  148.826  15.1173  3.282444
  7128.489  7128.500  0.500  2.288280  148.785  15.0929  3.275695
  7128.989  7129.000  0.500  2.290408  148.77  15.0593  3.266589
  7129.496  7129.500  0.500  2.293335  148.717  15.0099  3.253681
  7129.994  7130.000  0.500  2.296710  148.676  14.9552  3.238411
  7130.496  7130.500  0.500  2.300632  148.64  14.8931  3.222383
  7131.001  7131.000  0.500  2.304273  148.597  14.8346  3.205467
  7131.496  7131.500  0.500  2.307888  148.552  14.7766  3.189465
  7131.993  7132.000  0.500  2.310886  148.501  14.7273  3.176931
  7132.495  7132.500  0.500  2.313709  148.5  14.6858  3.165235
  7132.996  7133.000  0.500  2.316333  148.51  14.6483  3.155860
  7133.492  7133.500  0.500  2.318863  148.511  14.6113  3.144497
  7133.995  7134.000  0.500  2.321763  148.485  14.5665  3.133737
  7134.500  7134.500  0.500  2.324996  148.452  14.5162  3.119888
  7134.996  7135.000  0.500  2.328976  148.463  14.4596  3.103789
  7135.501  7135.500  0.500  2.333881  148.489  14.3914  3.085434
  7135.992  7136.000  0.500  2.339895  148.49  14.3052  3.061443
  7136.495  7136.500  0.500  2.346315  148.487  14.2133  3.036259
  7136.994  7137.000  0.500  2.353770  148.477  14.1068  3.007500
  7137.495  7137.500  0.500  2.362044  148.471  13.9901  2.975672
  7137.998  7138.000  0.500  2.371548  148.471  13.8578  2.938887
  7138.502  7138.500  0.500  2.382160  148.473  13.7116  2.898590
  7139.001  7139.000  0.500  2.393808  148.449  13.5506  2.855018
  7139.498  7139.500  0.500  2.406347  148.441  13.3811  2.808869
  7139.995  7140.000  0.500  2.419431  148.442  13.2072  2.761119
  7140.497  7140.500  0.500  2.433152  148.426  13.0258  2.712097
  7140.999  7141.000  0.500  2.446222  148.413  12.8556  2.666190
  7141.503  7141.500  0.500  2.458708  148.433  12.6978  2.622723
  7142.002  7142.000  0.500  2.470358  148.419  12.5495  2.583152
  7142.504  7142.500  0.500  2.481023  148.424  12.4168  2.546779
  7143.000  7143.000  0.500  2.489913  148.441  12.3083  2.518772
  7143.499  7143.500  0.500  2.496524  148.425  12.2259  2.496107
  7144.002  7144.000  0.500  2.501365  148.412  12.1657  2.480247
  7144.499  7144.500  0.500  2.503975  148.399  12.133  2.471416
  7145.006  7145.000  0.500  2.504281  148.396  12.1291  2.470486
  7145.506  7145.500  0.500  2.502832  148.402  12.1472  2.475900
  7146.000  7146.000  0.500  2.499638  148.419  12.1874  2.487512
  7146.502  7146.500  0.500  2.495187  148.399  12.2401  2.500798
  7147.001  7147.000  0.500  2.489971  148.399  12.3041  2.519142
  7147.495  7147.500  0.500  2.484170  148.395  12.3754  2.538645
  7147.997  7148.000  0.500  2.477825  148.403  12.4548  2.560378
  7148.498  7148.500  0.500  2.471064  148.384  12.5377  2.583020
  7149.001  7149.000  0.500  2.464676  148.415  12.6207  2.604852
  7149.499  7149.500  0.500  2.458720  148.385  12.6935  2.625897
  7150.002  7150.000  0.500  2.452713  148.383  12.7699  2.646717
  7150.495  7150.500  0.500  2.447809  148.394  12.8335  2.664479
  7151.000  7151.000  0.500  2.443116  148.38  12.8927  2.681375
  7151.993  7151.990  0.500  2.435764  148.373  12.9872  2.707588
  7153.002  7152.990  0.500  2.430084  148.361  13.0602  2.728698
  7154.020  7154.010  0.500  2.426086  148.361  13.1124  2.743745
  7155.062  7155.060  0.500  2.422115  148.33  13.1618  2.757981
  7156.135  7156.120  0.500  2.417844  148.321  13.2174  2.773346
  7157.209  7157.200  0.500  2.413259  148.325  13.2785  2.791591
  7158.306  7158.300  0.500  2.407812  148.326  13.3511  2.811964
  7159.430  7159.420  0.500  2.401688  148.3  13.4308  2.834511
  7160.576  7160.560  0.500  2.395036  148.276  13.5182  2.859452
  7161.716  7161.710  0.500  2.388863  148.275  13.6019  2.883540
  7162.902  7162.890  0.500  2.383131  148.229  13.6758  2.905436
  7164.099  7164.080  0.500  2.378180  148.204  13.7413  2.924935
  7165.303  7165.300  0.500  2.373764  148.177  13.7997  2.942149
  7166.538  7166.530  0.500  2.370650  148.162  13.8413  2.954877
  7167.791  7167.780  0.500  2.368296  148.104  13.8685  2.962506
  7169.064  7169.050  0.500  2.366726  148.077  13.8877  2.969359
  7170.344  7170.340  0.500  2.366078  148.042  13.8935  2.972754
  7171.662  7171.650  0.500  2.366299  148.042  13.8904  2.972678
  7172.987  7172.980  0.500  2.368099  148.016  13.8629  2.966409
  7174.340  7174.330  0.500  2.371217  148.007  13.819  2.954459
  7175.716  7175.700  0.500  2.375593  147.959  13.7541  2.938477
  7177.084  7177.080  0.500  2.379496  147.901  13.6953  2.921570
  7178.503  7178.490  0.500  2.383019  147.932  13.6499  2.910123
  7179.922  7179.910  0.500  2.385338  147.937  13.6187  2.901940
  7181.361  7181.350  0.500  2.387052  147.899  13.592  2.895698
  7182.821  7182.810  0.500  2.388309  147.872  13.5724  2.891631
  7184.297  7184.290  0.500  2.389232  147.852  13.558  2.888868
  7185.802  7185.790  0.500  2.389151  147.828  13.557  2.888944
  7187.320  7187.310  0.500  2.388598  147.811  13.5629  2.891650
  7188.855  7188.850  0.500  2.387794  147.794  13.5722  2.895690
  7190.423  7190.410  0.500  2.387003  147.729  13.577  2.898258
  7191.992  7191.980  0.500  2.385833  145.278  13.3673  2.856288
  7193.588  7193.580  0.500  2.384351  147.48  13.5901  2.905834
  7195.207  7195.190  0.500  2.382042  147.572  13.63  2.917129
  7196.840  7196.830  0.500  2.379746  147.558  13.6601  2.926956
  7198.495  7198.480  0.500  2.376595  147.497  13.6975  2.939191
  7200.156  7200.150  0.500  2.372464  147.495  13.754  2.956515
  7201.855  7201.840  0.500  2.367335  147.441  13.8197  2.976223
  7203.559  7203.550  0.500  2.362176  147.415  13.8887  2.997567
  7205.290  7205.280  0.500  2.356375  147.402  13.9682  3.021140
  7207.044  7207.030  0.500  2.350541  147.319  14.0421  3.044303
  7208.797  7208.790  0.500  2.345152  147.277  14.114  3.066107
  7210.595  7210.580  0.500  2.341078  147.24  14.1681  3.083429
  7212.394  7212.380  0.500  2.337379  147.184  14.2151  3.098402
  7214.221  7214.210  0.500  2.334393  147.172  14.2564  3.110991
  7216.059  7216.050  0.500  2.331763  147.126  14.2896  3.122005
  7217.925  7217.910  0.500  2.329522  147.075  14.3166  3.132020
  7219.805  7219.790  0.500  2.328006  147.012  14.3322  3.137009
  7221.704  7221.690  0.500  2.326989  146.976  14.3432  3.141799
  7223.624  7223.610  0.500  2.326285  146.92  14.3479  3.144944
  7225.565  7225.550  0.500  2.325980  146.836  14.3441  3.145925
  7227.522  7227.510  0.500  2.325443  145.198  14.1917  3.114746
  7229.487  7229.480  0.500  2.325271  146.968  14.3671  3.154681
  7231.494  7231.480  0.500  2.324903  146.918  14.3675  3.155725
  7233.501  7233.490  0.500  2.324012  146.837  14.3724  3.159271
  7235.534  7235.520  0.500  2.322285  146.834  14.3969  3.167787
  7237.593  7237.580  0.500  2.319869  146.789  14.4274  3.178671
  7239.660  7239.650  0.500  2.317265  146.749  14.461  3.189698
  7241.752  7241.740  0.500  2.314752  146.729  14.4955  3.201366
  7243.863  7243.850  0.500  2.312076  146.59  14.5206  3.211207
  7245.996  7245.980  0.500  2.309731  146.014  14.4974  3.208777
  7248.135  7248.120  0.500  2.307705  146.541  14.5792  3.231057
  7250.304  7250.290  0.500  2.305999  146.517  14.6018  3.239703
  7252.489  7252.480  0.500  2.304273  146.384  14.6137  3.245556
  7254.695  7254.680  0.500  2.302698  144.125  14.4109  3.203799
  7256.910  7256.900  0.500  2.300277  146.532  14.687  3.268582
  7259.156  7259.150  0.500  2.298112  146.375  14.7031  3.275827
  7261.428  7261.410  0.500  2.295957  145.997  14.6968  3.278713
  7263.699  7263.690  0.500  2.293365  139.22  14.051  3.140333
  7266.006  7265.990  0.500  2.291638  145.572  14.7174  3.291111
  7268.327  7268.310  0.500  2.288616  146.767  14.8832  3.333274
  7270.659  7270.650  0.500  2.285354  146.765  14.9316  3.348942
  7273.015  7273.000  0.500  2.281922  147.05  15.012  3.372387
  7275.390  7275.380  0.500  2.278572  147.279  15.0859  3.394820
  7277.783  7277.770  0.500  2.275224  147.288  15.1373  3.411971
  7280.207  7280.190  0.500  2.271535  147.235  15.1879  3.427820
  7282.639  7282.620  0.500  2.268380  147.187  15.2309  3.443969
  7285.082  7285.070  0.500  2.264857  145.29  15.0876  3.415901
  7287.560  7287.550  0.500  2.261832  146.94  15.3052  3.471176
  7290.059  7290.040  0.500  2.259554  146.96  15.3422  3.483849
  7292.561  7292.550  0.500  2.257364  146.931  15.3728  3.494745
  7295.081  7295.070  0.500  2.255094  146.884  15.4028  3.505678
  7297.643  7297.620  0.500  2.253499  146.793  15.4179  3.512069
  7300.201  7300.190  0.500  2.251853  146.565  15.4192  3.516979
  7302.780  7302.770  0.500  2.249841  146.887  15.4843  3.535982
  7305.394  7305.380  0.500  2.247528  146.792  15.5101  3.545941
  7308.012  7308.000  0.500  2.245972  146.723  15.5269  3.553874
  7310.667  7310.650  0.500  2.243751  146.696  15.5586  3.565695
  7313.319  7313.310  0.500  2.241066  146.639  15.5943  3.578194
  7316.008  7315.990  0.500  2.238355  146.594  15.6319  3.591259
  7318.704  7318.690  0.500  2.235350  146.533  15.6724  3.606728
  7321.425  7321.410  0.500  2.232250  146.509  15.7185  3.623073
  7324.164  7324.150  0.500  2.229066  146.414  15.7584  3.637418
  7326.917  7326.900  0.500  2.226010  146.402  15.8053  3.654446
  7329.696  7329.680  0.500  2.223057  146.344  15.8458  3.668385
  7332.485  7332.470  0.500  2.220233  146.282  15.8839  3.682789
  7335.302  7335.290  0.500  2.217582  146.261  15.9238  3.698483
  7338.131  7338.120  0.500  2.214453  145.989  15.9439  3.708297
  7340.984  7340.970  0.500  2.211666  145.986  15.9881  3.724164
  7343.869  7343.850  0.500  2.208949  146.02  16.0353  3.741110
  7346.754  7346.740  0.500  2.206251  145.98  16.0743  3.755259
  7349.662  7349.650  0.500  2.203407  145.942  16.1159  3.770636
  7352.577  7352.570  0.500  2.200938  145.874  16.1481  3.784493
  7355.529  7355.520  0.500  2.197837  145.822  16.1925  3.800508
  7358.502  7358.490  0.500  2.194340  145.746  16.2407  3.818504
  7361.477  7361.470  0.500  2.190976  145.698  16.2902  3.835513
  7364.485  7364.480  0.500  2.187251  145.62  16.3421  3.854455
  7367.504  7367.500  0.500  2.183793  145.559  16.3919  3.872875
  7370.563  7370.550  0.500  2.180190  145.507  16.4452  3.892557
  7373.620  7373.610  0.500  2.176840  145.426  16.4912  3.909871
  7376.701  7376.690  0.500  2.173402  145.365  16.541  3.928096
  7379.800  7379.790  0.500  2.170320  145.267  16.581  3.944097
  7382.919  7382.910  0.500  2.167638  145.215  16.6196  3.959384
  7386.058  7386.050  0.500  2.164763  145.14  16.6588  3.974651
  7389.219  7389.200  0.500  2.161959  145.076  16.6982  3.990314
  7392.388  7392.380  0.500  2.159214  145.021  16.7377  4.004853
  7395.575  7395.570  0.500  2.156555  144.953  16.7743  4.019812
  7398.803  7398.790  0.500  2.153879  144.882  16.8111  4.034966
  7402.029  7402.020  0.500  2.151202  144.789  16.8454  4.048789
  7405.290  7405.270  0.500  2.148258  144.722  16.8872  4.065742
  7408.559  7408.550  0.500  2.145453  144.567  16.9165  4.078875
  7411.853  7411.840  0.500  2.142548  144.592  16.9687  4.097990
  7415.163  7415.150  0.500  2.139118  144.523  17.0189  4.117790
  7418.474  7418.470  0.500  2.135334  144.45  17.0747  4.138122
  7421.835  7421.820  0.500  2.132032  144.338  17.1179  4.156349
  7425.203  7425.190  0.500  2.128220  144.261  17.1741  4.177473
  7428.582  7428.570  0.500  2.124423  144.2  17.2322  4.198740
  7431.995  7431.980  0.500  2.120801  144.072  17.2793  4.218177
  7435.411  7435.400  0.500  2.117389  143.975  17.3268  4.236873
  7438.863  7438.850  0.500  2.114012  143.879  17.3737  4.255855
  7442.321  7442.310  0.500  2.110879  143.725  17.4097  4.272383
  7445.820  7445.790  0.500  2.107101  141.006  17.1448  4.215957
  7449.306  7449.290  0.500  2.104268  143.669  17.5183  4.312875
  7452.828  7452.810  0.500  2.101007  143.171  17.5146  4.319393
  7456.364  7456.350  0.500  2.097948  143.487  17.607  4.349740
  7459.919  7459.900  0.500  2.094633  139.931  17.2277  4.262860
  7463.494  7463.480  0.500  2.090835  143.265  17.7052  4.388779
  7467.095  7467.080  0.500  2.087288  142.268  17.6446  4.382098
  7470.720  7470.690  0.500  2.083910  143.237  17.8249  4.434792
  7474.354  7474.320  0.500  2.080488  143.086  17.8671  4.453034
  7477.998  7477.980  0.500  2.076590  142.96  17.921  4.474076
  7481.647  7481.650  0.500  2.072860  142.844  17.9734  4.496669
  7485.361  7485.340  0.500  2.069140  142.715  18.0241  4.517580
  7489.062  7489.050  0.500  2.065626  142.627  18.0764  4.538657
  7492.795  7492.780  0.500  2.062032  142.51  18.1266  4.558846
  7496.540  7496.520  0.500  2.059006  142.4  18.1676  4.577164
  7500.310  7500.290  0.500  2.055573  142.302  18.2174  4.598062
  7504.089  7504.080  0.500  2.052345  142.168  18.2591  4.616958
  7507.900  7507.880  0.500  2.048976  142.098  18.3118  4.638859
  7511.733  7511.710  0.500  2.045290  141.991  18.3655  4.660698
  7515.569  7515.550  0.500  2.041869  141.815  18.4056  4.679178
  7519.429  7519.410  0.500  2.038418  141.701  18.4544  4.700124
  7523.312  7523.290  0.500  2.034654  141.613  18.5125  4.723151
  7527.206  7527.190  0.500  2.031051  141.489  18.5631  4.744589
  7531.127  7531.110  0.500  2.027496  141.329  18.608  4.766197
  7535.066  7535.050  0.500  2.024080  141.211  18.6561  4.787228
  7539.038  7539.010  0.500  2.020055  141.083  18.7144  4.810938
  7542.994  7542.980  0.500  2.016398  140.954  18.7658  4.833197
  7546.987  7546.980  0.500  2.012539  140.791  18.8166  4.855662
  7551.014  7550.990  0.500  2.008666  140.683  18.8751  4.881199
  7555.062  7555.030  0.500  2.004815  140.566  18.9322  4.905572
  7559.100  7559.080  0.500  2.001052  140.433  18.9855  4.928425
  7563.170  7563.150  0.500  1.997344  140.271  19.0341  4.950037
  7567.273  7567.240  0.500  1.993763  140.138  19.0843  4.972074
  7571.371  7571.350  0.500  1.990022  140.014  19.1388  4.995712
  7575.501  7575.480  0.500  1.986414  139.864  19.1874  5.018846
  7579.650  7579.630  0.500  1.982760  139.71  19.2365  5.040355
  7583.804  7583.790  0.500  1.979039  139.525  19.2826  5.062604
  7587.975  7587.980  0.500  1.975017  139.371  19.339  5.087520
  7592.172  7592.180  0.500  1.971084  139.182  19.3889  5.111290
  7596.429  7596.410  0.500  1.967490  138.947  19.4257  5.131302
  7600.680  7600.650  0.500  1.963864  138.552  19.441  5.145537
  7604.929  7604.910  0.500  1.959891  138.172  19.4647  5.161349
  7609.201  7609.190  0.500  1.955790  137.937  19.5116  5.183613
  7613.475  7613.490  0.500  1.952089  137.813  19.5663  5.209047
  7617.810  7617.810  0.500  1.948254  137.741  19.6312  5.235437
  7622.171  7622.150  0.500  1.944195  137.823  19.7228  5.271229
  7626.529  7626.510  0.500  1.940170  137.825  19.8027  5.303281
  7630.925  7630.890  0.500  1.936428  137.699  19.8587  5.328786
  7635.294  7635.280  0.500  1.932574  137.507  19.9077  5.352863
  7639.723  7639.700  0.500  1.928655  137.439  19.9758  5.381635
  7644.152  7644.130  0.500  1.924794  137.251  20.0257  5.406414
  7648.591  7648.580  0.500  1.920857  137.091  20.0813  5.431145
  7653.068  7653.050  0.500  1.917101  136.954  20.1367  5.456917
  7657.568  7657.540  0.500  1.913161  136.785  20.1912  5.483714
  7662.071  7662.050  0.500  1.909338  136.58  20.2383  5.507320
  7666.598  7666.580  0.500  1.905559  136.409  20.2893  5.532070
  7671.147  7671.130  0.500  1.901621  136.234  20.3434  5.558480