File: xdidata/Data/Nd/Nd-L1-Nd2Ti2O7.xdi
# XDI/1.0 BlueSky/1.10.0 BMM/2023-1.0-py310-tiled
# Beamline.name: BMM (06BM) -- Beamline for Materials Measurement (NIST)
# Beamline.xray_source: NSLS-II three-pole wiggler
# Beamline.collimation: paraboloid mirror, 5 nm Rh on 30 nm Pt
# Beamline.focusing: not in use
# Beamline.harmonic_rejection: flat mirror, Si stripe, pitch = 7.0 mrad relative to beam
# Beamline.software: Bluesky 1.10.0, Ophyd 1.7.0, DataBroker 2.0.0b13, Python 3.10.8, 2023-1.0-py310-tiled
# Detector.I0: 10 cm N2
# Detector.I1: 25 cm N2
# Detector.I2: 25 cm N2
# Element.symbol: Nd
# Element.edge: L1
# Element.reference: Nd
# Element.reference_material: Nd2O3
# Facility.name: NSLS-II
# Facility.energy: 3.0
# Facility.current: 399.1
# Facility.mode: top-off
# Facility.GUP: 123456
# Facility.SAF: 301027
# Facility.cycle: 2023-2
# Mono.name: Si(111)
# Mono.d_spacing: 3.13519
# Mono.encoder_resolution: 0.0000050 deg/ct
# Mono.angle_offset: 16.0754 deg
# Mono.scan_mode: pseudo channel cut
# Mono.scan_type: step
# Mono.direction: forward in energy
# Sample.name: Nd2Ti2O7
# Sample.prep: Powder in PEG pellet
# Sample.x: 149.848 mm
# Sample.y: 114.690 mm
# Sample.SDD_position: 205.000 mm
# Scan.experimenters: Bruce Ravel
# Scan.edge_energy: 7126.0
# Scan.start_time: 2023-05-08T20:24:22
# Scan.end_time: 2023-05-08T20:30:15
# Scan.transient_id: 75581
# Scan.uid: 03f616dd-6100-451d-9eb1-2dbd34af3301
# Scan.plot_hint: ln(I0/It)  --  ln($5/$6)
# Column.1: energy eV
# Column.2: requested_energy eV
# Column.3: measurement_time seconds
# Column.4: xmu
# Column.5: I0 nA
# Column.6: It nA
# Column.7: Ir nA
# ///////////
# sample courtesy Martin Stennett, University of Sheffield
# -----------
# energy  requested_energy  measurement_time  xmu  I0  It  Ir
  6926.008  6926.000  0.500  1.586966  149.798  30.6404  5.952785
  6936.006  6936.000  0.500  1.579295  150.327  30.9856  6.056970
  6946.019  6946.000  0.500  1.571109  150.402  31.2556  6.144280
  6956.002  6956.000  0.500  1.562837  150.432  31.5217  6.230187
  6966.055  6966.000  0.500  1.554299  150.455  31.7968  6.321547
  6976.017  6976.000  0.500  1.545565  150.479  32.0808  6.422273
  6986.018  6986.000  0.500  1.537439  150.458  32.338  6.520060
  6996.007  6996.000  0.500  1.529668  150.45  32.5887  6.609478
  7006.009  7006.000  0.500  1.521493  150.455  32.8573  6.698679
  7016.012  7016.000  0.500  1.513097  150.381  33.1179  6.789209
  7026.017  7026.000  0.500  1.504708  150.36  33.3924  6.887684
  7036.010  7036.000  0.500  1.496784  150.305  33.6456  6.982610
  7046.012  7046.000  0.500  1.488731  150.273  33.9104  7.077670
  7056.010  7056.000  0.500  1.480739  150.205  34.1671  7.170889
  7066.008  7066.000  0.500  1.472956  150.088  34.4072  7.260487
  7077.052  7076.000  0.500  1.464603  149.704  34.607  7.343855
  7085.982  7086.000  0.500  1.457448  150.089  34.9453  7.460501
  7095.977  7096.000  0.500  1.449754  150.028  35.2009  7.558640
  7097.980  7098.000  0.500  1.448316  150.007  35.2465  7.575962
  7099.984  7100.000  0.500  1.446651  149.988  35.3007  7.595626
  7101.986  7102.000  0.500  1.445370  149.975  35.3429  7.612419
  7103.982  7104.000  0.500  1.443682  149.925  35.3907  7.629510
  7105.989  7106.000  0.500  1.442222  149.939  35.4459  7.650313
  7107.987  7108.000  0.500  1.440639  149.856  35.4824  7.666218
  7109.990  7110.000  0.500  1.439164  149.826  35.5276  7.683299
  7111.990  7112.000  0.500  1.437824  149.687  35.5422  7.694050
  7113.991  7114.000  0.500  1.436500  149.579  35.5635  7.705745
  7115.991  7116.000  0.500  1.434932  149.523  35.6062  7.722410
  7116.481  7116.500  0.500  1.434535  149.496  35.6138  7.725650
  7116.981  7117.000  0.500  1.434195  149.485  35.6233  7.730644
  7117.482  7117.500  0.500  1.433869  149.465  35.6303  7.732476
  7117.984  7118.000  0.500  1.433663  149.439  35.6313  7.732955
  7118.483  7118.500  0.500  1.433182  149.421  35.6441  7.738046
  7118.985  7119.000  0.500  1.432708  149.343  35.6424  7.738770
  7119.486  7119.500  0.500  1.432729  149.33  35.6387  7.739950
  7119.982  7120.000  0.500  1.432348  149.345  35.6557  7.744532
  7120.481  7120.500  0.500  1.431723  149.33  35.6745  7.749189
  7120.986  7121.000  0.500  1.431655  149.316  35.6735  7.750898
  7121.487  7121.500  0.500  1.431133  149.285  35.6847  7.754262
  7121.988  7122.000  0.500  1.431094  149.257  35.6796  7.753378
  7122.492  7122.500  0.500  1.430527  149.237  35.6948  7.757873
  7122.989  7123.000  0.500  1.430260  149.215  35.6992  7.759390
  7123.490  7123.500  0.500  1.429947  149.183  35.7026  7.761163
  7123.989  7124.000  0.500  1.429862  149.173  35.7033  7.762323
  7124.484  7124.500  0.500  1.429498  149.125  35.7049  7.761899
  7124.988  7125.000  0.500  1.429182  149.104  35.7111  7.764650
  7125.491  7125.500  0.500  1.429005  149.066  35.7083  7.764309
  7125.995  7126.000  0.500  1.428902  149.04  35.7059  7.763214
  7126.493  7126.500  0.500  1.428710  149.019  35.7077  7.763829
  7126.997  7127.000  0.500  1.428848  148.948  35.6856  7.757433
  7127.494  7127.500  0.500  1.428831  148.949  35.6866  7.756534
  7127.987  7128.000  0.500  1.428864  148.907  35.6753  7.752033
  7128.494  7128.500  0.500  1.428607  148.881  35.6782  7.748941
  7128.991  7129.000  0.500  1.428677  148.854  35.6692  7.742755
  7129.494  7129.500  0.500  1.429188  148.819  35.6428  7.731708
  7129.998  7130.000  0.500  1.429507  148.774  35.6205  7.719274
  7130.496  7130.500  0.500  1.429612  148.73  35.6062  7.707262
  7130.994  7131.000  0.500  1.429701  148.692  35.5939  7.696359
  7131.501  7131.500  0.500  1.429879  148.655  35.5789  7.686468
  7131.993  7132.000  0.500  1.429999  148.627  35.5679  7.678257
  7132.495  7132.500  0.500  1.430143  148.601  35.5564  7.670621
  7132.989  7133.000  0.500  1.430347  148.603  35.5497  7.662694
  7133.498  7133.500  0.500  1.430478  148.609  35.5465  7.657378
  7133.999  7134.000  0.500  1.430769  148.597  35.5332  7.648633
  7134.498  7134.500  0.500  1.431097  148.617  35.5265  7.640526
  7134.996  7135.000  0.500  1.431499  148.605  35.5093  7.627749
  7135.497  7135.500  0.500  1.432078  148.589  35.4848  7.612143
  7135.996  7136.000  0.500  1.432594  148.566  35.4611  7.594508
  7136.497  7136.500  0.500  1.433479  148.571  35.4308  7.573774
  7136.998  7137.000  0.500  1.434127  148.537  35.3998  7.551347
  7137.504  7137.500  0.500  1.434918  148.567  35.379  7.527236
  7137.998  7138.000  0.500  1.435885  148.568  35.345  7.498872
  7138.500  7138.500  0.500  1.436852  148.574  35.3123  7.468247
  7138.992  7139.000  0.500  1.437877  148.561  35.273  7.434858
  7139.505  7139.500  0.500  1.438922  148.556  35.2351  7.398637
  7139.997  7140.000  0.500  1.439865  148.559  35.2026  7.361590
  7140.503  7140.500  0.500  1.440479  148.55  35.1787  7.325425
  7141.007  7141.000  0.500  1.441232  148.531  35.1477  7.289411
  7141.505  7141.500  0.500  1.441926  148.563  35.1309  7.258517
  7142.004  7142.000  0.500  1.442000  148.549  35.125  7.229406
  7142.504  7142.500  0.500  1.442189  148.54  35.1163  7.206184
  7143.004  7143.000  0.500  1.442299  148.556  35.1163  7.184132
  7143.499  7143.500  0.500  1.442236  148.551  35.1172  7.170317
  7143.997  7144.000  0.500  1.441938  148.56  35.1298  7.162456
  7144.502  7144.500  0.500  1.441913  148.537  35.1252  7.157465
  7145.002  7145.000  0.500  1.441414  148.518  35.1383  7.160293
  7145.500  7145.500  0.500  1.441052  148.521  35.1517  7.167194
  7146.000  7146.000  0.500  1.440664  148.503  35.1611  7.176239
  7146.498  7146.500  0.500  1.439987  148.505  35.1855  7.193033
  7146.994  7147.000  0.500  1.439483  148.516  35.2058  7.209655
  7147.497  7147.500  0.500  1.438913  148.509  35.2243  7.228406
  7148.000  7148.000  0.500  1.438622  148.503  35.2331  7.244423
  7148.500  7148.500  0.500  1.437960  148.489  35.2531  7.265841
  7149.003  7149.000  0.500  1.437447  148.487  35.2707  7.286088
  7149.502  7149.500  0.500  1.436989  148.49  35.2876  7.303619
  7150.000  7150.000  0.500  1.436640  148.462  35.2932  7.318696
  7150.497  7150.500  0.500  1.436097  148.492  35.3194  7.337744
  7150.996  7151.000  0.500  1.435229  148.484  35.3482  7.354325
  7151.996  7151.990  0.500  1.434396  148.48  35.3768  7.379760
  7153.000  7152.990  0.500  1.433201  148.467  35.416  7.402611
  7154.018  7154.010  0.500  1.432049  148.449  35.4524  7.422703
  7155.067  7155.060  0.500  1.431293  148.455  35.4807  7.438077
  7156.133  7156.120  0.500  1.430004  148.437  35.5221  7.459261
  7157.209  7157.200  0.500  1.428376  148.445  35.582  7.482672
  7158.306  7158.300  0.500  1.427257  148.387  35.6078  7.503960
  7159.436  7159.420  0.500  1.425532  148.374  35.6662  7.531128
  7160.574  7160.560  0.500  1.424073  148.375  35.7185  7.560946
  7161.718  7161.710  0.500  1.422474  148.341  35.7674  7.586653
  7162.902  7162.890  0.500  1.421286  148.317  35.8041  7.611083
  7164.097  7164.080  0.500  1.419886  148.275  35.8441  7.633133
  7165.305  7165.300  0.500  1.418525  148.223  35.8804  7.652862
  7166.543  7166.530  0.500  1.417098  148.192  35.9242  7.672047
  7167.796  7167.780  0.500  1.415720  148.169  35.9681  7.690429
  7169.058  7169.050  0.500  1.414570  148.135  36.0011  7.702755
  7170.347  7170.340  0.500  1.413578  148.123  36.034  7.714742
  7171.660  7171.650  0.500  1.412824  148.094  36.0542  7.719517
  7172.985  7172.980  0.500  1.412026  148.089  36.0817  7.722675
  7174.342  7174.330  0.500  1.411361  148.051  36.0966  7.720563
  7175.710  7175.700  0.500  1.410707  147.998  36.1073  7.715485
  7177.088  7177.080  0.500  1.410212  148.002  36.126  7.711516
  7178.503  7178.490  0.500  1.409820  147.993  36.1381  7.708631
  7179.915  7179.910  0.500  1.408900  147.967  36.1649  7.709727
  7181.366  7181.350  0.500  1.408226  147.915  36.1766  7.711908
  7182.823  7182.810  0.500  1.407436  147.924  36.2073  7.717682
  7184.297  7184.290  0.500  1.406884  147.896  36.2205  7.720178
  7185.799  7185.790  0.500  1.406206  147.857  36.2355  7.726391
  7187.322  7187.310  0.500  1.405212  147.806  36.2591  7.734536
  7188.859  7188.850  0.500  1.404223  147.789  36.2907  7.745820
  7190.423  7190.410  0.500  1.403240  147.75  36.3168  7.756698
  7191.990  7191.980  0.500  1.402267  145.34  35.7592  7.643643
  7193.588  7193.580  0.500  1.401242  147.519  36.3325  7.771835
  7195.200  7195.190  0.500  1.400251  147.614  36.3919  7.791948
  7196.844  7196.830  0.500  1.399105  147.603  36.4311  7.811753
  7198.495  7198.480  0.500  1.397603  147.575  36.479  7.831098
  7200.160  7200.150  0.500  1.395734  147.52  36.5336  7.855758
  7201.857  7201.840  0.500  1.394039  147.465  36.5819  7.881106
  7203.556  7203.550  0.500  1.392799  147.444  36.6221  7.908120
  7205.290  7205.280  0.500  1.390789  147.379  36.6796  7.938371
  7207.038  7207.030  0.500  1.389127  147.37  36.7383  7.967621
  7208.799  7208.790  0.500  1.387571  147.306  36.7796  7.993454
  7210.589  7210.580  0.500  1.386014  147.237  36.8195  8.016577
  7212.394  7212.380  0.500  1.384350  147.216  36.8756  8.041158
  7214.221  7214.210  0.500  1.382837  147.161  36.9178  8.060817
  7216.063  7216.050  0.500  1.381544  147.124  36.9561  8.079823
  7217.925  7217.910  0.500  1.380024  147.081  37.0015  8.097320
  7219.800  7219.790  0.500  1.378618  147.025  37.0395  8.113267
  7221.702  7221.690  0.500  1.377260  146.976  37.0775  8.125356
  7223.628  7223.610  0.500  1.375933  146.935  37.1164  8.140088
  7225.529  7225.550  0.500  1.374553  146.836  37.1427  8.149881
  7227.529  7227.510  0.500  1.373261  145.18  36.771  8.074417
  7229.490  7229.480  0.500  1.371999  146.969  37.2713  8.185346
  7231.500  7231.480  0.500  1.370723  146.918  37.306  8.198184
  7233.499  7233.490  0.500  1.369012  146.844  37.351  8.213127
  7235.536  7235.520  0.500  1.367541  146.79  37.3922  8.231219
  7237.593  7237.580  0.500  1.366185  146.765  37.4365  8.251226
  7239.666  7239.650  0.500  1.364651  147.245  37.6167  8.301060
  7241.754  7241.740  0.500  1.363505  147.206  37.6498  8.319024
  7243.859  7243.850  0.500  1.362240  147.046  37.6564  8.330256
  7245.996  7245.980  0.500  1.361720  146.437  37.5201  8.310517
  7248.126  7248.120  0.500  1.360928  146.969  37.6863  8.355870
  7250.308  7250.290  0.500  1.358908  146.986  37.7669  8.382492
  7252.494  7252.480  0.500  1.356509  146.854  37.8234  8.404492
  7254.690  7254.680  0.500  1.354448  144.58  37.3145  8.298098
  7256.917  7256.900  0.500  1.352858  146.986  37.996  8.460346
  7259.160  7259.150  0.500  1.350944  146.812  38.0237  8.476713
  7261.419  7261.410  0.500  1.349505  146.434  37.9804  8.477847
  7263.704  7263.690  0.500  1.347727  139.446  36.2323  8.101849
  7265.997  7265.990  0.500  1.346131  146.012  37.9989  8.499489
  7268.331  7268.310  0.500  1.344497  147.162  38.3608  8.594693
  7270.663  7270.650  0.500  1.342822  147.225  38.4417  8.626069
  7273.010  7273.000  0.500  1.341313  146.972  38.4334  8.638268
  7275.399  7275.380  0.500  1.339938  147.199  38.5459  8.677107
  7277.785  7277.770  0.500  1.338430  147.184  38.6001  8.703612
  7280.205  7280.190  0.500  1.336756  147.141  38.6534  8.729331
  7282.632  7282.620  0.500  1.335021  147.088  38.7066  8.756821
  7285.084  7285.070  0.500  1.333374  145.193  38.2708  8.669427
  7287.563  7287.550  0.500  1.331239  146.829  38.7848  8.800365
  7290.052  7290.040  0.500  1.329623  146.861  38.8559  8.826215
  7292.568  7292.550  0.500  1.327521  146.832  38.93  8.854107
  7295.085  7295.070  0.500  1.325831  146.789  38.9846  8.876985
  7297.630  7297.620  0.500  1.323737  146.695  39.0412  8.900079
  7300.210  7300.190  0.500  1.321769  146.47  39.0581  8.913439
  7302.787  7302.770  0.500  1.319898  146.797  39.2186  8.958254
  7305.394  7305.380  0.500  1.317960  146.7  39.2688  8.979884
  7308.014  7308.000  0.500  1.316159  146.659  39.3286  9.005541
  7310.665  7310.650  0.500  1.314371  146.602  39.3836  9.030013
  7313.328  7313.310  0.500  1.312520  146.535  39.4385  9.054161
  7316.001  7315.990  0.500  1.310498  146.505  39.5104  9.084017
  7318.704  7318.690  0.500  1.308697  146.47  39.5722  9.110262
  7321.430  7321.410  0.500  1.306914  146.419  39.6289  9.137426
  7324.166  7324.150  0.500  1.305265  146.343  39.6738  9.163164
  7326.917  7326.900  0.500  1.303324  146.309  39.7417  9.192834
  7329.694  7329.680  0.500  1.301526  146.272  39.8029  9.221089
  7332.485  7332.470  0.500  1.299606  146.202  39.8605  9.248822
  7335.308  7335.290  0.500  1.297593  146.147  39.9258  9.276166
  7338.134  7338.120  0.500  1.295712  145.872  39.9256  9.290560
  7340.977  7340.970  0.500  1.293896  145.888  40.0025  9.322576
  7343.865  7343.850  0.500  1.291977  145.943  40.0946  9.358075
  7346.756  7346.740  0.500  1.289929  145.901  40.1651  9.387770
  7349.660  7349.650  0.500  1.287725  145.833  40.2349  9.418508
  7352.577  7352.570  0.500  1.285703  145.801  40.3075  9.448594
  7355.531  7355.520  0.500  1.283731  145.755  40.3745  9.479412
  7358.499  7358.490  0.500  1.281478  145.659  40.4387  9.510322
  7361.477  7361.470  0.500  1.279439  145.6  40.5048  9.542284
  7364.496  7364.480  0.500  1.277261  145.55  40.5795  9.575618
  7367.513  7367.500  0.500  1.275313  145.471  40.6364  9.606160
  7370.556  7370.550  0.500  1.273289  145.436  40.709  9.638403
  7373.620  7373.610  0.500  1.271253  145.361  40.7707  9.669844
  7376.701  7376.690  0.500  1.269362  145.29  40.8281  9.700278
  7379.798  7379.790  0.500  1.267138  145.213  40.8974  9.732483
  7382.925  7382.910  0.500  1.264767  145.136  40.9727  9.765750
  7386.060  7386.050  0.500  1.262637  145.058  41.038  9.795204
  7389.210  7389.200  0.500  1.260551  145.001  41.1074  9.826481
  7392.392  7392.380  0.500  1.258309  144.949  41.185  9.858308
  7395.584  7395.570  0.500  1.256537  144.869  41.2351  9.884802
  7398.803  7398.790  0.500  1.254354  144.794  41.3039  9.916264
  7402.033  7402.020  0.500  1.252097  144.712  41.3738  9.948248
  7405.279  7405.270  0.500  1.249878  144.649  41.4475  9.981355
  7408.557  7408.550  0.500  1.247721  144.568  41.514  10.0132
  7411.860  7411.840  0.500  1.245451  144.489  41.5855  10.0473
  7415.165  7415.150  0.500  1.243367  144.418  41.6518  10.0803
  7418.481  7418.470  0.500  1.241017  144.36  41.7331  10.1194
  7421.830  7421.820  0.500  1.238585  144.279  41.8113  10.1559
  7425.203  7425.190  0.500  1.236410  144.176  41.8722  10.1892
  7428.585  7428.570  0.500  1.233986  144.09  41.949  10.2273
  7431.995  7431.980  0.500  1.231708  144.004  42.0194  10.2606
  7435.418  7435.400  0.500  1.229589  143.901  42.0784  10.2943
  7438.870  7438.850  0.500  1.227154  143.808  42.1539  10.3287
  7442.321  7442.310  0.500  1.224869  143.646  42.2026  10.3579
  7445.801  7445.790  0.500  1.222506  140.964  41.5127  10.2107
  7449.304  7449.290  0.500  1.220271  143.62  42.3896  10.4403
  7452.824  7452.810  0.500  1.218022  143.115  42.3355  10.4441
  7456.352  7456.350  0.500  1.215738  143.393  42.5146  10.5061
  7459.919  7459.900  0.500  1.213541  139.923  41.5772  10.2909
  7463.502  7463.480  0.500  1.211067  143.22  42.6623  10.5782
  7467.097  7467.080  0.500  1.208639  142.178  42.4548  10.5455
  7470.701  7470.690  0.500  1.206173  143.163  42.8546  10.6636
  7474.352  7474.320  0.500  1.204046  143.027  42.905  10.6949
  7478.001  7477.980  0.500  1.201551  142.901  42.9741  10.7327
  7481.678  7481.650  0.500  1.199241  142.784  43.0382  10.7688
  7485.370  7485.340  0.500  1.197108  142.674  43.0971  10.8035
  7489.074  7489.050  0.500  1.194899  142.57  43.1609  10.8393
  7492.781  7492.780  0.500  1.192480  142.471  43.2354  10.8774
  7496.542  7496.520  0.500  1.189971  142.367  43.3124  10.915
  7500.307  7500.290  0.500  1.187542  142.262  43.3855  10.9527
  7504.096  7504.080  0.500  1.185028  142.138  43.4568  10.9903
  7507.891  7507.880  0.500  1.182763  142.032  43.5229  11.0262
  7511.720  7511.710  0.500  1.180198  141.924  43.6016  11.0654
  7515.562  7515.550  0.500  1.177943  141.812  43.6655  11.1033
  7519.419  7519.410  0.500  1.175706  141.667  43.7186  11.1363
  7523.307  7523.290  0.500  1.172876  141.597  43.8208  11.1828
  7527.206  7527.190  0.500  1.170412  141.473  43.8904  11.2223
  7531.127  7531.110  0.500  1.167893  141.34  43.9599  11.2611
  7535.061  7535.050  0.500  1.165431  141.201  44.0248  11.2996
  7539.038  7539.010  0.500  1.162906  141.079  44.0979  11.3383
  7542.996  7542.980  0.500  1.160604  140.944  44.1574  11.375
  7546.999  7546.980  0.500  1.157996  140.819  44.2334  11.4175
  7551.006  7550.990  0.500  1.155522  140.695  44.304  11.4569
  7555.062  7555.030  0.500  1.153090  140.534  44.3611  11.4953
  7559.103  7559.080  0.500  1.150642  140.415  44.4321  11.5352
  7563.167  7563.150  0.500  1.148185  140.293  44.5027  11.5751
  7567.254  7567.240  0.500  1.145620  140.178  44.5805  11.6171
  7571.371  7571.350  0.500  1.143188  140.033  44.6427  11.6535
  7575.481  7575.480  0.500  1.140768  139.852  44.6931  11.689
  7579.662  7579.630  0.500  1.138366  139.72  44.7582  11.7299
  7583.809  7583.790  0.500  1.135687  139.551  44.8239  11.7704
  7588.001  7587.980  0.500  1.132956  139.373  44.8892  11.8095
  7592.167  7592.180  0.500  1.130436  139.183  44.9412  11.8468
  7596.431  7596.410  0.500  1.127988  138.945  44.9744  11.8786
  7600.673  7600.650  0.500  1.125317  138.557  44.9686  11.9011
  7604.922  7604.910  0.500  1.122955  138.207  44.9613  11.9211
  7609.213  7609.190  0.500  1.120627  137.94  44.979  11.9507
  7613.489  7613.490  0.500  1.118026  137.844  45.0644  11.997
  7617.793  7617.810  0.500  1.115316  137.817  45.1781  12.0509
  7622.161  7622.150  0.500  1.112764  137.921  45.3278  12.1144
  7626.522  7626.510  0.500  1.110191  137.904  45.4387  12.1688
  7630.898  7630.890  0.500  1.107509  137.766  45.5154  12.2138
  7635.289  7635.280  0.500  1.104839  137.617  45.5877  12.2564
  7639.718  7639.700  0.500  1.102336  137.436  45.6417  12.2968
  7644.152  7644.130  0.500  1.099571  137.273  45.7137  12.3392
  7648.594  7648.580  0.500  1.096923  137.116  45.7825  12.3823
  7653.063  7653.050  0.500  1.094308  136.97  45.8534  12.4263
  7657.558  7657.540  0.500  1.091582  136.793  45.9194  12.4679
  7662.049  7662.050  0.500  1.088993  136.588  45.9693  12.5066
  7666.593  7666.580  0.500  1.086305  136.441  46.0436  12.552
  7671.147  7671.130  0.500  1.083577  136.3  46.1217  12.599