File: xdidata/Data/Pr/Pr-L3-Pr2O3.xdi
# XDI/1.0 BlueSky/1.5.3
# Beamline.name: 6BM
# Beamline.xray_source: NSLS-II three-pole wiggler
# Beamline.collimation: paraboloid mirror, 5 nm Rh on 30 nm Pt
# Beamline.focusing: not in use
# Beamline.harmonic_rejection: flat mirror, Si stripe, pitch = 7.0 mrad relative to beam
# Detector.i0: 10 cm N2
# Detector.i1: 25 cm N2
# Detector.i2: 25 cm N2
# Element.symbol: Pr
# Element.edge: L3
# Facility.name: NSLS-II
# Facility.energy: 3.0
# Facility.current: 399.6
# Facility.mode: top-off
# Facility.gup: 305832
# Facility.saf: 305669
# Facility.cycle: 2020-1
# Mono.name: Si(111)
# Mono.d_spacing: 3.13532
# Mono.encoder_resolution: 0.0000050 deg/ct
# Mono.angle_offset: 16.0581 deg
# Mono.scan_mode: fixed exit
# Mono.scan_type: step
# Mono.direction: forward in energy
# Sample.name: Pr2O3
# Sample.prep: Cr foil in ref
# Sample.x_position: -7.603 mm
# Sample.y_position: 102.894 mm
# Scan.experimenters: Neil Hyatt, Martin Stennett, Dan Austin, Seb Lawson
# Scan.edge_energy: 5964.3
# Scan.start_time: 2020-03-07T03:28:44
# Scan.end_time: 2020-03-07T03:48:55
# Scan.transient_id: 23444
# Scan.uid: ad1d10b0-9ca9-4b2e-9195-69d06167099a
# Scan.plot_hint: ln(I0/It)  --  ln($5/$6)
# Scan.sequence: merge of 2 scans
# Column.1: energy eV
# Column.2: requested_energy eV
# Column.3: measurement_time seconds
# Column.4: mutrans
# Column.5: i0
# Column.6: itrans
# Column.7: irefer
# /////
#
# -----
# energy   requested_energy   measurement_time   mutrans   i0   itrans   irefer
5764.3 5764.3 1.000000 2.577726 76.943 5.843666 0.949627
5774.31 5774.3 1.000000 2.560859 76.903 5.939917 0.973370
5784.32 5784.3 1.000000 2.544290 76.8596 6.035736 0.997614
5794.31 5794.3 1.000000 2.528388 76.8833 6.134351 1.022509
5804.31 5804.3 1.000000 2.511688 76.827 6.233054 1.047363
5814.31 5814.3 1.000000 2.495549 76.7987 6.332127 1.072863
5824.31 5824.3 1.000000 2.479314 76.7087 6.428250 1.097967
5834.31 5834.3 1.000000 2.463266 76.6333 6.525798 1.124316
5844.31 5844.3 1.000000 2.447291 76.5144 6.620592 1.150622
5854.3 5854.3 1.000000 2.431578 76.332 6.709417 1.175420
5864.3 5864.3 1.000000 2.415755 75.9393 6.781332 1.198201
5874.31 5874.3 1.000000 2.400085 77.0613 6.990253 1.244721
5884.3 5884.3 1.000000 2.384681 76.6143 7.057580 1.267740
5894.29 5894.3 1.000000 2.369445 76.3416 7.138598 1.293638
5904.29 5904.3 1.000000 2.354284 76.1091 7.227437 1.320341
5914.29 5914.3 1.000000 2.339678 75.2164 7.247745 1.335210
5924.3 5924.3 1.000000 2.325442 76.3078 7.458306 1.384817
5934.3 5934.3 1.000000 2.312477 75.8471 7.510023 1.405805
5936.29 5936.3 1.000000 2.310237 76.0754 7.549555 1.415926
5938.29 5938.3 1.000000 2.308166 75.6963 7.527500 1.414306
5940.29 5940.3 1.000000 2.306256 74.9059 7.463138 1.405334
5942.29 5942.3 1.000000 2.304501 70.0847 6.995060 1.319812
5944.29 5944.3 1.000000 2.303616 71.1676 7.109421 1.340994
5946.29 5946.3 1.000000 2.302462 76.7551 7.676445 1.450880
5948.29 5948.3 1.000000 2.302773 76.5919 7.657748 1.451931
5950.31 5950.3 1.000000 2.303854 76.4257 7.632802 1.449385
5952.3 5952.3 1.000000 2.306649 76.3053 7.599620 1.445387
5954.29 5954.3 1.000000 2.312736 76.1965 7.542808 1.437102
5954.54 5954.55 1.000000 2.313772 76.1576 7.531012 1.435060
5954.79 5954.8 1.000000 2.314928 76.1214 7.518754 1.433477
5955.04 5955.05 1.000000 2.316295 76.1119 7.507475 1.431142
5955.29 5955.3 1.000000 2.317568 76.0892 7.495707 1.429614
5955.54 5955.55 1.000000 2.319060 76.0543 7.481131 1.426977
5955.79 5955.8 1.000000 2.320922 76.0445 7.466204 1.424776
5956.04 5956.05 1.000000 2.322705 76.0522 7.453788 1.422352
5956.29 5956.3 1.000000 2.324627 75.9997 7.434452 1.419590
5956.54 5956.55 1.000000 2.326820 75.9821 7.416396 1.415816
5956.79 5956.8 1.000000 2.329257 76.0004 7.400157 1.413278
5957.04 5957.05 1.000000 2.332146 75.9721 7.375999 1.410032
5957.29 5957.3 1.000000 2.335217 75.9617 7.352349 1.404922
5957.54 5957.55 1.000000 2.338573 75.913 7.323011 1.399446
5957.79 5957.8 1.000000 2.342248 75.9123 7.295918 1.394768
5958.04 5958.05 1.000000 2.346312 75.8965 7.264734 1.389025
5958.3 5958.3 1.000000 2.350845 75.8724 7.229592 1.383269
5958.55 5958.55 1.000000 2.355428 75.8484 7.194370 1.376510
5958.8 5958.8 1.000000 2.360323 75.8226 7.156738 1.370419
5959.05 5959.05 1.000000 2.365191 75.8127 7.120995 1.363473
5959.3 5959.3 1.000000 2.369999 75.8227 7.088179 1.357668
5959.55 5959.55 1.000000 2.375426 75.8167 7.048811 1.350197
5959.8 5959.8 1.000000 2.381279 75.7746 7.004268 1.342550
5960.05 5960.05 1.000000 2.387424 75.7728 6.961227 1.333895
5960.3 5960.3 1.000000 2.394289 75.7474 6.911304 1.325874
5960.55 5960.55 1.000000 2.401467 75.7061 6.857940 1.315761
5960.8 5960.8 1.000000 2.409222 75.7103 6.805347 1.306507
5961.05 5961.05 1.000000 2.417466 75.6824 6.746755 1.295245
5961.3 5961.3 1.000000 2.426969 75.6736 6.682162 1.283637
5961.55 5961.55 1.000000 2.437485 75.646 6.609989 1.269844
5961.8 5961.8 1.000000 2.449313 75.6182 6.529864 1.254923
5962.05 5962.05 1.000000 2.462522 75.6117 6.444130 1.239722
5962.3 5962.3 1.000000 2.477045 75.5954 6.349549 1.222006
5962.55 5962.55 1.000000 2.494159 75.575 6.240575 1.201533
5962.8 5962.8 1.000000 2.514043 75.5836 6.119991 1.178644
5963.05 5963.05 1.000000 2.536984 75.5767 5.980174 1.152241
5963.3 5963.3 1.000000 2.563309 75.5757 5.824019 1.123577
5963.55 5963.55 1.000000 2.592883 75.5419 5.650498 1.090770
5963.8 5963.8 1.000000 2.625701 75.5017 5.465514 1.055052
5964.05 5964.05 1.000000 2.662497 75.4935 5.266230 1.018692
5964.31 5964.3 1.000000 2.703731 75.4945 5.053032 0.978593
5964.55 5964.55 1.000000 2.748014 75.484 4.833801 0.936168
5964.81 5964.8 1.000000 2.796208 75.4586 4.606105 0.893579
5965.05 5965.05 1.000000 2.845411 75.4479 4.383024 0.851201
5965.3 5965.3 1.000000 2.897087 75.4196 4.162407 0.809462
5965.55 5965.55 1.000000 2.952697 75.3899 3.936185 0.767228
5965.8 5965.8 1.000000 3.010665 75.4084 3.715920 0.725278
5966.05 5966.05 1.000000 3.069583 75.3769 3.499778 0.684198
5966.3 5966.3 1.000000 3.129244 75.3792 3.298342 0.645108
5966.55 5966.55 1.000000 3.185948 75.3667 3.114984 0.610465
5966.8 5966.8 1.000000 3.238871 75.3493 2.954653 0.580066
5967.05 5967.05 1.000000 3.287567 75.3171 2.813529 0.553447
5967.3 5967.3 1.000000 3.329760 75.3056 2.696086 0.530388
5967.55 5967.55 1.000000 3.363428 75.2812 2.606857 0.513976
5967.81 5967.8 1.000000 3.387555 75.2724 2.543344 0.501156
5968.05 5968.05 1.000000 3.401829 75.234 2.506432 0.494156
5968.3 5968.3 1.000000 3.406854 75.2266 2.493465 0.491223
5968.55 5968.55 1.000000 3.402186 75.2305 2.505407 0.493688
5968.8 5968.8 1.000000 3.389061 75.3249 2.541813 0.500777
5969.05 5969.05 1.000000 3.368023 75.3323 2.595340 0.510759
5969.3 5969.3 1.000000 3.340612 75.3379 2.667531 0.524621
5969.55 5969.55 1.000000 3.309337 75.3541 2.752624 0.541052
5969.8 5969.8 1.000000 3.274477 75.3029 2.848812 0.559183
5970.05 5970.05 1.000000 3.237459 75.2856 2.955976 0.579928
5970.3 5970.3 1.000000 3.198722 75.2881 3.072365 0.602426
5970.55 5970.55 1.000000 3.160255 75.2761 3.193078 0.625002
5970.8 5970.8 1.000000 3.121997 75.2276 3.315940 0.648393
5971.05 5971.05 1.000000 3.086199 75.2163 3.436964 0.672141
5971.3 5971.3 1.000000 3.051692 75.2135 3.556009 0.694217
5971.55 5971.55 1.000000 3.017734 75.2044 3.678632 0.718577
5971.8 5971.8 1.000000 2.984622 75.1814 3.801064 0.741507
5972.05 5972.05 1.000000 2.953142 75.1363 3.920270 0.764420
5972.3 5972.3 1.000000 2.923734 75.1587 4.037783 0.787302
5972.55 5972.55 1.000000 2.896877 75.128 4.146268 0.808515
5972.8 5972.8 1.000000 2.871351 75.1186 4.252970 0.828998
5973.05 5973.05 1.000000 2.847225 75.0993 4.356136 0.849178
5973.3 5973.3 1.000000 2.824582 75.1322 4.457845 0.868426
5973.55 5973.55 1.000000 2.803278 75.1982 4.558377 0.887144
5973.8 5973.8 1.000000 2.784147 75.1935 4.646060 0.904807
5974.05 5974.05 1.000000 2.766653 75.1663 4.726621 0.920589
5974.3 5974.3 1.000000 2.750571 75.142 4.801064 0.935330
5974.55 5974.55 1.000000 2.735826 75.1539 4.873135 0.950102
5974.8 5974.8 1.000000 2.722071 75.1353 4.938884 0.961745
5975.05 5975.05 1.000000 2.709726 75.0802 4.996844 0.973109
5975.3 5975.3 1.000000 2.699218 75.0798 5.049717 0.983581
5975.55 5975.55 1.000000 2.690119 75.045 5.093519 0.992145
5975.8 5975.8 1.000000 2.682091 75.0443 5.134524 1.000061
5976.05 5976.05 1.000000 2.675296 75.038 5.169412 1.007041
5976.3 5976.3 1.000000 2.669319 75.027 5.199436 1.012605
5976.55 5976.55 1.000000 2.664197 74.9919 5.223840 1.017505
5976.8 5976.8 1.000000 2.660262 74.9795 5.243268 1.021901
5977.05 5977.05 1.000000 2.656740 74.9714 5.261240 1.025516
5977.3 5977.3 1.000000 2.653485 74.9367 5.275922 1.029133
5977.55 5977.55 1.000000 2.650891 74.9215 5.288509 1.031895
5977.8 5977.8 1.000000 2.648526 74.9061 5.299865 1.033408
5978.05 5978.05 1.000000 2.646448 74.896 5.310297 1.035734
5978.3 5978.3 1.000000 2.644681 74.8802 5.318576 1.036770
5978.55 5978.55 1.000000 2.643032 74.8339 5.324080 1.038759
5978.8 5978.8 1.000000 2.641700 74.8118 5.329646 1.039981
5979.05 5979.05 1.000000 2.640018 74.7934 5.337273 1.041445
5979.3 5979.3 1.000000 2.638763 74.7661 5.342047 1.043272
5979.55 5979.55 1.000000 2.637363 74.7364 5.347332 1.043281
5979.8 5979.8 1.000000 2.636040 74.7042 5.352104 1.045110
5980.05 5980.05 1.000000 2.634600 74.6897 5.358784 1.046086
5980.3 5980.3 1.000000 2.633674 74.6652 5.361989 1.047166
5980.55 5980.55 1.000000 2.632509 74.6339 5.365996 1.048370
5980.81 5980.8 1.000000 2.631082 74.6368 5.373913 1.049836
5981.06 5981.05 1.000000 2.629913 74.597 5.377412 1.050347
5981.3 5981.3 1.000000 2.628615 74.5573 5.381468 1.051682
5981.55 5981.55 1.000000 2.627161 74.531 5.387432 1.052316
5981.8 5981.8 1.000000 2.626028 74.5277 5.393226 1.053838
5982.05 5982.05 1.000000 2.624618 74.4689 5.396570 1.053930
5982.3 5982.3 1.000000 2.623438 74.4605 5.402317 1.056497
5982.55 5982.55 1.000000 2.622088 74.4355 5.407772 1.056975
5982.8 5982.8 1.000000 2.621209 74.3957 5.409630 1.057629
5983.05 5983.05 1.000000 2.620165 74.3655 5.413091 1.058244
5983.3 5983.3 1.000000 2.619162 74.3083 5.414396 1.058325
5983.55 5983.55 1.000000 2.618129 74.2838 5.418173 1.058500
5983.8 5983.8 1.000000 2.617364 74.2348 5.418789 1.058813
5984.05 5984.05 1.000000 2.616810 74.2225 5.420903 1.059406
5984.3 5984.3 1.000000 2.616314 74.1556 5.418677 1.059490
5984.55 5984.55 1.000000 2.615645 74.1115 5.419083 1.059480
5984.8 5984.8 1.000000 2.615161 74.0821 5.419536 1.060088
5985.05 5985.05 1.000000 2.614631 74.016 5.417582 1.058988
5985.31 5985.3 1.000000 2.614227 73.9635 5.415939 1.059233
5985.56 5985.55 1.000000 2.613905 73.8931 5.412525 1.057114
5985.81 5985.8 1.000000 2.613672 73.8377 5.409731 1.056359
5986.05 5986.05 1.000000 2.613351 73.7837 5.407499 1.056621
5986.3 5986.3 1.000000 2.613310 73.7061 5.402030 1.055101
5986.55 5986.55 1.000000 2.613396 73.6476 5.397290 1.054024
5986.8 5986.8 1.000000 2.613293 73.5389 5.389881 1.051643
5987.05 5987.05 1.000000 2.613548 73.4535 5.382238 1.050307
5987.3 5987.3 1.000000 2.613760 73.3621 5.374426 1.047700
5987.55 5987.55 1.000000 2.614366 73.2337 5.361768 1.044352
5987.8 5987.8 1.000000 2.615012 73.1141 5.349581 1.040437
5988.05 5988.05 1.000000 2.615401 72.9313 5.334098 1.034951
5988.3 5988.3 1.000000 2.616338 72.747 5.315648 1.028740
5988.55 5988.55 1.000000 2.617113 72.5646 5.298212 1.021428
5988.8 5988.8 1.000000 2.618221 72.2826 5.271764 1.009647
5989.05 5989.05 1.000000 2.618981 71.9445 5.243103 0.995983
5989.3 5989.3 1.000000 2.620277 71.5229 5.205669 0.978503
5989.55 5989.55 1.000000 2.621513 70.9668 5.158781 0.957664
5989.8 5989.8 1.000000 2.622440 70.236 5.100914 0.936496
5990.05 5990.05 1.000000 2.623992 69.1441 5.013886 0.913734
5990.3 5990.3 1.000000 2.625077 67.4871 4.888355 0.885199
5990.55 5990.55 1.000000 2.626069 65.0436 4.706693 0.847759
5990.8 5990.8 1.000000 2.627394 61.5063 4.444852 0.797248
5991.06 5991.05 1.000000 2.629279 57.544 4.150578 0.740719
5991.3 5991.3 1.000000 2.631697 54.6419 3.931761 0.696753
5991.55 5991.55 1.000000 2.634698 54.1398 3.883953 0.682880
5991.8 5991.8 1.000000 2.637562 56.3989 4.034454 0.703202
5992.05 5992.05 1.000000 2.640294 61.3395 4.376039 0.756230
5992.3 5992.3 1.000000 2.641974 67.4952 4.807096 0.827858
5992.55 5992.55 1.000000 2.643559 71.77 5.103521 0.876537
5992.8 5992.8 1.000000 2.645492 73.8725 5.242862 0.898069
5993.05 5993.05 1.000000 2.647512 74.7151 5.291927 0.902796
5993.3 5993.3 1.000000 2.649984 75.0104 5.299692 0.901545
5993.55 5993.55 1.000000 2.652410 75.1501 5.296688 0.898888
5993.8 5993.8 1.000000 2.654889 75.1732 5.285076 0.894945
5994.06 5994.05 1.000000 2.657422 75.2054 5.273870 0.891664
5994.3 5994.3 1.000000 2.660169 75.1946 5.258733 0.888521
5995.4 5995.38 1.000000 2.671022 75.0305 5.190839 0.876386
5996.49 5996.48 1.000000 2.680976 74.8322 5.125566 0.866045
5997.59 5997.59 1.000000 2.689998 74.7597 5.074919 0.842625
5998.74 5998.73 1.000000 2.696834 74.6081 5.029939 0.807040
5999.89 5999.88 1.000000 2.700786 74.5107 5.003641 0.775920
6001.07 6001.06 1.000000 2.702849 74.3751 4.984220 0.752067
6002.26 6002.25 1.000000 2.700907 74.2712 4.986924 0.738058
6003.47 6003.46 1.000000 2.696559 74.1931 5.003420 0.728078
6004.7 6004.69 1.000000 2.689321 74.0594 5.030641 0.720986
6005.95 6005.94 1.000000 2.680065 73.9632 5.070818 0.715022
6007.22 6007.21 1.000000 2.669083 73.8744 5.120645 0.710539
6008.51 6008.5 1.000000 2.657549 73.763 5.172414 0.705420
6009.82 6009.81 1.000000 2.645513 73.6705 5.228227 0.706828
6011.14 6011.13 1.000000 2.634391 73.5729 5.279912 0.726928
6012.48 6012.48 1.000000 2.624383 73.4889 5.326748 0.754138
6013.85 6013.84 1.000000 2.616049 73.3521 5.361438 0.772634
6015.23 6015.23 1.000000 2.609217 73.2579 5.391133 0.779481
6016.64 6016.63 1.000000 2.603948 73.1713 5.413276 0.776263
6018.06 6018.05 1.000000 2.599951 73.0391 5.425182 0.767792
6019.5 6019.49 1.000000 2.596466 72.9602 5.438199 0.764793
6020.96 6020.95 1.000000 2.593017 72.8505 5.448816 0.768921
6022.44 6022.43 1.000000 2.590140 72.719 5.454619 0.776128
6023.94 6023.93 1.000000 2.587378 72.6103 5.461534 0.779882
6025.45 6025.44 1.000000 2.585403 72.5132 5.465012 0.777028
6026.99 6026.98 1.000000 2.584220 72.3878 5.462018 0.769302
6028.55 6028.54 1.000000 2.583798 72.2762 5.455901 0.764395
6030.11 6030.11 1.000000 2.584243 72.1255 5.442100 0.759675
6031.71 6031.7 1.000000 2.584744 72.0251 5.431788 0.757692
6033.31 6033.31 1.000000 2.585916 71.8722 5.413905 0.755417
6034.95 6034.95 1.000000 2.588082 71.7086 5.389921 0.752779
6036.61 6036.6 1.000000 2.590178 71.5614 5.367554 0.746677
6038.28 6038.27 1.000000 2.592926 71.4295 5.342976 0.741291
6039.96 6039.95 1.000000 2.594844 71.2779 5.321437 0.738053
6041.67 6041.66 1.000000 2.596228 71.116 5.302008 0.738704
6043.4 6043.39 1.000000 2.595953 70.9386 5.290232 0.740185
6045.14 6045.13 1.000000 2.594638 70.7844 5.285683 0.742263
6046.91 6046.9 1.000000 2.592623 70.6293 5.284752 0.745996
6048.68 6048.68 1.000000 2.589866 70.4661 5.287067 0.751731
6050.48 6050.48 1.000000 2.586689 70.2753 5.289503 0.759673
6052.3 6052.3 1.000000 2.582117 70.0849 5.299335 0.769573
6054.15 6054.14 1.000000 2.577510 69.8644 5.307088 0.778303
6056 6056 1.000000 2.572252 69.6443 5.318229 0.786448
6057.88 6057.88 1.000000 2.567441 69.3937 5.324598 0.792982
6059.79 6059.78 1.000000 2.562670 69.1585 5.332033 0.797537
6061.71 6061.7 1.000000 2.558124 68.9128 5.337267 0.799500
6063.64 6063.63 1.000000 2.554131 68.7025 5.342293 0.797735
6065.59 6065.59 1.000000 2.550264 68.4862 5.346066 0.792145
6067.57 6067.56 1.000000 2.547294 68.2498 5.343485 0.785066
6069.57 6069.56 1.000000 2.545170 68.0271 5.337370 0.775816
6071.58 6071.57 1.000000 2.542955 67.7685 5.328921 0.769600
6073.61 6073.6 1.000000 2.540469 67.5441 5.324555 0.773137
6075.66 6075.65 1.000000 2.537458 67.3108 5.322136 0.781183
6077.73 6077.72 1.000000 2.533768 67.1079 5.325639 0.791131
6079.8 6079.81 1.000000 2.530048 66.8471 5.324704 0.802660
6081.92 6081.91 1.000000 2.525889 66.5677 5.324530 0.813134
6084.05 6084.04 1.000000 2.521591 66.2812 5.324487 0.819804
6086.2 6086.19 1.000000 2.518096 65.9981 5.320310 0.821586
6088.36 6088.35 1.000000 2.515211 65.7143 5.312762 0.813140
6090.52 6090.53 1.000000 2.513613 65.4508 5.299902 0.799355
6092.75 6092.74 1.000000 2.511250 65.189 5.291208 0.783369
6094.96 6094.96 1.000000 2.509338 64.9049 5.278222 0.767959
6097.22 6097.2 1.000000 2.508296 64.5693 5.256425 0.755032
6099.47 6099.46 1.000000 2.507186 64.2604 5.237068 0.748128
6101.73 6101.74 1.000000 2.505905 63.9661 5.219752 0.748708
6104.03 6104.04 1.000000 2.504124 63.6615 5.204135 0.756584
6106.34 6106.35 1.000000 2.502503 63.3308 5.185517 0.768759
6108.69 6108.69 1.000000 2.499821 63.0482 5.176206 0.782814
6111.04 6111.04 1.000000 2.496786 62.6656 5.160479 0.793785
6113.43 6113.42 1.000000 2.493988 62.3218 5.146604 0.801018
6115.8 6115.81 1.000000 2.490818 61.9758 5.134180 0.804044
6118.22 6118.22 1.000000 2.486913 61.6229 5.124980 0.802275
6120.64 6120.65 1.000000 2.481994 61.3832 5.130085 0.802924
6123.09 6123.1 1.000000 2.476761 61.0167 5.126300 0.800489
6125.57 6125.57 1.000000 2.471490 60.6661 5.123755 0.802307
6128.05 6128.06 1.000000 2.466480 60.2928 5.117843 0.806174
6130.57 6130.57 1.000000 2.461570 59.9244 5.111652 0.809417
6133.1 6133.09 1.000000 2.457552 59.5381 5.099200 0.811824
6135.65 6135.64 1.000000 2.453728 59.1264 5.083247 0.811874
6138.2 6138.2 1.000000 2.450455 58.7233 5.065172 0.808490
6140.78 6140.79 1.000000 2.447304 58.3175 5.046017 0.806135
6143.38 6143.39 1.000000 2.443917 57.8997 5.026857 0.802714
6146 6146.01 1.000000 2.441361 57.4529 5.000845 0.797062
6148.64 6148.65 1.000000 2.438523 57.0134 4.976660 0.789858
6151.31 6151.31 1.000000 2.435583 56.5194 4.948123 0.782560
6153.98 6153.99 1.000000 2.432496 55.992 4.917105 0.778751
6156.68 6156.69 1.000000 2.428578 55.3873 4.883098 0.771613
6159.4 6159.41 1.000000 2.424549 54.3803 4.813668 0.757188
6162.13 6162.14 1.000000 2.420489 53.61 4.764785 0.744152
6164.89 6164.9 1.000000 2.416006 54.0373 4.824308 0.748159
6167.65 6167.67 1.000000 2.411728 54.5542 4.891333 0.760429
6170.46 6170.47 1.000000 2.407616 54.2877 4.887522 0.766390
6173.27 6173.28 1.000000 2.403382 53.7407 4.858779 0.770406
6176.1 6176.11 1.000000 2.399354 53.2421 4.833111 0.775450
6178.96 6178.96 1.000000 2.395942 52.7414 4.804054 0.778077
6181.82 6181.83 1.000000 2.392492 52.2705 4.777616 0.780270
6184.72 6184.72 1.000000 2.389331 51.7916 4.748852 0.780979
6187.61 6187.62 1.000000 2.386287 51.2935 4.717503 0.778122
6190.54 6190.55 1.000000 2.383390 50.8164 4.687171 0.775161
6193.49 6193.5 1.000000 2.380581 50.3356 4.655900 0.773075
6196.45 6196.46 1.000000 2.377777 49.8581 4.624668 0.770786
6199.43 6199.44 1.000000 2.374146 49.3892 4.597856 0.768102
6202.44 6202.45 1.000000 2.370297 48.9071 4.570534 0.766155
6205.46 6205.47 1.000000 2.366569 48.4164 4.541556 0.764008
6208.5 6208.51 1.000000 2.362011 47.9231 4.515854 0.763206
6211.56 6211.57 1.000000 2.357084 47.4311 4.491541 0.764190
6214.64 6214.65 1.000000 2.352615 46.9447 4.465396 0.763118
6217.74 6217.75 1.000000 2.347260 46.4386 4.440967 0.760610
6220.85 6220.86 1.000000 2.342453 45.9551 4.415909 0.755028
6223.99 6224 1.000000 2.337497 45.4887 4.392796 0.750026
6227.14 6227.15 1.000000 2.332934 45.0149 4.366948 0.742687
6230.32 6230.33 1.000000 2.328656 44.5069 4.336155 0.734566
6233.51 6233.52 1.000000 2.324519 44.0256 4.307039 0.727319
6236.72 6236.73 1.000000 2.320923 43.5376 4.274615 0.718044
6239.95 6239.96 1.000000 2.317464 43.0756 4.243966 0.711293
6243.2 6243.22 1.000000 2.313682 42.6061 4.213582 0.704191
6246.47 6246.48 1.000000 2.310462 42.149 4.181844 0.701383
6249.76 6249.77 1.000000 2.306901 41.6479 4.146859 0.700090
6253.08 6253.08 1.000000 2.302647 41.1898 4.118710 0.702591
6256.4 6256.41 1.000000 2.298115 40.7286 4.091090 0.706625
6259.75 6259.75 1.000000 2.293770 40.2856 4.064234 0.709150
6263.14 6263.12 1.000000 2.289032 39.8242 4.036789 0.708966
6266.51 6266.5 1.000000 2.283824 39.3845 4.013070 0.706057
6269.9 6269.9 1.000000 2.278956 38.9339 3.986499 0.702846
6273.32 6273.33 1.000000 2.274141 38.4868 3.959677 0.699527
6276.76 6276.77 1.000000 2.269260 38.0569 3.934579 0.698166
6280.22 6280.23 1.000000 2.264635 37.6191 3.907398 0.695518
6283.69 6283.7 1.000000 2.260093 37.1786 3.879260 0.690936
6287.2 6287.2 1.000000 2.256079 36.7581 3.850768 0.687950
6290.73 6290.72 1.000000 2.251598 36.3404 3.824182 0.684804
6294.27 6294.26 1.000000 2.247327 35.9439 3.798663 0.681608
6297.81 6297.81 1.000000 2.243210 35.5274 3.770062 0.680062
6301.38 6301.39 1.000000 2.239179 35.1296 3.742863 0.678430
6304.98 6304.98 1.000000 2.234654 34.7393 3.718093 0.676342
6308.58 6308.59 1.000000 2.230215 34.3374 3.691444 0.672545
6312.22 6312.22 1.000000 2.225803 33.9609 3.667119 0.668926
6315.89 6315.87 1.000000 2.220868 33.5789 3.643824 0.664972
6319.53 6319.54 1.000000 2.215866 33.2117 3.622049 0.660611
6323.23 6323.23 1.000000 2.210890 32.842 3.599567 0.656058
6326.95 6326.94 1.000000 2.205665 32.487 3.579389 0.653213
6330.65 6330.66 1.000000 2.200630 32.1357 3.558514 0.649147
6334.4 6334.41 1.000000 2.195899 31.7635 3.533965 0.646522
6338.18 6338.17 1.000000 2.190861 31.4105 3.512372 0.644613
6341.95 6341.96 1.000000 2.185828 31.0626 3.490966 0.642634
6345.74 6345.76 1.000000 2.180985 30.7225 3.469478 0.641086
6349.58 6349.58 1.000000 2.175744 30.3937 3.450420 0.640574
6353.42 6353.42 1.000000 2.171162 30.0617 3.428412 0.639438
6357.27 6357.28 1.000000 2.166331 29.7285 3.406812 0.638099
6361.17 6361.16 1.000000 2.161336 29.4078 3.386986 0.638452
6365.05 6365.06 1.000000 2.156366 29.1098 3.369327 0.638438
6368.97 6368.98 1.000000 2.151638 28.7709 3.345884 0.637390
6372.9 6372.91 1.000000 2.146875 28.4684 3.326516 0.635076
6376.86 6376.87 1.000000 2.141897 28.1867 3.310030 0.633998
6380.85 6380.84 1.000000 2.136979 27.8621 3.288090 0.630618
6384.83 6384.84 1.000000 2.132158 27.5576 3.267838 0.628546
6388.84 6388.85 1.000000 2.127015 27.2724 3.250693 0.627947
6392.88 6392.88 1.000000 2.121640 26.9994 3.235496 0.626700
6396.92 6396.93 1.000000 2.116254 26.6895 3.215632 0.624369
6400.98 6401 1.000000 2.110929 26.4267 3.200938 0.622337
6405.08 6405.09 1.000000 2.106021 26.1514 3.183190 0.621606
6409.19 6409.2 1.000000 2.100932 25.8741 3.165496 0.618725
6413.31 6413.32 1.000000 2.095770 25.6113 3.149554 0.618527
6417.45 6417.47 1.000000 2.091429 25.3521 3.131245 0.616654
6421.62 6421.63 1.000000 2.086960 25.0789 3.111382 0.613864