File: xdidata/Data/Pr/Pr-L3-Pr2Ti2O7.xdi
# XDI/1.0 BlueSky/1.10.0 BMM/2023-1.0-py310-tiled
# Beamline.name: BMM (06BM) -- Beamline for Materials Measurement (NIST)
# Beamline.xray_source: NSLS-II three-pole wiggler
# Beamline.collimation: paraboloid mirror, 5 nm Rh on 30 nm Pt
# Beamline.focusing: not in use
# Beamline.harmonic_rejection: flat mirror, Si stripe, pitch = 7.0 mrad relative to beam
# Beamline.software: Bluesky 1.10.0, Ophyd 1.7.0, DataBroker 2.0.0b13, Python 3.10.8, 2023-1.0-py310-tiled
# Detector.I0: 10 cm N2
# Detector.I1: 25 cm N2
# Detector.I2: 25 cm N2
# Element.symbol: Pr
# Element.edge: L3
# Element.reference: Pr
# Element.reference_material: Pr6O11
# Facility.name: NSLS-II
# Facility.energy: 3.0
# Facility.current: 400.1
# Facility.mode: top-off
# Facility.GUP: 123456
# Facility.SAF: 301027
# Facility.cycle: 2023-2
# Mono.name: Si(111)
# Mono.d_spacing: 3.13519
# Mono.encoder_resolution: 0.0000050 deg/ct
# Mono.angle_offset: 16.0754 deg
# Mono.scan_mode: pseudo channel cut
# Mono.scan_type: step
# Mono.direction: forward in energy
# Sample.name: Pr2Ti2O7
# Sample.prep: Powder in PEG pellet
# Sample.x: 123.848 mm
# Sample.y: 114.690 mm
# Sample.SDD_position: 205.000 mm
# Scan.experimenters: Bruce Ravel
# Scan.edge_energy: 5964.3
# Scan.start_time: 2023-05-08T16:15:07
# Scan.end_time: 2023-05-08T16:20:41
# Scan.transient_id: 75390
# Scan.uid: ebc21475-d466-4580-a861-84f199330bf0
# Scan.plot_hint: ln(I0/It)  --  ln($5/$6)
# Column.1: energy eV
# Column.2: requested_energy eV
# Column.3: measurement_time seconds
# Column.4: xmu
# Column.5: I0 nA
# Column.6: It nA
# Column.7: Ir nA
# ///////////
# sample courtesy Martin Stennett, University of Sheffield
# -----------
# energy  requested_energy  measurement_time  xmu  I0  It  Ir
  5764.308  5764.300  0.500  2.421637  115.151  10.2227  0.433162
  5774.313  5774.300  0.500  2.405976  115.363  10.4031  0.447854
  5784.308  5784.300  0.500  2.390486  115.526  10.5805  0.462496
  5794.301  5794.300  0.500  2.375060  115.7  10.7611  0.477887
  5804.309  5804.300  0.500  2.359443  115.848  10.9445  0.493700
  5814.309  5814.300  0.500  2.344106  115.951  11.1235  0.509721
  5824.311  5824.300  0.500  2.329263  116.045  11.299  0.525462
  5834.307  5834.300  0.500  2.314242  116.078  11.4733  0.541749
  5844.308  5844.300  0.500  2.299943  116.066  11.6373  0.558106
  5854.304  5854.300  0.500  2.284965  115.935  11.7996  0.574342
  5864.289  5864.300  0.500  2.270240  115.592  11.9392  0.589745
  5874.290  5874.300  0.500  2.257491  105.957  11.0844  0.557348
  5884.289  5884.300  0.500  2.242141  115.373  12.2561  0.624286
  5894.291  5894.300  0.500  2.228086  114.953  12.3844  0.639487
  5904.292  5904.300  0.500  2.213863  114.52  12.5145  0.655532
  5914.291  5914.300  0.500  2.199417  111.937  12.4102  0.658648
  5924.295  5924.300  0.500  2.185667  114.777  12.9013  0.693364
  5934.297  5934.300  0.500  2.172431  107.901  12.2899  0.666949
  5936.295  5936.300  0.500  2.170008  114.493  13.0724  0.710591
  5938.296  5938.300  0.500  2.167578  114.143  13.0642  0.710688
  5940.293  5940.300  0.500  2.165210  113.583  13.0309  0.709580
  5942.295  5942.300  0.500  2.163160  112.111  12.8885  0.701774
  5944.297  5944.300  0.500  2.161600  107.245  12.3482  0.672077
  5946.295  5946.300  0.500  2.161453  101.884  11.7327  0.639252
  5948.291  5948.300  0.500  2.158870  115.254  13.3068  0.721734
  5950.298  5950.300  0.500  2.158120  114.992  13.2864  0.717346
  5952.297  5952.300  0.500  2.157858  114.809  13.2687  0.711207
  5954.295  5954.300  0.500  2.159148  114.627  13.2306  0.700443
  5954.789  5954.800  0.500  2.159092  114.572  13.225  0.697492
  5955.290  5955.300  0.500  2.159922  114.464  13.2016  0.693143
  5955.788  5955.800  0.500  2.160576  114.495  13.1966  0.688730
  5956.290  5956.300  0.500  2.162263  114.452  13.1693  0.682986
  5956.789  5956.800  0.500  2.164509  114.413  13.1353  0.676173
  5957.288  5957.300  0.500  2.166255  114.384  13.1091  0.668539
  5957.789  5957.800  0.500  2.168971  114.359  13.0706  0.659577
  5958.290  5958.300  0.500  2.172454  114.316  13.0203  0.648091
  5958.790  5958.800  0.500  2.176002  114.278  12.9699  0.635096
  5959.288  5959.300  0.500  2.180039  114.227  12.9119  0.620646
  5959.788  5959.800  0.500  2.184879  114.203  12.8468  0.604213
  5960.289  5960.300  0.500  2.190022  114.166  12.7768  0.586358
  5960.794  5960.800  0.500  2.196609  114.119  12.6877  0.567395
  5961.294  5961.300  0.500  2.204098  114.11  12.592  0.547375
  5961.794  5961.800  0.500  2.212817  114.079  12.4794  0.526493
  5962.293  5962.300  0.500  2.223956  114.045  12.3375  0.501606
  5962.790  5962.800  0.500  2.239061  114.013  12.1491  0.471693
  5963.292  5963.300  0.500  2.257767  113.942  11.9165  0.435980
  5963.795  5963.800  0.500  2.281787  113.95  11.6345  0.394141
  5964.293  5964.300  0.500  2.315378  113.909  11.2461  0.343037
  5964.795  5964.800  0.500  2.354838  113.859  10.8062  0.289678
  5965.290  5965.300  0.500  2.400279  113.859  10.3262  0.237137
  5965.794  5965.800  0.500  2.449387  113.846  9.830189  0.188621
  5966.296  5966.300  0.500  2.495948  113.803  9.379469  0.147869
  5966.799  5966.800  0.500  2.537290  113.783  8.997992  0.115101
  5967.300  5967.300  0.500  2.570799  113.749  8.698871  0.090538
  5967.797  5967.800  0.500  2.592682  113.71  8.507677  0.075205
  5968.293  5968.300  0.500  2.603498  113.699  8.415328  0.065982
  5968.796  5968.800  0.500  2.601730  113.664  8.427626  0.061819
  5969.301  5969.300  0.500  2.589080  113.611  8.530969  0.061643
  5969.801  5969.800  0.500  2.567365  113.589  8.716571  0.063874
  5970.295  5970.300  0.500  2.539739  113.557  8.958202  0.067862
  5970.795  5970.800  0.500  2.510184  113.514  9.223380  0.072431
  5971.297  5971.300  0.500  2.479682  113.473  9.505601  0.077734
  5971.799  5971.800  0.500  2.449961  113.451  9.790490  0.083846
  5972.303  5972.300  0.500  2.422739  113.412  10.0572  0.090710
  5972.797  5972.800  0.500  2.398124  113.392  10.306  0.099156
  5973.297  5973.300  0.500  2.375376  113.37  10.5411  0.109177
  5973.799  5973.800  0.500  2.356027  113.736  10.7817  0.120064
  5974.303  5974.300  0.500  2.339514  113.685  10.9564  0.131176
  5974.799  5974.800  0.500  2.325377  113.659  11.1098  0.141673
  5975.299  5975.300  0.500  2.314704  113.606  11.2238  0.150435
  5975.799  5975.800  0.500  2.306467  113.562  11.3122  0.157547
  5976.304  5976.300  0.500  2.299943  113.523  11.3823  0.162754
  5976.806  5976.800  0.500  2.296158  113.484  11.4216  0.165376
  5977.300  5977.300  0.500  2.294213  113.422  11.4375  0.165669
  5977.800  5977.800  0.500  2.293130  113.38  11.4457  0.163996
  5978.301  5978.300  0.500  2.292078  113.354  11.4552  0.160920
  5978.803  5978.800  0.500  2.291638  113.323  11.457  0.157630
  5979.303  5979.300  0.500  2.291479  113.261  11.4526  0.154908
  5979.807  5979.800  0.500  2.291538  113.214  11.4471  0.154242
  5980.300  5980.300  0.500  2.291151  113.15  11.4451  0.155164
  5980.799  5980.800  0.500  2.290043  113.086  11.4513  0.157411
  5981.301  5981.300  0.500  2.289354  113.005  11.451  0.160429
  5981.806  5981.800  0.500  2.288977  112.917  11.4464  0.164500
  5982.302  5982.300  0.500  2.287824  112.814  11.4492  0.169765
  5982.802  5982.800  0.500  2.286906  112.773  11.4555  0.176154
  5983.300  5983.300  0.500  2.285798  112.701  11.4609  0.184278
  5983.802  5983.800  0.500  2.284815  112.584  11.4602  0.193141
  5984.302  5984.300  0.500  2.283802  112.467  11.46  0.201898
  5984.806  5984.800  0.500  2.282973  112.316  11.454  0.210201
  5985.306  5985.300  0.500  2.282217  112.127  11.4434  0.217685
  5985.803  5985.800  0.500  2.281384  111.938  11.4337  0.223835
  5986.300  5986.300  0.500  2.280216  111.706  11.4233  0.229177
  5986.802  5986.800  0.500  2.278979  111.371  11.4031  0.233645
  5987.304  5987.300  0.500  2.277835  110.935  11.3715  0.237094
  5987.804  5987.800  0.500  2.277541  110.321  11.3119  0.239415
  5988.306  5988.300  0.500  2.276803  109.391  11.2248  0.240904
  5988.803  5988.800  0.500  2.276349  107.845  11.0712  0.240280
  5989.300  5989.300  0.500  2.276023  104.772  10.7593  0.235598
  5990.302  5990.290  0.500  2.274974  86.8873  8.931976  0.197997
  5991.301  5991.290  0.500  2.280386  98.1257  10.0328  0.225380
  5992.326  5992.310  0.500  2.279345  114.077  11.6759  0.262058
  5993.364  5993.360  0.500  2.281557  114.499  11.6932  0.261280
  5994.422  5994.420  0.500  2.284526  114.31  11.6393  0.257313
  5995.508  5995.500  0.500  2.288159  114.098  11.5756  0.251728
  5996.609  5996.600  0.500  2.291325  113.9  11.519  0.245688
  5997.730  5997.720  0.500  2.294492  113.736  11.466  0.239628
  5998.872  5998.860  0.500  2.297195  113.555  11.4169  0.233597
  6000.021  6000.010  0.500  2.299014  113.451  11.3857  0.228008
  6001.199  6001.190  0.500  2.300135  113.311  11.3589  0.223407
  6002.386  6002.380  0.500  2.299849  113.189  11.3499  0.220452
  6003.612  6003.600  0.500  2.298196  113.06  11.3558  0.218812
  6004.835  6004.830  0.500  2.294899  112.95  11.3822  0.218977
  6006.096  6006.080  0.500  2.290054  112.871  11.4295  0.220016
  6007.344  6007.350  0.500  2.284403  112.782  11.4851  0.221742
  6008.640  6008.640  0.500  2.277979  112.688  11.5495  0.224095
  6009.956  6009.950  0.500  2.271361  112.573  11.6143  0.227337
  6011.291  6011.280  0.500  2.265705  112.498  11.6724  0.231051
  6012.640  6012.630  0.500  2.260487  112.4  11.7233  0.234569
  6014.013  6014.000  0.500  2.256225  112.287  11.7616  0.237770
  6015.391  6015.380  0.500  2.252098  112.225  11.8036  0.239913
  6016.797  6016.790  0.500  2.247402  112.112  11.8472  0.242436
  6018.222  6018.210  0.500  2.245058  112.013  11.8645  0.244363
  6019.656  6019.650  0.500  2.242412  111.941  11.8884  0.246647
  6021.119  6021.110  0.500  2.239999  111.825  11.9048  0.249050
  6022.594  6022.590  0.500  2.238369  111.748  11.916  0.251425
  6024.093  6024.090  0.500  2.236622  111.65  11.9263  0.253796
  6025.617  6025.610  0.500  2.234680  111.537  11.9375  0.256095
  6027.151  6027.150  0.500  2.232980  111.434  11.9467  0.257872
  6028.714  6028.710  0.500  2.232152  111.338  11.9463  0.259261
  6030.284  6030.280  0.500  2.231484  111.252  11.945  0.260148
  6031.883  6031.880  0.500  2.230499  111.136  11.9444  0.260860
  6033.495  6033.490  0.500  2.230333  111.023  11.9341  0.261212
  6035.134  6035.130  0.500  2.231005  110.9  11.913  0.261561
  6036.783  6036.780  0.500  2.231077  110.795  11.9008  0.262089
  6038.456  6038.450  0.500  2.230839  110.672  11.8904  0.262602
  6040.146  6040.140  0.500  2.229670  110.558  11.892  0.263425
  6041.851  6041.850  0.500  2.228687  110.442  11.8913  0.263823
  6043.587  6043.580  0.500  2.227393  110.308  11.8922  0.264126
  6045.334  6045.330  0.500  2.225380  110.175  11.9018  0.264602
  6047.094  6047.090  0.500  2.222852  110.063  11.9198  0.264706
  6048.890  6048.880  0.500  2.220180  109.932  11.9375  0.264798
  6050.688  6050.680  0.500  2.217495  109.778  11.9528  0.264940
  6052.515  6052.510  0.500  2.214388  109.615  11.9722  0.265310
  6054.358  6054.350  0.500  2.211328  109.43  11.9886  0.265352
  6056.217  6056.210  0.500  2.207777  109.203  12.0063  0.265839
  6058.099  6058.090  0.500  2.203935  109  12.0302  0.266355
  6059.998  6059.990  0.500  2.200624  108.752  12.0426  0.266678
  6061.919  6061.910  0.500  2.197907  108.525  12.0501  0.266664
  6063.856  6063.850  0.500  2.194518  108.349  12.0714  0.266715
  6065.818  6065.810  0.500  2.191260  108.196  12.0937  0.266815
  6067.787  6067.780  0.500  2.188485  108.04  12.1098  0.267274
  6069.790  6069.780  0.500  2.185891  107.859  12.1209  0.267571
  6071.798  6071.790  0.500  2.183670  107.681  12.1279  0.269024
  6073.829  6073.820  0.500  2.181524  107.503  12.1338  0.270117
  6075.890  6075.880  0.500  2.178945  107.337  12.1463  0.272213
  6077.957  6077.950  0.500  2.177028  107.151  12.1486  0.274218
  6080.048  6080.040  0.500  2.174595  106.96  12.1565  0.275884
  6082.156  6082.150  0.500  2.171962  106.767  12.1665  0.278093
  6084.295  6084.280  0.500  2.169194  106.552  12.1756  0.280264
  6086.428  6086.420  0.500  2.167091  106.346  12.1777  0.282068
  6088.595  6088.590  0.500  2.164807  106.145  12.1825  0.283453
  6090.789  6090.780  0.500  2.162818  105.928  12.1818  0.284316
  6092.990  6092.980  0.500  2.160352  105.722  12.1881  0.284927
  6095.214  6095.200  0.500  2.157741  105.464  12.1902  0.285211
  6097.462  6097.450  0.500  2.154968  105.235  12.1975  0.285535
  6099.720  6099.710  0.500  2.152003  104.999  12.2062  0.285582
  6101.999  6101.990  0.500  2.148908  104.751  12.2151  0.285442
  6104.297  6104.290  0.500  2.145152  104.5  12.2318  0.285987
  6106.624  6106.610  0.500  2.141534  104.215  12.2426  0.287114
  6108.965  6108.950  0.500  2.138273  103.935  12.2496  0.288762
  6111.313  6111.300  0.500  2.134733  103.662  12.2608  0.290654
  6113.691  6113.680  0.500  2.131580  103.392  12.2674  0.292896
  6116.078  6116.070  0.500  2.128251  103.089  12.2722  0.294659
  6118.499  6118.490  0.500  2.125888  102.763  12.2624  0.295690
  6120.927  6120.920  0.500  2.123213  102.465  12.2596  0.297321
  6123.377  6123.370  0.500  2.121104  102.146  12.2472  0.298696
  6125.859  6125.850  0.500  2.119249  101.817  12.2304  0.299531
  6128.351  6128.340  0.500  2.116275  101.488  12.2272  0.301206
  6130.860  6130.850  0.500  2.113461  101.141  12.2197  0.302164
  6133.379  6133.370  0.500  2.110514  100.802  12.2148  0.303094
  6135.929  6135.920  0.500  2.107386  100.362  12.1995  0.303435
  6138.499  6138.490  0.500  2.104059  100.022  12.1987  0.303817
  6141.082  6141.070  0.500  2.100490  99.6032  12.1911  0.304302
  6143.688  6143.680  0.500  2.096837  99.1748  12.1831  0.304350
  6146.306  6146.300  0.500  2.092873  98.7078  12.1739  0.304709
  6148.957  6148.950  0.500  2.088902  98.2548  12.1662  0.305026
  6151.618  6151.610  0.500  2.084846  97.7245  12.1497  0.305414
  6154.297  6154.290  0.500  2.080930  97.0997  12.1194  0.305775
  6156.997  6156.990  0.500  2.077291  96.2295  12.0546  0.305803
  6159.719  6159.710  0.500  2.072859  94.215  11.8547  0.302315
  6162.457  6162.450  0.500  2.069909  95.8145  12.0915  0.310339
  6165.208  6165.200  0.500  2.066362  94.798  12.0058  0.310219
  6167.987  6167.980  0.500  2.063382  94.0493  11.9465  0.310180
  6170.776  6170.770  0.500  2.060516  96.1077  12.243  0.319878
  6173.598  6173.590  0.500  2.057488  95.1565  12.1586  0.319398
  6176.426  6176.420  0.500  2.054625  94.477  12.1064  0.319465
  6179.276  6179.270  0.500  2.051812  93.878  12.0635  0.319877
  6182.158  6182.150  0.500  2.049105  93.3006  12.0218  0.319721
  6185.047  6185.040  0.500  2.045594  92.7112  11.9879  0.319933
  6187.962  6187.950  0.500  2.042257  92.1098  11.9499  0.319654
  6190.876  6190.870  0.500  2.038903  91.5249  11.9139  0.319582
  6193.829  6193.820  0.500  2.035679  90.9309  11.8748  0.318716
  6196.800  6196.790  0.500  2.031646  90.3321  11.8443  0.318799
  6199.781  6199.770  0.500  2.027720  89.7312  11.8118  0.319078
  6202.789  6202.780  0.500  2.024342  89.1136  11.7702  0.319358
  6205.809  6205.800  0.500  2.021079  88.4663  11.7229  0.319957
  6208.855  6208.850  0.500  2.017167  87.8389  11.6854  0.320702
  6211.916  6211.910  0.500  2.013695  87.186  11.6388  0.321062
  6214.995  6214.990  0.500  2.009778  86.5389  11.5978  0.321423
  6218.100  6218.090  0.500  2.005391  85.905  11.5635  0.322541
  6221.219  6221.210  0.500  2.001312  85.2218  11.5184  0.323481
  6224.356  6224.350  0.500  1.997494  84.554  11.4718  0.324111
  6227.508  6227.500  0.500  1.993900  83.888  11.4225  0.323860
  6230.688  6230.680  0.500  1.990358  83.1941  11.3682  0.323719
  6233.876  6233.870  0.500  1.987254  82.505  11.3091  0.323092
  6237.095  6237.090  0.500  1.983179  81.8106  11.2597  0.322645
  6240.329  6240.320  0.500  1.979103  81.1238  11.2108  0.322210
  6243.576  6243.570  0.500  1.975591  80.4131  11.1516  0.321079
  6246.864  6246.850  0.500  1.971700  79.7119  11.0975  0.320618
  6250.155  6250.140  0.500  1.967406  78.9996  11.0457  0.320223
  6253.462  6253.450  0.500  1.963295  78.3038  10.9935  0.320315
  6256.780  6256.770  0.500  1.959279  77.5957  10.9379  0.320367
  6260.122  6260.120  0.500  1.955427  76.8648  10.8767  0.320581
  6263.490  6263.490  0.500  1.951476  76.1569  10.8192  0.321153
  6266.874  6266.870  0.500  1.947665  75.447  10.7592  0.321495
  6270.281  6270.280  0.500  1.943645  74.7394  10.7013  0.321856
  6273.702  6273.700  0.500  1.939793  74.0106  10.6378  0.322197
  6277.149  6277.150  0.500  1.935789  73.3058  10.5788  0.322550
  6280.612  6280.610  0.500  1.931568  72.5833  10.5188  0.322585
  6284.094  6284.090  0.500  1.927701  71.8882  10.4585  0.322577
  6287.598  6287.590  0.500  1.923555  71.1812  10.3986  0.321853
  6291.117  6291.110  0.500  1.919617  70.4615  10.3341  0.321173
  6294.657  6294.650  0.500  1.915576  69.7559  10.272  0.320142
  6298.201  6298.200  0.500  1.911320  69.0477  10.2111  0.319200
  6301.785  6301.780  0.500  1.907185  68.3488  10.1497  0.318284
  6305.390  6305.380  0.500  1.903141  67.6563  10.0875  0.317795
  6309.001  6308.990  0.500  1.899109  66.9717  10.0258  0.317158
  6312.626  6312.620  0.500  1.894789  66.5638  10.0079  0.318431
  6316.285  6316.280  0.500  1.890786  65.8557  9.941122  0.318355
  6319.954  6319.950  0.500  1.886284  65.1765  9.882991  0.318568
  6323.645  6323.640  0.500  1.882362  64.4763  9.815238  0.318584
  6327.369  6327.350  0.500  1.877925  63.8074  9.756602  0.318862
  6331.084  6331.080  0.500  1.873820  63.1261  9.692125  0.318926
  6334.832  6334.820  0.500  1.869957  62.4631  9.627460  0.319012
  6338.604  6338.590  0.500  1.866056  61.8044  9.563160  0.318866
  6342.397  6342.380  0.500  1.861573  61.1428  9.503302  0.318889
  6346.189  6346.180  0.500  1.857588  60.4933  9.439901  0.318797
  6350.021  6350.010  0.500  1.853481  59.8404  9.376438  0.318218
  6353.860  6353.850  0.500  1.848887  59.1991  9.318668  0.317601
  6357.720  6357.710  0.500  1.844310  58.5661  9.261306  0.316982
  6361.587  6361.590  0.500  1.839706  57.9394  9.204496  0.316308
  6365.504  6365.490  0.500  1.835057  57.3117  9.147197  0.315654
  6369.424  6369.410  0.500  1.830480  56.694  9.090115  0.315014
  6373.359  6373.350  0.500  1.825866  56.0745  9.032366  0.314777
  6377.331  6377.310  0.500  1.821292  55.452  8.973054  0.314665
  6381.272  6381.280  0.500  1.817426  54.8275  8.906364  0.314363
  6385.269  6385.280  0.500  1.812907  54.2312  8.849399  0.314433
  6389.305  6389.290  0.500  1.808377  53.6292  8.790893  0.314689
  6393.346  6393.330  0.500  1.804227  53.0172  8.726720  0.314698
  6397.397  6397.380  0.500  1.799751  52.4285  8.668525  0.314824
  6401.467  6401.450  0.500  1.795119  51.8435  8.611600  0.314898
  6405.550  6405.540  0.500  1.790678  51.2692  8.554116  0.314631
  6409.668  6409.650  0.500  1.786509  50.693  8.493319  0.314298
  6413.772  6413.780  0.500  1.782014  50.1047  8.432557  0.314019
  6417.946  6417.930  0.500  1.777990  49.5523  8.373221  0.313373