File: xdidata/Data/Sm/Sm-L1-Sm2O3-m.xdi
# XDI/1.0 BlueSky/1.10.0 BMM/2023-1.0-py310-tiled
# Beamline.name: BMM (06BM) -- Beamline for Materials Measurement (NIST)
# Beamline.xray_source: NSLS-II three-pole wiggler
# Beamline.collimation: paraboloid mirror, 5 nm Rh on 30 nm Pt
# Beamline.focusing: not in use
# Beamline.harmonic_rejection: flat mirror, Si stripe, pitch = 7.0 mrad relative to beam
# Beamline.software: Bluesky 1.10.0, Ophyd 1.7.0, DataBroker 2.0.0b13, Python 3.10.8, 2023-1.0-py310-tiled
# Detector.I0: 10 cm N2
# Detector.I1: 25 cm N2
# Detector.I2: 25 cm N2
# Element.symbol: Sm
# Element.edge: L1
# Element.reference: Sm
# Element.reference_material: Sm2O3
# Facility.name: NSLS-II
# Facility.energy: 3.0
# Facility.current: 400.0
# Facility.mode: top-off
# Facility.GUP: 123456
# Facility.SAF: 301027
# Facility.cycle: 2023-2
# Mono.name: Si(111)
# Mono.d_spacing: 3.13519
# Mono.encoder_resolution: 0.0000050 deg/ct
# Mono.angle_offset: 16.0754 deg
# Mono.scan_mode: pseudo channel cut
# Mono.scan_type: step
# Mono.direction: forward in energy
# Sample.name: monoclinic Sm2O3
# Sample.prep: Powder in PEG pellet
# Sample.x: 123.848 mm
# Sample.y: 114.690 mm
# Sample.SDD_position: 205.000 mm
# Scan.experimenters: Bruce Ravel
# Scan.edge_energy: 7736.8
# Scan.start_time: 2023-05-08T20:39:39
# Scan.end_time: 2023-05-08T20:45:28
# Scan.transient_id: 75593
# Scan.uid: 5d260751-4b3b-485e-8b93-18a1a19e3b0b
# Scan.plot_hint: ln(I0/It)  --  ln($5/$6)
# Column.1: energy eV
# Column.2: requested_energy eV
# Column.3: measurement_time seconds
# Column.4: xmu
# Column.5: I0 nA
# Column.6: It nA
# Column.7: Ir nA
# ///////////
# sample courtesy Martin Stennett, University of Sheffield
# -----------
# energy  requested_energy  measurement_time  xmu  I0  It  Ir
  7536.812  7536.800  0.500  3.059515  147.744  6.930745  0.385485
  7546.815  7546.800  0.500  3.052671  147.573  6.970235  0.389057
  7556.896  7556.800  0.500  3.043759  147.418  7.025259  0.394655
  7566.829  7566.800  0.500  3.032443  147.22  7.095660  0.401761
  7576.831  7576.800  0.500  3.020773  147.037  7.170037  0.409486
  7586.814  7586.800  0.500  3.010692  146.802  7.231120  0.416164
  7596.822  7596.800  0.500  3.003508  146.488  7.267650  0.420451
  7606.818  7606.800  0.500  2.992904  145.793  7.310319  0.425906
  7616.819  7616.800  0.500  2.981695  145.602  7.383024  0.433541
  7626.795  7626.800  0.500  2.971406  145.836  7.471343  0.441915
  7637.877  7636.800  0.500  2.958646  145.706  7.560582  0.452474
  7646.803  7646.800  0.500  2.949863  145.54  7.618557  0.459021
  7656.801  7656.800  0.500  2.941484  145.364  7.673392  0.465261
  7666.803  7666.800  0.500  2.933569  145.16  7.723486  0.471201
  7676.805  7676.800  0.500  2.924330  144.934  7.783047  0.477786
  7686.806  7686.800  0.500  2.915283  144.334  7.821249  0.483419
  7696.806  7696.800  0.500  2.905120  144.547  7.912843  0.492268
  7706.800  7706.800  0.500  2.895866  140.871  7.783280  0.487325
  7708.790  7708.800  0.500  2.894236  144.368  7.989524  0.500743
  7710.785  7710.800  0.500  2.892782  144.267  7.995559  0.502053
  7712.789  7712.800  0.500  2.891318  144.195  8.003251  0.502704
  7714.789  7714.800  0.500  2.890036  144.124  8.009550  0.503779
  7716.783  7716.800  0.500  2.888705  144.047  8.015954  0.504600
  7718.786  7718.800  0.500  2.887861  143.913  8.015285  0.504890
  7720.789  7720.800  0.500  2.886589  140.943  7.859864  0.496201
  7722.791  7722.800  0.500  2.885681  143.993  8.037230  0.507093
  7724.786  7724.800  0.500  2.885156  143.914  8.037057  0.507012
  7726.785  7726.800  0.500  2.884736  143.853  8.037029  0.507268
  7727.280  7727.300  0.500  2.884752  143.822  8.035154  0.507041
  7727.779  7727.800  0.500  2.885002  143.804  8.032144  0.506962
  7728.278  7728.300  0.500  2.884779  143.789  8.033102  0.506968
  7728.778  7728.800  0.500  2.885103  143.777  8.029813  0.506930
  7729.277  7729.300  0.500  2.885489  143.752  8.025305  0.506434
  7729.780  7729.800  0.500  2.885896  143.728  8.020725  0.505916
  7730.279  7730.300  0.500  2.885982  143.709  8.018969  0.505731
  7730.787  7730.800  0.500  2.886267  143.698  8.016055  0.505483
  7731.279  7731.300  0.500  2.886919  143.667  8.009118  0.505068
  7731.781  7731.800  0.500  2.887256  143.653  8.005635  0.504556
  7732.286  7732.300  0.500  2.888122  143.634  7.997619  0.503951
  7732.786  7732.800  0.500  2.888737  143.619  7.991894  0.503467
  7733.286  7733.300  0.500  2.889557  143.605  7.984581  0.502391
  7733.779  7733.800  0.500  2.890603  143.587  7.975235  0.501588
  7734.279  7734.300  0.500  2.892165  143.569  7.961761  0.500436
  7734.782  7734.800  0.500  2.893635  143.548  7.948896  0.499012
  7735.290  7735.300  0.500  2.895826  143.523  7.930107  0.497038
  7735.790  7735.800  0.500  2.898179  143.503  7.910385  0.494940
  7736.288  7736.300  0.500  2.901254  143.476  7.884604  0.492332
  7736.789  7736.800  0.500  2.905150  143.448  7.852410  0.489526
  7737.295  7737.300  0.500  2.909905  143.416  7.813453  0.485453
  7737.790  7737.800  0.500  2.915231  143.376  7.769780  0.481075
  7738.286  7738.300  0.500  2.921055  143.329  7.722106  0.476561
  7738.794  7738.800  0.500  2.927805  143.241  7.665464  0.470816
  7739.288  7739.300  0.500  2.934744  143.064  7.603062  0.464971
  7739.794  7739.800  0.500  2.942336  142.043  7.491700  0.455998
  7740.300  7740.300  0.500  2.949505  139.701  7.315527  0.443513
  7740.793  7740.800  0.500  2.956165  140.683  7.318056  0.440491
  7741.297  7741.300  0.500  2.962418  142.956  7.389924  0.442561
  7741.798  7741.800  0.500  2.968219  144.032  7.402499  0.442576
  7742.292  7742.300  0.500  2.973513  144.009  7.362212  0.438141
  7742.788  7742.800  0.500  2.978510  143.984  7.324260  0.434676
  7743.297  7743.300  0.500  2.983406  143.956  7.287059  0.431184
  7743.794  7743.800  0.500  2.987964  143.933  7.252796  0.427272
  7744.298  7744.300  0.500  2.993268  143.911  7.213323  0.423108
  7744.802  7744.800  0.500  2.998602  143.888  7.173774  0.419441
  7745.296  7745.300  0.500  3.004633  143.872  7.129857  0.415168
  7745.798  7745.800  0.500  3.011340  143.852  7.081192  0.410225
  7746.294  7746.300  0.500  3.018675  143.832  7.028482  0.404827
  7746.794  7746.800  0.500  3.027182  143.805  6.967625  0.398608
  7747.296  7747.300  0.500  3.036989  143.791  6.898963  0.391674
  7747.803  7747.800  0.500  3.047586  143.767  6.825118  0.384682
  7748.302  7748.300  0.500  3.058636  143.753  6.749449  0.377301
  7748.805  7748.800  0.500  3.069844  143.734  6.673358  0.370045
  7749.302  7749.300  0.500  3.081454  143.722  6.595759  0.362464
  7749.799  7749.800  0.500  3.093190  143.701  6.517856  0.354907
  7750.296  7750.300  0.500  3.104281  143.689  6.445414  0.348163
  7750.796  7750.800  0.500  3.113816  143.678  6.383764  0.342231
  7751.296  7751.300  0.500  3.122555  143.664  6.327589  0.336787
  7751.801  7751.800  0.500  3.129721  143.639  6.281339  0.332246
  7752.304  7752.300  0.500  3.135727  143.634  6.243495  0.328840
  7752.801  7752.800  0.500  3.139589  143.607  6.218264  0.326321
  7753.301  7753.300  0.500  3.142242  143.597  6.201375  0.324560
  7753.797  7753.800  0.500  3.142783  143.573  6.196972  0.324117
  7754.299  7754.300  0.500  3.141920  143.562  6.201840  0.324627
  7754.795  7754.800  0.500  3.140575  143.558  6.209999  0.324943
  7755.298  7755.300  0.500  3.138297  143.536  6.223225  0.326342
  7755.798  7755.800  0.500  3.135424  143.528  6.240807  0.328053
  7756.304  7756.300  0.500  3.132659  143.518  6.257643  0.329649
  7756.802  7756.800  0.500  3.129993  143.504  6.273728  0.331334
  7757.303  7757.300  0.500  3.127645  143.493  6.287976  0.332630
  7757.804  7757.800  0.500  3.125587  143.473  6.300064  0.333916
  7758.302  7758.300  0.500  3.124104  143.461  6.308899  0.335287
  7758.795  7758.800  0.500  3.122962  143.447  6.315494  0.336071
  7759.291  7759.300  0.500  3.122090  143.439  6.320643  0.336979
  7759.800  7759.800  0.500  3.121659  143.423  6.322642  0.337264
  7760.299  7760.300  0.500  3.121192  143.399  6.324555  0.337663
  7760.802  7760.800  0.500  3.120770  143.386  6.326655  0.338148
  7761.309  7761.300  0.500  3.120640  143.373  6.326908  0.338829
  7761.800  7761.800  0.500  3.120144  143.367  6.329783  0.338997
  7762.792  7762.790  0.500  3.118915  143.339  6.336319  0.340072
  7763.801  7763.790  0.500  3.116900  143.319  6.348212  0.341139
  7764.822  7764.810  0.500  3.113347  143.294  6.369678  0.343050
  7765.867  7765.860  0.500  3.109006  143.268  6.396246  0.345797
  7766.925  7766.920  0.500  3.103302  143.245  6.431811  0.349242
  7768.004  7768.000  0.500  3.096364  143.213  6.475112  0.353216
  7769.109  7769.100  0.500  3.088788  143.184  6.523053  0.357358
  7770.225  7770.220  0.500  3.081397  143.155  6.570092  0.361966
  7771.369  7771.360  0.500  3.073843  143.124  6.618511  0.366663
  7772.516  7772.510  0.500  3.066975  143.091  6.662588  0.370936
  7773.700  7773.690  0.500  3.060337  143.058  6.705419  0.375053
  7774.887  7774.880  0.500  3.053900  143.022  6.746989  0.378518
  7776.105  7776.100  0.500  3.047993  142.99  6.785463  0.382289
  7777.336  7777.330  0.500  3.043544  142.959  6.814260  0.385131
  7778.586  7778.580  0.500  3.039922  142.932  6.837690  0.387307
  7779.849  7779.850  0.500  3.037525  142.903  6.852669  0.388937
  7781.149  7781.140  0.500  3.036461  142.873  6.858532  0.389685
  7782.454  7782.450  0.500  3.036438  142.836  6.856940  0.389379
  7783.791  7783.780  0.500  3.037122  142.805  6.850740  0.388585
  7785.139  7785.130  0.500  3.038761  142.764  6.837555  0.387212
  7786.505  7786.500  0.500  3.040565  142.733  6.823774  0.385896
  7787.890  7787.880  0.500  3.042693  142.698  6.807611  0.384483
  7789.309  7789.290  0.500  3.045009  142.663  6.790154  0.382387
  7790.715  7790.710  0.500  3.047588  142.627  6.770991  0.380740
  7792.159  7792.150  0.500  3.049826  142.587  6.753920  0.379296
  7793.619  7793.610  0.500  3.051915  142.552  6.738204  0.377531
  7795.099  7795.090  0.500  3.053126  142.511  6.728090  0.376661
  7796.599  7796.590  0.500  3.053250  142.477  6.725674  0.376234
  7798.120  7798.110  0.500  3.052659  142.438  6.727817  0.376719
  7799.657  7799.650  0.500  3.051614  142.394  6.732755  0.376853
  7801.221  7801.210  0.500  3.050548  142.35  6.737862  0.377653
  7802.791  7802.780  0.500  3.049911  142.313  6.740390  0.377845
  7804.385  7804.380  0.500  3.048697  142.266  6.746346  0.378437
  7806.008  7805.990  0.500  3.047783  142.216  6.750165  0.378742
  7807.636  7807.630  0.500  3.046237  142.178  6.758794  0.379885
  7809.297  7809.280  0.500  3.044578  142.119  6.767218  0.380849
  7810.959  7810.950  0.500  3.042464  142.074  6.779359  0.382347
  7812.655  7812.640  0.500  3.040038  142.031  6.793789  0.384035
  7814.365  7814.350  0.500  3.037252  141.973  6.809954  0.386316
  7816.092  7816.080  0.500  3.034090  141.925  6.829217  0.388524
  7817.850  7817.830  0.500  3.030855  141.876  6.848948  0.390443
  7819.599  7819.590  0.500  3.027872  141.827  6.867039  0.392390
  7821.393  7821.380  0.500  3.025446  141.778  6.881378  0.393958
  7823.193  7823.180  0.500  3.023870  141.726  6.889679  0.395292
  7825.015  7825.010  0.500  3.022475  141.672  6.896653  0.396119
  7826.870  7826.850  0.500  3.020744  141.627  6.906443  0.397252
  7828.720  7828.710  0.500  3.018738  141.578  6.917909  0.398466
  7830.610  7830.590  0.500  3.016191  141.45  6.929278  0.399678
  7832.509  7832.490  0.500  3.012965  141.067  6.932831  0.400047
  7834.427  7834.410  0.500  3.009523  141.379  6.972155  0.403202
  7836.364  7836.350  0.500  3.006148  141.352  6.994345  0.405538
  7838.332  7838.310  0.500  3.002671  141.287  7.015513  0.407450
  7840.295  7840.280  0.500  2.999325  140.426  6.996136  0.406635
  7842.293  7842.280  0.500  2.996033  141.135  7.054643  0.411230
  7844.306  7844.290  0.500  2.993316  141.106  7.072369  0.412826
  7846.335  7846.320  0.500  2.990961  139.964  7.031692  0.411332
  7848.408  7848.380  0.500  2.988602  140.905  7.095651  0.415983
  7850.431  7850.450  0.500  2.986273  140.864  7.110128  0.417351
  7852.527  7852.540  0.500  2.984249  140.807  7.121673  0.418652
  7854.637  7854.650  0.500  2.982163  139.691  7.079987  0.417058
  7856.773  7856.780  0.500  2.980303  140.647  7.141712  0.420953
  7858.914  7858.920  0.500  2.979138  140.607  7.147980  0.421801
  7861.089  7861.090  0.500  2.978387  140.567  7.151330  0.422145
  7863.285  7863.280  0.500  2.977860  140.493  7.151333  0.422318
  7865.489  7865.480  0.500  2.977098  140.437  7.153923  0.422980
  7867.707  7867.700  0.500  2.975918  140.364  7.158662  0.423435
  7869.966  7869.950  0.500  2.974349  140.297  7.166471  0.424306
  7872.223  7872.210  0.500  2.972357  140.235  7.177601  0.425714
  7874.498  7874.490  0.500  2.970246  140.174  7.189617  0.427160
  7876.806  7876.790  0.500  2.967638  140.105  7.204830  0.428693
  7879.118  7879.110  0.500  2.964869  140.034  7.221168  0.430474
  7881.460  7881.450  0.500  2.961880  139.964  7.239163  0.432609
  7883.807  7883.800  0.500  2.958525  139.889  7.259594  0.434824
  7886.192  7886.180  0.500  2.955094  139.811  7.280467  0.437034
  7888.574  7888.570  0.500  2.952070  139.759  7.299835  0.439119
  7891.005  7890.990  0.500  2.948940  139.689  7.319042  0.441854
  7893.424  7893.420  0.500  2.946022  139.613  7.336405  0.443631
  7895.887  7895.870  0.500  2.944220  139.546  7.346128  0.445116
  7898.360  7898.350  0.500  2.942710  139.329  7.345772  0.445613
  7900.851  7900.840  0.500  2.941121  139.255  7.353567  0.446619
  7903.372  7903.350  0.500  2.939283  139.272  7.368009  0.447911
  7905.882  7905.870  0.500  2.937424  139.203  7.378053  0.449354
  7908.436  7908.420  0.500  2.935739  139.127  7.386452  0.450400
  7911.003  7910.990  0.500  2.933657  139.046  7.397550  0.451392
  7913.582  7913.570  0.500  2.931037  138.948  7.411733  0.453360
  7916.192  7916.180  0.500  2.928239  138.864  7.428000  0.455202
  7918.806  7918.800  0.500  2.925272  138.774  7.445222  0.456886
  7921.471  7921.450  0.500  2.922180  138.708  7.464736  0.458992
  7924.122  7924.110  0.500  2.918782  138.63  7.485946  0.461333
  7926.806  7926.790  0.500  2.915640  138.529  7.504015  0.463312
  7929.514  7929.490  0.500  2.912070  138.194  7.512673  0.465030
  7932.224  7932.210  0.500  2.908736  138.315  7.544340  0.468034
  7934.965  7934.950  0.500  2.905658  138.205  7.561555  0.470083
  7937.719  7937.700  0.500  2.902910  137.881  7.564609  0.471580
  7940.486  7940.480  0.500  2.900351  137.94  7.587229  0.473059
  7943.282  7943.270  0.500  2.898084  138.094  7.612958  0.476112
  7946.099  7946.090  0.500  2.895694  137.97  7.624320  0.477915
  7948.934  7948.920  0.500  2.893300  137.862  7.636587  0.479681
  7951.779  7951.770  0.500  2.891237  137.385  7.625868  0.479262
  7954.661  7954.650  0.500  2.889068  137.615  7.655255  0.482014
  7957.549  7957.540  0.500  2.887075  137.513  7.664819  0.483618
  7960.465  7960.450  0.500  2.884548  137.404  7.678151  0.484971
  7963.387  7963.370  0.500  2.881983  137.293  7.691665  0.487138
  7966.332  7966.320  0.500  2.879346  137.168  7.704917  0.488681
  7969.304  7969.290  0.500  2.876412  137.056  7.721274  0.490892
  7972.284  7972.270  0.500  2.873290  136.893  7.736217  0.492753
  7975.293  7975.280  0.500  2.870131  136.681  7.748645  0.494803
  7978.311  7978.300  0.500  2.866832  136.471  7.762293  0.496818
  7981.368  7981.350  0.500  2.863576  135.991  7.760233  0.497511
  7984.428  7984.410  0.500  2.860891  136.219  7.794128  0.501132
  7987.499  7987.490  0.500  2.857957  136.117  7.811200  0.503578
  7990.607  7990.590  0.500  2.854368  136.01  7.833102  0.505769
  7993.727  7993.710  0.500  2.851045  135.9  7.852843  0.508252
  7996.859  7996.850  0.500  2.847905  135.777  7.870422  0.510593
  8000.011  8000.000  0.500  2.845003  135.677  7.887444  0.512845
  8003.187  8003.180  0.500  2.842212  135.588  7.904289  0.514935
  8006.380  8006.370  0.500  2.839780  135.505  7.918684  0.517210
  8009.594  8009.590  0.500  2.837231  135.539  7.940891  0.519283
  8012.830  8012.820  0.500  2.834211  135.505  7.962920  0.521683
  8016.086  8016.070  0.500  2.831091  135.441  7.984019  0.524571
  8019.355  8019.350  0.500  2.827722  135.358  8.006082  0.526916
  8022.649  8022.640  0.500  2.824385  135.249  8.026401  0.529635
  8025.973  8025.950  0.500  2.820637  135.131  8.049489  0.532834
  8029.281  8029.270  0.500  2.816996  135.014  8.071858  0.535490
  8032.627  8032.620  0.500  2.813808  134.886  8.089968  0.538089
  8036.002  8035.990  0.500  2.810307  134.769  8.111288  0.540553
  8039.387  8039.370  0.500  2.807220  134.625  8.127681  0.543018
  8042.784  8042.780  0.500  2.804151  134.506  8.145449  0.545623
  8046.214  8046.200  0.500  2.800751  134.364  8.164560  0.548064
  8049.669  8049.650  0.500  2.797408  134.219  8.183047  0.550361
  8053.128  8053.110  0.500  2.793947  134.032  8.199991  0.553159
  8056.603  8056.590  0.500  2.790687  133.54  8.196532  0.554389
  8060.109  8060.090  0.500  2.787424  134.527  8.284125  0.561423
  8063.630  8063.610  0.500  2.784756  134.338  8.294567  0.563621
  8067.159  8067.150  0.500  2.781462  134.069  8.305306  0.565149
  8070.711  8070.700  0.500  2.778498  130.805  8.127140  0.552928
  8074.300  8074.280  0.500  2.775390  133.923  8.346791  0.570974
  8077.892  8077.880  0.500  2.772386  133.326  8.334574  0.571136
  8081.498  8081.490  0.500  2.769211  133.718  8.385626  0.576248
  8085.136  8085.120  0.500  2.765939  133.519  8.400639  0.578705
  8088.799  8088.780  0.500  2.762487  133.179  8.408203  0.580453
  8092.458  8092.450  0.500  2.758860  132.139  8.372860  0.578094
  8096.148  8096.140  0.500  2.755360  133.25  8.472883  0.587813
  8099.869  8099.850  0.500  2.752057  133.076  8.489806  0.590578
  8103.592  8103.580  0.500  2.748677  132.908  8.507756  0.593346
  8107.332  8107.320  0.500  2.745031  132.754  8.528935  0.596355
  8111.100  8111.090  0.500  2.741385  132.624  8.551708  0.599574
  8114.895  8114.880  0.500  2.737605  132.487  8.575229  0.603027
  8118.697  8118.680  0.500  2.733614  132.348  8.600472  0.606373
  8122.522  8122.510  0.500  2.730170  132.191  8.619965  0.608991
  8126.370  8126.350  0.500  2.726923  132.036  8.637806  0.611989
  8130.231  8130.210  0.500  2.723272  131.873  8.658733  0.615110
  8134.109  8134.090  0.500  2.720041  131.722  8.676824  0.617932
  8138.000  8137.990  0.500  2.716575  131.571  8.696964  0.621353
  8141.918  8141.910  0.500  2.713065  131.404  8.716473  0.624158
  8145.870  8145.850  0.500  2.709530  131.251  8.737122  0.626945
  8149.830  8149.810  0.500  2.706250  131.083  8.754604  0.630154
  8153.793  8153.780  0.500  2.702316  130.932  8.778978  0.633475
  8157.795  8157.780  0.500  2.698744  130.785  8.800548  0.636539
  8161.815  8161.790  0.500  2.695235  130.605  8.819273  0.639709
  8165.847  8165.830  0.500  2.691571  130.443  8.840689  0.642861
  8169.904  8169.880  0.500  2.687703  130.281  8.863940  0.646057
  8174.005  8173.950  0.500  2.683974  130.099  8.884634  0.649195
  8178.067  8178.040  0.500  2.680257  129.935  8.906472  0.652612
  8182.213  8182.150  0.500  2.676769  129.775  8.926599  0.656043
  8186.307  8186.280  0.500  2.672910  129.596  8.948759  0.659602
  8190.491  8190.430  0.500  2.669147  129.434  8.971251  0.662831
  8194.607  8194.590  0.500  2.665171  129.252  8.994321  0.666615
  8198.803  8198.780  0.500  2.661458  129.095  9.016825  0.670029
  8203.000  8202.980  0.500  2.657762  128.909  9.037178  0.673441
  8207.265  8207.210  0.500  2.654023  128.75  9.059846  0.677053
  8211.436  8211.450  0.500  2.650354  128.579  9.081068  0.680778
  8215.762  8215.710  0.500  2.646498  128.41  9.104111  0.684113
  8220.018  8219.990  0.500  2.642761  128.227  9.125228  0.688024
  8224.322  8224.290  0.500  2.639209  128.051  9.145142  0.691262
  8228.668  8228.610  0.500  2.635478  127.874  9.166637  0.694763
  8232.963  8232.950  0.500  2.632054  127.693  9.185042  0.698139
  8237.286  8237.310  0.500  2.628048  127.499  9.207920  0.701803
  8241.740  8241.690  0.500  2.624280  127.319  9.229615  0.705399
  8246.067  8246.080  0.500  2.620465  127.137  9.251641  0.709273
  8250.483  8250.500  0.500  2.616596  126.938  9.272936  0.713047
  8254.983  8254.930  0.500  2.612657  126.756  9.296238  0.716835
  8259.430  8259.380  0.500  2.608611  126.575  9.320574  0.720842
  8263.887  8263.850  0.500  2.604396  126.381  9.345591  0.724960
  8268.391  8268.340  0.500  2.600258  126.184  9.369720  0.729027
  8272.837  8272.850  0.500  2.596318  125.974  9.391046  0.732918
  8277.430  8277.380  0.500  2.592543  125.708  9.406679  0.736006
  8281.905  8281.930  0.500  2.588486  125.53  9.431503  0.740169