File: xdidata/Data/Sm/Sm-L1-Sm2TiO5.xdi
# XDI/1.0 BlueSky/1.10.0 BMM/2023-1.0-py310-tiled
# Beamline.name: BMM (06BM) -- Beamline for Materials Measurement (NIST)
# Beamline.xray_source: NSLS-II three-pole wiggler
# Beamline.collimation: paraboloid mirror, 5 nm Rh on 30 nm Pt
# Beamline.focusing: not in use
# Beamline.harmonic_rejection: flat mirror, Si stripe, pitch = 7.0 mrad relative to beam
# Beamline.software: Bluesky 1.10.0, Ophyd 1.7.0, DataBroker 2.0.0b13, Python 3.10.8, 2023-1.0-py310-tiled
# Detector.I0: 10 cm N2
# Detector.I1: 25 cm N2
# Detector.I2: 25 cm N2
# Element.symbol: Sm
# Element.edge: L1
# Element.reference: Sm
# Element.reference_material: Sm2O3
# Facility.name: NSLS-II
# Facility.energy: 3.0
# Facility.current: 400.1
# Facility.mode: top-off
# Facility.GUP: 123456
# Facility.SAF: 301027
# Facility.cycle: 2023-2
# Mono.name: Si(111)
# Mono.d_spacing: 3.13519
# Mono.encoder_resolution: 0.0000050 deg/ct
# Mono.angle_offset: 16.0754 deg
# Mono.scan_mode: pseudo channel cut
# Mono.scan_type: step
# Mono.direction: forward in energy
# Sample.name: Sm2TiO5
# Sample.prep: Powder in PEG pellet
# Sample.x: 149.848 mm
# Sample.y: 114.690 mm
# Sample.SDD_position: 205.000 mm
# Scan.experimenters: Bruce Ravel
# Scan.edge_energy: 7736.8
# Scan.start_time: 2023-05-08T20:46:13
# Scan.end_time: 2023-05-08T20:52:05
# Scan.transient_id: 75598
# Scan.uid: 927f7f75-69f5-4acd-b0b6-7d80d4d7c12c
# Scan.plot_hint: ln(I0/It)  --  ln($5/$6)
# Column.1: energy eV
# Column.2: requested_energy eV
# Column.3: measurement_time seconds
# Column.4: xmu
# Column.5: I0 nA
# Column.6: It nA
# Column.7: Ir nA
# ///////////
# sample courtesy Martin Stennett, University of Sheffield
# -----------
# energy  requested_energy  measurement_time  xmu  I0  It  Ir
  7536.800  7536.800  0.500  1.523103  147.826  32.2311  1.947658
  7546.812  7546.800  0.500  1.517011  147.65  32.3895  1.966489
  7556.862  7556.800  0.500  1.510478  147.485  32.5654  1.988502
  7566.897  7566.800  0.500  1.503515  147.301  32.752  2.015199
  7576.826  7576.800  0.500  1.497417  147.106  32.9086  2.041587
  7586.839  7586.800  0.500  1.491197  146.869  33.0606  2.065377
  7596.820  7596.800  0.500  1.485097  146.54  33.1885  2.083757
  7606.815  7606.800  0.500  1.479004  145.857  33.2357  2.100681
  7616.811  7616.800  0.500  1.472460  145.67  33.4109  2.127497
  7626.815  7626.800  0.500  1.466062  145.913  33.6815  2.159397
  7636.818  7636.800  0.500  1.459966  145.777  33.8559  2.187614
  7646.813  7646.800  0.500  1.454338  145.587  34.0027  2.212093
  7656.816  7656.800  0.500  1.448498  145.41  34.1602  2.236221
  7666.818  7666.800  0.500  1.442456  145.208  34.3193  2.258921
  7676.810  7676.800  0.500  1.436458  144.97  34.4694  2.282306
  7686.780  7686.800  0.500  1.430080  144.406  34.5548  2.301777
  7696.778  7696.800  0.500  1.424256  144.592  34.8014  2.334388
  7706.782  7706.800  0.500  1.418735  140.844  34.0871  2.300696
  7708.777  7708.800  0.500  1.417404  144.412  34.9971  2.364905
  7710.780  7710.800  0.500  1.415939  144.316  35.0251  2.369267
  7712.789  7712.800  0.500  1.414870  144.244  35.0452  2.373157
  7714.784  7714.800  0.500  1.413943  144.181  35.0624  2.376844
  7716.783  7716.800  0.500  1.412810  144.106  35.0837  2.379897
  7718.788  7718.800  0.500  1.411673  143.971  35.0909  2.382220
  7720.784  7720.800  0.500  1.410551  141.069  34.4221  2.344441
  7722.791  7722.800  0.500  1.409656  144.047  35.1803  2.391484
  7724.786  7724.800  0.500  1.408559  143.975  35.2013  2.393977
  7726.788  7726.800  0.500  1.407600  143.921  35.2218  2.396035
  7727.277  7727.300  0.500  1.407396  143.897  35.2231  2.396810
  7727.779  7727.800  0.500  1.407273  143.877  35.2225  2.396422
  7728.278  7728.300  0.500  1.407128  143.858  35.2231  2.396942
  7728.778  7728.800  0.500  1.406603  143.834  35.2357  2.397431
  7729.277  7729.300  0.500  1.406442  143.818  35.2375  2.396417
  7729.780  7729.800  0.500  1.405956  143.798  35.2495  2.397043
  7730.277  7730.300  0.500  1.405863  143.784  35.2495  2.397508
  7730.784  7730.800  0.500  1.405651  143.766  35.2525  2.396722
  7731.281  7731.300  0.500  1.405560  143.745  35.2506  2.396228
  7731.784  7731.800  0.500  1.405376  143.733  35.2542  2.395724
  7732.284  7732.300  0.500  1.405279  143.711  35.2521  2.394935
  7732.784  7732.800  0.500  1.405094  143.694  35.2545  2.394431
  7733.281  7733.300  0.500  1.404920  143.685  35.2585  2.393024
  7733.781  7733.800  0.500  1.404804  143.666  35.2579  2.391442
  7734.282  7734.300  0.500  1.404720  143.652  35.2574  2.390013
  7734.787  7734.800  0.500  1.404630  143.628  35.2546  2.387922
  7735.287  7735.300  0.500  1.404513  143.61  35.2543  2.384610
  7735.788  7735.800  0.500  1.404467  143.585  35.2497  2.381179
  7736.293  7736.300  0.500  1.404381  143.561  35.247  2.376963
  7736.786  7736.800  0.500  1.404648  143.526  35.2289  2.370315
  7737.295  7737.300  0.500  1.404651  143.502  35.223  2.363688
  7737.793  7737.800  0.500  1.404778  143.465  35.2093  2.354511
  7738.291  7738.300  0.500  1.405087  143.412  35.1855  2.344890
  7738.787  7738.800  0.500  1.405068  143.336  35.1675  2.334821
  7739.293  7739.300  0.500  1.405651  143.153  35.1021  2.320887
  7739.791  7739.800  0.500  1.406134  142.193  34.85  2.296785
  7740.290  7740.300  0.500  1.406384  139.827  34.2614  2.250301
  7740.791  7740.800  0.500  1.406788  141.121  34.5647  2.253411
  7741.294  7741.300  0.500  1.407000  143.557  35.1537  2.280940
  7741.793  7741.800  0.500  1.407396  144.127  35.2794  2.287044
  7742.297  7742.300  0.500  1.407526  144.131  35.2759  2.278897
  7742.793  7742.800  0.500  1.407843  144.102  35.2574  2.270606
  7743.297  7743.300  0.500  1.408134  144.077  35.2412  2.262940
  7743.794  7743.800  0.500  1.408439  144.055  35.2249  2.254928
  7744.295  7744.300  0.500  1.408786  144.03  35.2067  2.245782
  7744.792  7744.800  0.500  1.409085  144.006  35.1902  2.236401
  7745.296  7745.300  0.500  1.409588  143.989  35.1683  2.226475
  7745.798  7745.800  0.500  1.410139  143.972  35.1448  2.214576
  7746.297  7746.300  0.500  1.410597  143.946  35.1226  2.201864
  7746.799  7746.800  0.500  1.411264  143.933  35.0958  2.187724
  7747.301  7747.300  0.500  1.411991  143.916  35.0663  2.171355
  7747.803  7747.800  0.500  1.412660  143.891  35.0368  2.154775
  7748.300  7748.300  0.500  1.413389  143.869  35.0058  2.137249
  7748.794  7748.800  0.500  1.414053  143.853  34.9788  2.119487
  7749.291  7749.300  0.500  1.414792  143.839  34.9495  2.100860
  7749.791  7749.800  0.500  1.415675  143.824  34.915  2.083732
  7750.296  7750.300  0.500  1.416609  143.806  34.8781  2.065680
  7750.801  7750.800  0.500  1.417078  143.786  34.8567  2.050646
  7751.301  7751.300  0.500  1.417503  143.766  34.8371  2.036618
  7751.809  7751.800  0.500  1.418210  143.749  34.8083  2.024911
  7752.306  7752.300  0.500  1.418379  143.733  34.7987  2.016065
  7752.791  7752.800  0.500  1.418631  143.71  34.7843  2.009131
  7753.296  7753.300  0.500  1.418616  143.693  34.7807  2.005952
  7753.797  7753.800  0.500  1.418464  143.682  34.7832  2.004418
  7754.299  7754.300  0.500  1.418276  143.663  34.7853  2.004497
  7754.802  7754.800  0.500  1.418114  143.652  34.7882  2.006358
  7755.300  7755.300  0.500  1.417814  143.641  34.7959  2.009840
  7755.803  7755.800  0.500  1.417685  143.625  34.7966  2.013610
  7756.307  7756.300  0.500  1.417514  143.604  34.7975  2.017382
  7756.800  7756.800  0.500  1.417276  143.587  34.8018  2.022070
  7757.295  7757.300  0.500  1.416845  143.571  34.8128  2.026627
  7757.799  7757.800  0.500  1.416499  143.552  34.8203  2.031546
  7758.294  7758.300  0.500  1.416167  143.538  34.8285  2.035621
  7758.795  7758.800  0.500  1.415869  143.52  34.8345  2.038641
  7759.304  7759.300  0.500  1.415855  143.509  34.8323  2.040742
  7759.803  7759.800  0.500  1.415407  143.508  34.8476  2.043707
  7760.301  7760.300  0.500  1.415175  143.472  34.8468  2.045683
  7760.802  7760.800  0.500  1.414877  143.462  34.855  2.048206
  7761.298  7761.300  0.500  1.414464  143.442  34.8645  2.049546
  7761.795  7761.800  0.500  1.414207  143.427  34.8699  2.051170
  7762.792  7762.790  0.500  1.413349  143.399  34.8928  2.055962
  7763.806  7763.790  0.500  1.412488  143.374  34.9169  2.060679
  7764.822  7764.810  0.500  1.411315  143.344  34.9504  2.067282
  7765.864  7765.860  0.500  1.409917  143.323  34.9943  2.076301
  7766.928  7766.920  0.500  1.408376  143.289  35.0399  2.086247
  7768.017  7768.000  0.500  1.406795  143.258  35.0877  2.098492
  7769.109  7769.100  0.500  1.405195  143.23  35.137  2.110968
  7770.222  7770.220  0.500  1.403875  143.197  35.1753  2.122821
  7771.369  7771.360  0.500  1.402346  143.162  35.2206  2.135601
  7772.529  7772.510  0.500  1.401165  143.131  35.2547  2.147555
  7773.705  7773.690  0.500  1.400087  143.086  35.2816  2.158278
  7774.889  7774.880  0.500  1.398947  143.06  35.3153  2.167850
  7776.110  7776.100  0.500  1.397835  143.034  35.3481  2.177340
  7777.344  7777.330  0.500  1.397088  142.999  35.3659  2.183593
  7778.591  7778.580  0.500  1.396351  142.963  35.383  2.189231
  7779.862  7779.850  0.500  1.395818  142.932  35.3944  2.193147
  7781.149  7781.140  0.500  1.395264  142.901  35.4062  2.195188
  7782.459  7782.450  0.500  1.394925  142.863  35.4088  2.194896
  7783.781  7783.780  0.500  1.394469  142.837  35.4184  2.194100
  7785.144  7785.130  0.500  1.393898  142.779  35.4245  2.191584
  7786.507  7786.500  0.500  1.393539  142.757  35.4315  2.188924
  7787.887  7787.880  0.500  1.393152  142.709  35.4335  2.185836
  7789.296  7789.290  0.500  1.392521  142.665  35.4449  2.183359
  7790.723  7790.710  0.500  1.391964  142.646  35.4598  2.180089
  7792.151  7792.150  0.500  1.391577  142.599  35.4619  2.177568
  7793.619  7793.610  0.500  1.390953  142.552  35.4724  2.175110
  7795.099  7795.090  0.500  1.390429  142.517  35.4823  2.173952
  7796.591  7796.590  0.500  1.389678  142.478  35.4991  2.174249
  7798.120  7798.110  0.500  1.389198  142.435  35.5055  2.174991
  7799.663  7799.650  0.500  1.388918  142.395  35.5054  2.175956
  7801.206  7801.210  0.500  1.388424  142.357  35.5136  2.177301
  7802.788  7802.780  0.500  1.387723  142.312  35.5271  2.178465
  7804.385  7804.380  0.500  1.386914  142.262  35.5435  2.181493
  7806.000  7805.990  0.500  1.385936  142.209  35.565  2.185060
  7807.636  7807.630  0.500  1.384937  142.162  35.5887  2.189427
  7809.282  7809.280  0.500  1.383659  142.112  35.6217  2.193801
  7810.956  7810.950  0.500  1.382439  142.059  35.6519  2.199769
  7812.650  7812.640  0.500  1.381230  142.018  35.6848  2.206468
  7814.355  7814.350  0.500  1.379978  141.966  35.7163  2.213464
  7816.094  7816.080  0.500  1.378885  141.917  35.743  2.221510
  7817.834  7817.830  0.500  1.377688  141.866  35.773  2.228475
  7819.607  7819.590  0.500  1.376480  141.817  35.804  2.235895
  7821.385  7821.380  0.500  1.375416  141.775  35.8315  2.242023
  7823.186  7823.180  0.500  1.374153  141.721  35.8631  2.247304
  7825.021  7825.010  0.500  1.372860  141.667  35.8958  2.251401
  7826.857  7826.850  0.500  1.371669  141.62  35.9265  2.256596
  7828.720  7828.710  0.500  1.370524  141.572  35.9557  2.260630
  7830.604  7830.590  0.500  1.369345  141.446  35.966  2.264156
  7832.498  7832.490  0.500  1.368287  141.037  35.8999  2.261107
  7834.419  7834.410  0.500  1.367195  141.389  36.0288  2.275022
  7836.359  7836.350  0.500  1.366119  141.349  36.0575  2.281353
  7838.321  7838.310  0.500  1.365046  141.282  36.0789  2.286287
  7840.287  7840.280  0.500  1.363847  140.39  35.8943  2.276856
  7842.285  7842.280  0.500  1.362582  141.119  36.1262  2.297230
  7844.295  7844.290  0.500  1.361221  141.087  36.1673  2.303267
  7846.330  7846.320  0.500  1.360157  139.953  35.9149  2.291338
  7848.392  7848.380  0.500  1.359071  140.895  36.1959  2.312916
  7850.460  7850.450  0.500  1.357997  140.87  36.2282  2.317753
  7852.551  7852.540  0.500  1.356889  140.808  36.2524  2.323612
  7854.656  7854.650  0.500  1.356011  139.676  35.9926  2.310618
  7856.794  7856.780  0.500  1.354929  140.646  36.2819  2.331383
  7858.930  7858.920  0.500  1.353918  140.608  36.3088  2.335520
  7861.099  7861.090  0.500  1.352734  140.569  36.3416  2.338837
  7863.291  7863.280  0.500  1.351772  140.509  36.3611  2.341184
  7865.494  7865.480  0.500  1.350744  140.452  36.3836  2.343478
  7867.712  7867.700  0.500  1.349533  140.376  36.408  2.347942
  7869.960  7869.950  0.500  1.348422  140.312  36.4319  2.351556
  7872.223  7872.210  0.500  1.347227  140.244  36.4578  2.356835
  7874.501  7874.490  0.500  1.345887  140.185  36.4914  2.362141
  7876.814  7876.790  0.500  1.344555  140.134  36.5266  2.367842
  7879.123  7879.110  0.500  1.343203  140.059  36.5565  2.374456
  7881.466  7881.450  0.500  1.341713  139.994  36.5942  2.381935
  7883.807  7883.800  0.500  1.340395  139.917  36.6222  2.388599
  7886.198  7886.180  0.500  1.339096  139.852  36.6528  2.395802
  7888.579  7888.570  0.500  1.337704  139.771  36.6825  2.403348
  7891.005  7890.990  0.500  1.336580  139.705  36.7063  2.409748
  7893.429  7893.420  0.500  1.335317  139.63  36.7331  2.416634
  7895.885  7895.870  0.500  1.334022  139.566  36.7638  2.422134
  7898.357  7898.350  0.500  1.332459  139.368  36.7691  2.426035
  7900.856  7900.840  0.500  1.330807  139.28  36.8067  2.431436
  7903.364  7903.350  0.500  1.329498  139.296  36.8591  2.438233
  7905.879  7905.870  0.500  1.327965  139.237  36.9  2.443568
  7908.436  7908.420  0.500  1.326643  139.16  36.9284  2.447527
  7911.005  7910.990  0.500  1.325206  139.076  36.9592  2.452809
  7913.587  7913.570  0.500  1.323671  139  36.9957  2.458554
  7916.197  7916.180  0.500  1.322249  138.913  37.0253  2.465594
  7918.812  7918.800  0.500  1.321116  138.844  37.0487  2.470851
  7921.471  7921.450  0.500  1.319827  138.748  37.0708  2.477261
  7924.127  7924.110  0.500  1.318219  138.668  37.1091  2.484336
  7926.809  7926.790  0.500  1.316906  138.575  37.1331  2.491035
  7929.511  7929.490  0.500  1.315540  138.232  37.0917  2.493082
  7932.219  7932.210  0.500  1.313882  138.354  37.186  2.505253
  7934.981  7934.950  0.500  1.312412  138.236  37.209  2.512412
  7937.690  7937.700  0.500  1.310973  137.922  37.1778  2.515478
  7940.481  7940.480  0.500  1.309696  137.932  37.2282  2.518791
  7943.282  7943.270  0.500  1.308461  138.129  37.3273  2.534923
  7946.091  7946.090  0.500  1.306850  138.006  37.3543  2.541037
  7948.934  7948.920  0.500  1.305182  137.897  37.3872  2.547376
  7951.784  7951.770  0.500  1.303815  137.415  37.3074  2.544053
  7954.661  7954.650  0.500  1.302193  137.649  37.4317  2.558416
  7957.551  7957.540  0.500  1.300714  137.55  37.46  2.564046
  7960.457  7960.450  0.500  1.298976  137.447  37.4971  2.570634
  7963.379  7963.370  0.500  1.297587  137.318  37.5141  2.576153
  7966.335  7966.320  0.500  1.296006  137.213  37.5445  2.582898
  7969.299  7969.290  0.500  1.294308  137.08  37.572  2.589907
  7972.284  7972.270  0.500  1.292621  136.923  37.5923  2.596241
  7975.296  7975.280  0.500  1.291235  136.716  37.5875  2.601857
  7978.313  7978.300  0.500  1.289498  136.509  37.5958  2.607784
  7981.360  7981.350  0.500  1.287961  136.001  37.5135  2.605322
  7984.425  7984.410  0.500  1.286165  136.266  37.6542  2.623186
  7987.504  7987.490  0.500  1.284784  136.172  37.6801  2.630727
  7990.597  7990.590  0.500  1.282890  136.068  37.7228  2.639859
  7993.724  7993.710  0.500  1.281340  135.97  37.7541  2.646841
  7996.865  7996.850  0.500  1.279766  135.839  37.7771  2.654770
  8000.014  8000.000  0.500  1.278050  135.72  37.809  2.661675
  8003.198  8003.180  0.500  1.276451  135.627  37.8434  2.668831
  8006.388  8006.370  0.500  1.274854  135.553  37.8832  2.676103
  8009.602  8009.590  0.500  1.273237  135.586  37.9537  2.685230
  8012.833  8012.820  0.500  1.271461  135.543  38.0091  2.694681
  8016.088  8016.070  0.500  1.269830  135.474  38.0518  2.703473
  8019.363  8019.350  0.500  1.268147  135.393  38.0931  2.712260
  8022.649  8022.640  0.500  1.266357  135.276  38.1283  2.721396
  8025.967  8025.950  0.500  1.264700  135.175  38.1631  2.729995
  8029.284  8029.270  0.500  1.262847  135.059  38.2011  2.739039
  8032.636  8032.620  0.500  1.261102  134.917  38.2276  2.747673
  8036.002  8035.990  0.500  1.259490  134.819  38.2615  2.755387
  8039.387  8039.370  0.500  1.257938  134.683  38.2823  2.763493
  8042.798  8042.780  0.500  1.256192  134.553  38.3122  2.771717
  8046.219  8046.200  0.500  1.254377  134.419  38.3434  2.779821
  8049.658  8049.650  0.500  1.252833  134.265  38.3588  2.788465
  8053.122  8053.110  0.500  1.251101  134.064  38.3678  2.794658
  8056.603  8056.590  0.500  1.249268  133.583  38.3002  2.795674
  8060.109  8060.090  0.500  1.247476  134.047  38.5021  2.816644
  8063.627  8063.610  0.500  1.245699  134.131  38.5947  2.830598
  8067.159  8067.150  0.500  1.243959  133.971  38.6159  2.836854
  8070.714  8070.700  0.500  1.242193  130.631  37.7199  2.768073
  8074.294  8074.280  0.500  1.240260  133.814  38.7135  2.855809
  8077.897  8077.880  0.500  1.238429  133.242  38.6188  2.855695
  8081.501  8081.490  0.500  1.236485  133.611  38.801  2.873881
  8085.127  8085.120  0.500  1.234665  133.426  38.8181  2.882590
  8088.794  8088.780  0.500  1.232866  133.081  38.7873  2.886733
  8092.458  8092.450  0.500  1.231085  131.974  38.5331  2.864440
  8096.148  8096.140  0.500  1.228992  133.161  38.9613  2.913229
  8099.858  8099.850  0.500  1.227173  132.978  38.9784  2.922138
  8103.583  8103.580  0.500  1.225349  132.815  39.0017  2.930189
  8107.326  8107.320  0.500  1.223368  132.66  39.0335  2.940107
  8111.095  8111.090  0.500  1.221755  132.523  39.0561  2.949428
  8114.895  8114.880  0.500  1.220133  132.374  39.0757  2.958087
  8118.688  8118.680  0.500  1.218123  132.224  39.1098  2.968665
  8122.508  8122.510  0.500  1.216142  132.072  39.1423  2.978107
  8126.364  8126.350  0.500  1.214467  131.909  39.1596  2.986500
  8130.217  8130.210  0.500  1.212611  131.75  39.1849  2.995598
  8134.106  8134.090  0.500  1.210689  131.587  39.2118  3.004635
  8137.997  8137.990  0.500  1.208802  131.44  39.242  3.014124
  8141.912  8141.910  0.500  1.206849  131.271  39.2683  3.024168
  8145.856  8145.850  0.500  1.205133  131.119  39.2901  3.032323
  8149.824  8149.810  0.500  1.203355  130.944  39.3076  3.040844
  8153.796  8153.780  0.500  1.201320  130.781  39.3386  3.050491
  8157.789  8157.780  0.500  1.199305  130.62  39.3695  3.059975
  8161.795  8161.790  0.500  1.197164  130.457  39.4043  3.070289
  8165.844  8165.830  0.500  1.195143  130.292  39.4342  3.079797
  8169.892  8169.880  0.500  1.193232  130.137  39.4626  3.090088
  8173.967  8173.950  0.500  1.191250  129.968  39.4897  3.099292
  8178.050  8178.040  0.500  1.189373  129.794  39.5108  3.108685
  8182.159  8182.150  0.500  1.187444  129.63  39.537  3.117694
  8186.290  8186.280  0.500  1.185366  129.455  39.566  3.129388
  8190.442  8190.430  0.500  1.183389  129.292  39.5941  3.139951
  8194.604  8194.590  0.500  1.181495  129.121  39.6169  3.150082
  8198.794  8198.780  0.500  1.179520  128.943  39.6403  3.160714
  8202.997  8202.980  0.500  1.177512  128.792  39.6736  3.172440
  8207.227  8207.210  0.500  1.175660  128.639  39.7001  3.183544
  8211.465  8211.450  0.500  1.173655  128.461  39.7245  3.193384
  8215.722  8215.710  0.500  1.171673  128.265  39.7428  3.203367
  8220.001  8219.990  0.500  1.169567  128.078  39.7683  3.213516
  8224.298  8224.290  0.500  1.167505  127.89  39.792  3.224839
  8228.615  8228.610  0.500  1.165463  127.721  39.8207  3.234870
  8232.969  8232.950  0.500  1.163475  127.533  39.8412  3.244457
  8237.333  8237.310  0.500  1.161541  127.347  39.86  3.254811
  8241.705  8241.690  0.500  1.159465  127.164  39.8855  3.265552
  8246.107  8246.080  0.500  1.157360  126.971  39.9089  3.275669
  8250.512  8250.500  0.500  1.155243  126.775  39.9318  3.287198
  8254.954  8254.930  0.500  1.153327  126.585  39.9484  3.296932
  8259.433  8259.380  0.500  1.151269  126.387  39.9681  3.308702
  8263.870  8263.850  0.500  1.149142  126.191  39.991  3.319801
  8268.352  8268.340  0.500  1.147051  125.997  40.0132  3.331391
  8272.873  8272.850  0.500  1.144946  125.788  40.0309  3.342900
  8277.430  8277.380  0.500  1.142903  125.53  40.0303  3.351542
  8281.987  8281.930  0.500  1.140940  125.337  40.0474  3.362710