File: xdidata/Data/Sm/Sm-L3-Sm2Ti2O7.xdi
# XDI/1.0 BlueSky/1.10.0 BMM/2023-1.0-py310-tiled
# Beamline.name: BMM (06BM) -- Beamline for Materials Measurement (NIST)
# Beamline.xray_source: NSLS-II three-pole wiggler
# Beamline.collimation: paraboloid mirror, 5 nm Rh on 30 nm Pt
# Beamline.focusing: not in use
# Beamline.harmonic_rejection: flat mirror, Si stripe, pitch = 7.0 mrad relative to beam
# Beamline.software: Bluesky 1.10.0, Ophyd 1.7.0, DataBroker 2.0.0b13, Python 3.10.8, 2023-1.0-py310-tiled
# Detector.I0: 10 cm N2
# Detector.I1: 25 cm N2
# Detector.I2: 25 cm N2
# Element.symbol: Sm
# Element.edge: L3
# Element.reference: Sm
# Element.reference_material: Sm2O3
# Facility.name: NSLS-II
# Facility.energy: 3.0
# Facility.current: 400.2
# Facility.mode: top-off
# Facility.GUP: 123456
# Facility.SAF: 301027
# Facility.cycle: 2023-2
# Mono.name: Si(111)
# Mono.d_spacing: 3.13519
# Mono.encoder_resolution: 0.0000050 deg/ct
# Mono.angle_offset: 16.0754 deg
# Mono.scan_mode: pseudo channel cut
# Mono.scan_type: step
# Mono.direction: forward in energy
# Sample.name: Sm2Ti2O7
# Sample.prep: Powder in PEG pellet
# Sample.x: 149.848 mm
# Sample.y: 114.690 mm
# Sample.SDD_position: 205.000 mm
# Scan.experimenters: Bruce Ravel
# Scan.edge_energy: 6716.2
# Scan.start_time: 2023-05-08T17:18:15
# Scan.end_time: 2023-05-08T17:24:16
# Scan.transient_id: 75439
# Scan.uid: 8e06aea0-65bd-4882-b850-229de59ca69b
# Scan.plot_hint: ln(I0/It)  --  ln($5/$6)
# Column.1: energy eV
# Column.2: requested_energy eV
# Column.3: measurement_time seconds
# Column.4: xmu
# Column.5: I0 nA
# Column.6: It nA
# Column.7: Ir nA
# ///////////
# sample courtesy Martin Stennett, University of Sheffield
# -----------
# energy  requested_energy  measurement_time  xmu  I0  It  Ir
  6516.203  6516.200  0.500  1.378892  150.992  38.0284  3.231670
  6526.209  6526.200  0.500  1.369687  151.198  38.4324  3.299572
  6536.220  6536.200  0.500  1.360569  151.381  38.8314  3.368812
  6546.217  6546.200  0.500  1.351536  151.538  39.2244  3.437751
  6556.214  6556.200  0.500  1.343019  151.666  39.5934  3.504871
  6566.223  6566.200  0.500  1.333969  151.824  39.9951  3.575586
  6576.214  6576.200  0.500  1.325141  152.016  40.4005  3.648567
  6586.212  6586.200  0.500  1.316562  151.877  40.7114  3.713718
  6596.215  6596.200  0.500  1.308181  152.306  41.1699  3.793685
  6606.212  6606.200  0.500  1.299769  152.415  41.5474  3.867122
  6616.214  6616.200  0.500  1.291093  152.582  41.9556  3.943168
  6626.214  6626.200  0.500  1.282526  152.708  42.3513  4.018487
  6636.209  6636.200  0.500  1.274155  152.844  42.7455  4.095637
  6646.211  6646.200  0.500  1.266127  152.964  43.1238  4.169377
  6656.199  6656.200  0.500  1.257938  153.059  43.5055  4.243881
  6666.201  6666.200  0.500  1.250000  153.17  43.8841  4.315412
  6676.193  6676.200  0.500  1.242144  153.258  44.2555  4.382370
  6686.195  6686.200  0.500  1.234523  153.362  44.6243  4.437600
  6688.197  6688.200  0.500  1.232351  153.38  44.7267  4.448890
  6690.191  6690.200  0.500  1.231250  153.382  44.7764  4.453262
  6692.196  6692.200  0.500  1.230242  153.394  44.825  4.454904
  6694.194  6694.200  0.500  1.228362  153.407  44.9131  4.458336
  6696.198  6696.200  0.500  1.226779  153.404  44.9836  4.455493
  6698.197  6698.200  0.500  1.225535  153.418  45.0436  4.448356
  6700.195  6700.200  0.500  1.224417  153.425  45.0961  4.432510
  6702.191  6702.200  0.500  1.223152  153.442  45.1582  4.408597
  6704.196  6704.200  0.500  1.222126  153.444  45.2052  4.368692
  6706.198  6706.200  0.500  1.221853  153.464  45.2232  4.301668
  6706.687  6706.700  0.500  1.222319  153.448  45.1974  4.276811
  6707.184  6707.200  0.500  1.222078  153.456  45.2107  4.251994
  6707.683  6707.700  0.500  1.221912  153.445  45.2151  4.222229
  6708.182  6708.200  0.500  1.222393  153.448  45.1942  4.184940
  6708.683  6708.700  0.500  1.222355  153.448  45.1959  4.143020
  6709.185  6709.200  0.500  1.222652  153.449  45.1828  4.091942
  6709.686  6709.700  0.500  1.223108  153.452  45.1631  4.035103
  6710.183  6710.200  0.500  1.223541  153.448  45.1422  3.972452
  6710.690  6710.700  0.500  1.224177  153.445  45.1128  3.909980
  6711.184  6711.200  0.500  1.224645  153.448  45.0924  3.851484
  6711.686  6711.700  0.500  1.225183  153.452  45.0694  3.791286
  6712.187  6712.200  0.500  1.226072  153.447  45.0279  3.715504
  6712.689  6712.700  0.500  1.227466  153.455  44.9677  3.619519
  6713.189  6713.200  0.500  1.228667  153.45  44.9121  3.510511
  6713.691  6713.700  0.500  1.230203  153.455  44.8446  3.388011
  6714.187  6714.200  0.500  1.232000  153.455  44.7641  3.254283
  6714.691  6714.700  0.500  1.234279  153.455  44.6624  3.103239
  6715.187  6715.200  0.500  1.237026  153.455  44.5398  2.935585
  6715.689  6715.700  0.500  1.240469  153.454  44.3863  2.741151
  6716.193  6716.200  0.500  1.245146  153.454  44.1792  2.509679
  6716.698  6716.700  0.500  1.251000  153.447  43.9194  2.248612
  6717.196  6717.200  0.500  1.257616  153.443  43.6285  1.987740
  6717.689  6717.700  0.500  1.265189  153.442  43.2993  1.729034
  6718.188  6718.200  0.500  1.273829  153.44  42.9262  1.479179
  6718.696  6718.700  0.500  1.282961  153.439  42.5355  1.262552
  6719.199  6719.200  0.500  1.291718  153.427  42.1614  1.092420
  6719.698  6719.700  0.500  1.300034  153.417  41.8097  0.960713
  6720.193  6720.200  0.500  1.307293  153.415  41.5067  0.863707
  6720.698  6720.700  0.500  1.312702  153.418  41.2836  0.797935
  6721.193  6721.200  0.500  1.316247  153.43  41.1406  0.757003
  6721.695  6721.700  0.500  1.318565  153.425  41.0442  0.736252
  6722.196  6722.200  0.500  1.318360  153.422  41.0517  0.734229
  6722.701  6722.700  0.500  1.316083  153.418  41.1442  0.749324
  6723.202  6723.200  0.500  1.313027  153.424  41.2718  0.778597
  6723.696  6723.700  0.500  1.308556  153.422  41.4562  0.823790
  6724.196  6724.200  0.500  1.303042  153.443  41.6912  0.884437
  6724.698  6724.700  0.500  1.297112  153.438  41.9376  0.957174
  6725.197  6725.200  0.500  1.291087  153.43  42.189  1.041621
  6725.699  6725.700  0.500  1.284707  153.439  42.4613  1.136655
  6726.197  6726.200  0.500  1.278698  153.441  42.718  1.238269
  6726.701  6726.700  0.500  1.273256  153.441  42.951  1.340160
  6727.198  6727.200  0.500  1.268366  153.438  43.1608  1.439866
  6727.696  6727.700  0.500  1.264120  153.438  43.3444  1.537623
  6728.196  6728.200  0.500  1.260273  153.43  43.5091  1.627145
  6728.704  6728.700  0.500  1.257288  153.429  43.639  1.702945
  6729.203  6729.200  0.500  1.255205  153.424  43.7284  1.765665
  6729.699  6729.700  0.500  1.253030  153.426  43.8243  1.816781
  6730.194  6730.200  0.500  1.251100  153.49  43.9274  1.857076
  6730.699  6730.700  0.500  1.249735  153.496  43.989  1.886788
  6731.198  6731.200  0.500  1.248112  153.648  44.104  1.910967
  6731.702  6731.700  0.500  1.247018  153.708  44.1695  1.928718
  6732.205  6732.200  0.500  1.245924  153.694  44.2138  1.941389
  6732.702  6732.700  0.500  1.245000  153.697  44.2556  1.952472
  6733.201  6733.200  0.500  1.243765  153.692  44.3088  1.961973
  6733.701  6733.700  0.500  1.242575  153.687  44.3603  1.971299
  6734.202  6734.200  0.500  1.241956  153.685  44.387  1.978370
  6734.703  6734.700  0.500  1.241329  153.684  44.4146  1.985502
  6735.203  6735.200  0.500  1.240849  153.683  44.4358  1.991914
  6735.704  6735.700  0.500  1.240478  153.683  44.4522  1.996941
  6736.208  6736.200  0.500  1.240296  153.676  44.4582  2.001903
  6736.704  6736.700  0.500  1.239801  153.67  44.4785  2.005398
  6737.201  6737.200  0.500  1.239488  153.669  44.4922  2.009891
  6737.699  6737.700  0.500  1.239528  153.668  44.4902  2.012846
  6738.201  6738.200  0.500  1.239697  153.664  44.4813  2.014621
  6738.703  6738.700  0.500  1.239845  153.659  44.4735  2.016550
  6739.201  6739.200  0.500  1.240038  153.665  44.4664  2.017498
  6739.705  6739.700  0.500  1.240311  153.669  44.4555  2.018734
  6740.206  6740.200  0.500  1.240627  153.666  44.4408  2.018682
  6740.698  6740.700  0.500  1.240737  153.662  44.4345  2.018882
  6741.199  6741.200  0.500  1.241051  153.66  44.42  2.017377
  6742.194  6742.190  0.500  1.240762  153.656  44.4318  2.015908
  6743.199  6743.190  0.500  1.240290  153.657  44.4529  2.012763
  6744.218  6744.210  0.500  1.239480  153.663  44.4908  2.004408
  6745.270  6745.260  0.500  1.238482  153.657  44.5336  1.989391
  6746.328  6746.320  0.500  1.237904  153.655  44.5587  1.967888
  6747.407  6747.400  0.500  1.237355  153.652  44.5823  1.939716
  6748.506  6748.500  0.500  1.237218  153.646  44.5865  1.906316
  6749.642  6749.620  0.500  1.237114  153.645  44.5908  1.869263
  6750.748  6750.760  0.500  1.236943  153.617  44.5905  1.834278
  6751.904  6751.910  0.500  1.237192  153.626  44.582  1.800407
  6753.082  6753.090  0.500  1.237362  153.623  44.5736  1.769787
  6754.273  6754.280  0.500  1.237200  153.622  44.5804  1.745837
  6755.498  6755.500  0.500  1.236468  153.619  44.6121  1.730412
  6756.729  6756.730  0.500  1.235552  153.619  44.6532  1.724979
  6757.981  6757.980  0.500  1.234458  153.621  44.7025  1.729726
  6759.257  6759.250  0.500  1.233502  153.623  44.7458  1.744276
  6760.544  6760.540  0.500  1.232218  153.609  44.7994  1.768661
  6761.858  6761.850  0.500  1.230568  153.613  44.8745  1.799537
  6763.186  6763.180  0.500  1.228901  153.614  44.9496  1.835522
  6764.535  6764.530  0.500  1.227075  153.621  45.0339  1.874042
  6765.911  6765.900  0.500  1.224818  153.619  45.1351  1.909654
  6767.289  6767.280  0.500  1.223260  153.619  45.2054  1.940026
  6768.700  6768.690  0.500  1.221260  153.624  45.2973  1.966508
  6770.116  6770.110  0.500  1.219467  153.617  45.3765  1.987142
  6771.554  6771.550  0.500  1.217785  153.625  45.4553  2.002184
  6773.019  6773.010  0.500  1.216408  153.623  45.5174  2.013608
  6774.493  6774.490  0.500  1.215295  153.642  45.5736  2.019722
  6776.004  6775.990  0.500  1.214109  153.641  45.6275  2.024571
  6777.517  6777.510  0.500  1.213028  153.65  45.6795  2.028116
  6779.060  6779.050  0.500  1.211915  153.67  45.7362  2.030955
  6780.623  6780.610  0.500  1.211754  153.676  45.7455  2.031159
  6782.191  6782.180  0.500  1.211092  153.678  45.7765  2.032404
  6783.788  6783.780  0.500  1.210568  153.686  45.8027  2.032328
  6785.395  6785.390  0.500  1.210060  153.698  45.8297  2.031957
  6787.040  6787.030  0.500  1.209333  153.719  45.869  2.031350
  6788.684  6788.680  0.500  1.208443  153.738  45.9158  2.030413
  6790.359  6790.350  0.500  1.207384  153.752  45.9686  2.028658
  6792.044  6792.040  0.500  1.205872  153.77  46.0434  2.027163
  6793.756  6793.750  0.500  1.204007  152.459  45.7361  2.007646
  6795.484  6795.480  0.500  1.203808  146.829  44.056  1.917268
  6797.237  6797.230  0.500  1.201205  152.857  45.9841  2.003526
  6798.993  6798.990  0.500  1.199799  153.256  46.1692  2.007962
  6800.790  6800.780  0.500  1.198093  153.372  46.2828  2.011955
  6802.589  6802.580  0.500  1.195966  153.425  46.3974  2.018164
  6804.418  6804.410  0.500  1.193979  153.449  46.497  2.024732
  6806.255  6806.250  0.500  1.192577  153.473  46.5696  2.029755
  6808.118  6808.110  0.500  1.191107  153.442  46.6287  2.034178
  6809.996  6809.990  0.500  1.189931  152.745  46.4714  2.030271
  6811.892  6811.890  0.500  1.189966  144.721  44.0286  1.917387
  6813.817  6813.810  0.500  1.188025  153.017  46.6432  2.043230
  6815.757  6815.750  0.500  1.187115  153.301  46.7723  2.053561
  6817.716  6817.710  0.500  1.186005  153.373  46.846  2.060478
  6819.691  6819.680  0.500  1.184772  153.378  46.9055  2.069038
  6821.686  6821.680  0.500  1.183332  153.015  46.8619  2.073946
  6823.697  6823.690  0.500  1.181963  142.599  43.7316  1.938208
  6825.728  6825.720  0.500  1.180208  152.847  46.9568  2.089615
  6827.793  6827.780  0.500  1.178411  153.163  47.1385  2.103890
  6829.853  6829.850  0.500  1.176609  153.24  47.2474  2.115991
  6831.953  6831.940  0.500  1.175020  153.273  47.3326  2.128132
  6834.059  6834.050  0.500  1.173157  153.295  47.4277  2.141587
  6836.183  6836.180  0.500  1.171407  153.297  47.5115  2.156209
  6838.336  6838.320  0.500  1.169795  152.996  47.4947  2.167638
  6840.500  6840.490  0.500  1.167568  142.268  44.2629  2.033290
  6842.691  6842.680  0.500  1.166490  152.215  47.4087  2.182889
  6844.894  6844.880  0.500  1.164665  152.753  47.6631  2.199935
  6847.108  6847.100  0.500  1.163347  152.885  47.7671  2.206360
  6849.357  6849.350  0.500  1.162155  152.932  47.8388  2.208740
  6851.621  6851.610  0.500  1.160972  152.959  47.904  2.209358
  6853.898  6853.890  0.500  1.159433  152.972  47.982  2.209562
  6856.195  6856.190  0.500  1.157897  152.988  48.0606  2.211082
  6858.522  6858.510  0.500  1.156707  152.99  48.1183  2.210516
  6860.857  6860.850  0.500  1.154952  152.725  48.1193  2.207309
  6863.209  6863.200  0.500  1.153184  152.983  48.2862  2.212195
  6865.593  6865.580  0.500  1.151208  153.036  48.3983  2.216060
  6867.978  6867.970  0.500  1.149490  153.045  48.4845  2.219762
  6870.393  6870.390  0.500  1.147735  153.061  48.5746  2.227687
  6872.830  6872.820  0.500  1.145604  153.074  48.6824  2.240713
  6875.285  6875.270  0.500  1.143593  153.093  48.7864  2.254744
  6877.756  6877.750  0.500  1.141644  153.104  48.8852  2.269661
  6880.252  6880.240  0.500  1.139774  153.095  48.9739  2.286699
  6882.766  6882.750  0.500  1.137896  153.09  49.0641  2.301173
  6885.284  6885.270  0.500  1.135923  153.078  49.1574  2.314532
  6887.827  6887.820  0.500  1.133952  153.094  49.2593  2.325978
  6890.401  6890.390  0.500  1.132127  153.095  49.3497  2.335750
  6892.985  6892.970  0.500  1.130519  153.085  49.4258  2.342024
  6895.590  6895.580  0.500  1.128770  153.085  49.5124  2.348296
  6898.216  6898.200  0.500  1.127058  153.069  49.5922  2.353124
  6900.865  6900.850  0.500  1.125422  153.042  49.6646  2.358840
  6903.522  6903.510  0.500  1.123822  153.039  49.7429  2.364473
  6906.208  6906.190  0.500  1.121706  153.006  49.8378  2.372309
  6908.899  6908.890  0.500  1.119865  152.965  49.916  2.380545
  6911.619  6911.610  0.500  1.118053  152.887  49.9812  2.388935
  6914.364  6914.350  0.500  1.116281  152.834  50.0525  2.399231
  6917.113  6917.100  0.500  1.114196  152.8  50.1456  2.413276
  6919.892  6919.880  0.500  1.112240  152.711  50.2147  2.426057
  6922.682  6922.670  0.500  1.110103  152.682  50.3125  2.440464
  6925.505  6925.490  0.500  1.108363  152.643  50.3874  2.453638
  6928.336  6928.320  0.500  1.106429  152.616  50.4761  2.466692
  6931.184  6931.170  0.500  1.104358  152.577  50.5677  2.480013
  6934.063  6934.050  0.500  1.102010  152.539  50.6738  2.492664
  6936.952  6936.940  0.500  1.099684  152.525  50.7873  2.505582
  6939.861  6939.850  0.500  1.097950  152.491  50.8641  2.513890
  6942.779  6942.770  0.500  1.095680  152.469  50.9721  2.523082
  6945.736  6945.720  0.500  1.093405  152.432  51.0761  2.531891
  6948.705  6948.690  0.500  1.091261  152.381  51.1684  2.539344
  6951.685  6951.670  0.500  1.089145  152.34  51.2631  2.546873
  6954.690  6954.680  0.500  1.086918  152.321  51.3708  2.555946
  6957.708  6957.700  0.500  1.084913  152.277  51.4591  2.565123
  6960.761  6960.750  0.500  1.082985  152.261  51.5531  2.575341
  6963.824  6963.810  0.500  1.081094  152.237  51.6426  2.586684
  6966.903  6966.890  0.500  1.079077  152.22  51.7408  2.598926
  6970.000  6969.990  0.500  1.076980  152.208  51.8456  2.613424
  6973.123  6973.110  0.500  1.075030  152.189  51.9402  2.627333
  6976.263  6976.250  0.500  1.072901  152.145  52.036  2.641292
  6979.412  6979.400  0.500  1.071188  152.096  52.1083  2.654173
  6982.588  6982.580  0.500  1.069311  152.062  52.1945  2.669145
  6985.776  6985.770  0.500  1.066715  152.021  52.3161  2.683656
  6988.994  6988.990  0.500  1.064062  151.979  52.4407  2.696499
  6992.232  6992.220  0.500  1.061856  151.953  52.5473  2.708485
  6995.480  6995.470  0.500  1.059484  151.895  52.6521  2.718214
  6998.759  6998.750  0.500  1.057469  151.841  52.7396  2.727419
  7002.046  7002.040  0.500  1.055222  151.799  52.8434  2.737708
  7005.365  7005.350  0.500  1.052907  151.753  52.9501  2.749235
  7008.680  7008.670  0.500  1.050620  151.699  53.0523  2.762158
  7012.033  7012.020  0.500  1.048666  151.647  53.1377  2.775989
  7015.409  7015.390  0.500  1.046865  151.606  53.2193  2.789827
  7018.785  7018.770  0.500  1.044525  151.564  53.3293  2.805275
  7022.193  7022.180  0.500  1.042137  151.522  53.4416  2.821549
  7025.614  7025.600  0.500  1.040072  151.465  53.5322  2.835222
  7029.062  7029.050  0.500  1.037627  151.422  53.6478  2.851237
  7032.521  7032.510  0.500  1.035355  151.35  53.7445  2.866125
  7035.998  7035.990  0.500  1.032913  151.269  53.8468  2.883022
  7039.501  7039.490  0.500  1.030636  151.233  53.9568  2.900419
  7043.019  7043.010  0.500  1.028248  151.173  54.0646  2.916758
  7046.561  7046.550  0.500  1.025836  151.091  54.1656  2.932755
  7050.107  7050.100  0.500  1.023367  151.022  54.2746  2.947451
  7053.687  7053.680  0.500  1.020843  150.968  54.3925  2.962568
  7057.289  7057.280  0.500  1.018417  150.91  54.5037  2.976464
  7060.901  7060.890  0.500  1.015978  150.875  54.6242  2.991278
  7064.528  7064.520  0.500  1.013487  150.702  54.6975  3.003634
  7068.190  7068.180  0.500  1.011178  150.699  54.8228  3.018742
  7071.852  7071.850  0.500  1.008757  150.566  54.9072  3.030239
  7075.548  7075.540  0.500  1.006669  149.144  54.5022  3.017121
  7079.256  7079.250  0.500  1.004124  150.437  55.1151  3.061337
  7082.977  7082.980  0.500  1.001665  149.116  54.7655  3.052770
  7086.721  7086.720  0.500  0.999122  150.233  55.3163  3.093681
  7090.490  7090.490  0.500  0.997059  150.173  55.4085  3.108824
  7094.281  7094.280  0.500  0.994524  150.081  55.5151  3.126439
  7098.082  7098.080  0.500  0.992068  150.702  55.8817  3.159811
  7101.914  7101.910  0.500  0.989706  150.626  55.9855  3.178528
  7105.753  7105.750  0.500  0.986996  150.532  56.1023  3.197526
  7109.613  7109.610  0.500  0.984675  150.423  56.1921  3.214997
  7113.493  7113.490  0.500  0.982309  150.115  56.2101  3.227715
  7117.394  7117.390  0.500  0.979952  149.971  56.2886  3.243916
  7121.315  7121.310  0.500  0.977524  149.756  56.3444  3.257607
  7125.250  7125.250  0.500  0.975114  149.546  56.4012  3.272080
  7129.213  7129.210  0.500  0.972612  149.25  56.4305  3.285790
  7133.186  7133.180  0.500  0.970164  148.971  56.4633  3.300030
  7137.184  7137.180  0.500  0.967691  148.91  56.5796  3.317686
  7141.198  7141.190  0.500  0.965157  148.852  56.7013  3.336479
  7145.240  7145.230  0.500  0.962436  148.794  56.8334  3.356453
  7149.289  7149.280  0.500  0.959978  148.732  56.9498  3.375302
  7153.360  7153.350  0.500  0.957427  148.656  57.0658  3.394977
  7157.450  7157.440  0.500  0.955102  148.551  57.1584  3.413316
  7161.566  7161.550  0.500  0.952543  148.428  57.2574  3.431847
  7165.697  7165.680  0.500  0.950090  148.248  57.3285  3.449199
  7169.838  7169.830  0.500  0.947611  148.1  57.4132  3.467311
  7174.002  7173.990  0.500  0.945462  147.965  57.4843  3.486031
  7178.188  7178.180  0.500  0.942774  147.842  57.5911  3.506403
  7182.388  7182.380  0.500  0.940015  147.714  57.7003  3.526987
  7186.632  7186.610  0.500  0.937538  147.576  57.7893  3.546409
  7190.866  7190.850  0.500  0.934784  147.375  57.8699  3.566170
  7195.139  7195.110  0.500  0.932253  147.203  57.9486  3.586618
  7199.408  7199.390  0.500  0.929441  147.08  58.0634  3.607464
  7203.704  7203.690  0.500  0.926661  146.931  58.1659  3.628183
  7208.025  7208.010  0.500  0.923799  146.745  58.2588  3.647824
  7212.368  7212.350  0.500  0.921145  146.565  58.3422  3.667310
  7216.733  7216.710  0.500  0.918656  146.389  58.4174  3.686661
  7221.108  7221.090  0.500  0.916112  146.22  58.4984  3.704284
  7225.500  7225.480  0.500  0.913349  145.999  58.5716  3.722269
  7229.927  7229.900  0.500  0.910716  146.055  58.7485  3.748323
  7234.343  7234.330  0.500  0.907953  145.85  58.8283  3.766304
  7238.774  7238.780  0.500  0.905356  145.706  58.9231  3.787878
  7243.251  7243.250  0.500  0.902697  145.546  59.0151  3.810122
  7247.726  7247.740  0.500  0.900358  145.294  59.051  3.828860
  7252.266  7252.250  0.500  0.897817  145.096  59.1205  3.850947
  7256.774  7256.780  0.500  0.895081  145.127  59.2952  3.880443
  7261.318  7261.330  0.500  0.892017  144.506  59.2226  3.894175
  7265.905  7265.900  0.500  0.889560  143.995  59.1584  3.903794
  7270.468  7270.480  0.500  0.886691  145.107  59.7863  3.967236
  7275.078  7275.090  0.500  0.884637  144.843  59.8006  3.983092
  7279.709  7279.710  0.500  0.881806  144.931  60.0063  4.015479
  7284.349  7284.360  0.500  0.878775  142.255  59.0771  3.968842
  7289.029  7289.020  0.500  0.876143  144.559  60.1923  4.055777