File: xdidata/Data/Sm/Sm-L3-SamariumOxide.xdi
# XDI/1.0 BlueSky/1.10.0 BMM/2023-1.0-py310-tiled
# Beamline.name: BMM (06BM) -- Beamline for Materials Measurement (NIST)
# Beamline.xray_source: NSLS-II three-pole wiggler
# Beamline.collimation: paraboloid mirror, 5 nm Rh on 30 nm Pt
# Beamline.focusing: not in use
# Beamline.harmonic_rejection: flat mirror, Si stripe, pitch = 7.0 mrad relative to beam
# Beamline.software: Bluesky 1.10.0, Ophyd 1.7.0, DataBroker 2.0.0b13, Python 3.10.8, 2023-1.0-py310-tiled
# Detector.I0: 10 cm N2
# Detector.I1: 25 cm N2
# Detector.I2: 25 cm N2
# Element.symbol: Sm
# Element.edge: L3
# Element.reference: Sm
# Element.reference_material: Sm2O3
# Facility.name: NSLS-II
# Facility.energy: 3.0
# Facility.current: 399.8
# Facility.mode: top-off
# Facility.GUP: 301027
# Facility.SAF: 310583
# Facility.cycle: 2023-2
# Mono.name: Si(111)
# Mono.d_spacing: 3.13519
# Mono.encoder_resolution: 0.0000050 deg/ct
# Mono.angle_offset: 16.0754 deg
# Mono.scan_mode: pseudo channel cut
# Mono.scan_type: step
# Mono.direction: forward in energy
# Sample.name: Sm2O3
# Sample.prep: PEG pellet
# Sample.x: 109.138 mm
# Sample.y: 153.150 mm
# Sample.SDD_position: 205.000 mm
# Scan.experimenters: Bruce Ravel
# Scan.edge_energy: 6716.2
# Scan.start_time: 2023-05-28T12:47:25
# Scan.end_time: 2023-05-28T12:54:33
# Scan.transient_id: 78693
# Scan.uid: fb4a542a-9527-4c77-abc3-811d9e1a9039
# Scan.plot_hint: ln(It/Ir)  --  ln($6/$7)
# Column.1: energy eV
# Column.2: requested_energy eV
# Column.3: measurement_time seconds
# Column.4: xmu
# Column.5: I0 nA
# Column.6: It nA
# Column.7: Ir nA
# ///////////
# sample courtesy Martin Stennett, University of Sheffield
# -----------
# energy  requested_energy  measurement_time  xmu  I0  It  Ir
  6516.205  6516.200  0.500  2.890517  152.315  122.023  6.778086
  6526.217  6526.200  0.500  2.877829  152.525  122.652  6.900032
  6536.220  6536.200  0.500  2.865064  152.71  123.293  7.025163
  6546.194  6546.200  0.500  2.852686  152.878  123.976  7.152063
  6556.247  6556.200  0.500  2.840049  152.987  124.598  7.279357
  6566.212  6566.200  0.500  2.827578  153.169  125.22  7.407490
  6576.221  6576.200  0.500  2.815693  153.348  125.912  7.537514
  6586.211  6586.200  0.500  2.803060  153.236  126.297  7.656649
  6596.212  6596.200  0.500  2.791020  153.663  127.181  7.803638
  6606.210  6606.200  0.500  2.778846  153.804  127.789  7.937026
  6616.205  6616.200  0.500  2.766785  153.963  128.433  8.073757
  6626.204  6626.200  0.500  2.754985  154.097  129.028  8.207470
  6636.209  6636.200  0.500  2.743169  154.234  129.634  8.344058
  6646.209  6646.200  0.500  2.731854  154.353  130.217  8.476936
  6656.202  6656.200  0.500  2.720759  154.457  130.781  8.608598
  6666.203  6666.200  0.500  2.710426  154.597  131.428  8.741055
  6676.582  6676.200  0.500  2.701863  154.419  131.776  8.839603
  6686.174  6686.200  0.500  2.696429  154.421  132.255  8.920084
  6688.180  6688.200  0.500  2.696036  154.455  132.414  8.934277
  6690.181  6690.200  0.500  2.696097  154.449  132.516  8.940602
  6692.181  6692.200  0.500  2.696421  154.487  132.633  8.945646
  6694.185  6694.200  0.500  2.697500  154.498  132.738  8.943032
  6696.188  6696.200  0.500  2.699569  154.536  132.882  8.934281
  6698.185  6698.200  0.500  2.702554  154.57  133.007  8.915991
  6700.189  6700.200  0.500  2.707315  154.944  133.382  8.898657
  6702.187  6702.200  0.500  2.714492  154.981  133.52  8.844180
  6704.194  6704.200  0.500  2.725047  154.967  133.638  8.759056
  6706.192  6706.200  0.500  2.741871  154.971  133.72  8.618227
  6706.484  6706.500  0.500  2.745223  154.969  133.754  8.591532
  6706.782  6706.800  0.500  2.748801  154.979  133.728  8.559187
  6707.086  6707.100  0.500  2.752671  154.993  133.755  8.527896
  6707.385  6707.400  0.500  2.756970  154.969  133.74  8.490336
  6707.685  6707.700  0.500  2.761420  154.993  133.757  8.453723
  6707.985  6708.000  0.500  2.766460  154.967  133.768  8.411927
  6708.289  6708.300  0.500  2.772077  154.959  133.862  8.370632
  6708.585  6708.600  0.500  2.778370  154.96  133.853  8.317617
  6708.888  6708.900  0.500  2.785657  154.951  133.878  8.258751
  6709.185  6709.200  0.500  2.793300  154.946  133.866  8.195140
  6709.486  6709.500  0.500  2.801890  154.938  133.863  8.124874
  6709.785  6709.800  0.500  2.811009  154.946  133.851  8.050379
  6710.086  6710.100  0.500  2.821058  154.977  133.94  7.975160
  6710.388  6710.400  0.500  2.831588  154.966  133.959  7.892731
  6710.687  6710.700  0.500  2.842217  154.939  133.932  7.807736
  6710.992  6711.000  0.500  2.852706  154.983  133.982  7.729165
  6711.292  6711.300  0.500  2.862479  154.969  133.998  7.654896
  6711.595  6711.600  0.500  2.872262  154.985  134.038  7.582646
  6711.891  6711.900  0.500  2.883138  154.963  134.028  7.500057
  6712.193  6712.200  0.500  2.895539  154.979  134.037  7.408115
  6712.489  6712.500  0.500  2.909982  154.963  134.026  7.301317
  6712.788  6712.800  0.500  2.926960  154.963  134.065  7.180474
  6713.088  6713.100  0.500  2.945967  154.94  134.064  7.045227
  6713.387  6713.400  0.500  2.966473  154.948  134.035  6.900745
  6713.695  6713.700  0.500  2.990114  154.94  134.104  6.742966
  6713.993  6714.000  0.500  3.015132  154.978  134.097  6.576029
  6714.297  6714.300  0.500  3.042532  154.944  134.081  6.397533
  6714.596  6714.600  0.500  3.072362  154.949  134.154  6.212891
  6714.896  6714.900  0.500  3.105253  154.96  134.146  6.011513
  6715.195  6715.200  0.500  3.140347  154.978  134.207  5.806825
  6715.495  6715.500  0.500  3.180910  154.971  134.188  5.575214
  6715.796  6715.800  0.500  3.227893  154.968  134.162  5.318319
  6716.093  6716.100  0.500  3.283126  154.978  134.174  5.032973
  6716.397  6716.400  0.500  3.348014  154.987  134.214  4.718161
  6716.694  6716.700  0.500  3.420522  154.95  134.237  4.388929
  6716.995  6717.000  0.500  3.502082  154.954  134.255  4.045710
  6717.297  6717.300  0.500  3.593143  154.973  134.271  3.694027
  6717.592  6717.600  0.500  3.695785  154.967  134.275  3.333784
  6717.897  6717.900  0.500  3.811456  154.981  134.323  2.970683
  6718.196  6718.200  0.500  3.937514  154.971  134.316  2.618716
  6718.494  6718.500  0.500  4.071313  154.958  134.332  2.291027
  6718.799  6718.800  0.500  4.209160  154.966  134.343  1.996187
  6719.102  6719.100  0.500  4.351155  154.945  134.315  1.731572
  6719.399  6719.400  0.500  4.492473  154.959  134.346  1.503725
  6719.702  6719.700  0.500  4.634487  154.968  134.375  1.304923
  6719.997  6720.000  0.500  4.772972  154.952  134.385  1.136252
  6720.294  6720.300  0.500  4.903659  154.956  134.399  0.997160
  6720.595  6720.600  0.500  5.021538  154.956  134.396  0.886257
  6720.896  6720.900  0.500  5.124799  154.945  134.389  0.799264
  6721.193  6721.200  0.500  5.211806  154.934  134.407  0.732760
  6721.498  6721.500  0.500  5.281386  154.965  134.475  0.683858
  6721.801  6721.800  0.500  5.328671  154.936  134.471  0.652256
  6722.101  6722.100  0.500  5.351271  154.958  134.465  0.637651
  6722.404  6722.400  0.500  5.350260  154.934  134.443  0.638192
  6722.701  6722.700  0.500  5.327483  154.964  134.554  0.653434
  6723.000  6723.000  0.500  5.286041  154.971  134.575  0.681186
  6723.298  6723.300  0.500  5.228603  154.966  134.578  0.721472
  6723.595  6723.600  0.500  5.156647  154.952  134.57  0.775258
  6723.897  6723.900  0.500  5.072630  154.957  134.588  0.843318
  6724.192  6724.200  0.500  4.982935  154.992  134.644  0.922839
  6724.499  6724.500  0.500  4.888262  154.97  134.656  1.014569
  6724.797  6724.800  0.500  4.794149  154.969  134.663  1.114749
  6725.102  6725.100  0.500  4.698359  154.979  134.653  1.226721
  6725.398  6725.400  0.500  4.605332  154.968  134.697  1.346751
  6725.701  6725.700  0.500  4.512428  154.984  134.731  1.478241
  6725.999  6726.000  0.500  4.424654  154.976  134.741  1.613979
  6726.299  6726.300  0.500  4.343050  154.977  134.78  1.751713
  6726.600  6726.600  0.500  4.266653  154.979  134.783  1.890827
  6726.898  6726.900  0.500  4.196512  154.995  134.794  2.028380
  6727.201  6727.200  0.500  4.129464  154.999  134.743  2.168212
  6727.499  6727.500  0.500  4.068120  154.993  134.787  2.306139
  6727.801  6727.800  0.500  4.011478  155.002  134.823  2.441188
  6728.095  6728.100  0.500  3.961753  154.988  134.851  2.566177
  6728.397  6728.400  0.500  3.917713  154.989  134.836  2.681411
  6728.697  6728.700  0.500  3.879229  154.994  134.882  2.787570
  6728.996  6729.000  0.500  3.844982  154.982  134.858  2.884189
  6729.298  6729.300  0.500  3.815368  154.981  134.885  2.971471
  6729.598  6729.600  0.500  3.789966  154.965  134.887  3.047966
  6729.898  6729.900  0.500  3.768517  154.979  134.919  3.114789
  6730.202  6730.200  0.500  3.750746  154.948  134.897  3.170100
  6730.500  6730.500  0.500  3.736526  155.002  134.95  3.216764
  6730.798  6730.800  0.500  3.724474  154.963  134.931  3.255317
  6731.094  6731.100  0.500  3.714792  154.971  134.947  3.287371
  6731.400  6731.400  0.500  3.706384  154.998  134.928  3.314656
  6731.698  6731.700  0.500  3.699427  154.988  134.971  3.338879
  6731.999  6732.000  0.500  3.694322  154.982  135.009  3.356907
  6732.305  6732.300  0.500  3.689261  154.992  135.058  3.375159
  6732.599  6732.600  0.500  3.685324  154.992  135.093  3.389366
  6732.905  6732.900  0.500  3.682162  154.995  135.096  3.400168
  6733.201  6733.200  0.500  3.678806  154.989  135.097  3.411613
  6733.502  6733.500  0.500  3.675645  154.989  135.14  3.423514
  6733.802  6733.800  0.500  3.672624  154.984  135.067  3.431999
  6734.099  6734.100  0.500  3.670122  154.971  135.1  3.441447
  6734.401  6734.400  0.500  3.667475  154.997  135.151  3.451866
  6734.701  6734.700  0.500  3.664992  154.964  135.129  3.459902
  6735.004  6735.000  0.500  3.662866  154.983  135.169  3.468278
  6735.304  6735.300  0.500  3.660327  154.985  135.208  3.478095
  6735.603  6735.600  0.500  3.658328  154.945  135.195  3.484730
  6735.905  6735.900  0.500  3.656656  154.954  135.208  3.490893
  6736.204  6736.200  0.500  3.654779  154.974  135.228  3.497967
  6736.502  6736.500  0.500  3.653094  155.005  135.267  3.504890
  6736.801  6736.800  0.500  3.651841  154.998  135.25  3.508828
  6737.098  6737.100  0.500  3.650135  154.996  135.22  3.514051
  6737.397  6737.400  0.500  3.648878  154.974  135.238  3.518926
  6737.697  6737.700  0.500  3.647697  154.993  135.29  3.524436
  6738.002  6738.000  0.500  3.646583  154.974  135.288  3.528318
  6738.305  6738.300  0.500  3.645747  155.001  135.349  3.532867
  6738.602  6738.600  0.500  3.644748  155.002  135.358  3.536640
  6738.900  6738.900  0.500  3.643827  154.983  135.356  3.539853
  6739.207  6739.200  0.500  3.643343  154.998  135.385  3.542310
  6739.502  6739.500  0.500  3.642563  154.996  135.392  3.545272
  6739.801  6739.800  0.500  3.642026  154.986  135.389  3.547094
  6740.098  6740.100  0.500  3.642012  154.95  135.36  3.546375
  6740.401  6740.400  0.500  3.641336  154.995  135.43  3.550607
  6740.698  6740.700  0.500  3.641625  154.987  135.505  3.551552
  6741.003  6741.000  0.500  3.641736  154.981  135.414  3.548773
  6741.199  6741.200  0.500  3.641791  154.977  135.395  3.548067
  6742.202  6742.190  0.500  3.643227  154.953  135.419  3.543615
  6743.203  6743.190  0.500  3.646421  154.948  135.471  3.533675
  6744.222  6744.210  0.500  3.652009  154.964  135.558  3.516246
  6745.281  6745.260  0.500  3.662364  154.983  135.624  3.481699
  6746.313  6746.320  0.500  3.676586  154.909  135.666  3.433606
  6747.384  6747.400  0.500  3.696165  154.934  135.749  3.369080
  6748.491  6748.500  0.500  3.719702  154.924  135.796  3.291863
  6749.615  6749.620  0.500  3.745674  154.927  135.856  3.208873
  6750.748  6750.760  0.500  3.772862  154.927  135.961  3.125224
  6751.906  6751.910  0.500  3.799071  154.932  136.016  3.045620
  6753.085  6753.090  0.500  3.823487  154.937  136.079  2.973529
  6754.277  6754.280  0.500  3.843383  154.933  136.072  2.914794
  6755.500  6755.500  0.500  3.858843  154.939  136.15  2.871738
  6756.731  6756.730  0.500  3.866400  154.946  136.199  2.851135
  6757.983  6757.980  0.500  3.865341  154.943  136.264  2.855525
  6759.259  6759.250  0.500  3.855719  154.949  136.362  2.885191
  6760.538  6760.540  0.500  3.839028  154.925  136.4  2.934572
  6761.854  6761.850  0.500  3.817217  154.957  136.46  3.000610
  6763.182  6763.180  0.500  3.792437  154.934  136.511  3.077041
  6764.531  6764.530  0.500  3.766378  154.951  136.587  3.160038
  6765.901  6765.900  0.500  3.742573  154.948  136.655  3.237777
  6767.285  6767.280  0.500  3.721749  155.425  137.173  3.318438
  6768.694  6768.690  0.500  3.705253  155.435  137.25  3.375514
  6770.112  6770.110  0.500  3.692882  155.473  137.321  3.419312
  6771.555  6771.550  0.500  3.684107  155.479  137.387  3.451117
  6773.021  6773.010  0.500  3.678137  155.487  137.468  3.473811
  6774.493  6774.490  0.500  3.674410  155.5  137.52  3.488101
  6775.999  6775.990  0.500  3.672616  155.493  137.574  3.495752
  6777.511  6777.510  0.500  3.671849  155.514  137.717  3.502066
  6779.064  6779.050  0.500  3.671638  155.487  137.822  3.505481
  6780.611  6780.610  0.500  3.671371  155.522  137.916  3.508805
  6782.191  6782.180  0.500  3.671711  155.514  137.977  3.509161
  6783.786  6783.780  0.500  3.672480  155.515  137.995  3.506911
  6785.399  6785.390  0.500  3.673739  155.546  138.111  3.505457
  6787.046  6787.030  0.500  3.675480  155.532  138.194  3.501456
  6788.686  6788.680  0.500  3.677245  155.569  138.302  3.498012
  6790.365  6790.350  0.500  3.679844  155.554  138.394  3.491262
  6792.048  6792.040  0.500  3.683268  155.566  138.447  3.480646
  6793.766  6793.750  0.500  3.688011  154.897  137.923  3.451058
  6795.484  6795.480  0.500  3.692359  144.813  129.006  3.213950
  6797.239  6797.230  0.500  3.697273  154.679  137.859  3.417672
  6798.999  6798.990  0.500  3.700157  155.142  138.378  3.420661
  6800.788  6800.780  0.500  3.700474  155.259  138.582  3.424620
  6802.587  6802.580  0.500  3.699410  155.308  138.722  3.431721
  6804.420  6804.410  0.500  3.697580  155.364  138.904  3.442509
  6806.259  6806.250  0.500  3.696383  155.358  138.926  3.447196
  6808.122  6808.110  0.500  3.695305  155.377  139.031  3.453515
  6809.998  6809.990  0.500  3.693799  154.983  138.748  3.451670
  6811.894  6811.890  0.500  3.691575  143.766  128.812  3.211637
  6813.817  6813.810  0.500  3.689139  154.681  138.721  3.467134
  6815.753  6815.750  0.500  3.686406  155.095  139.237  3.489545
  6817.718  6817.710  0.500  3.683367  155.197  139.441  3.505294
  6819.687  6819.680  0.500  3.679635  155.237  139.463  3.518948
  6821.686  6821.680  0.500  3.675707  155.053  139.422  3.531771
  6823.701  6823.690  0.500  3.671457  143.448  129.071  3.283482
  6825.724  6825.720  0.500  3.667292  154.39  139.023  3.551414
  6827.789  6827.780  0.500  3.662981  154.864  139.554  3.580385
  6829.861  6829.850  0.500  3.658667  154.972  139.763  3.601248
  6831.941  6831.940  0.500  3.653469  154.99  139.889  3.623283
  6834.053  6834.050  0.500  3.647577  155.015  139.983  3.647131
  6836.185  6836.180  0.500  3.640785  155.008  140.111  3.675352
  6838.326  6838.320  0.500  3.633243  154.788  139.986  3.699864
  6840.498  6840.490  0.500  3.626498  144.889  131.132  3.489317
  6842.687  6842.680  0.500  3.620652  153.985  139.486  3.733379
  6844.890  6844.880  0.500  3.617035  154.544  140.09  3.763121
  6847.108  6847.100  0.500  3.615633  154.66  140.287  3.773701
  6849.353  6849.350  0.500  3.616212  154.686  140.423  3.775168
  6851.618  6851.610  0.500  3.617849  154.704  140.531  3.771903
  6853.896  6853.890  0.500  3.620210  154.738  140.678  3.766935
  6856.197  6856.190  0.500  3.621016  154.755  140.797  3.767087
  6858.518  6858.510  0.500  3.622785  154.796  140.947  3.764438
  6860.865  6860.850  0.500  3.625075  154.607  140.875  3.753922
  6863.203  6863.200  0.500  3.626215  154.744  141.09  3.755355
  6865.589  6865.580  0.500  3.626905  154.849  141.288  3.758033
  6867.980  6867.970  0.500  3.627329  154.847  141.41  3.759694
  6870.399  6870.390  0.500  3.625359  154.847  141.519  3.769990
  6872.826  6872.820  0.500  3.621071  154.851  141.626  3.789075
  6875.281  6875.270  0.500  3.615450  154.853  141.803  3.815190
  6877.760  6877.750  0.500  3.608850  154.877  141.96  3.844692
  6880.248  6880.240  0.500  3.601610  154.858  142.068  3.875594
  6882.762  6882.750  0.500  3.594618  154.853  142.162  3.905362
  6885.288  6885.270  0.500  3.589556  154.855  142.28  3.928437
  6887.827  6887.820  0.500  3.585056  154.854  142.392  3.949248
  6890.397  6890.390  0.500  3.581954  154.864  142.515  3.964949
  6892.987  6892.970  0.500  3.580005  154.869  142.654  3.976569
  6895.602  6895.580  0.500  3.578778  154.865  142.78  3.984972
  6898.212  6898.200  0.500  3.577827  154.835  142.864  3.991093
  6900.863  6900.850  0.500  3.576852  154.813  142.977  3.998137
  6903.528  6903.510  0.500  3.575266  154.799  143.072  4.007154
  6906.204  6906.190  0.500  3.573796  154.754  143.168  4.015748
  6908.899  6908.890  0.500  3.571257  154.744  143.249  4.028238
  6911.621  6911.610  0.500  3.568222  154.665  143.315  4.042345
  6914.362  6914.350  0.500  3.563994  154.578  143.375  4.061154
  6917.115  6917.100  0.500  3.559151  154.551  143.48  4.083869
  6919.892  6919.880  0.500  3.553564  154.466  143.547  4.108669
  6922.682  6922.670  0.500  3.548263  154.409  143.615  4.132468
  6925.501  6925.490  0.500  3.542820  154.419  143.746  4.158807
  6928.334  6928.320  0.500  3.538040  154.334  143.826  4.181063
  6931.188  6931.170  0.500  3.532743  154.315  143.938  4.206540
  6934.063  6934.050  0.500  3.528594  154.281  144.043  4.227106
  6936.950  6936.940  0.500  3.524839  154.26  144.161  4.246502
  6939.867  6939.850  0.500  3.522213  154.23  144.266  4.260762
  6942.786  6942.770  0.500  3.519836  154.224  144.383  4.274357
  6945.750  6945.720  0.500  3.518119  154.187  144.489  4.284851
  6948.703  6948.690  0.500  3.516343  154.164  144.613  4.296138
  6951.680  6951.670  0.500  3.514510  154.139  144.71  4.306915
  6954.690  6954.680  0.500  3.512793  154.124  144.801  4.317036
  6957.710  6957.700  0.500  3.510245  154.086  144.882  4.330461
  6960.778  6960.750  0.500  3.507321  154.028  145.001  4.346719
  6963.828  6963.810  0.500  3.503489  154.02  145.164  4.368306
  6966.905  6966.890  0.500  3.499563  154.032  145.326  4.390384
  6970.011  6969.990  0.500  3.495081  153.993  145.432  4.413323
  6973.123  6973.110  0.500  3.490680  153.971  145.496  4.434734
  6976.263  6976.250  0.500  3.485759  153.931  145.626  4.460610
  6979.414  6979.400  0.500  3.480626  153.892  145.727  4.486651
  6982.594  6982.580  0.500  3.475741  153.854  145.848  4.512363
  6985.789  6985.770  0.500  3.470838  153.831  145.95  4.537714
  6989.006  6988.990  0.500  3.466683  153.817  146.071  4.560398
  6992.238  6992.220  0.500  3.463407  153.765  146.149  4.577791
  6995.483  6995.470  0.500  3.460831  153.696  146.335  4.595440
  6998.764  6998.750  0.500  3.458620  153.671  146.44  4.608931
  7002.050  7002.040  0.500  3.456016  153.638  146.521  4.623498
  7005.360  7005.350  0.500  3.452636  153.603  146.624  4.642417
  7008.685  7008.670  0.500  3.448903  153.542  146.756  4.663977
  7012.031  7012.020  0.500  3.445059  153.477  146.842  4.684677
  7015.407  7015.390  0.500  3.440480  153.438  146.982  4.710669
  7018.785  7018.770  0.500  3.436138  153.402  147.042  4.733086
  7022.195  7022.180  0.500  3.431881  153.327  147.14  4.756452
  7025.611  7025.600  0.500  3.427026  153.305  147.286  4.784340
  7029.062  7029.050  0.500  3.422610  153.251  147.374  4.808385
  7032.525  7032.510  0.500  3.417809  153.191  147.491  4.835373
  7036.000  7035.990  0.500  3.412851  153.125  147.581  4.862357
  7039.505  7039.490  0.500  3.407650  153.069  147.711  4.892023
  7043.027  7043.010  0.500  3.402536  153.017  147.789  4.919701
  7046.563  7046.550  0.500  3.397982  152.963  147.887  4.945433
  7050.109  7050.100  0.500  3.393920  152.878  147.935  4.967195
  7053.693  7053.680  0.500  3.389951  152.871  148.077  4.991727
  7057.291  7057.280  0.500  3.386261  152.788  148.171  5.013374
  7060.897  7060.890  0.500  3.382363  152.76  148.322  5.038061
  7064.532  7064.520  0.500  3.378939  152.584  148.357  5.056549
  7068.188  7068.180  0.500  3.375534  152.615  148.515  5.079193
  7071.861  7071.850  0.500  3.371753  152.414  148.465  5.096722
  7075.548  7075.540  0.500  3.368152  151.139  147.38  5.077727
  7079.265  7079.250  0.500  3.363728  152.309  148.704  5.146054
  7082.987  7082.980  0.500  3.359287  151.259  147.864  5.139747
  7086.734  7086.720  0.500  3.354612  152.128  148.867  5.198876
  7090.497  7090.490  0.500  3.350062  152.103  148.981  5.226588
  7094.283  7094.280  0.500  3.345378  151.986  149.082  5.254671
  7098.080  7098.080  0.500  3.340255  151.929  149.172  5.284861
  7101.907  7101.910  0.500  3.335053  151.852  149.258  5.315477
  7105.747  7105.750  0.500  3.329953  151.777  149.38  5.347011
  7109.611  7109.610  0.500  3.324807  151.648  149.396  5.375201
  7113.493  7113.490  0.500  3.319970  151.349  149.272  5.396752
  7117.391  7117.390  0.500  3.315149  151.261  149.322  5.424668
  7121.309  7121.310  0.500  3.310595  151.041  149.284  5.448045
  7125.250  7125.250  0.500  3.306081  150.818  149.246  5.471293
  7129.211  7129.210  0.500  3.301733  150.544  149.138  5.491140
  7133.188  7133.180  0.500  3.297102  150.22  149.02  5.512267
  7137.188  7137.180  0.500  3.292554  150.122  149.088  5.539916
  7141.193  7141.190  0.500  3.287857  150.099  149.204  5.570339
  7145.231  7145.230  0.500  3.283379  150.037  149.339  5.600412
  7149.289  7149.280  0.500  3.278465  149.989  149.491  5.633714
  7153.356  7153.350  0.500  3.273799  149.892  149.555  5.662502
  7157.448  7157.440  0.500  3.268876  149.818  149.647  5.693939
  7161.553  7161.550  0.500  3.263858  149.695  149.723  5.725483
  7165.686  7165.680  0.500  3.258814  149.531  149.669  5.752379
  7169.838  7169.830  0.500  3.253556  149.377  149.706  5.784114
  7173.997  7173.990  0.500  3.248401  149.254  149.789  5.817228
  7178.192  7178.180  0.500  3.243435  149.093  149.808  5.846929
  7182.388  7182.380  0.500  3.238168  148.977  149.842  5.879166
  7186.619  7186.610  0.500  3.232778  148.812  149.86  5.911638
  7190.853  7190.850  0.500  3.227321  148.704  149.919  5.946342
  7195.123  7195.110  0.500  3.221934  148.483  149.908  5.978022
  7199.397  7199.390  0.500  3.216446  148.354  149.94  6.012199
  7203.702  7203.690  0.500  3.211490  148.144  149.902  6.040514
  7208.021  7208.010  0.500  3.206175  147.985  149.913  6.073171
  7212.363  7212.350  0.500  3.201171  147.831  149.906  6.103366
  7216.718  7216.710  0.500  3.196356  147.652  149.914  6.133126
  7221.106  7221.090  0.500  3.191577  147.446  149.882  6.161188
  7225.489  7225.480  0.500  3.186978  147.419  150.005  6.194691
  7229.909  7229.900  0.500  3.182309  147.761  150.523  6.245164
  7234.343  7234.330  0.500  3.177417  147.559  150.526  6.275904
  7238.798  7238.780  0.500  3.172330  147.443  150.613  6.311542
  7243.282  7243.250  0.500  3.166857  147.315  150.69  6.349447
  7247.758  7247.740  0.500  3.161313  146.99  150.552  6.378908
  7252.268  7252.250  0.500  3.155381  146.844  150.594  6.418640
  7256.791  7256.780  0.500  3.149379  146.845  150.792  6.465760
  7261.318  7261.330  0.500  3.143577  146.268  150.387  6.485931
  7265.932  7265.900  0.500  3.136841  143.206  147.407  6.400373
  7270.481  7270.480  0.500  3.132063  146.798  151.247  6.598571
  7275.107  7275.090  0.500  3.126415  145.352  149.945  6.578792
  7279.750  7279.710  0.500  3.121374  146.582  151.397  6.676080
  7284.376  7284.360  0.500  3.116734  144.771  149.675  6.630829
  7289.038  7289.020  0.500  3.112247  146.177  151.316  6.733713