File: xdidata/Lu/Lu-L3-LutetiumOxide.xdi
# XDI/1.0 BlueSky/1.10.0 BMM/2023-1.0-py310-tiled
# Beamline.name: BMM (06BM) -- Beamline for Materials Measurement (NIST)
# Beamline.xray_source: NSLS-II three-pole wiggler
# Beamline.collimation: paraboloid mirror, 5 nm Rh on 30 nm Pt
# Beamline.focusing: not in use
# Beamline.harmonic_rejection: flat mirror, Pt stripe, pitch = 7.0 mrad relative to beam
# Beamline.software: Bluesky 1.10.0, Ophyd 1.7.0, DataBroker 2.0.0b13, Python 3.10.8, 2023-1.0-py310-tiled
# Detector.I0: 10 cm N2
# Detector.I1: 25 cm N2
# Detector.I2: 25 cm N2
# Element.symbol: Lu
# Element.edge: L3
# Element.reference: Lu
# Element.reference_material: Lu2O3
# Facility.name: NSLS-II
# Facility.energy: 3.0
# Facility.current: 399.5
# Facility.mode: top-off
# Facility.GUP: 301027
# Facility.SAF: 310583
# Facility.cycle: 2023-2
# Mono.name: Si(111)
# Mono.d_spacing: 3.13519
# Mono.encoder_resolution: 0.0000050 deg/ct
# Mono.angle_offset: 16.0754 deg
# Mono.scan_mode: pseudo channel cut
# Mono.scan_type: step
# Mono.direction: forward in energy
# Sample.name: Lu2O3
# Sample.prep: PEG pellet
# Sample.x: 109.138 mm
# Sample.y: 153.150 mm
# Sample.SDD_position: 205.000 mm
# Scan.experimenters: Bruce Ravel
# Scan.edge_energy: 9244.1
# Scan.start_time: 2023-05-28T16:22:06
# Scan.end_time: 2023-05-28T16:30:12
# Scan.transient_id: 78833
# Scan.uid: 6c8b3984-5d01-40f2-9543-0493543933b8
# Scan.plot_hint: ln(It/Ir)  --  ln($6/$7)
# Column.1: energy eV
# Column.2: requested_energy eV
# Column.3: measurement_time seconds
# Column.4: xmu
# Column.5: I0 nA
# Column.6: It nA
# Column.7: Ir nA
# ///////////
# sample courtesy Martin Stennett, University of Sheffield
# -----------
# energy  requested_energy  measurement_time  xmu  I0  It  Ir
  9044.107  9044.100  0.500  1.443225  116.904  164.296  38.801
  9054.126  9054.100  0.500  1.438914  116.841  164.382  38.989
  9064.168  9064.100  0.500  1.434694  115.409  162.551  38.7178
  9074.166  9074.100  0.500  1.430389  116.493  164.285  39.2996
  9084.111  9084.100  0.500  1.426174  116.244  164.082  39.4169
  9094.125  9094.100  0.500  1.421981  116.13  164.107  39.5884
  9104.133  9104.100  0.500  1.417978  114.99  162.663  39.3974
  9114.118  9114.100  0.500  1.413650  115.738  163.914  39.8726
  9124.132  9124.100  0.500  1.409519  115.533  163.791  40.0078
  9134.125  9134.100  0.500  1.405348  115.344  163.692  40.1506
  9144.119  9144.100  0.500  1.401671  114.14  162.164  39.9223
  9154.150  9154.100  0.500  1.397588  114.876  163.387  40.3881
  9164.124  9164.100  0.500  1.393772  114.816  163.479  40.5654
  9174.132  9174.100  0.500  1.390318  114.76  163.561  40.7261
  9184.121  9184.100  0.500  1.387011  114.293  163.059  40.7354
  9194.115  9194.100  0.500  1.384683  114.326  163.274  40.8844
  9204.124  9204.100  0.500  1.383607  114.065  163.067  40.8765
  9214.133  9214.100  0.500  1.385140  113.898  163.001  40.7974
  9216.095  9216.100  0.500  1.385958  113.861  162.972  40.7566
  9218.098  9218.100  0.500  1.387208  113.809  162.938  40.6972
  9220.084  9220.100  0.500  1.388856  113.758  162.906  40.6224
  9222.089  9222.100  0.500  1.391122  113.714  162.888  40.5259
  9224.080  9224.100  0.500  1.394008  113.665  162.869  40.4044
  9226.094  9226.100  0.500  1.397882  113.635  162.842  40.2415
  9228.091  9228.100  0.500  1.402826  113.596  162.822  40.0381
  9230.092  9230.100  0.500  1.409582  113.568  162.8  39.7631
  9232.094  9232.100  0.500  1.419036  113.497  162.728  39.3717
  9234.134  9234.100  0.500  1.432541  113.451  162.712  38.8397
  9234.365  9234.400  0.500  1.434404  113.458  162.722  38.7698
  9234.667  9234.700  0.500  1.436929  113.453  162.696  38.6657
  9234.968  9235.000  0.500  1.439665  113.786  163.19  38.6772
  9235.266  9235.300  0.500  1.442503  113.813  163.21  38.5723
  9235.567  9235.600  0.500  1.445539  113.814  163.222  38.4583
  9235.869  9235.900  0.500  1.448884  113.794  163.209  38.3268
  9236.167  9236.200  0.500  1.452421  113.792  163.224  38.1948
  9236.472  9236.500  0.500  1.456294  113.767  163.213  38.0447
  9236.770  9236.800  0.500  1.460042  113.794  163.25  37.9109
  9237.079  9237.100  0.500  1.464428  113.767  163.198  37.7331
  9237.373  9237.400  0.500  1.468717  113.747  163.179  37.5671
  9237.686  9237.700  0.500  1.473735  113.743  163.189  37.3814
  9237.977  9238.000  0.500  1.478655  113.726  163.169  37.1935
  9238.286  9238.300  0.500  1.484387  113.718  163.164  36.9797
  9238.584  9238.600  0.500  1.490462  113.708  163.166  36.7561
  9238.889  9238.900  0.500  1.496949  113.714  163.172  36.5199
  9239.187  9239.200  0.500  1.504026  113.697  163.16  36.2596
  9239.489  9239.500  0.500  1.511826  113.684  163.133  35.9719
  9239.783  9239.800  0.500  1.519967  113.67  163.123  35.6782
  9240.093  9240.100  0.500  1.529377  113.664  163.121  35.3436
  9240.394  9240.400  0.500  1.539360  113.67  163.126  34.9935
  9240.689  9240.700  0.500  1.549705  113.654  163.092  34.6262
  9240.994  9241.000  0.500  1.561375  113.644  163.081  34.222
  9241.293  9241.300  0.500  1.574004  113.64  163.069  33.7901
  9241.587  9241.600  0.500  1.587380  113.646  163.088  33.345
  9241.882  9241.900  0.500  1.602467  113.621  163.052  32.8385
  9242.184  9242.200  0.500  1.619466  113.613  163.047  32.2841
  9242.482  9242.500  0.500  1.638446  113.619  163.061  31.6798
  9242.777  9242.800  0.500  1.659371  113.586  163.019  31.0157
  9243.071  9243.100  0.500  1.683556  113.585  163.02  30.2749
  9243.377  9243.400  0.500  1.711115  113.588  163.052  29.4577
  9243.727  9243.700  0.500  1.744887  113.567  163.031  28.4757
  9244.022  9244.000  0.500  1.779801  113.574  163.032  27.4989
  9244.291  9244.300  0.500  1.815648  113.542  162.989  26.5237
  9244.600  9244.600  0.500  1.860001  113.545  162.985  25.3723
  9244.943  9244.900  0.500  1.917128  113.544  162.992  23.9646
  9245.164  9245.200  0.500  1.960125  113.495  162.958  22.9511
  9245.473  9245.500  0.500  2.024744  113.48  162.923  21.5103
  9245.813  9245.800  0.500  2.106950  113.473  162.934  19.8142
  9246.122  9246.100  0.500  2.192903  113.472  162.944  18.1832
  9246.424  9246.400  0.500  2.287045  113.449  162.914  16.5465
  9246.727  9246.700  0.500  2.389308  113.457  162.946  14.941
  9247.018  9247.000  0.500  2.495407  113.434  162.92  13.4349
  9247.316  9247.300  0.500  2.610127  113.426  162.907  11.9778
  9247.608  9247.600  0.500  2.719458  113.431  162.905  10.7371
  9247.917  9247.900  0.500  2.823951  113.419  162.879  9.670300
  9248.220  9248.200  0.500  2.915565  113.429  162.912  8.825523
  9248.511  9248.500  0.500  2.988718  113.425  162.921  8.203415
  9248.817  9248.800  0.500  3.049502  113.404  162.9  7.718619
  9249.112  9249.100  0.500  3.096155  113.402  162.891  7.366385
  9249.418  9249.400  0.500  3.133530  113.397  162.889  7.096059
  9249.702  9249.700  0.500  3.162384  113.398  162.91  6.895108
  9250.009  9250.000  0.500  3.188804  113.377  162.879  6.714047
  9250.296  9250.300  0.500  3.211052  113.375  162.886  6.566614
  9250.603  9250.600  0.500  3.231962  113.363  162.87  6.430115
  9250.901  9250.900  0.500  3.246751  113.357  162.856  6.335176
  9251.204  9251.200  0.500  3.254309  113.344  162.815  6.285880
  9251.496  9251.500  0.500  3.251780  113.351  162.827  6.302277
  9251.802  9251.800  0.500  3.236735  113.331  162.8  6.396742
  9252.104  9252.100  0.500  3.209149  113.323  162.81  6.576059
  9252.407  9252.400  0.500  3.168682  113.322  162.827  6.848346
  9252.702  9252.700  0.500  3.115751  113.314  162.819  7.220232
  9253.005  9253.000  0.500  3.053717  113.295  162.804  7.681622
  9253.308  9253.300  0.500  2.981702  113.287  162.811  8.255557
  9253.607  9253.600  0.500  2.907838  113.275  162.805  8.888105
  9253.906  9253.900  0.500  2.830375  113.275  162.784  9.602773
  9254.205  9254.200  0.500  2.754806  113.254  162.744  10.354
  9254.511  9254.500  0.500  2.679609  113.246  162.729  11.1616
  9254.807  9254.800  0.500  2.612136  113.243  162.732  11.9409
  9255.110  9255.100  0.500  2.549345  113.219  162.711  12.7131
  9255.405  9255.400  0.500  2.494875  113.227  162.747  13.4277
  9255.704  9255.700  0.500  2.445168  113.222  162.737  14.1112
  9256.007  9256.000  0.500  2.401338  113.208  162.694  14.7395
  9256.303  9256.300  0.500  2.364194  113.202  162.703  15.2981
  9256.609  9256.600  0.500  2.329320  113.216  162.723  15.843
  9256.894  9256.900  0.500  2.300152  113.199  162.708  16.3104
  9257.208  9257.200  0.500  2.272024  113.175  162.676  16.7724
  9257.496  9257.500  0.500  2.248038  113.161  162.668  17.1788
  9257.795  9257.800  0.500  2.225678  113.147  162.633  17.5634
  9258.095  9258.100  0.500  2.206174  113.152  162.639  17.9099
  9258.394  9258.400  0.500  2.187898  113.128  162.644  18.2409
  9258.690  9258.700  0.500  2.171606  113.127  162.651  18.5413
  9258.989  9259.000  0.500  2.157150  113.114  162.631  18.809
  9259.300  9259.300  0.500  2.144041  113.12  162.645  19.0588
  9259.595  9259.600  0.500  2.132342  113.118  162.65  19.2837
  9259.902  9259.900  0.500  2.121695  113.097  162.641  19.489
  9260.194  9260.200  0.500  2.112682  113.098  162.637  19.665
  9260.508  9260.500  0.500  2.104031  113.078  162.62  19.8337
  9260.808  9260.800  0.500  2.096635  113.072  162.61  19.9797
  9261.115  9261.100  0.500  2.089835  113.069  162.614  20.1166
  9261.400  9261.400  0.500  2.084022  113.068  162.605  20.2328
  9261.707  9261.700  0.500  2.078693  113.065  162.594  20.3395
  9261.999  9262.000  0.500  2.074199  113.035  162.55  20.4255
  9262.313  9262.300  0.500  2.070193  113.047  162.571  20.5102
  9262.613  9262.600  0.500  2.067142  113.021  162.542  20.5692
  9262.901  9262.900  0.500  2.065031  113.012  162.546  20.6132
  9263.205  9263.200  0.500  2.063424  113.036  162.593  20.6523
  9263.501  9263.500  0.500  2.063038  113.009  162.555  20.6554
  9263.804  9263.800  0.500  2.063594  112.993  162.527  20.6404
  9264.097  9264.100  0.500  2.065189  112.989  162.529  20.6077
  9264.400  9264.400  0.500  2.067600  112.983  162.519  20.5569
  9264.692  9264.700  0.500  2.071055  112.965  162.491  20.4824
  9265.000  9265.000  0.500  2.075529  112.961  162.511  20.3935
  9265.299  9265.300  0.500  2.080444  112.962  162.516  20.2942
  9265.588  9265.600  0.500  2.085789  112.956  162.514  20.1857
  9265.884  9265.900  0.500  2.091113  112.943  162.503  20.0772
  9266.199  9266.200  0.500  2.096381  112.942  162.507  19.9722
  9266.491  9266.500  0.500  2.100899  112.92  162.462  19.8766
  9266.795  9266.800  0.500  2.104777  112.927  162.461  19.7995
  9267.099  9267.100  0.500  2.107839  112.918  162.457  19.7386
  9267.399  9267.400  0.500  2.110137  112.9  162.447  19.692
  9267.710  9267.700  0.500  2.111939  112.899  162.443  19.6561
  9268.002  9268.000  0.500  2.113023  112.886  162.431  19.6333
  9268.306  9268.300  0.500  2.113389  112.879  162.431  19.6262
  9268.602  9268.600  0.500  2.113259  112.868  162.43  19.6286
  9268.906  9268.900  0.500  2.112531  112.86  162.442  19.6444
  9269.102  9269.100  0.500  2.111664  112.854  162.426  19.6594
  9270.106  9270.090  0.500  2.104009  112.847  162.405  19.808
  9271.092  9271.090  0.500  2.092085  112.826  162.383  20.0428
  9272.119  9272.110  0.500  2.077987  112.791  162.35  20.3232
  9273.164  9273.160  0.500  2.066049  112.765  162.336  20.5656
  9274.240  9274.220  0.500  2.060843  112.723  162.298  20.668
  9275.323  9275.300  0.500  2.064186  112.658  162.22  20.5892
  9276.410  9276.400  0.500  2.075051  111.813  161.03  20.2173
  9277.534  9277.520  0.500  2.090968  112.519  162.086  20.0286
  9278.670  9278.660  0.500  2.108480  112.692  162.348  19.7126
  9279.817  9279.810  0.500  2.126391  112.674  162.343  19.3621
  9281.006  9280.990  0.500  2.145962  112.63  162.294  18.9812
  9282.195  9282.180  0.500  2.167692  112.598  162.26  18.5693
  9283.417  9283.400  0.500  2.192858  112.561  162.222  18.1035
  9284.655  9284.630  0.500  2.219303  112.539  162.191  17.6278
  9285.893  9285.880  0.500  2.240804  112.529  162.194  17.2531
  9287.161  9287.150  0.500  2.254499  112.485  162.157  17.0145
  9288.448  9288.440  0.500  2.257583  112.456  162.143  16.9606
  9289.765  9289.750  0.500  2.250232  112.417  162.114  17.0828
  9291.098  9291.080  0.500  2.235342  112.366  162.073  17.3346
  9292.449  9292.430  0.500  2.216521  112.041  161.604  17.6128
  9293.809  9293.800  0.500  2.196861  111.792  161.26  17.9243
  9295.183  9295.180  0.500  2.178414  112.34  162.092  18.3522
  9296.603  9296.590  0.500  2.162679  112.281  162.042  18.6375
  9298.023  9298.010  0.500  2.151282  112.162  161.884  18.8328
  9299.459  9299.450  0.500  2.142619  111.534  160.988  18.8915
  9300.910  9300.910  0.500  2.133600  110.318  159.249  18.8567
  9302.387  9302.390  0.500  2.126014  112.605  162.574  19.3971
  9303.892  9303.890  0.500  2.117149  112.582  162.565  19.5687
  9305.415  9305.410  0.500  2.109457  112.5  162.483  19.7098
  9306.954  9306.950  0.500  2.103016  111.68  161.326  19.6959
  9308.523  9308.510  0.500  2.097789  112.486  162.53  19.9469
  9310.093  9310.080  0.500  2.093644  112.479  162.536  20.0305
  9311.689  9311.680  0.500  2.090012  112.444  162.53  20.1026
  9313.301  9313.290  0.500  2.087303  112.412  162.498  20.1532
  9314.955  9314.930  0.500  2.085602  112.355  162.41  20.1766
  9316.594  9316.580  0.500  2.085322  112.336  162.412  20.1825
  9318.246  9318.250  0.500  2.086416  112.297  162.403  20.1593
  9319.942  9319.940  0.500  2.088896  112.264  162.387  20.1074
  9321.655  9321.650  0.500  2.092926  112.203  162.345  20.0214
  9323.398  9323.380  0.500  2.098192  112.114  162.236  19.9028
  9325.130  9325.130  0.500  2.104697  111.643  161.58  19.6938
  9326.897  9326.890  0.500  2.111949  112.153  162.35  19.6446
  9328.694  9328.680  0.500  2.119073  112.119  162.309  19.5003
  9330.478  9330.480  0.500  2.125440  112.067  162.243  19.3687
  9332.307  9332.310  0.500  2.130782  112.032  162.237  19.2648
  9334.167  9334.150  0.500  2.134705  111.985  162.204  19.1854
  9336.016  9336.010  0.500  2.137057  111.95  162.176  19.1371
  9337.892  9337.890  0.500  2.137979  111.919  162.166  19.1182
  9339.807  9339.790  0.500  2.137955  111.871  162.124  19.1137
  9341.719  9341.710  0.500  2.137154  111.825  162.088  19.1248
  9343.650  9343.650  0.500  2.136157  111.787  162.056  19.1401
  9345.628  9345.610  0.500  2.135808  111.755  162.032  19.144
  9347.595  9347.580  0.500  2.136236  111.713  161.996  19.1315
  9349.589  9349.580  0.500  2.136503  111.669  161.965  19.1227
  9351.596  9351.590  0.500  2.136058  111.628  161.946  19.129
  9353.641  9353.620  0.500  2.134643  111.597  161.932  19.1544
  9355.687  9355.680  0.500  2.132322  111.574  161.915  19.1969
  9357.756  9357.750  0.500  2.130120  111.501  161.854  19.232
  9359.849  9359.840  0.500  2.127939  111.462  161.836  19.2718
  9361.951  9361.950  0.500  2.126045  111.424  161.806  19.3048
  9364.088  9364.080  0.500  2.124430  111.396  161.797  19.3349
  9366.237  9366.220  0.500  2.122878  111.343  161.747  19.3589
  9368.395  9368.390  0.500  2.121047  111.292  161.718  19.3909
  9370.595  9370.580  0.500  2.117836  111.255  161.7  19.4512
  9372.796  9372.780  0.500  2.113232  111.197  161.658  19.5359
  9374.999  9375.000  0.500  2.106979  111.158  161.646  19.657
  9377.263  9377.250  0.500  2.100244  111.109  161.6  19.7841
  9379.521  9379.510  0.500  2.093479  111.084  161.595  19.9178
  9381.795  9381.790  0.500  2.086995  111.017  161.533  20.0397
  9384.112  9384.090  0.500  2.081249  110.973  161.502  20.1513
  9386.426  9386.410  0.500  2.077987  110.933  161.484  20.2149
  9388.764  9388.750  0.500  2.077865  110.897  161.468  20.2154
  9391.111  9391.100  0.500  2.080762  110.844  161.44  20.1533
  9393.486  9393.480  0.500  2.084597  110.799  161.404  20.0718
  9395.889  9395.870  0.500  2.088314  110.742  161.359  19.9918
  9398.305  9398.290  0.500  2.091008  110.704  161.344  19.9361
  9400.726  9400.720  0.500  2.093202  110.665  161.317  19.889
  9403.193  9403.170  0.500  2.095137  110.611  161.283  19.8464
  9405.655  9405.650  0.500  2.097382  110.564  161.262  19.7993
  9408.167  9408.140  0.500  2.100804  110.519  161.219  19.7264
  9410.654  9410.650  0.500  2.104823  110.466  161.16  19.6402
  9413.184  9413.170  0.500  2.109068  110.422  161.125  19.5527
  9415.735  9415.720  0.500  2.112371  110.366  161.104  19.4857
  9418.299  9418.290  0.500  2.113816  110.31  161.081  19.4547
  9420.895  9420.870  0.500  2.112510  110.254  161.032  19.4742
  9423.492  9423.480  0.500  2.108645  110.224  161.018  19.548
  9426.118  9426.100  0.500  2.102253  110.162  160.986  19.6694
  9428.757  9428.750  0.500  2.094953  110.108  160.954  19.8096
  9431.427  9431.410  0.500  2.088665  110.049  160.887  19.9263
  9434.104  9434.090  0.500  2.084139  110.01  160.863  20.0136
  9436.797  9436.790  0.500  2.081011  109.585  160.283  20.004
  9439.530  9439.510  0.500  2.078530  109.857  160.741  20.111
  9442.257  9442.250  0.500  2.077410  109.817  160.724  20.1314
  9445.021  9445.000  0.500  2.077652  109.77  160.689  20.1221
  9447.782  9447.780  0.500  2.078237  109.703  160.621  20.1018
  9450.591  9450.570  0.500  2.078645  109.677  160.621  20.0936
  9453.394  9453.390  0.500  2.078762  109.619  160.567  20.0846
  9456.241  9456.220  0.500  2.079119  109.558  160.545  20.0746
  9459.075  9459.070  0.500  2.079597  109.5  160.482  20.0571
  9461.972  9461.950  0.500  2.080391  109.438  160.443  20.0364
  9464.848  9464.840  0.500  2.080378  109.379  160.388  20.0297
  9467.783  9467.750  0.500  2.078785  109.314  160.33  20.0544
  9470.670  9470.670  0.500  2.075613  109.259  160.279  20.1117
  9473.644  9473.620  0.500  2.071588  109.188  160.237  20.1876
  9476.597  9476.590  0.500  2.067594  109.125  160.189  20.2623
  9479.594  9479.570  0.500  2.063370  109.074  160.152  20.3433
  9482.590  9482.580  0.500  2.060000  109.018  160.128  20.4089
  9485.630  9485.600  0.500  2.057531  108.946  160.07  20.452
  9488.656  9488.650  0.500  2.056183  108.891  160.017  20.4729
  9491.735  9491.710  0.500  2.055876  108.836  159.974  20.4736
  9494.805  9494.790  0.500  2.056222  108.762  159.93  20.4608
  9497.927  9497.890  0.500  2.057024  108.703  159.876  20.4375
  9501.016  9501.010  0.500  2.058105  108.627  159.817  20.4079
  9504.181  9504.150  0.500  2.058872  108.561  159.76  20.385
  9507.317  9507.300  0.500  2.059076  108.506  159.712  20.3747
  9510.518  9510.480  0.500  2.059256  108.444  159.686  20.3677
  9513.682  9513.670  0.500  2.059474  108.374  159.635  20.3569
  9516.911  9516.890  0.500  2.059304  108.309  159.597  20.3555
  9520.137  9520.120  0.500  2.058223  108.249  159.545  20.3709
  9523.394  9523.370  0.500  2.056616  108.174  159.493  20.3969
  9526.665  9526.650  0.500  2.054864  108.1  159.42  20.4234
  9529.969  9529.940  0.500  2.053292  108.034  159.35  20.4465
  9533.272  9533.250  0.500  2.051375  107.973  159.311  20.4808
  9536.577  9536.570  0.500  2.048952  107.9  159.253  20.5229
  9539.943  9539.920  0.500  2.046205  107.834  159.23  20.5764
  9543.312  9543.290  0.500  2.043124  107.762  159.157  20.6305
  9546.703  9546.670  0.500  2.039285  107.703  159.094  20.7016
  9550.104  9550.080  0.500  2.035601  107.624  159.035  20.7703
  9553.519  9553.500  0.500  2.032950  107.547  158.991  20.8197
  9556.965  9556.950  0.500  2.031479  107.477  158.935  20.843
  9560.437  9560.410  0.500  2.030388  107.403  158.85  20.8545
  9563.915  9563.890  0.500  2.029428  107.337  158.792  20.867
  9567.396  9567.390  0.500  2.028873  107.259  158.745  20.8724
  9570.931  9570.910  0.500  2.028480  107.188  158.689  20.8732
  9574.473  9574.450  0.500  2.027729  107.124  158.642  20.8827
  9578.017  9578.000  0.500  2.026613  107.049  158.584  20.8984
  9581.615  9581.580  0.500  2.024760  106.967  158.514  20.9278
  9585.209  9585.180  0.500  2.022377  106.901  158.471  20.9721
  9588.821  9588.790  0.500  2.019852  106.823  158.406  21.0165
  9592.439  9592.420  0.500  2.017679  106.748  158.347  21.0544
  9596.097  9596.080  0.500  2.015765  106.673  158.283  21.0862
  9599.781  9599.750  0.500  2.014166  106.597  158.201  21.109
  9603.448  9603.440  0.500  2.012754  106.52  158.12  21.128
  9607.173  9607.150  0.500  2.011334  106.447  158.084  21.1532
  9610.890  9610.880  0.500  2.010439  106.371  158.028  21.1646
  9614.650  9614.620  0.500  2.009126  106.291  157.963  21.1838
  9618.416  9618.390  0.500  2.007479  105.987  157.566  21.1654
  9622.214  9622.180  0.500  2.005115  106.119  157.81  21.2483
  9626.014  9625.980  0.500  2.002767  106.042  157.747  21.2897
  9629.834  9629.810  0.500  2.000940  105.953  157.671  21.3184
  9633.665  9633.650  0.500  1.999751  105.863  157.585  21.3321
  9637.531  9637.510  0.500  1.998668  105.779  157.495  21.343
  9641.392  9641.390  0.500  1.997776  105.704  157.444  21.3551
  9645.309  9645.290  0.500  1.996749  105.616  157.373  21.3674
  9649.220  9649.210  0.500  1.995583  105.356  157.036  21.3466
  9653.168  9653.150  0.500  1.994223  105.445  157.217  21.4003
  9657.122  9657.110  0.500  1.992498  105.36  157.128  21.4251
  9661.096  9661.080  0.500  1.990442  105.28  157.067  21.4609
  9665.102  9665.080  0.500  1.988398  105.185  156.978  21.4926
  9669.099  9669.090  0.500  1.986452  105.064  156.848  21.5167
  9673.127  9673.130  0.500  1.984138  105.003  156.803  21.5603
  9677.192  9677.180  0.500  1.981729  104.91  156.715  21.6002
  9681.259  9681.250  0.500  1.979163  104.821  156.637  21.6448
  9685.343  9685.340  0.500  1.976751  104.736  156.57  21.6879
  9689.462  9689.450  0.500  1.974166  104.649  156.483  21.732
  9693.581  9693.580  0.500  1.971486  104.547  156.395  21.778
  9697.737  9697.730  0.500  1.968642  104.471  156.33  21.831
  9701.912  9701.890  0.500  1.965839  104.376  156.24  21.8797
  9706.082  9706.080  0.500  1.963464  104.266  156.129  21.916
  9710.309  9710.280  0.500  1.962039  102.829  154.036  21.6531
  9714.524  9714.510  0.500  1.960432  104.133  156.032  21.9689
  9718.754  9718.750  0.500  1.959653  104.03  155.937  21.9727
  9723.034  9723.010  0.500  1.959004  103.939  155.873  21.9779
  9727.301  9727.290  0.500  1.958571  103.843  155.791  21.9759
  9731.608  9731.590  0.500  1.957721  103.744  155.697  21.9812
  9735.919  9735.910  0.500  1.956385  103.653  155.614  21.9989
  9740.263  9740.250  0.500  1.954493  103.567  155.533  22.0291
  9744.628  9744.610  0.500  1.952454  103.47  155.439  22.0607
  9748.996  9748.990  0.500  1.950339  103.373  155.347  22.0944
  9753.393  9753.380  0.500  1.948748  103.276  155.252  22.116
  9757.810  9757.800  0.500  1.947380  103.17  155.157  22.1327
  9762.257  9762.230  0.500  1.946176  103.068  155.073  22.1474
  9766.711  9766.680  0.500  1.945696  102.961  154.952  22.1408
  9771.166  9771.150  0.500  1.943247  102.808  154.768  22.1687
  9775.649  9775.640  0.500  1.940796  102.503  154.378  22.1672
  9780.166  9780.150  0.500  1.938349  102.648  154.652  22.2608
  9784.691  9784.680  0.500  1.934850  101.182  152.485  22.0258
  9789.245  9789.230  0.500  1.931941  102.467  154.479  22.3788
  9793.821  9793.800  0.500  1.929176  102.187  154.114  22.3878
  9798.404  9798.380  0.500  1.927988  102.639  154.874  22.525
  9803.013  9802.990  0.500  1.927057  101.176  152.721  22.2325
  9807.643  9807.610  0.500  1.925895  102.504  154.775  22.5578
  9812.277  9812.260  0.500  1.925702  102.394  154.67  22.5467
  9816.941  9816.920  0.500  1.925189  102.29  154.565  22.543
  9821.622  9821.600  0.500  1.924310  101.565  153.533  22.4122
  9826.324  9826.300  0.500  1.922168  102.063  154.353  22.5801
  9831.052  9831.020  0.500  1.919465  101.921  154.18  22.616
  9835.784  9835.760  0.500  1.916219  101.274  153.259  22.554
  9840.533  9840.510  0.500  1.912651  101.746  154.044  22.7505
  9845.334  9845.290  0.500  1.909028  101.505  153.737  22.7876
  9850.118  9850.090  0.500  1.905598  101.528  153.834  22.8803
  9854.923  9854.900  0.500  1.902357  101.427  153.73  22.9391
  9859.763  9859.730  0.500  1.899278  101.321  153.615  22.9926
  9864.620  9864.590  0.500  1.896825  101.207  153.52  23.0348
  9869.495  9869.460  0.500  1.894691  101.099  153.41  23.0674
  9874.396  9874.350  0.500  1.892682  100.981  153.278  23.094
  9879.285  9879.260  0.500  1.890902  100.852  153.123  23.1117
  9884.221  9884.190  0.500  1.889477  100.081  152.026  22.9789
  9889.162  9889.130  0.500  1.888578  100.628  152.908  23.1329
  9894.138  9894.100  0.500  1.887541  100.524  152.812  23.1425
  9899.127  9899.090  0.500  1.886127  100.415  152.682  23.1554
  9904.122  9904.090  0.500  1.884470  100.295  152.571  23.177
  9909.160  9909.120  0.500  1.882603  100.176  152.46  23.2034
  9914.190  9914.160  0.500  1.880693  100.061  152.344  23.2301
  9919.247  9919.220  0.500  1.878556  99.9436  152.208  23.2589
  9924.335  9924.300  0.500  1.875968  99.8084  152.047  23.2946
  9929.449  9929.400  0.500  1.872962  99.6117  151.833  23.3319
  9934.552  9934.520  0.500  1.869294  99.0369  151.014  23.2913
  9939.677  9939.660  0.500  1.866380  99.5404  151.842  23.4873
  9944.850  9944.820  0.500  1.863204  99.4002  151.685  23.5376
  9950.029  9950.000  0.500  1.860145  99.2658  151.543  23.5876
  9955.217  9955.190  0.500  1.856963  97.7891  149.337  23.3185
  9960.446  9960.410  0.500  1.855034  98.9765  151.209  23.6562
  9965.676  9965.640  0.500  1.852934  98.7836  150.973  23.669
  9970.920  9970.890  0.500  1.850632  98.7801  151.028  23.7323
  9976.195  9976.160  0.500  1.848592  98.705  150.962  23.7703
  9981.493  9981.450  0.500  1.846590  98.4936  150.71  23.7782
  9986.819  9986.760  0.500  1.844809  98.2437  150.398  23.7713
  9992.120  9992.090  0.500  1.843217  98.2895  150.504  23.8259
  9997.462  9997.440  0.500  1.841674  97.9874  150.106  23.7996
  10002.844  10002.810  0.500  1.839912  98.1373  150.403  23.8887
  10008.215  10008.190  0.500  1.837896  98.0012  150.243  23.9115
  10013.617  10013.600  0.500  1.835665  97.6069  149.71  23.8799
  10019.052  10019.020  0.500  1.832705  97.6305  149.81  23.9666
  10024.510  10024.470  0.500  1.829527  97.5649  149.742  24.032
  10029.965  10029.930  0.500  1.826261  97.4239  149.579  24.0843
  10035.440  10035.410  0.500  1.823545  96.4962  148.234  23.9328
  10040.942  10040.910  0.500  1.820561  97.2866  149.507  24.2105
  10046.459  10046.430  0.500  1.817835  97.1384  149.352  24.2513
  10052.009  10051.970  0.500  1.815215  97.001  149.205  24.291
  10057.556  10057.520  0.500  1.812468  96.8758  149.051  24.3327
  10063.132  10063.100  0.500  1.809938  96.7471  148.913  24.3718
  10068.731  10068.700  0.500  1.807596  96.6173  148.784  24.4077
  10074.341  10074.310  0.500  1.805289  96.4931  148.659  24.4436
  10079.979  10079.950  0.500  1.803236  96.3447  148.481  24.4644
  10085.628  10085.600  0.500  1.801304  96.2062  148.328  24.4865
  10091.315  10091.270  0.500  1.799028  95.8756  147.883  24.4687
  10096.986  10096.960  0.500  1.797015  95.948  148.05  24.5457