File: xdidata/Lu/Lu-L3-Lu2TiO5.xdi
# XDI/1.0 BlueSky/1.10.0 BMM/2023-1.0-py310-tiled
# Beamline.name: BMM (06BM) -- Beamline for Materials Measurement (NIST)
# Beamline.xray_source: NSLS-II three-pole wiggler
# Beamline.collimation: paraboloid mirror, 5 nm Rh on 30 nm Pt
# Beamline.focusing: not in use
# Beamline.harmonic_rejection: flat mirror, Pt stripe, pitch = 7.0 mrad relative to beam
# Beamline.software: Bluesky 1.10.0, Ophyd 1.7.0, DataBroker 2.0.0b13, Python 3.10.8, 2023-1.0-py310-tiled
# Detector.I0: 10 cm N2
# Detector.I1: 25 cm N2
# Detector.I2: 25 cm N2
# Element.symbol: Lu
# Element.edge: L3
# Element.reference: Lu
# Element.reference_material: Lu2O3
# Facility.name: NSLS-II
# Facility.energy: 3.0
# Facility.current: 400.4
# Facility.mode: top-off
# Facility.GUP: 123456
# Facility.SAF: 301027
# Facility.cycle: 2023-2
# Mono.name: Si(111)
# Mono.d_spacing: 3.13519
# Mono.encoder_resolution: 0.0000050 deg/ct
# Mono.angle_offset: 16.0754 deg
# Mono.scan_mode: pseudo channel cut
# Mono.scan_type: step
# Mono.direction: forward in energy
# Sample.name: Lu2TiO5
# Sample.prep: Powder in PEG pellet
# Sample.x: 149.848 mm
# Sample.y: 114.690 mm
# Sample.SDD_position: 205.000 mm
# Scan.experimenters: Bruce Ravel
# Scan.edge_energy: 9244.1
# Scan.start_time: 2023-05-08T19:39:05
# Scan.end_time: 2023-05-08T19:44:59
# Scan.transient_id: 75547
# Scan.uid: 815333d6-c1a3-4b29-ad3b-7377ef9710d2
# Scan.plot_hint: ln(I0/It)  --  ln($5/$6)
# Column.1: energy eV
# Column.2: requested_energy eV
# Column.3: measurement_time seconds
# Column.4: xmu
# Column.5: I0 nA
# Column.6: It nA
# Column.7: Ir nA
# ///////////
# sample courtesy Martin Stennett, University of Sheffield
# -----------
# energy  requested_energy  measurement_time  xmu  I0  It  Ir
  9044.139  9044.100  0.500  0.732890  116.77  56.1101  16.6702
  9054.200  9054.100  0.500  0.729219  116.639  56.2534  16.7722
  9064.168  9064.100  0.500  0.726034  115.65  55.9542  16.7487
  9074.134  9074.100  0.500  0.722601  116.232  56.4292  16.9508
  9084.132  9084.100  0.500  0.719152  115.981  56.5018  17.0321
  9094.157  9094.100  0.500  0.715702  115.816  56.6165  17.1291
  9104.108  9104.100  0.500  0.712075  114.372  56.1139  17.0372
  9114.132  9114.100  0.500  0.708606  115.389  56.8097  17.3095
  9124.142  9124.100  0.500  0.705269  115.185  56.8986  17.3981
  9134.125  9134.100  0.500  0.702032  114.939  56.9612  17.4782
  9144.072  9144.100  0.500  0.697692  111.341  55.4181  17.0574
  9154.082  9154.100  0.500  0.694708  114.792  57.3063  17.6959
  9164.081  9164.100  0.500  0.691653  114.671  57.4211  17.7855
  9174.092  9174.100  0.500  0.688435  114.539  57.5402  17.8755
  9184.089  9184.100  0.500  0.685830  114.409  57.6247  17.9472
  9194.079  9194.100  0.500  0.683359  114.068  57.5949  17.9695
  9204.087  9204.100  0.500  0.681526  113.781  57.5554  17.9699
  9214.104  9214.100  0.500  0.681356  113.552  57.4494  17.8964
  9216.077  9216.100  0.500  0.681503  113.502  57.4158  17.8677
  9218.072  9218.100  0.500  0.681850  113.452  57.3706  17.8289
  9220.069  9220.100  0.500  0.682597  113.4  57.3013  17.777
  9222.070  9222.100  0.500  0.683550  113.357  57.2249  17.7114
  9224.069  9224.100  0.500  0.684802  113.297  57.123  17.6234
  9226.068  9226.100  0.500  0.686606  113.241  56.9919  17.5112
  9228.076  9228.100  0.500  0.689018  113.194  56.8312  17.3704
  9230.081  9230.100  0.500  0.692409  113.137  56.6104  17.1756
  9232.075  9232.100  0.500  0.697092  113.094  56.3245  16.9202
  9234.078  9234.100  0.500  0.703986  113.053  55.9171  16.5603
  9234.567  9234.600  0.500  0.706092  113.04  55.7932  16.4539
  9235.071  9235.100  0.500  0.708555  113.032  55.6517  16.3316
  9235.575  9235.600  0.500  0.711067  113.015  55.5039  16.1976
  9236.075  9236.100  0.500  0.713884  112.995  55.3382  16.05
  9236.575  9236.600  0.500  0.717197  112.99  55.1524  15.8868
  9237.072  9237.100  0.500  0.720607  112.976  54.9581  15.7106
  9237.576  9237.600  0.500  0.724615  112.96  54.7302  15.5144
  9238.076  9238.100  0.500  0.729078  112.953  54.4833  15.2971
  9238.565  9238.600  0.500  0.733909  112.934  54.2115  15.0577
  9239.069  9239.100  0.500  0.739653  112.923  53.896  14.7832
  9239.574  9239.600  0.500  0.745992  112.906  53.5472  14.4736
  9240.074  9240.100  0.500  0.753633  112.899  53.1362  14.1188
  9240.586  9240.600  0.500  0.762224  112.886  52.6758  13.7214
  9241.083  9241.100  0.500  0.771746  112.873  52.1705  13.2888
  9241.591  9241.600  0.500  0.782579  112.854  51.5996  12.8014
  9242.088  9242.100  0.500  0.795248  112.845  50.9462  12.2482
  9242.585  9242.600  0.500  0.810310  112.836  50.1806  11.6151
  9243.086  9243.100  0.500  0.828029  112.821  49.2925  10.8857
  9243.587  9243.600  0.500  0.849159  112.811  48.2577  10.0567
  9244.073  9244.100  0.500  0.873584  112.806  47.0911  9.144717
  9244.582  9244.600  0.500  0.901841  112.795  45.7749  8.147399
  9245.079  9245.100  0.500  0.933893  112.783  44.326  7.095534
  9245.580  9245.600  0.500  0.970550  112.773  42.7268  5.998519
  9246.089  9246.100  0.500  1.010703  112.766  41.0426  4.922519
  9246.590  9246.600  0.500  1.051783  112.75  39.3853  3.955642
  9247.095  9247.100  0.500  1.090654  112.731  37.8773  3.170679
  9247.597  9247.600  0.500  1.124159  112.723  36.6267  2.604593
  9248.102  9248.100  0.500  1.149162  112.707  35.7171  2.252451
  9248.596  9248.600  0.500  1.166635  112.693  35.0942  2.044760
  9249.094  9249.100  0.500  1.178011  112.679  34.6927  1.917791
  9249.592  9249.600  0.500  1.184792  112.672  34.4563  1.827760
  9250.090  9250.100  0.500  1.187609  112.654  34.3537  1.762723
  9250.588  9250.600  0.500  1.186312  112.652  34.3977  1.733446
  9251.093  9251.100  0.500  1.180295  112.627  34.5976  1.759235
  9251.588  9251.600  0.500  1.169264  112.607  34.9754  1.861352
  9252.093  9252.100  0.500  1.153761  112.603  35.5203  2.049701
  9252.599  9252.600  0.500  1.133941  112.587  36.2264  2.327011
  9253.090  9253.100  0.500  1.111549  112.578  37.0438  2.686291
  9253.599  9253.600  0.500  1.087496  112.546  37.9348  3.119304
  9254.098  9254.100  0.500  1.064148  112.527  38.8244  3.584587
  9254.604  9254.600  0.500  1.042116  112.532  39.6908  4.066127
  9255.095  9255.100  0.500  1.023326  112.514  40.4373  4.509614
  9255.601  9255.600  0.500  1.006942  112.497  41.0991  4.912353
  9256.092  9256.100  0.500  0.993856  112.483  41.6352  5.253127
  9256.591  9256.600  0.500  0.982298  112.467  42.1131  5.556102
  9257.097  9257.100  0.500  0.972000  112.457  42.5452  5.831464
  9257.592  9257.600  0.500  0.962730  112.448  42.938  6.076403
  9258.095  9258.100  0.500  0.954462  112.428  43.2871  6.298751
  9258.601  9258.600  0.500  0.947311  112.413  43.5918  6.493655
  9259.100  9259.100  0.500  0.941377  112.401  43.8465  6.655854
  9259.603  9259.600  0.500  0.936585  112.382  44.0499  6.791348
  9260.098  9260.100  0.500  0.932698  112.367  44.2155  6.906044
  9260.597  9260.600  0.500  0.929842  112.351  44.3356  6.998568
  9261.104  9261.100  0.500  0.927499  112.338  44.4343  7.076275
  9261.596  9261.600  0.500  0.925870  112.321  44.5001  7.134462
  9262.095  9262.100  0.500  0.924779  112.295  44.5383  7.177587
  9262.591  9262.600  0.500  0.924122  112.285  44.5637  7.201844
  9263.097  9263.100  0.500  0.923973  112.441  44.6324  7.213660
  9263.601  9263.600  0.500  0.924189  112.589  44.6813  7.202975
  9264.108  9264.100  0.500  0.924936  112.577  44.6432  7.158712
  9264.607  9264.600  0.500  0.925743  112.556  44.599  7.099522
  9265.107  9265.100  0.500  0.926767  112.552  44.5518  7.032034
  9265.607  9265.600  0.500  0.927944  112.542  44.4951  6.963557
  9266.110  9266.100  0.500  0.928921  112.535  44.4489  6.906858
  9266.606  9266.600  0.500  0.929708  112.515  44.4062  6.866970
  9267.102  9267.100  0.500  0.930707  112.497  44.3547  6.836463
  9267.595  9267.600  0.500  0.931474  112.478  44.3133  6.823066
  9268.091  9268.100  0.500  0.931880  112.459  44.2876  6.819427
  9268.591  9268.600  0.500  0.932326  112.451  44.2647  6.827503
  9269.095  9269.100  0.500  0.932413  112.441  44.257  6.848813
  9270.095  9270.090  0.500  0.932166  112.408  44.2549  6.921733
  9271.099  9271.090  0.500  0.931316  112.394  44.2873  7.018554
  9272.119  9272.110  0.500  0.930217  112.363  44.3238  7.112706
  9273.168  9273.160  0.500  0.929632  112.324  44.3342  7.172643
  9274.225  9274.220  0.500  0.930194  112.272  44.2888  7.166867
  9275.319  9275.300  0.500  0.931868  111.788  44.0241  7.071525
  9276.421  9276.400  0.500  0.935612  111.709  43.8286  6.943047
  9277.538  9277.520  0.500  0.939422  112.275  43.8831  6.836140
  9278.674  9278.660  0.500  0.943388  112.246  43.6979  6.693058
  9279.810  9279.810  0.500  0.947587  112.211  43.5016  6.547123
  9281.002  9280.990  0.500  0.951964  112.18  43.2997  6.386332
  9282.198  9282.180  0.500  0.956361  112.142  43.095  6.213526
  9283.421  9283.400  0.500  0.960907  112.118  42.8902  6.028917
  9284.625  9284.630  0.500  0.965256  112.085  42.6914  5.859966
  9285.889  9285.880  0.500  0.968625  112.052  42.5354  5.734776
  9287.157  9287.150  0.500  0.970468  112.024  42.4465  5.674128
  9288.455  9288.440  0.500  0.970321  111.989  42.4394  5.684710
  9289.750  9289.750  0.500  0.968140  111.953  42.5185  5.756138
  9291.090  9291.080  0.500  0.964029  111.866  42.6603  5.872057
  9292.434  9292.430  0.500  0.958809  111.033  42.5644  5.972330
  9293.805  9293.800  0.500  0.953822  111.792  43.0695  6.155702
  9295.191  9295.180  0.500  0.948353  111.823  43.3178  6.297758
  9296.592  9296.590  0.500  0.943915  111.747  43.4811  6.405500
  9298.027  9298.010  0.500  0.940196  111.554  43.5676  6.479580
  9299.459  9299.450  0.500  0.936052  108.527  42.5613  6.381480
  9300.917  9300.910  0.500  0.934950  111.287  43.6917  6.603566
  9302.391  9302.390  0.500  0.932035  111.73  43.9939  6.703485
  9303.899  9303.890  0.500  0.930081  111.676  44.0586  6.770035
  9305.422  9305.410  0.500  0.928610  111.524  44.0634  6.817572
  9306.961  9306.950  0.500  0.928084  110.946  43.8581  6.824689
  9308.512  9308.510  0.500  0.927362  111.607  44.1511  6.899968
  9310.093  9310.080  0.500  0.927277  111.568  44.1395  6.924337
  9311.693  9311.680  0.500  0.927647  111.52  44.1042  6.941483
  9313.294  9313.290  0.500  0.928023  111.474  44.0695  6.949923
  9314.936  9314.930  0.500  0.928619  111.43  44.026  6.951825
  9316.587  9316.580  0.500  0.929136  111.381  43.9838  6.942958
  9318.257  9318.250  0.500  0.929435  111.338  43.9536  6.926267
  9319.942  9319.940  0.500  0.929705  111.282  43.9197  6.900270
  9321.662  9321.650  0.500  0.930083  111.223  43.8798  6.863817
  9323.390  9323.380  0.500  0.929992  110.617  43.6449  6.787709
  9325.138  9325.130  0.500  0.931030  111.119  43.7972  6.766104
  9326.897  9326.890  0.500  0.931287  111.153  43.7996  6.718946
  9328.694  9328.680  0.500  0.931556  111.104  43.7685  6.667993
  9330.481  9330.480  0.500  0.931635  111.048  43.7429  6.624049
  9332.322  9332.310  0.500  0.931766  111.007  43.7209  6.590762
  9334.155  9334.150  0.500  0.931994  110.967  43.6952  6.564430
  9336.020  9336.010  0.500  0.932403  110.92  43.6587  6.545984
  9337.915  9337.890  0.500  0.932776  110.875  43.625  6.536547
  9339.800  9339.790  0.500  0.932916  110.826  43.5994  6.534965
  9341.719  9341.710  0.500  0.932947  110.771  43.5766  6.536932
  9343.658  9343.650  0.500  0.933040  110.727  43.5553  6.537632
  9345.616  9345.610  0.500  0.932952  110.678  43.5399  6.536558
  9347.587  9347.580  0.500  0.932762  110.635  43.5312  6.532011
  9349.600  9349.580  0.500  0.932290  110.58  43.5301  6.529780
  9351.596  9351.590  0.500  0.931745  110.529  43.5338  6.534789
  9353.626  9353.620  0.500  0.931074  110.493  43.5487  6.546996
  9355.698  9355.680  0.500  0.930180  110.431  43.563  6.564295
  9357.756  9357.750  0.500  0.929178  110.379  43.5862  6.582064
  9359.853  9359.840  0.500  0.928087  110.331  43.6148  6.597905
  9361.962  9361.950  0.500  0.926983  110.283  43.6441  6.614636
  9364.092  9364.080  0.500  0.925724  110.228  43.6772  6.628433
  9366.237  9366.220  0.500  0.924250  110.18  43.7225  6.644027
  9368.398  9368.390  0.500  0.922621  110.121  43.7705  6.665133
  9370.606  9370.580  0.500  0.920978  110.066  43.8206  6.695873
  9372.781  9372.780  0.500  0.919517  110.015  43.8644  6.736819
  9375.021  9375.000  0.500  0.918111  109.966  43.9066  6.785634
  9377.263  9377.250  0.500  0.916925  109.924  43.9416  6.834410
  9379.521  9379.510  0.500  0.916012  109.858  43.9554  6.880572
  9381.810  9381.790  0.500  0.915146  109.818  43.9774  6.926120
  9384.093  9384.090  0.500  0.914575  109.758  43.9784  6.960142
  9386.434  9386.410  0.500  0.914160  109.698  43.9728  6.976654
  9388.757  9388.750  0.500  0.914048  109.644  43.9561  6.966619
  9391.119  9391.100  0.500  0.913898  109.589  43.9406  6.941532
  9393.498  9393.480  0.500  0.914044  109.527  43.9093  6.908572
  9395.878  9395.870  0.500  0.914217  109.493  43.888  6.882629
  9398.316  9398.290  0.500  0.914695  109.432  43.8427  6.857870
  9400.737  9400.720  0.500  0.914794  109.373  43.8146  6.837237
  9403.197  9403.170  0.500  0.914790  109.317  43.7923  6.821711
  9405.655  9405.650  0.500  0.914791  109.254  43.7672  6.801086
  9408.163  9408.140  0.500  0.914712  109.193  43.7462  6.773718
  9410.650  9410.650  0.500  0.914323  109.139  43.7418  6.743505
  9413.188  9413.170  0.500  0.913686  109.078  43.7451  6.715684
  9415.724  9415.720  0.500  0.912836  109.021  43.7593  6.699443
  9418.307  9418.290  0.500  0.912048  108.966  43.7719  6.695473
  9420.883  9420.870  0.500  0.911005  108.901  43.7912  6.710535
  9423.492  9423.480  0.500  0.909834  108.835  43.816  6.744513
  9426.122  9426.100  0.500  0.908687  108.782  43.845  6.792344
  9428.760  9428.750  0.500  0.907756  108.733  43.8659  6.842651
  9431.439  9431.410  0.500  0.906748  108.668  43.8839  6.883291
  9434.104  9434.090  0.500  0.906017  108.597  43.8873  6.910925
  9436.820  9436.790  0.500  0.905322  107.995  43.6746  6.897839
  9439.518  9439.510  0.500  0.904548  108.441  43.8887  6.944079
  9442.276  9442.250  0.500  0.903800  108.397  43.904  6.950247
  9445.021  9445.000  0.500  0.903318  108.336  43.9003  6.947120
  9447.805  9447.780  0.500  0.902716  108.284  43.9058  6.944320
  9450.579  9450.570  0.500  0.902069  108.22  43.9082  6.940488
  9453.413  9453.390  0.500  0.901569  108.151  43.9021  6.937925
  9456.233  9456.220  0.500  0.900824  108.077  43.9046  6.935520
  9459.098  9459.070  0.500  0.900192  108.011  43.9055  6.930831
  9461.968  9461.950  0.500  0.899454  107.937  43.9079  6.926626
  9464.863  9464.840  0.500  0.898655  107.884  43.9213  6.929068
  9467.772  9467.750  0.500  0.897730  107.809  43.9313  6.944421
  9470.694  9470.670  0.500  0.896870  107.746  43.9434  6.968959
  9473.641  9473.620  0.500  0.895891  107.677  43.9586  6.997048
  9476.613  9476.590  0.500  0.894897  107.594  43.9683  7.025748
  9479.591  9479.570  0.500  0.893852  107.523  43.9853  7.054994
  9482.609  9482.580  0.500  0.892877  107.458  44.0014  7.079226
  9485.630  9485.600  0.500  0.892021  107.393  44.0127  7.096285
  9488.668  9488.650  0.500  0.891177  107.313  44.0167  7.102843
  9491.735  9491.710  0.500  0.890419  107.245  44.0222  7.104491
  9494.832  9494.790  0.500  0.889835  107.168  44.0163  7.099709
  9497.876  9497.890  0.500  0.889356  107.083  44.0027  7.088914
  9501.000  9501.010  0.500  0.888725  107.007  43.9991  7.081176
  9504.138  9504.150  0.500  0.888173  106.915  43.9855  7.074323
  9507.290  9507.300  0.500  0.887757  106.844  43.9748  7.070975
  9510.475  9510.480  0.500  0.887231  106.767  43.966  7.067132
  9513.666  9513.670  0.500  0.886553  106.682  43.9608  7.063758
  9516.887  9516.890  0.500  0.885775  106.608  43.9647  7.066826
  9520.126  9520.120  0.500  0.884921  106.534  43.9717  7.074250
  9523.382  9523.370  0.500  0.884054  106.45  43.9748  7.085862
  9526.665  9526.650  0.500  0.883091  106.372  43.9852  7.098684
  9529.953  9529.940  0.500  0.882009  106.287  43.9973  7.110301
  9533.256  9533.250  0.500  0.881156  106.214  44.0049  7.124945
  9536.581  9536.570  0.500  0.880068  106.127  44.0167  7.142113
  9539.943  9539.920  0.500  0.879073  106.056  44.0309  7.164942
  9543.304  9543.290  0.500  0.878015  105.978  44.0454  7.187916
  9546.687  9546.670  0.500  0.877019  105.897  44.0552  7.213878
  9550.096  9550.080  0.500  0.876078  105.8  44.0565  7.240015
  9553.511  9553.500  0.500  0.874993  105.734  44.0767  7.260084
  9556.965  9556.950  0.500  0.874054  105.652  44.0841  7.268197
  9560.425  9560.410  0.500  0.873060  105.563  44.0906  7.276120
  9563.911  9563.890  0.500  0.872241  105.491  44.0969  7.283166
  9567.404  9567.390  0.500  0.871372  105.398  44.096  7.285390
  9570.927  9570.910  0.500  0.870488  105.315  44.1005  7.288334
  9574.465  9574.450  0.500  0.869617  105.224  44.1006  7.293107
  9578.021  9578.000  0.500  0.868645  105.134  44.1056  7.302717
  9581.595  9581.580  0.500  0.867723  105.051  44.1118  7.315783
  9585.205  9585.180  0.500  0.866683  104.963  44.1203  7.333364
  9588.805  9588.790  0.500  0.865677  104.869  44.1254  7.351921
  9592.443  9592.420  0.500  0.864703  104.787  44.1337  7.367542
  9596.097  9596.080  0.500  0.863749  104.697  44.1382  7.379228
  9599.761  9599.750  0.500  0.862748  104.607  44.1442  7.390465
  9603.464  9603.440  0.500  0.861694  104.516  44.1523  7.401414
  9607.165  9607.150  0.500  0.860667  104.422  44.1578  7.410354
  9610.898  9610.880  0.500  0.859680  104.34  44.167  7.418834
  9614.634  9614.620  0.500  0.858755  104.247  44.1684  7.427183
  9618.408  9618.390  0.500  0.857989  104.108  44.1432  7.434568
  9622.194  9622.180  0.500  0.857285  104.048  44.149  7.451615
  9626.010  9625.980  0.500  0.855946  103.956  44.1691  7.470124
  9629.822  9629.810  0.500  0.854972  103.87  44.1754  7.483137
  9633.681  9633.650  0.500  0.854003  103.653  44.1256  7.482654
  9637.527  9637.510  0.500  0.853170  103.662  44.1666  7.495625
  9641.416  9641.390  0.500  0.852163  103.591  44.1808  7.504706
  9645.313  9645.290  0.500  0.851107  103.469  44.1753  7.508100
  9649.236  9649.210  0.500  0.850318  103.172  44.0833  7.500943
  9653.180  9653.150  0.500  0.849226  103.293  44.1832  7.527361
  9657.134  9657.110  0.500  0.848019  103.202  44.1976  7.540910
  9661.100  9661.080  0.500  0.847041  103.099  44.1968  7.555817
  9665.094  9665.080  0.500  0.846002  102.984  44.193  7.569105
  9669.111  9669.090  0.500  0.844833  102.871  44.1962  7.583616
  9673.139  9673.130  0.500  0.843657  102.783  44.2106  7.600922
  9677.204  9677.180  0.500  0.842471  102.858  44.2953  7.632932
  9681.276  9681.250  0.500  0.841639  102.97  44.3803  7.666285
  9685.363  9685.340  0.500  0.840466  102.869  44.389  7.683010
  9689.471  9689.450  0.500  0.839380  102.772  44.3953  7.702761
  9693.590  9693.580  0.500  0.838151  102.673  44.4071  7.723637
  9697.765  9697.730  0.500  0.837111  102.562  44.4051  7.745222
  9701.903  9701.890  0.500  0.836232  102.458  44.3993  7.762790
  9706.102  9706.080  0.500  0.835085  102.339  44.3986  7.779369
  9710.309  9710.280  0.500  0.834366  101.091  43.8885  7.701796
  9714.540  9714.510  0.500  0.832739  102.18  44.4337  7.803344
  9718.787  9718.750  0.500  0.831645  102.06  44.4303  7.807779
  9723.026  9723.010  0.500  0.830679  101.945  44.4227  7.809552
  9727.321  9727.290  0.500  0.829388  101.828  44.4292  7.814234
  9731.608  9731.590  0.500  0.828325  101.743  44.4393  7.821016
  9735.936  9735.910  0.500  0.827184  101.637  44.4437  7.831018
  9740.271  9740.250  0.500  0.826058  101.534  44.4487  7.846240
  9744.628  9744.610  0.500  0.824934  101.41  44.4444  7.859077
  9749.021  9748.990  0.500  0.823840  101.293  44.4417  7.873533
  9753.393  9753.380  0.500  0.822629  101.192  44.4512  7.886184
  9757.823  9757.800  0.500  0.821391  101.067  44.4512  7.894296
  9762.253  9762.230  0.500  0.820360  100.971  44.455  7.903820
  9766.703  9766.680  0.500  0.819281  100.842  44.4461  7.904254
  9771.174  9771.150  0.500  0.818140  100.615  44.3964  7.914430
  9775.662  9775.640  0.500  0.817110  100.661  44.4627  7.943128
  9780.187  9780.150  0.500  0.815890  100.5  44.4458  7.957988
  9784.712  9784.680  0.500  0.815381  100.081  44.2831  7.954520
  9789.262  9789.230  0.500  0.813879  100.277  44.4365  8.004951