File: xdidata/Pb/Pb-L1-Angelsite.xdi
# XDI/1.0 BlueSky/1.10.0 BMM/2023-1.0-py310-tiled
# Beamline.name: BMM (06BM) -- Beamline for Materials Measurement (NIST)
# Beamline.xray_source: NSLS-II three-pole wiggler
# Beamline.collimation: paraboloid mirror, 5 nm Rh on 30 nm Pt
# Beamline.focusing: not in use
# Beamline.harmonic_rejection: flat mirror, Pt stripe, pitch = 7.0 mrad relative to beam
# Beamline.software: Bluesky 1.10.0, Ophyd 1.7.0, DataBroker 2.0.0b13, Python 3.10.8, 2023-1.0-py310-tiled
# Detector.I0: 10 cm N2
# Detector.I1: 25 cm N2
# Detector.I2: 25 cm N2
# Element.symbol: Pb
# Element.edge: L1
# Element.reference: Pb
# Element.reference_material: Pb foil
# Facility.name: NSLS-II
# Facility.energy: 3.0
# Facility.current: 399.9
# Facility.mode: top-off
# Facility.GUP: 301027
# Facility.SAF: 310583
# Facility.cycle: 2023-2
# Mono.name: Si(111)
# Mono.d_spacing: 3.13519
# Mono.encoder_resolution: 0.0000050 deg/ct
# Mono.angle_offset: 16.0754 deg
# Mono.scan_mode: pseudo channel cut
# Mono.scan_type: step
# Mono.direction: forward in energy
# Sample.name: PbSO4
# Sample.prep: powder on tape
# Sample.x: 143.785 mm
# Sample.y: 114.695 mm
# Sample.SDD_position: 205.000 mm
# Scan.experimenters: Bruce Ravel
# Scan.edge_energy: 15860.8
# Scan.start_time: 2023-06-23T18:21:37
# Scan.end_time: 2023-06-23T18:29:49
# Scan.transient_id: 84931
# Scan.uid: e91c4bc7-d325-42c7-80f0-5a92df860830
# Scan.plot_hint: ln(I0/It)  --  ln($5/$6)
# Column.1: energy eV
# Column.2: requested_energy eV
# Column.3: measurement_time seconds
# Column.4: xmu
# Column.5: I0 nA
# Column.6: It nA
# Column.7: Ir nA
# ///////////
# BMM standards collection
# -----------
# energy  requested_energy  measurement_time  xmu  I0  It  Ir
  15660.763  15660.800  0.500  -0.003238  24.7613  24.8416  6.957018
  15670.830  15670.800  0.500  -0.004294  24.6156  24.7215  6.936077
  15680.890  15680.800  0.500  -0.005330  24.6161  24.7476  6.956201
  15690.908  15690.800  0.500  -0.006431  24.582  24.7406  6.966492
  15700.853  15700.800  0.500  -0.007428  24.5174  24.7002  6.967508
  15710.832  15710.800  0.500  -0.008383  24.4465  24.6523  6.965982
  15720.911  15720.800  0.500  -0.009487  24.3934  24.6259  6.970099
  15730.905  15730.800  0.500  -0.010370  24.3344  24.5881  6.969488
  15740.825  15740.800  0.500  -0.011229  24.2825  24.5567  6.973734
  15750.867  15750.800  0.500  -0.012121  24.2142  24.5095  6.968888
  15760.921  15760.800  0.500  -0.013106  24.1524  24.471  6.970597
  15770.738  15770.800  0.500  -0.014029  24.099  24.4395  6.970455
  15780.785  15780.800  0.500  -0.014867  24.0418  24.4019  6.967845
  15790.791  15790.800  0.500  -0.015401  23.9845  24.3567  6.962171
  15800.798  15800.800  0.500  -0.016041  23.9261  24.313  6.955492
  15810.775  15810.800  0.500  -0.016418  23.8619  24.2569  6.944298
  15820.808  15820.800  0.500  -0.016425  23.8107  24.205  6.923190
  15830.810  15830.800  0.500  -0.015800  23.7453  24.1235  6.891207
  15832.741  15832.800  0.500  -0.015568  23.7316  24.1039  6.879161
  15834.739  15834.800  0.500  -0.015229  23.7223  24.0864  6.868395
  15836.760  15836.800  0.500  -0.014758  23.7128  24.0653  6.856536
  15838.748  15838.800  0.500  -0.014159  23.7022  24.0402  6.839392
  15840.780  15840.800  0.500  -0.013223  23.6913  24.0066  6.818861
  15842.759  15842.800  0.500  -0.012358  23.6731  23.9675  6.795093
  15844.737  15844.800  0.500  -0.011145  23.6584  23.9235  6.765030
  15846.760  15846.800  0.500  -0.009503  23.6428  23.8685  6.725448
  15848.762  15848.800  0.500  -0.007167  23.6375  23.8075  6.677330
  15850.775  15850.800  0.500  -0.004119  23.6099  23.7073  6.605245
  15851.050  15851.100  0.500  -0.003447  23.6099  23.6914  6.594364
  15851.325  15851.400  0.500  -0.003019  23.6044  23.6758  6.582592
  15851.622  15851.700  0.500  -0.002423  23.6047  23.662  6.570383
  15851.952  15852.000  0.500  -0.001682  23.6061  23.6458  6.556016
  15852.249  15852.300  0.500  -0.000961  23.605  23.6277  6.543010
  15852.535  15852.600  0.500  -0.000269  23.602  23.6084  6.529552
  15852.854  15852.900  0.500  0.000625  23.603  23.5882  6.513327
  15853.163  15853.200  0.500  0.001328  23.5927  23.5614  6.494731
  15853.449  15853.500  0.500  0.002215  23.6014  23.5492  6.481226
  15853.746  15853.800  0.500  0.002937  23.602  23.5328  6.464532
  15854.065  15854.100  0.500  0.003933  23.5946  23.502  6.442415
  15854.362  15854.400  0.500  0.005113  23.6062  23.4858  6.426328
  15854.637  15854.700  0.500  0.005978  23.5995  23.4588  6.407602
  15854.946  15855.000  0.500  0.007022  23.5991  23.434  6.385875
  15855.265  15855.300  0.500  0.008134  23.5967  23.4055  6.361430
  15855.540  15855.600  0.500  0.009510  23.5974  23.3741  6.341124
  15855.848  15855.900  0.500  0.010785  23.6002  23.3471  6.315678
  15856.157  15856.200  0.500  0.012473  23.5974  23.3049  6.285629
  15856.465  15856.500  0.500  0.013852  23.5945  23.2699  6.256626
  15856.751  15856.800  0.500  0.015491  23.5924  23.2297  6.229703
  15857.048  15857.100  0.500  0.017055  23.5916  23.1927  6.198651
  15857.346  15857.400  0.500  0.018810  23.5862  23.1467  6.162654
  15857.643  15857.700  0.500  0.020675  23.5782  23.0957  6.130286
  15857.940  15858.000  0.500  0.022730  23.579  23.0491  6.093748
  15858.282  15858.300  0.500  0.025063  23.5754  22.9919  6.051131
  15858.568  15858.600  0.500  0.026969  23.5709  22.9437  6.014451
  15858.854  15858.900  0.500  0.029344  23.5708  22.8892  5.978197
  15859.163  15859.200  0.500  0.031944  23.5721  22.8311  5.933771
  15859.482  15859.500  0.500  0.034275  23.562  22.7681  5.892664
  15859.758  15859.800  0.500  0.036815  23.5623  22.7106  5.852162
  15860.099  15860.100  0.500  0.039908  23.568  22.646  5.806186
  15860.396  15860.400  0.500  0.042557  23.5638  22.582  5.765482
  15860.683  15860.700  0.500  0.045160  23.5624  22.522  5.723774
  15860.991  15861.000  0.500  0.047796  23.5581  22.4586  5.680925
  15861.278  15861.300  0.500  0.050375  23.5563  22.3991  5.643493
  15861.586  15861.600  0.500  0.052994  23.5528  22.3372  5.603602
  15861.906  15861.900  0.500  0.055605  23.5521  22.2782  5.564491
  15862.192  15862.200  0.500  0.057720  23.5509  22.23  5.534858
  15862.490  15862.500  0.500  0.059890  23.5431  22.1745  5.502873
  15862.787  15862.800  0.500  0.062152  23.5486  22.1296  5.473724
  15863.096  15863.100  0.500  0.063806  23.6319  22.1712  5.467833
  15863.393  15863.400  0.500  0.065349  23.6279  22.1332  5.445704
  15863.713  15863.700  0.500  0.066724  23.6258  22.1008  5.425204
  15864.021  15864.000  0.500  0.067987  23.6232  22.0705  5.409342
  15864.308  15864.300  0.500  0.068666  23.6233  22.0557  5.396579
  15864.605  15864.600  0.500  0.069247  23.6188  22.0386  5.386014
  15864.881  15864.900  0.500  0.069456  23.6223  22.0372  5.380770
  15865.179  15865.200  0.500  0.069426  23.6172  22.0332  5.378552
  15865.498  15865.500  0.500  0.069022  23.6123  22.0375  5.377767
  15865.785  15865.800  0.500  0.068568  23.6172  22.0521  5.381421
  15866.082  15866.100  0.500  0.067699  23.6142  22.0685  5.386309
  15866.369  15866.400  0.500  0.066600  23.6103  22.089  5.394022
  15866.656  15866.700  0.500  0.065317  23.6039  22.1115  5.402197
  15866.975  15867.000  0.500  0.063894  23.6071  22.1459  5.417110
  15867.273  15867.300  0.500  0.062180  23.604  22.181  5.429075
  15867.571  15867.600  0.500  0.060737  23.6022  22.2113  5.442278
  15867.890  15867.900  0.500  0.058762  23.6005  22.2537  5.458598
  15868.188  15868.200  0.500  0.057072  23.5946  22.2858  5.472818
  15868.497  15868.500  0.500  0.055337  23.5993  22.3288  5.490495
  15868.795  15868.800  0.500  0.053114  23.5942  22.3737  5.508264
  15869.081  15869.100  0.500  0.051225  23.5915  22.4134  5.522569
  15869.401  15869.400  0.500  0.049429  23.5819  22.4446  5.538260
  15869.699  15869.700  0.500  0.047765  23.5851  22.485  5.554348
  15869.986  15870.000  0.500  0.046022  23.5813  22.5206  5.569164
  15870.317  15870.300  0.500  0.044472  23.5813  22.5556  5.585021
  15870.625  15870.600  0.500  0.043092  23.582  22.5874  5.596541
  15870.912  15870.900  0.500  0.041822  23.5766  22.6109  5.607421
  15871.210  15871.200  0.500  0.040367  23.5767  22.6439  5.619470
  15871.508  15871.500  0.500  0.039161  23.5706  22.6654  5.627980
  15871.795  15871.800  0.500  0.038158  23.5695  22.6871  5.637574
  15872.115  15872.100  0.500  0.037082  23.5653  22.7075  5.647138
  15872.412  15872.400  0.500  0.036026  23.5657  22.7318  5.653541
  15872.699  15872.700  0.500  0.035575  23.5602  22.7368  5.658647
  15873.008  15873.000  0.500  0.034713  23.5613  22.7575  5.664965
  15873.306  15873.300  0.500  0.034149  23.555  22.7642  5.668239
  15873.582  15873.600  0.500  0.033702  23.5511  22.7706  5.670415
  15873.913  15873.900  0.500  0.033130  23.5542  22.7866  5.674472
  15874.211  15874.200  0.500  0.032672  23.5448  22.788  5.675008
  15874.487  15874.500  0.500  0.032366  23.5446  22.7948  5.677709
  15874.785  15874.800  0.500  0.032239  23.5446  22.7976  5.678572
  15875.094  15875.100  0.500  0.031817  23.5431  22.8058  5.678833
  15875.381  15875.400  0.500  0.031677  23.5375  22.8036  5.677372
  15875.701  15875.700  0.500  0.031429  23.5387  22.8104  5.677476
  15875.988  15876.000  0.500  0.031329  23.5366  22.8106  5.676958
  15876.264  15876.300  0.500  0.031272  23.5345  22.8099  5.674837
  15876.573  15876.600  0.500  0.031214  23.5348  22.8116  5.674033
  15876.893  15876.900  0.500  0.031182  23.5322  22.8098  5.673300
  15877.158  15877.200  0.500  0.031122  23.5239  22.803  5.669489
  15877.489  15877.500  0.500  0.031424  23.5305  22.8026  5.667219
  15877.798  15877.800  0.500  0.031406  23.5288  22.8013  5.665279
  15878.085  15878.100  0.500  0.031474  23.5206  22.7919  5.662407
  15878.394  15878.400  0.500  0.031734  23.5228  22.7881  5.659994
  15878.703  15878.700  0.500  0.031805  23.522  22.7857  5.658390
  15878.968  15879.000  0.500  0.031949  23.5182  22.7787  5.655612
  15879.311  15879.300  0.500  0.032187  23.517  22.7721  5.653420
  15879.620  15879.600  0.500  0.032307  23.5106  22.7632  5.650066
  15879.896  15879.900  0.500  0.032430  23.5103  22.7601  5.649101
  15880.216  15880.200  0.500  0.032725  23.51  22.7531  5.647746
  15880.514  15880.500  0.500  0.032852  23.5007  22.7412  5.644181
  15880.790  15880.800  0.500  0.033001  23.5054  22.7423  5.644305
  15881.111  15881.100  0.500  0.033266  23.5029  22.7339  5.642035
  15881.420  15881.400  0.500  0.033519  23.4972  22.7227  5.639656
  15881.707  15881.700  0.500  0.033817  23.5016  22.7201  5.641218
  15882.016  15882.000  0.500  0.033722  23.4952  22.7161  5.639552
  15882.292  15882.300  0.500  0.034120  23.4929  22.7048  5.638733
  15882.602  15882.600  0.500  0.034327  23.4872  22.6946  5.637592
  15882.933  15882.900  0.500  0.034707  23.4831  22.682  5.635861
  15883.220  15883.200  0.500  0.034855  23.4863  22.6818  5.638569
  15883.486  15883.500  0.500  0.035154  23.4884  22.677  5.640322
  15883.806  15883.800  0.500  0.035348  23.4879  22.6721  5.638973
  15884.104  15884.100  0.500  0.035591  23.4846  22.6634  5.640521
  15884.403  15884.400  0.500  0.035785  23.4794  22.6541  5.639150
  15884.701  15884.700  0.500  0.036030  23.4742  22.6435  5.640811
  15884.999  15885.000  0.500  0.036277  23.4756  22.6393  5.642174
  15885.286  15885.300  0.500  0.036408  23.474  22.6347  5.642774
  15885.596  15885.600  0.500  0.036474  23.4723  22.6316  5.643238
  15885.762  15885.800  0.500  0.036621  23.4711  22.6271  5.642228
  15886.801  15886.790  0.500  0.037367  23.4661  22.6054  5.644709
  15887.795  15887.790  0.500  0.037824  23.4546  22.584  5.646053
  15888.845  15888.810  0.500  0.038297  23.4545  22.5733  5.646797
  15889.907  15889.860  0.500  0.038363  23.4492  22.5666  5.648260
  15890.946  15890.920  0.500  0.038279  23.4364  22.5563  5.647888
  15892.019  15892.000  0.500  0.038386  23.4356  22.553  5.648168
  15893.125  15893.100  0.500  0.038142  23.4309  22.554  5.646216
  15894.253  15894.220  0.500  0.037718  23.4269  22.5598  5.644442
  15895.371  15895.360  0.500  0.037411  23.4164  22.5566  5.640480
  15896.511  15896.510  0.500  0.037165  23.4102  22.5561  5.635580
  15897.650  15897.690  0.500  0.037145  23.4036  22.5502  5.631563
  15898.868  15898.880  0.500  0.036961  23.3965  22.5475  5.626377
  15900.152  15900.100  0.500  0.036537  23.3892  22.55  5.620701
  15901.337  15901.330  0.500  0.036218  23.3772  22.5457  5.616169
  15902.610  15902.580  0.500  0.036125  23.3714  22.5422  5.614042
  15903.884  15903.850  0.500  0.035858  23.3615  22.5387  5.614190
  15905.158  15905.140  0.500  0.035422  23.3514  22.5387  5.615608
  15906.465  15906.450  0.500  0.034960  23.3423  22.5403  5.619903
  15907.762  15907.780  0.500  0.034373  23.328  22.5398  5.625228
  15909.136  15909.130  0.500  0.033796  23.3078  22.5333  5.629116
  15910.533  15910.500  0.500  0.033363  23.2478  22.485  5.624681
  15911.896  15911.880  0.500  0.032940  23.0935  22.3452  5.593113
  15913.327  15913.290  0.500  0.032329  23.1304  22.3946  5.613324
  15914.768  15914.710  0.500  0.032327  23.2631  22.5231  5.650892
  15916.155  15916.150  0.500  0.032254  23.3016  22.5621  5.661588
  15917.620  15917.610  0.500  0.032125  23.2917  22.5553  5.661948
  15919.084  15919.090  0.500  0.032177  23.2846  22.5473  5.661214
  15920.549  15920.590  0.500  0.032032  23.2754  22.5416  5.657431
  15922.148  15922.110  0.500  0.032032  23.2625  22.5292  5.653899
  15923.669  15923.650  0.500  0.032163  23.2546  22.5185  5.649756
  15925.257  15925.210  0.500  0.032239  23.2456  22.5081  5.648628
  15926.801  15926.780  0.500  0.032116  23.2361  22.5017  5.645596
  15928.412  15928.380  0.500  0.031981  23.223  22.4921  5.641154
  15929.979  15929.990  0.500  0.031966  23.2079  22.4778  5.639699
  15931.624  15931.630  0.500  0.031704  23.2037  22.4795  5.641209
  15933.269  15933.280  0.500  0.031773  23.19  22.4648  5.640062
  15934.959  15934.950  0.500  0.031648  23.1816  22.4594  5.640027
  15936.649  15936.640  0.500  0.031664  23.1681  22.446  5.640910
  15938.351  15938.350  0.500  0.031547  23.1591  22.4399  5.642039
  15940.087  15940.080  0.500  0.031675  23.1516  22.4298  5.644782
  15941.845  15941.830  0.500  0.031621  23.1421  22.4217  5.645613
  15943.548  15943.590  0.500  0.031438  23.1261  22.4104  5.647418
  15945.385  15945.380  0.500  0.031207  23.109  22.399  5.647741
  15947.167  15947.180  0.500  0.031090  23.0815  22.3749  5.645396
  15949.016  15949.010  0.500  0.030729  22.9445  22.2501  5.614713
  15950.865  15950.850  0.500  0.030545  22.897  22.2082  5.608820
  15952.704  15952.710  0.500  0.030161  23.0579  22.3728  5.650614
  15954.599  15954.590  0.500  0.029743  23.0657  22.3898  5.655906
  15956.427  15956.490  0.500  0.029416  23.0606  22.3922  5.658557
  15958.379  15958.410  0.500  0.028858  23.0451  22.3896  5.658265
  15960.298  15960.350  0.500  0.028415  23.0329  22.3876  5.658940
  15962.272  15962.310  0.500  0.027907  23.0205  22.387  5.661224
  15964.236  15964.280  0.500  0.027581  23.0116  22.3856  5.661331
  15966.212  15966.280  0.500  0.027325  22.9951  22.3753  5.661827
  15968.244  15968.290  0.500  0.026991  22.9848  22.3727  5.664810
  15970.567  15970.320  0.500  0.026784  22.9582  22.3515  5.661800
  15972.277  15972.380  0.500  0.026558  22.9511  22.3496  5.662296
  15974.444  15974.450  0.500  0.026590  22.9325  22.3307  5.662059
  15976.423  15976.540  0.500  0.026617  22.9196  22.3176  5.662343
  15978.715  15978.650  0.500  0.026264  22.9046  22.3108  5.661119
  15980.839  15980.780  0.500  0.026285  22.889  22.2952  5.661273
  15983.021  15982.920  0.500  0.026044  22.8573  22.2697  5.657717
  15985.136  15985.090  0.500  0.026032  22.7047  22.1213  5.622198
  15987.329  15987.280  0.500  0.025464  22.7318  22.1602  5.635550
  15989.512  15989.480  0.500  0.025311  22.8551  22.2839  5.669137
  15991.763  15991.700  0.500  0.025088  22.8441  22.2781  5.671031
  15994.026  15993.950  0.500  0.024840  22.827  22.2669  5.671400
  15996.278  15996.210  0.500  0.024619  22.8909  22.3342  5.691533
  15998.565  15998.490  0.500  0.024467  22.8864  22.3332  5.693262
  16000.818  16000.790  0.500  0.024247  22.8698  22.322  5.694093
  16003.128  16003.110  0.500  0.023955  22.8537  22.3128  5.694202
  16005.462  16005.450  0.500  0.023667  22.8412  22.307  5.694976
  16007.852  16007.800  0.500  0.023334  22.8285  22.302  5.696223
  16010.209  16010.180  0.500  0.023052  22.8131  22.2932  5.697940
  16012.612  16012.570  0.500  0.022726  22.7976  22.2853  5.699626
  16015.038  16014.990  0.500  0.022416  22.7864  22.2813  5.700892
  16017.487  16017.420  0.500  0.022204  22.7685  22.2685  5.702223
  16019.937  16019.870  0.500  0.021717  22.7408  22.2522  5.698045
  16022.387  16022.350  0.500  0.021582  22.7157  22.2307  5.697257
  16024.839  16024.840  0.500  0.021320  22.4971  22.0226  5.645604
  16027.358  16027.350  0.500  0.020872  22.6153  22.1482  5.682952
  16029.890  16029.870  0.500  0.020633  22.6547  22.192  5.696881
  16032.445  16032.420  0.500  0.020324  22.6719  22.2157  5.705386
  16035.024  16034.990  0.500  0.020141  22.6751  22.223  5.710179
  16037.625  16037.570  0.500  0.019738  22.6623  22.2194  5.712407
  16040.228  16040.180  0.500  0.019345  22.6437  22.2099  5.711322
  16042.831  16042.800  0.500  0.019124  22.6283  22.1996  5.712245
  16045.470  16045.450  0.500  0.018878  22.6135  22.1906  5.712369
  16048.120  16048.110  0.500  0.018468  22.5915  22.1781  5.712259
  16050.805  16050.790  0.500  0.018386  22.5857  22.1742  5.714549
  16053.502  16053.490  0.500  0.018008  22.5684  22.1656  5.715500
  16056.234  16056.210  0.500  0.017788  22.5554  22.1577  5.716828
  16059.001  16058.950  0.500  0.017498  22.5371  22.1462  5.717981
  16061.735  16061.700  0.500  0.017128  22.5243  22.1418  5.719001
  16064.492  16064.480  0.500  0.016813  22.5055  22.1302  5.718660
  16067.296  16067.270  0.500  0.016654  22.4884  22.117  5.720066
  16070.078  16070.090  0.500  0.016322  22.469  22.1052  5.720121
  16072.918  16072.920  0.500  0.016055  22.4464  22.0889  5.719092
  16075.792  16075.770  0.500  0.015826  22.4  22.0482  5.712303
  16078.668  16078.650  0.500  0.015452  22.3931  22.0497  5.715228
  16081.578  16081.540  0.500  0.015048  22.4034  22.0688  5.723255
  16084.467  16084.450  0.500  0.014990  22.3938  22.0606  5.724473
  16087.414  16087.370  0.500  0.014444  22.3674  22.0466  5.723289
  16090.305  16090.320  0.500  0.014194  22.3539  22.0388  5.724422
  16093.311  16093.290  0.500  0.013791  22.3383  22.0323  5.725887
  16096.272  16096.270  0.500  0.013524  22.3213  22.0215  5.726833
  16099.314  16099.280  0.500  0.013043  22.2888  22  5.724905
  16102.334  16102.300  0.500  0.012888  22.2827  21.9973  5.726472
  16105.367  16105.350  0.500  0.012409  22.2656  21.991  5.729030
  16108.424  16108.410  0.500  0.012122  22.2484  21.9803  5.730978
  16111.493  16111.490  0.500  0.011797  22.232  21.9713  5.731681
  16114.586  16114.590  0.500  0.011528  22.2135  21.9588  5.732699
  16117.737  16117.710  0.500  0.011042  22.1924  21.9487  5.733631
  16120.867  16120.850  0.500  0.010800  22.1636  21.9256  5.732751
  16124.009  16124.000  0.500  0.010494  22.1038  21.8731  5.721817
  16127.164  16127.180  0.500  0.010051  22.1391  21.9177  5.735754
  16130.343  16130.370  0.500  0.009519  22.119  21.9095  5.739860
  16133.581  16133.590  0.500  0.009408  22.106  21.899  5.739845
  16136.842  16136.820  0.500  0.009080  22.0911  21.8914  5.743076
  16140.127  16140.070  0.500  0.008595  22.0615  21.8727  5.740217
  16143.357  16143.350  0.500  0.008295  22.0359  21.8538  5.739833
  16146.611  16146.640  0.500  0.007964  21.9995  21.825  5.736958
  16149.935  16149.950  0.500  0.007482  22.005  21.841  5.744115
  16153.306  16153.270  0.500  0.007067  21.982  21.8272  5.742993
  16156.656  16156.620  0.500  0.006849  21.969  21.819  5.745349
  16159.984  16159.990  0.500  0.006505  21.9477  21.8054  5.746244
  16163.370  16163.370  0.500  0.006126  21.9302  21.7962  5.746662
  16166.758  16166.780  0.500  0.005711  21.9098  21.785  5.748950
  16170.216  16170.200  0.500  0.005254  21.8842  21.7696  5.748842
  16173.687  16173.650  0.500  0.005160  21.8119  21.6996  5.736170
  16177.114  16177.110  0.500  0.004485  21.8498  21.752  5.753165
  16180.588  16180.590  0.500  0.004279  21.8295  21.7363  5.753661
  16184.075  16184.090  0.500  0.003885  21.8178  21.7332  5.754912
  16187.644  16187.610  0.500  0.003351  21.7891  21.7162  5.755172
  16191.192  16191.150  0.500  0.003013  21.7666  21.7012  5.755791
  16194.718  16194.700  0.500  0.002766  21.7459  21.6858  5.756193
  16198.257  16198.280  0.500  0.002322  21.7244  21.674  5.757616
  16201.867  16201.880  0.500  0.001821  21.6991  21.6596  5.757011
  16205.524  16205.490  0.500  0.001461  21.6817  21.6501  5.759188
  16209.149  16209.120  0.500  0.001019  21.6542  21.6321  5.758530
  16212.764  16212.780  0.500  0.000637  21.6315  21.6177  5.759242
  16216.438  16216.450  0.500  0.000454  21.6152  21.6054  5.759430
  16220.148  16220.140  0.500  -0.000169  21.5896  21.5933  5.760412
  16223.871  16223.850  0.500  -0.000543  21.5595  21.5712  5.759348
  16227.619  16227.580  0.500  -0.000966  21.5357  21.5565  5.759828
  16231.334  16231.320  0.500  -0.001389  21.5064  21.5363  5.758895
  16235.098  16235.090  0.500  -0.001827  21.4466  21.4858  5.748739
  16238.932  16238.880  0.500  -0.002224  21.4643  21.5121  5.760639
  16242.710  16242.680  0.500  -0.002770  21.4486  21.5081  5.763520
  16246.525  16246.510  0.500  -0.003066  21.4169  21.4827  5.760862
  16250.365  16250.350  0.500  -0.003356  21.3974  21.4693  5.763294
  16254.195  16254.210  0.500  -0.003715  21.3352  21.4146  5.752989
  16258.131  16258.090  0.500  -0.004184  21.3439  21.4334  5.763273
  16262.011  16261.990  0.500  -0.004683  21.3198  21.4199  5.763894
  16265.927  16265.910  0.500  -0.005115  21.2959  21.4052  5.764001
  16269.834  16269.850  0.500  -0.005431  21.2688  21.3846  5.761491
  16273.836  16273.810  0.500  -0.005873  21.2337  21.3587  5.760736
  16277.816  16277.780  0.500  -0.006372  21.2166  21.3522  5.761920
  16281.787  16281.780  0.500  -0.006681  21.1924  21.3345  5.763087
  16285.771  16285.790  0.500  -0.007330  21.1573  21.3129  5.760291
  16289.874  16289.830  0.500  -0.007702  21.1409  21.3044  5.761489
  16293.920  16293.880  0.500  -0.008048  21.1084  21.279  5.760747
  16297.992  16297.950  0.500  -0.008710  21.0944  21.2789  5.764999
  16302.066  16302.040  0.500  -0.008936  21.0671  21.2562  5.764181
  16306.165  16306.150  0.500  -0.009418  20.9768  21.1753  5.746147
  16310.324  16310.280  0.500  -0.009921  20.9986  21.2079  5.760311
  16314.451  16314.430  0.500  -0.010345  20.9938  21.2121  5.764954
  16318.591  16318.590  0.500  -0.010727  20.9571  21.1831  5.763206
  16322.769  16322.780  0.500  -0.011252  20.9366  21.1735  5.765614
  16327.007  16326.980  0.500  -0.011504  20.9037  21.1455  5.762344
  16331.236  16331.210  0.500  -0.011980  20.8877  21.1395  5.764192
  16335.443  16335.450  0.500  -0.012384  20.8639  21.1239  5.763990
  16339.723  16339.710  0.500  -0.012779  20.8288  21.0967  5.762648
  16344.017  16343.990  0.500  -0.013504  20.8013  21.0841  5.763968
  16348.313  16348.290  0.500  -0.013957  20.7832  21.0753  5.765572
  16352.646  16352.610  0.500  -0.014081  20.7541  21.0484  5.764871
  16356.935  16356.950  0.500  -0.014664  20.7324  21.0386  5.766005
  16361.309  16361.310  0.500  -0.015277  20.7052  21.0239  5.766607
  16365.719  16365.690  0.500  -0.015572  20.6825  21.0071  5.768173
  16370.109  16370.080  0.500  -0.016083  20.6386  20.9732  5.762510
  16374.513  16374.500  0.500  -0.016449  20.5682  20.9093  5.751609
  16378.966  16378.930  0.500  -0.016894  20.6077  20.9588  5.768312
  16383.422  16383.380  0.500  -0.017296  20.5793  20.9383  5.768988
  16387.845  16387.850  0.500  -0.017902  20.5498  20.921  5.767795
  16392.352  16392.340  0.500  -0.018392  20.5155  20.8963  5.765376
  16396.874  16396.850  0.500  -0.018837  20.4974  20.8872  5.768342
  16401.434  16401.380  0.500  -0.019275  20.4447  20.8426  5.762733
  16405.938  16405.930  0.500  -0.019687  20.4417  20.8481  5.769176
  16410.503  16410.500  0.500  -0.020124  20.4287  20.844  5.772441
  16415.117  16415.080  0.500  -0.020740  20.3975  20.825  5.771269
  16419.711  16419.690  0.500  -0.021221  20.3596  20.7963  5.768735
  16424.284  16424.310  0.500  -0.021761  20.3403  20.7878  5.772178
  16428.965  16428.960  0.500  -0.022155  20.3144  20.7695  5.771738
  16433.638  16433.620  0.500  -0.022548  20.2877  20.7503  5.772192
  16438.301  16438.300  0.500  -0.022967  20.2359  20.706  5.765420
  16443.026  16443.000  0.500  -0.023462  20.1875  20.6667  5.757915
  16447.742  16447.720  0.500  -0.024072  20.2093  20.7017  5.774471
  16452.520  16452.460  0.500  -0.024591  20.19  20.6927  5.778620
  16457.206  16457.210  0.500  -0.025084  20.1573  20.6693  5.774873
  16461.990  16461.990  0.500  -0.025781  20.1207  20.6461  5.774700
  16466.824  16466.790  0.500  -0.026014  20.1102  20.6402  5.777803
  16471.649  16471.600  0.500  -0.026456  20.0683  20.6063  5.774377
  16476.429  16476.430  0.500  -0.026989  20.0491  20.5976  5.776233
  16481.331  16481.290  0.500  -0.027416  20.0168  20.5732  5.776196
  16486.201  16486.160  0.500  -0.028186  19.9853  20.5566  5.777119
  16491.085  16491.050  0.500  -0.028456  19.9657  20.542  5.777326
  16495.972  16495.960  0.500  -0.029133  19.9408  20.5302  5.778265
  16500.945  16500.890  0.500  -0.029477  19.9073  20.5029  5.775513
  16505.874  16505.830  0.500  -0.029988  19.8831  20.4884  5.777770
  16510.829  16510.800  0.500  -0.030395  19.8642  20.4772  5.780917
  16515.836  16515.790  0.500  -0.031007  19.8335  20.4581  5.780335
  16520.833  16520.790  0.500  -0.031409  19.8038  20.4357  5.779512
  16525.834  16525.820  0.500  -0.032050  19.774  20.418  5.779522
  16530.849  16530.860  0.500  -0.032553  19.7437  20.397  5.779221
  16535.928  16535.920  0.500  -0.033027  19.7197  20.3819  5.780641
  16541.045  16541.000  0.500  -0.033310  19.6962  20.3633  5.781153
  16546.082  16546.100  0.500  -0.034018  19.636  20.3155  5.771567
  16551.242  16551.220  0.500  -0.034456  19.6381  20.3265  5.781056
  16556.393  16556.360  0.500  -0.035032  19.617  20.3164  5.785022
  16561.560  16561.520  0.500  -0.035590  19.5759  20.2852  5.781264
  16566.729  16566.700  0.500  -0.036018  19.557  20.2743  5.784662
  16571.963  16571.890  0.500  -0.036651  19.5178  20.2464  5.782200
  16577.163  16577.110  0.500  -0.037238  19.4861  20.2254  5.781391
  16582.342  16582.340  0.500  -0.037669  19.4569  20.2038  5.779888
  16587.634  16587.590  0.500  -0.037946  19.45  20.2022  5.786066
  16592.904  16592.860  0.500  -0.038547  19.4115  20.1744  5.782783
  16598.214  16598.150  0.500  -0.039097  19.3886  20.1617  5.784595
  16603.467  16603.460  0.500  -0.039612  19.354  20.1361  5.783182
  16608.833  16608.790  0.500  -0.040217  19.3323  20.1256  5.785175
  16614.177  16614.140  0.500  -0.040850  19.2926  20.097  5.783279
  16619.562  16619.510  0.500  -0.041148  19.2564  20.0653  5.780595
  16624.938  16624.890  0.500  -0.041810  19.2433  20.0649  5.786881
  16630.365  16630.300  0.500  -0.042197  19.2156  20.0438  5.785601
  16635.809  16635.720  0.500  -0.042912  19.1791  20.02  5.783492
  16641.171  16641.170  0.500  -0.043366  19.1551  20.004  5.784024
  16646.646  16646.630  0.500  -0.043919  19.1206  19.9791  5.784240
  16652.149  16652.110  0.500  -0.044424  19.0918  19.9591  5.783252
  16657.643  16657.610  0.500  -0.044979  19.0545  19.9311  5.781892
  16663.177  16663.130  0.500  -0.045642  19.0216  19.9099  5.779253
  16668.728  16668.670  0.500  -0.046118  18.9882  19.8844  5.777681
  16674.245  16674.220  0.500  -0.046699  18.9619  19.8684  5.778510
  16679.827  16679.800  0.500  -0.047204  18.9213  19.8358  5.776437
  16685.438  16685.400  0.500  -0.047642  18.8805  19.8018  5.772094
  16691.089  16691.010  0.500  -0.048308  18.8478  19.7807  5.771314
  16696.682  16696.650  0.500  -0.048770  18.8009  19.7405  5.765921
  16702.353  16702.300  0.500  -0.049324  18.7297  19.6766  5.753119
  16707.991  16707.970  0.500  -0.049909  18.603  19.555  5.723733
  16713.718  16713.660  0.500  -0.050238  17.9463  18.871  5.525105