File: xdidata/Pb/Pb-L1-Massicot.xdi
# XDI/1.0 BlueSky/1.10.0 BMM/2023-1.0-py310-tiled
# Beamline.name: BMM (06BM) -- Beamline for Materials Measurement (NIST)
# Beamline.xray_source: NSLS-II three-pole wiggler
# Beamline.collimation: paraboloid mirror, 5 nm Rh on 30 nm Pt
# Beamline.focusing: not in use
# Beamline.harmonic_rejection: flat mirror, Pt stripe, pitch = 7.0 mrad relative to beam
# Beamline.software: Bluesky 1.10.0, Ophyd 1.7.0, DataBroker 2.0.0b13, Python 3.10.8, 2023-1.0-py310-tiled
# Detector.I0: 10 cm N2
# Detector.I1: 25 cm N2
# Detector.I2: 25 cm N2
# Element.symbol: Pb
# Element.edge: L1
# Element.reference: Pb
# Element.reference_material: Pb foil
# Facility.name: NSLS-II
# Facility.energy: 3.0
# Facility.current: 399.5
# Facility.mode: top-off
# Facility.GUP: 301027
# Facility.SAF: 310583
# Facility.cycle: 2023-2
# Mono.name: Si(111)
# Mono.d_spacing: 3.13519
# Mono.encoder_resolution: 0.0000050 deg/ct
# Mono.angle_offset: 16.0754 deg
# Mono.scan_mode: pseudo channel cut
# Mono.scan_type: step
# Mono.direction: forward in energy
# Sample.name: PbO
# Sample.prep: powder on tape
# Sample.x: 143.785 mm
# Sample.y: 114.695 mm
# Sample.SDD_position: 205.000 mm
# Scan.experimenters: Bruce Ravel
# Scan.edge_energy: 15860.8
# Scan.start_time: 2023-06-23T17:55:12
# Scan.end_time: 2023-06-23T18:02:38
# Scan.transient_id: 84916
# Scan.uid: 8301707e-ea06-4c1d-97f1-d206bf05cb18
# Scan.plot_hint: ln(I0/It)  --  ln($5/$6)
# Column.1: energy eV
# Column.2: requested_energy eV
# Column.3: measurement_time seconds
# Column.4: xmu
# Column.5: I0 nA
# Column.6: It nA
# Column.7: Ir nA
# ///////////
# BMM standards collection
# -----------
# energy  requested_energy  measurement_time  xmu  I0  It  Ir
  15660.720  15660.800  0.500  1.255975  24.7515  7.049186  1.961388
  15670.755  15670.800  0.500  1.253140  24.6065  7.027786  1.958341
  15680.739  15680.800  0.500  1.250834  24.6173  7.047094  1.968459
  15690.746  15690.800  0.500  1.248507  24.58  7.052826  1.973219
  15701.619  15700.800  0.500  1.245842  24.5077  7.050837  1.976608
  15710.994  15710.800  0.500  1.243099  24.4057  7.040759  1.976315
  15720.792  15720.800  0.500  1.240503  24.4049  7.058838  1.984939
  15730.764  15730.800  0.500  1.237683  24.3425  7.060682  1.988592
  15740.782  15740.800  0.500  1.235330  24.2925  7.062778  1.992559
  15750.769  15750.800  0.500  1.232902  24.2257  7.060487  1.994839
  15760.802  15760.800  0.500  1.230704  24.166  7.058564  1.997581
  15770.782  15770.800  0.500  1.228611  24.1162  7.058776  1.999339
  15780.774  15780.800  0.500  1.226997  24.0621  7.054336  2.001124
  15790.813  15790.800  0.500  1.225443  24.0025  7.047806  2.002742
  15800.798  15800.800  0.500  1.224140  23.9443  7.039877  2.000895
  15810.775  15810.800  0.500  1.223711  23.8881  7.026364  1.998927
  15820.819  15820.800  0.500  1.224080  23.8297  7.006586  1.991593
  15830.788  15830.800  0.500  1.226678  23.7685  6.970470  1.977236
  15832.741  15832.800  0.500  1.227992  23.7577  6.958162  1.973298
  15834.750  15834.800  0.500  1.229180  23.7508  6.947889  1.968322
  15836.749  15836.800  0.500  1.230943  23.7404  6.932616  1.962293
  15838.748  15838.800  0.500  1.232781  23.7244  6.915197  1.954730
  15840.780  15840.800  0.500  1.235535  23.7152  6.893517  1.945423
  15842.769  15842.800  0.500  1.238654  23.7016  6.868109  1.934318
  15844.748  15844.800  0.500  1.242615  23.6858  6.836409  1.920035
  15846.727  15846.800  0.500  1.247653  23.6744  6.798777  1.902540
  15848.729  15848.800  0.500  1.254856  23.6674  6.747967  1.879258
  15850.742  15850.800  0.500  1.264683  23.6419  6.674792  1.846969
  15851.006  15851.100  0.500  1.266302  23.6382  6.662963  1.841642
  15851.314  15851.400  0.500  1.267936  23.6334  6.650731  1.835810
  15851.600  15851.700  0.500  1.269797  23.633  6.638252  1.830000
  15851.919  15852.000  0.500  1.271928  23.6331  6.624150  1.824447
  15852.227  15852.300  0.500  1.274114  23.6301  6.608824  1.816582
  15852.535  15852.600  0.500  1.276618  23.6288  6.591934  1.809584
  15852.854  15852.900  0.500  1.278640  23.6287  6.578589  1.802880
  15853.141  15853.200  0.500  1.281138  23.6308  6.562766  1.795699
  15853.449  15853.500  0.500  1.283881  23.6279  6.544004  1.787581
  15853.735  15853.800  0.500  1.286392  23.6293  6.527974  1.779976
  15854.043  15854.100  0.500  1.289291  23.6304  6.509381  1.771742
  15854.373  15854.400  0.500  1.292249  23.6288  6.489697  1.762207
  15854.670  15854.700  0.500  1.295271  23.6235  6.468659  1.752625
  15854.946  15855.000  0.500  1.298954  23.6277  6.446038  1.742435
  15855.254  15855.300  0.500  1.302185  23.6274  6.425173  1.732525
  15855.562  15855.600  0.500  1.306160  23.6262  6.399351  1.721251
  15855.870  15855.900  0.500  1.310212  23.6224  6.372458  1.709324
  15856.179  15856.200  0.500  1.314554  23.6189  6.343889  1.696102
  15856.487  15856.500  0.500  1.319096  23.6186  6.315070  1.683775
  15856.784  15856.800  0.500  1.323928  23.6194  6.284840  1.670456
  15857.070  15857.100  0.500  1.328613  23.6132  6.253826  1.656650
  15857.368  15857.400  0.500  1.333826  23.6125  6.221123  1.641811
  15857.676  15857.700  0.500  1.339598  23.6071  6.183899  1.626498
  15857.962  15858.000  0.500  1.345423  23.6028  6.146875  1.610102
  15858.282  15858.300  0.500  1.351654  23.5997  6.107892  1.593125
  15858.579  15858.600  0.500  1.358102  23.5979  6.068168  1.576883
  15858.887  15858.900  0.500  1.364583  23.5987  6.029178  1.558973
  15859.174  15859.200  0.500  1.371585  23.596  5.986419  1.541837
  15859.493  15859.500  0.500  1.378964  23.5923  5.941465  1.522634
  15859.802  15859.800  0.500  1.386599  23.5884  5.895302  1.503793
  15860.088  15860.100  0.500  1.394113  23.5892  5.851365  1.485899
  15860.396  15860.400  0.500  1.401249  23.587  5.809232  1.468876
  15860.661  15860.700  0.500  1.408368  23.587  5.768020  1.452314
  15860.969  15861.000  0.500  1.416293  23.5879  5.722710  1.434695
  15861.278  15861.300  0.500  1.423785  23.6798  5.702125  1.422618
  15861.586  15861.600  0.500  1.431334  23.6775  5.658687  1.405821
  15861.873  15861.900  0.500  1.438188  23.6753  5.619499  1.391001
  15862.170  15862.200  0.500  1.444538  23.6756  5.584021  1.377222
  15862.468  15862.500  0.500  1.451090  23.6707  5.546394  1.363763
  15862.765  15862.800  0.500  1.457123  23.6701  5.512886  1.351750
  15863.096  15863.100  0.500  1.463233  23.6646  5.478040  1.338957
  15863.382  15863.400  0.500  1.468293  23.6673  5.451018  1.329541
  15863.680  15863.700  0.500  1.472471  23.6635  5.427419  1.320924
  15863.955  15864.000  0.500  1.476648  23.663  5.404672  1.313494
  15864.275  15864.300  0.500  1.480276  23.6594  5.384293  1.306958
  15864.572  15864.600  0.500  1.483394  23.6582  5.367257  1.301026
  15864.892  15864.900  0.500  1.485848  23.654  5.353151  1.296408
  15865.168  15865.200  0.500  1.487569  23.6524  5.343575  1.293888
  15865.443  15865.500  0.500  1.488976  23.6511  5.335775  1.292216
  15865.752  15865.800  0.500  1.490350  23.6504  5.328296  1.290807
  15866.071  15866.100  0.500  1.490653  23.6481  5.326160  1.290319
  15866.402  15866.400  0.500  1.490449  23.6425  5.325971  1.290868
  15866.678  15866.700  0.500  1.490252  23.6422  5.326969  1.292602
  15866.964  15867.000  0.500  1.489454  23.6411  5.330972  1.294355
  15867.284  15867.300  0.500  1.488285  23.6423  5.337476  1.297505
  15867.582  15867.600  0.500  1.486953  23.6373  5.343463  1.299819
  15867.890  15867.900  0.500  1.484914  23.6309  5.352915  1.303406
  15868.177  15868.200  0.500  1.482863  23.6295  5.363580  1.308441
  15868.486  15868.500  0.500  1.480938  23.6296  5.373952  1.312199
  15868.773  15868.800  0.500  1.478873  23.6297  5.385075  1.316392
  15869.081  15869.100  0.500  1.476357  23.6236  5.397254  1.321488
  15869.401  15869.400  0.500  1.473691  23.6231  5.411550  1.326185
  15869.710  15869.700  0.500  1.471285  23.6229  5.424540  1.330652
  15869.986  15870.000  0.500  1.468642  23.6172  5.437571  1.334923
  15870.272  15870.300  0.500  1.466691  23.617  5.448154  1.339459
  15870.603  15870.600  0.500  1.464136  23.6132  5.461204  1.343202
  15870.912  15870.900  0.500  1.461605  23.6165  5.475815  1.347802
  15871.221  15871.200  0.500  1.459583  23.6083  5.484986  1.351929
  15871.497  15871.500  0.500  1.457564  23.6107  5.496636  1.355467
  15871.795  15871.800  0.500  1.455360  23.6032  5.507010  1.358365
  15872.103  15872.100  0.500  1.453600  23.6007  5.516130  1.362265
  15872.434  15872.400  0.500  1.451520  23.5975  5.526871  1.364909
  15872.710  15872.700  0.500  1.450105  23.6012  5.535570  1.367784
  15873.008  15873.000  0.500  1.448329  23.5945  5.543813  1.369445
  15873.295  15873.300  0.500  1.446939  23.591  5.550706  1.372078
  15873.626  15873.600  0.500  1.445532  23.5878  5.557764  1.374081
  15873.913  15873.900  0.500  1.444303  23.5807  5.562934  1.375553
  15874.233  15874.200  0.500  1.442862  23.5821  5.571297  1.377144
  15874.498  15874.500  0.500  1.441775  23.5806  5.576991  1.378885
  15874.785  15874.800  0.500  1.440801  23.5777  5.581747  1.379742
  15875.094  15875.100  0.500  1.439341  23.5724  5.588641  1.380093
  15875.436  15875.400  0.500  1.438309  23.5756  5.595161  1.382946
  15875.723  15875.700  0.500  1.437334  23.5751  5.600500  1.384323
  15875.999  15876.000  0.500  1.436480  23.5719  5.604530  1.384805
  15876.297  15876.300  0.500  1.435501  23.5714  5.609907  1.385681
  15876.606  15876.600  0.500  1.434404  23.5658  5.614721  1.385867
  15876.915  15876.900  0.500  1.433290  23.5685  5.621630  1.387726
  15877.224  15877.200  0.500  1.432301  23.5631  5.625900  1.388391
  15877.500  15877.500  0.500  1.431477  23.5591  5.629582  1.388723
  15877.776  15877.800  0.500  1.430461  23.5591  5.635317  1.390239
  15878.096  15878.100  0.500  1.429358  23.5588  5.641451  1.391233
  15878.405  15878.400  0.500  1.428177  23.5524  5.646576  1.392086
  15878.714  15878.700  0.500  1.427513  23.5526  5.650372  1.393169
  15879.001  15879.000  0.500  1.426792  23.5547  5.654972  1.394125
  15879.288  15879.300  0.500  1.425583  23.551  5.660906  1.395313
  15879.576  15879.600  0.500  1.424705  23.549  5.665406  1.396277
  15879.896  15879.900  0.500  1.423473  23.5428  5.670887  1.396759
  15880.183  15880.200  0.500  1.422743  23.5431  5.675119  1.397956
  15880.492  15880.500  0.500  1.421829  23.5433  5.680360  1.399560
  15880.757  15880.800  0.500  1.421149  23.5418  5.683852  1.400842
  15881.089  15881.100  0.500  1.419995  23.5351  5.688780  1.402147
  15881.398  15881.400  0.500  1.419202  23.5334  5.692890  1.402747
  15881.707  15881.700  0.500  1.418123  23.5333  5.699024  1.404509
  15881.983  15882.000  0.500  1.417286  23.5322  5.703517  1.406089
  15882.281  15882.300  0.500  1.416594  23.53  5.706938  1.406704
  15882.591  15882.600  0.500  1.415792  23.5293  5.711335  1.408989
  15882.878  15882.900  0.500  1.415222  23.5277  5.714218  1.410338
  15883.176  15883.200  0.500  1.414375  23.5271  5.718905  1.411636
  15883.474  15883.500  0.500  1.413868  23.5183  5.719681  1.412274
  15883.773  15883.800  0.500  1.413237  23.5204  5.723783  1.413792
  15884.082  15884.100  0.500  1.412614  23.5166  5.726425  1.415111
  15884.403  15884.400  0.500  1.411881  23.5149  5.730216  1.416823
  15884.712  15884.700  0.500  1.411076  23.5116  5.734017  1.417216
  15884.999  15885.000  0.500  1.410721  23.5101  5.735704  1.418794
  15885.275  15885.300  0.500  1.410522  23.5096  5.736714  1.420076
  15885.596  15885.600  0.500  1.410302  23.5093  5.737909  1.420865
  15885.806  15885.800  0.500  1.409822  23.5105  5.740956  1.422221
  15886.801  15886.790  0.500  1.409335  23.5034  5.742019  1.424159
  15887.817  15887.790  0.500  1.408590  23.4962  5.744527  1.425210
  15888.834  15888.810  0.500  1.409113  23.4906  5.740169  1.425886
  15889.896  15889.860  0.500  1.409528  23.4782  5.734748  1.424890
  15890.946  15890.920  0.500  1.410898  23.4758  5.726326  1.422694
  15892.041  15892.000  0.500  1.412854  23.4683  5.713307  1.419572
  15893.136  15893.100  0.500  1.415242  23.4592  5.697448  1.415819
  15894.242  15894.220  0.500  1.417457  23.4551  5.683874  1.411899
  15895.371  15895.360  0.500  1.419707  23.4497  5.669778  1.407433
  15896.511  15896.510  0.500  1.421760  23.4403  5.655897  1.402327
  15897.695  15897.690  0.500  1.423640  23.4375  5.644580  1.398865
  15898.901  15898.880  0.500  1.424735  23.4291  5.636385  1.395804
  15900.108  15900.100  0.500  1.425186  23.4182  5.631235  1.393743
  15901.359  15901.330  0.500  1.425744  23.4143  5.627143  1.391725
  15902.588  15902.580  0.500  1.425806  23.4041  5.624352  1.390286
  15903.862  15903.850  0.500  1.425575  23.3946  5.623373  1.389960
  15905.147  15905.140  0.500  1.425533  23.3833  5.620898  1.390786
  15906.465  15906.450  0.500  1.425299  23.3783  5.620995  1.390907
  15907.806  15907.780  0.500  1.425019  23.3633  5.618954  1.392499
  15909.158  15909.130  0.500  1.424979  23.3469  5.615247  1.393369
  15910.533  15910.500  0.500  1.424445  23.2723  5.600290  1.390291
  15911.874  15911.880  0.500  1.424059  23.1228  5.566457  1.383155
  15913.293  15913.290  0.500  1.424155  23.1863  5.581206  1.389480
  15914.702  15914.710  0.500  1.423625  23.3138  5.614884  1.398715
  15916.166  15916.150  0.500  1.422799  23.3364  5.624976  1.401061
  15917.620  15917.610  0.500  1.421896  23.3217  5.626512  1.402349
  15919.118  15919.090  0.500  1.420996  23.3147  5.629880  1.403202
  15920.616  15920.590  0.500  1.419870  23.307  5.634357  1.403931
  15922.137  15922.110  0.500  1.418766  23.298  5.638418  1.404895
  15923.680  15923.650  0.500  1.417472  23.2862  5.642856  1.405513
  15925.246  15925.210  0.500  1.416076  23.2788  5.648927  1.407322
  15926.768  15926.780  0.500  1.414417  23.2651  5.654974  1.408225
  15928.379  15928.380  0.500  1.413026  23.2555  5.660516  1.409657
  15929.979  15929.990  0.500  1.411922  23.2472  5.664751  1.411134
  15931.624  15931.630  0.500  1.410665  23.2374  5.669483  1.412470
  15933.291  15933.280  0.500  1.409257  23.224  5.674188  1.414235
  15934.970  15934.950  0.500  1.408422  23.213  5.676244  1.415392
  15936.683  15936.640  0.500  1.407778  23.2025  5.677346  1.416839
  15938.351  15938.350  0.500  1.406722  23.1937  5.681181  1.417682
  15940.098  15940.080  0.500  1.406092  23.1828  5.682083  1.419617
  15941.845  15941.830  0.500  1.405947  23.169  5.679532  1.419340
  15943.615  15943.590  0.500  1.405580  23.1585  5.679029  1.419727
  15945.385  15945.380  0.500  1.405353  23.1428  5.676465  1.420685
  15947.156  15947.180  0.500  1.405503  23.1162  5.669089  1.419803
  15948.994  15949.010  0.500  1.405088  22.9616  5.633523  1.411132
  15950.899  15950.850  0.500  1.405388  22.9523  5.629552  1.411513
  15952.749  15952.710  0.500  1.405183  23.0996  5.666830  1.420271
  15954.599  15954.590  0.500  1.405087  23.1064  5.669042  1.421670
  15956.517  15956.490  0.500  1.404915  23.0949  5.667200  1.422140
  15958.435  15958.410  0.500  1.404166  23.0799  5.667773  1.421812
  15960.353  15960.350  0.500  1.403526  23.0671  5.668245  1.422469
  15962.295  15962.310  0.500  1.403355  23.0601  5.667494  1.422697
  15964.292  15964.280  0.500  1.402747  23.0479  5.667945  1.422627
  15966.268  15966.280  0.500  1.402014  23.0331  5.668474  1.423286
  15968.311  15968.290  0.500  1.402005  23.026  5.666776  1.424180
  15970.344  15970.320  0.500  1.401331  23.0113  5.666960  1.425015
  15972.400  15972.380  0.500  1.400878  22.9972  5.666066  1.425142
  15974.489  15974.450  0.500  1.400115  22.98  5.666143  1.426322
  15976.512  15976.540  0.500  1.399910  22.971  5.665091  1.426794
  15978.636  15978.650  0.500  1.399302  22.9508  5.663553  1.426650
  15980.784  15980.780  0.500  1.398591  22.9345  5.663542  1.427333
  15982.942  15982.920  0.500  1.398168  22.9073  5.659226  1.427536
  15985.102  15985.090  0.500  1.396945  22.7323  5.622877  1.418877
  15987.318  15987.280  0.500  1.396612  22.7971  5.640775  1.424800
  15989.501  15989.480  0.500  1.395471  22.9058  5.674131  1.433329
  15991.730  15991.700  0.500  1.394448  22.8981  5.678044  1.435137
  15993.936  15993.950  0.500  1.393586  22.8819  5.678909  1.435955
  15996.233  15996.210  0.500  1.392269  22.8646  5.682098  1.437582
  15998.497  15998.490  0.500  1.391459  22.8507  5.683244  1.438617
  16000.829  16000.790  0.500  1.390361  22.8325  5.684948  1.439240
  16003.151  16003.110  0.500  1.389407  22.817  5.686534  1.440535
  16005.473  16005.450  0.500  1.388281  22.805  5.689940  1.441809
  16007.784  16007.800  0.500  1.387646  22.7896  5.689710  1.442572
  16010.186  16010.180  0.500  1.387055  22.7797  5.690594  1.443651
  16012.589  16012.570  0.500  1.386244  22.7643  5.691370  1.444401
  16015.004  16014.990  0.500  1.385482  22.7472  5.691420  1.446402
  16017.453  16017.420  0.500  1.384949  22.7304  5.690260  1.447356
  16019.925  16019.870  0.500  1.383972  22.7101  5.690718  1.446785
  16022.365  16022.350  0.500  1.383016  22.6728  5.686810  1.446810
  16024.816  16024.840  0.500  1.382562  22.4572  5.635296  1.433974
  16027.347  16027.350  0.500  1.381408  22.5887  5.674826  1.444902
  16029.901  16029.870  0.500  1.380759  22.6225  5.687028  1.449478
  16032.456  16032.420  0.500  1.380010  22.6396  5.695569  1.452473
  16035.012  16034.990  0.500  1.379249  22.6423  5.700596  1.454506
  16037.569  16037.570  0.500  1.378247  22.633  5.703961  1.455263
  16040.183  16040.180  0.500  1.377745  22.6147  5.702216  1.455909
  16042.809  16042.800  0.500  1.376813  22.5986  5.703484  1.456493
  16045.470  16045.450  0.500  1.376203  22.5849  5.703491  1.457711
  16048.131  16048.110  0.500  1.375181  22.5595  5.702899  1.458005
  16050.816  16050.790  0.500  1.374690  22.55  5.703304  1.459931
  16053.514  16053.490  0.500  1.374163  22.5384  5.703367  1.460636
  16056.223  16056.210  0.500  1.373322  22.526  5.705021  1.461735
  16058.967  16058.950  0.500  1.372324  22.508  5.706165  1.462228
  16061.724  16061.700  0.500  1.371884  22.4934  5.704964  1.463694
  16064.504  16064.480  0.500  1.371151  22.4748  5.704427  1.463825
  16067.296  16067.270  0.500  1.370289  22.459  5.705343  1.464293
  16070.112  16070.090  0.500  1.369555  22.4412  5.705011  1.465698
  16072.906  16072.920  0.500  1.368850  22.4221  5.704170  1.466421
  16075.792  16075.770  0.500  1.368023  22.3749  5.696859  1.464974
  16078.679  16078.650  0.500  1.367039  22.4352  5.717842  1.471337
  16081.556  16081.540  0.500  1.366265  22.4408  5.723711  1.473703
  16084.467  16084.450  0.500  1.365627  22.4302  5.724654  1.474974
  16087.380  16087.370  0.500  1.364561  22.4097  5.725523  1.475801
  16090.339  16090.320  0.500  1.363684  22.3941  5.726555  1.477447
  16093.322  16093.290  0.500  1.362184  22.3724  5.729579  1.478553
  16096.295  16096.270  0.500  1.361400  22.36  5.730913  1.479892
  16099.314  16099.280  0.500  1.360353  22.3241  5.727699  1.480063
  16102.300  16102.300  0.500  1.359433  22.3179  5.731369  1.481998
  16105.367  16105.350  0.500  1.358309  22.3108  5.735996  1.484293
  16108.435  16108.410  0.500  1.356944  22.2926  5.739140  1.484804
  16111.527  16111.490  0.500  1.355967  22.2731  5.739738  1.486883
  16114.631  16114.590  0.500  1.355333  22.2571  5.739250  1.487855
  16117.714  16117.710  0.500  1.354040  22.233  5.740451  1.488848
  16120.856  16120.850  0.500  1.353078  22.2062  5.739043  1.489849
  16124.021  16124.000  0.500  1.352376  22.1443  5.727061  1.488235
  16127.210  16127.180  0.500  1.351495  22.1825  5.742005  1.491431
  16130.355  16130.370  0.500  1.350723  22.1693  5.743024  1.494060
  16133.592  16133.590  0.500  1.349882  22.1489  5.742567  1.494832
  16136.819  16136.820  0.500  1.348591  22.1323  5.745670  1.496083
  16140.116  16140.070  0.500  1.347784  22.1102  5.744581  1.496834
  16143.414  16143.350  0.500  1.346489  22.0797  5.744081  1.497644
  16146.668  16146.640  0.500  1.345583  22.0476  5.740928  1.497345
  16149.947  16149.950  0.500  1.344807  22.058  5.748094  1.500412
  16153.283  16153.270  0.500  1.343684  22.0365  5.748950  1.501959
  16156.667  16156.620  0.500  1.342543  22.0174  5.750523  1.503509
  16160.029  16159.990  0.500  1.341725  22.0001  5.750703  1.504673
  16163.347  16163.370  0.500  1.340677  21.9832  5.752308  1.506316
  16166.770  16166.780  0.500  1.339547  21.9642  5.753832  1.508382
  16170.251  16170.200  0.500  1.338263  21.9418  5.755354  1.508845
  16173.687  16173.650  0.500  1.337211  21.8632  5.740768  1.506617
  16177.114  16177.110  0.500  1.336244  21.9009  5.756231  1.511281
  16180.611  16180.590  0.500  1.335445  21.8869  5.757145  1.512685
  16184.075  16184.090  0.500  1.334293  21.8691  5.759108  1.514350
  16187.633  16187.610  0.500  1.333581  21.8519  5.758666  1.516203
  16191.203  16191.150  0.500  1.332400  21.8324  5.760331  1.516972
  16194.730  16194.700  0.500  1.331441  21.8129  5.760711  1.517977
  16198.280  16198.280  0.500  1.330280  21.7844  5.759859  1.518721
  16201.925  16201.880  0.500  1.329095  21.7697  5.762798  1.521133
  16205.513  16205.490  0.500  1.328153  21.7535  5.763932  1.522917
  16209.149  16209.120  0.500  1.326957  21.7303  5.764681  1.523692
  16212.810  16212.780  0.500  1.325775  21.7096  5.766008  1.525340
  16216.449  16216.450  0.500  1.324658  21.6914  5.767611  1.526680
  16220.205  16220.140  0.500  1.323447  21.6715  5.769312  1.528518
  16223.859  16223.850  0.500  1.322214  21.6519  5.771203  1.530661
  16227.631  16227.580  0.500  1.320900  21.6284  5.772514  1.531496
  16231.323  16231.320  0.500  1.319590  21.6043  5.773628  1.532951
  16235.098  16235.090  0.500  1.318554  21.5421  5.762993  1.531293
  16238.897  16238.880  0.500  1.317119  21.5597  5.775977  1.536292
  16242.733  16242.680  0.500  1.316218  21.5422  5.776484  1.537340
  16246.536  16246.510  0.500  1.315060  21.5225  5.777881  1.538578
  16250.365  16250.350  0.500  1.313878  21.4989  5.778392  1.540654
  16254.229  16254.210  0.500  1.312644  21.4454  5.771118  1.538941
  16258.142  16258.090  0.500  1.311774  21.4594  5.779919  1.543836
  16262.011  16261.990  0.500  1.310615  21.4449  5.782702  1.544524
  16265.939  16265.910  0.500  1.309410  21.4254  5.784425  1.546866
  16269.869  16269.850  0.500  1.308232  21.3978  5.783773  1.547787
  16273.859  16273.810  0.500  1.307252  21.3787  5.784271  1.549250
  16277.816  16277.780  0.500  1.305773  21.3507  5.785256  1.551152
  16281.845  16281.780  0.500  1.304692  21.3365  5.787662  1.551826
  16285.794  16285.790  0.500  1.303594  21.3148  5.788119  1.553925
  16289.874  16289.830  0.500  1.302288  21.2942  5.790084  1.554809
  16293.920  16293.880  0.500  1.300954  21.2719  5.791740  1.557436
  16297.992  16297.950  0.500  1.299763  21.2498  5.792614  1.558508
  16302.077  16302.040  0.500  1.298834  21.2247  5.791155  1.559818
  16306.188  16306.150  0.500  1.297304  21.1547  5.780889  1.558288
  16310.324  16310.280  0.500  1.296212  21.1828  5.794891  1.563136
  16314.451  16314.430  0.500  1.295052  21.1619  5.795893  1.564487
  16318.615  16318.590  0.500  1.293626  21.136  5.797074  1.566282
  16322.816  16322.780  0.500  1.292623  21.1148  5.797050  1.567702
  16326.995  16326.980  0.500  1.291377  21.0912  5.797789  1.568540
  16331.282  16331.210  0.500  1.290337  21.0721  5.798585  1.570730
  16335.478  16335.450  0.500  1.289300  21.0434  5.796690  1.571786
  16339.746  16339.710  0.500  1.287678  21.0242  5.800801  1.573701
  16344.052  16343.990  0.500  1.286428  20.9986  5.800989  1.575458
  16348.325  16348.290  0.500  1.285177  20.9815  5.803511  1.577074
  16352.646  16352.610  0.500  1.283857  20.9577  5.804585  1.578573
  16356.959  16356.950  0.500  1.282900  20.9358  5.804080  1.579892
  16361.367  16361.310  0.500  1.281422  20.91  5.805496  1.581914
  16365.743  16365.690  0.500  1.280102  20.8943  5.808800  1.583489
  16370.109  16370.080  0.500  1.278701  20.8387  5.801471  1.583814
  16374.560  16374.500  0.500  1.277373  20.7832  5.793706  1.582889
  16379.002  16378.930  0.500  1.275957  20.8135  5.810369  1.588508
  16383.434  16383.380  0.500  1.274820  20.7925  5.811113  1.590225
  16387.904  16387.850  0.500  1.273300  20.7647  5.812173  1.591187
  16392.364  16392.340  0.500  1.272480  20.7466  5.811872  1.593430
  16396.910  16396.850  0.500  1.270785  20.7143  5.812659  1.593705
  16401.458  16401.380  0.500  1.269546  20.6725  5.808136  1.594338
  16405.997  16405.930  0.500  1.268188  20.6652  5.813967  1.597700
  16410.562  16410.500  0.500  1.266939  20.6398  5.814086  1.600090
  16415.129  16415.080  0.500  1.265742  20.6219  5.816001  1.601577
  16419.817  16419.690  0.500  1.264731  20.5854  5.811562  1.602422
  16424.366  16424.310  0.500  1.263300  20.572  5.816114  1.603985
  16429.013  16428.960  0.500  1.261855  20.5438  5.816524  1.605592
  16433.650  16433.620  0.500  1.260541  20.5178  5.816793  1.606412
  16438.360  16438.300  0.500  1.258985  20.4844  5.816385  1.608698
  16443.026  16443.000  0.500  1.257607  20.4215  5.806512  1.606825
  16447.802  16447.720  0.500  1.256318  20.4403  5.819352  1.612693
  16452.509  16452.460  0.500  1.255083  20.4213  5.821124  1.613886
  16457.242  16457.210  0.500  1.253561  20.39  5.821074  1.616165
  16461.990  16461.990  0.500  1.252267  20.3684  5.822429  1.617245
  16466.824  16466.790  0.500  1.251077  20.3517  5.824579  1.619662
  16471.637  16471.600  0.500  1.249586  20.3234  5.825171  1.621497
  16476.465  16476.430  0.500  1.248356  20.2919  5.823282  1.622625
  16481.319  16481.290  0.500  1.246484  20.2597  5.824957  1.624127
  16486.177  16486.160  0.500  1.245259  20.2425  5.827125  1.625849
  16491.085  16491.050  0.500  1.244166  20.2195  5.826880  1.627665
  16496.007  16495.960  0.500  1.242504  20.1942  5.829269  1.628944
  16500.921  16500.890  0.500  1.241159  20.1646  5.828573  1.631529
  16505.874  16505.830  0.500  1.239981  20.1354  5.826969  1.632175
  16510.817  16510.800  0.500  1.238384  20.1105  5.829063  1.634141
  16515.812  16515.790  0.500  1.236902  20.0812  5.829221  1.635593
  16520.833  16520.790  0.500  1.235675  20.0623  5.830877  1.637782
  16525.882  16525.820  0.500  1.234108  20.0287  5.830237  1.639213
  16530.885  16530.860  0.500  1.232616  20.0069  5.832577  1.641643
  16535.928  16535.920  0.500  1.231477  19.9773  5.830593  1.642258
  16541.021  16541.000  0.500  1.229933  19.9536  5.832672  1.645490
  16546.142  16546.100  0.500  1.228397  19.8975  5.825219  1.643714
  16551.230  16551.220  0.500  1.226859  19.8999  5.834888  1.648701
  16556.393  16556.360  0.500  1.225467  19.8733  5.835206  1.650199
  16561.536  16561.520  0.500  1.224116  19.8317  5.830861  1.650618
  16566.741  16566.700  0.500  1.222660  19.8134  5.833964  1.653161
  16571.914  16571.890  0.500  1.221151  19.7931  5.836789  1.655600
  16577.163  16577.110  0.500  1.219749  19.7625  5.835944  1.657185
  16582.378  16582.340  0.500  1.218084  19.7341  5.837263  1.658827
  16587.634  16587.590  0.500  1.216790  19.704  5.835913  1.660385
  16592.916  16592.860  0.500  1.215514  19.6641  5.831551  1.660498
  16598.190  16598.150  0.500  1.213832  19.6419  5.834768  1.662880
  16603.480  16603.460  0.500  1.212442  19.6181  5.835807  1.664810
  16608.809  16608.790  0.500  1.211146  19.5915  5.835444  1.666557
  16614.202  16614.140  0.500  1.209154  19.5602  5.837745  1.668618
  16619.574  16619.510  0.500  1.208032  19.5309  5.835524  1.669822
  16624.938  16624.890  0.500  1.206433  19.5046  5.837001  1.672033
  16630.329  16630.300  0.500  1.205069  19.4752  5.836151  1.673740
  16635.760  16635.720  0.500  1.203387  19.4473  5.837608  1.675223
  16641.195  16641.170  0.500  1.202135  19.4081  5.833151  1.675978
  16646.670  16646.630  0.500  1.200534  19.3775  5.833262  1.677602
  16652.112  16652.110  0.500  1.198865  19.3491  5.834443  1.679471
  16657.643  16657.610  0.500  1.197638  19.3237  5.833965  1.681076
  16663.177  16663.130  0.500  1.195805  19.293  5.835378  1.682179
  16668.716  16668.670  0.500  1.194568  19.2647  5.834010  1.684353
  16674.270  16674.220  0.500  1.192956  19.2235  5.830929  1.685408
  16679.840  16679.800  0.500  1.191334  19.1886  5.829806  1.685917
  16685.450  16685.400  0.500  1.189999  19.1543  5.827139  1.686956
  16691.076  16691.010  0.500  1.188243  19.1155  5.825559  1.688289
  16696.682  16696.650  0.500  1.186768  19.0656  5.818943  1.688203
  16702.328  16702.300  0.500  1.185212  19.0046  5.809362  1.686893
  16707.991  16707.970  0.500  1.183705  18.8887  5.782627  1.680833
  16713.718  16713.660  0.500  1.181780  18.1461  5.565996  1.618226