File: xdidata/Pb/Pb-L1-Galena.xdi
# XDI/1.0 BlueSky/1.10.0 BMM/2023-1.0-py310-tiled
# Beamline.name: BMM (06BM) -- Beamline for Materials Measurement (NIST)
# Beamline.xray_source: NSLS-II three-pole wiggler
# Beamline.collimation: paraboloid mirror, 5 nm Rh on 30 nm Pt
# Beamline.focusing: not in use
# Beamline.harmonic_rejection: flat mirror, Pt stripe, pitch = 7.0 mrad relative to beam
# Beamline.software: Bluesky 1.10.0, Ophyd 1.7.0, DataBroker 2.0.0b13, Python 3.10.8, 2023-1.0-py310-tiled
# Detector.I0: 10 cm N2
# Detector.I1: 25 cm N2
# Detector.I2: 25 cm N2
# Element.symbol: Pb
# Element.edge: L1
# Element.reference: Pb
# Element.reference_material: Pb foil
# Facility.name: NSLS-II
# Facility.energy: 3.0
# Facility.current: 399.2
# Facility.mode: top-off
# Facility.GUP: 301027
# Facility.SAF: 310583
# Facility.cycle: 2023-2
# Mono.name: Si(111)
# Mono.d_spacing: 3.13519
# Mono.encoder_resolution: 0.0000050 deg/ct
# Mono.angle_offset: 16.0754 deg
# Mono.scan_mode: pseudo channel cut
# Mono.scan_type: step
# Mono.direction: forward in energy
# Sample.name: PbS2
# Sample.prep: powder on tape
# Sample.x: 143.785 mm
# Sample.y: 114.695 mm
# Sample.SDD_position: 205.000 mm
# Scan.experimenters: Bruce Ravel
# Scan.edge_energy: 15860.8
# Scan.start_time: 2023-06-23T18:12:36
# Scan.end_time: 2023-06-23T18:21:04
# Scan.transient_id: 84926
# Scan.uid: c3effb82-334f-41ff-9cca-50278b76da4f
# Scan.plot_hint: ln(I0/It)  --  ln($5/$6)
# Column.1: energy eV
# Column.2: requested_energy eV
# Column.3: measurement_time seconds
# Column.4: xmu
# Column.5: I0 nA
# Column.6: It nA
# Column.7: Ir nA
# ///////////
# BMM standards collection
# -----------
# energy  requested_energy  measurement_time  xmu  I0  It  Ir
  15660.752  15660.800  0.500  0.335755  24.7117  17.6639  4.935482
  15670.873  15670.800  0.500  0.334202  24.5629  17.5848  4.921974
  15680.868  15680.800  0.500  0.333069  24.5754  17.6137  4.940369
  15690.865  15690.800  0.500  0.331709  24.538  17.6108  4.948700
  15700.853  15700.800  0.500  0.330077  24.4704  17.591  4.950553
  15710.876  15710.800  0.500  0.328895  24.4009  17.5618  4.951042
  15720.900  15720.800  0.500  0.327558  24.3549  17.5521  4.957226
  15730.927  15730.800  0.500  0.326080  24.2889  17.5304  4.959619
  15740.825  15740.800  0.500  0.324773  24.2375  17.5162  4.963370
  15750.856  15750.800  0.500  0.323521  24.1681  17.4879  4.963090
  15760.889  15760.800  0.500  0.322317  24.1128  17.4689  4.964803
  15770.869  15770.800  0.500  0.321275  24.0596  17.4486  4.964798
  15780.851  15780.800  0.500  0.320260  24.0072  17.4283  4.965643
  15790.878  15790.800  0.500  0.319252  23.9434  17.3995  4.963561
  15800.919  15800.800  0.500  0.318524  23.8873  17.3713  4.957625
  15810.742  15810.800  0.500  0.318040  23.8291  17.3374  4.951753
  15820.764  15820.800  0.500  0.318283  23.7678  17.2886  4.935809
  15830.777  15830.800  0.500  0.319442  23.7635  17.2655  4.921157
  15832.730  15832.800  0.500  0.319716  23.7901  17.2801  4.920778
  15834.728  15834.800  0.500  0.320450  23.7882  17.266  4.914855
  15836.705  15836.800  0.500  0.321070  23.779  17.2486  4.903303
  15838.715  15838.800  0.500  0.322005  23.7638  17.2215  4.889931
  15840.736  15840.800  0.500  0.323195  23.7492  17.1904  4.872642
  15842.769  15842.800  0.500  0.324588  23.7354  17.1565  4.852636
  15844.726  15844.800  0.500  0.326602  23.721  17.1117  4.827611
  15846.727  15846.800  0.500  0.328946  23.7033  17.0588  4.795115
  15848.729  15848.800  0.500  0.332784  23.6986  16.9901  4.754595
  15850.720  15850.800  0.500  0.337443  23.6749  16.8943  4.697436
  15851.006  15851.100  0.500  0.338255  23.6692  16.8765  4.688505
  15851.314  15851.400  0.500  0.339364  23.6687  16.8574  4.676056
  15851.611  15851.700  0.500  0.340218  23.6654  16.8407  4.667372
  15851.908  15852.000  0.500  0.341021  23.6623  16.8249  4.656489
  15852.238  15852.300  0.500  0.342036  23.6567  16.8039  4.642277
  15852.535  15852.600  0.500  0.343330  23.6591  16.7838  4.631555
  15852.799  15852.900  0.500  0.344562  23.6609  16.7644  4.620140
  15853.130  15853.200  0.500  0.345587  23.6586  16.7457  4.606481
  15853.460  15853.500  0.500  0.347089  23.6581  16.7202  4.591492
  15853.768  15853.800  0.500  0.348176  23.6563  16.7008  4.576541
  15854.043  15854.100  0.500  0.349600  23.652  16.674  4.562423
  15854.362  15854.400  0.500  0.351300  23.6576  16.6495  4.546472
  15854.659  15854.700  0.500  0.352703  23.6543  16.6239  4.528941
  15854.946  15855.000  0.500  0.354386  23.6557  16.597  4.512614
  15855.276  15855.300  0.500  0.356355  23.6571  16.5653  4.491815
  15855.584  15855.600  0.500  0.358297  23.6535  16.5306  4.472062
  15855.870  15855.900  0.500  0.360150  23.6499  16.4975  4.451772
  15856.168  15856.200  0.500  0.362414  23.6539  16.463  4.429955
  15856.476  15856.500  0.500  0.364608  23.6513  16.4251  4.406035
  15856.751  15856.800  0.500  0.366850  23.6482  16.3861  4.381629
  15857.059  15857.100  0.500  0.369336  23.6393  16.3393  4.354668
  15857.390  15857.400  0.500  0.372220  23.6426  16.2945  4.327171
  15857.687  15857.700  0.500  0.374915  23.6399  16.2488  4.300713
  15857.962  15858.000  0.500  0.377599  23.6366  16.203  4.272370
  15858.271  15858.300  0.500  0.380677  23.6308  16.1493  4.241469
  15858.579  15858.600  0.500  0.383824  23.6323  16.0995  4.210759
  15858.854  15858.900  0.500  0.386934  23.6296  16.0477  4.181015
  15859.174  15859.200  0.500  0.390187  23.6264  15.9934  4.147689
  15859.482  15859.500  0.500  0.393855  23.628  15.9359  4.114175
  15859.758  15859.800  0.500  0.397133  23.6239  15.8811  4.083554
  15860.077  15860.100  0.500  0.400849  23.6194  15.8192  4.048536
  15860.352  15860.400  0.500  0.404421  23.6233  15.7654  4.016485
  15860.661  15860.700  0.500  0.407626  23.6221  15.7141  3.985739
  15860.958  15861.000  0.500  0.411245  23.6171  15.654  3.952228
  15861.289  15861.300  0.500  0.414805  23.6116  15.5947  3.920585
  15861.553  15861.600  0.500  0.418044  23.6165  15.5475  3.892783
  15861.873  15861.900  0.500  0.421205  23.6159  15.4981  3.863795
  15862.192  15862.200  0.500  0.423962  23.6108  15.4521  3.837447
  15862.457  15862.500  0.500  0.426566  23.6112  15.4122  3.817406
  15862.798  15862.800  0.500  0.429053  23.608  15.3717  3.793515
  15863.096  15863.100  0.500  0.431092  23.6014  15.3362  3.771791
  15863.371  15863.400  0.500  0.432834  23.6034  15.3108  3.759166
  15863.702  15863.700  0.500  0.434378  23.6008  15.2855  3.742770
  15864.010  15864.000  0.500  0.435449  23.6022  15.27  3.732914
  15864.286  15864.300  0.500  0.436414  23.5943  15.2502  3.723308
  15864.627  15864.600  0.500  0.437013  23.5958  15.242  3.716756
  15864.914  15864.900  0.500  0.437261  23.5947  15.2375  3.712131
  15865.201  15865.200  0.500  0.437138  23.5912  15.2371  3.710685
  15865.509  15865.500  0.500  0.436916  23.5885  15.2388  3.709902
  15865.796  15865.800  0.500  0.436495  23.5919  15.2474  3.712168
  15866.093  15866.100  0.500  0.435865  23.5873  15.254  3.713667
  15866.424  15866.400  0.500  0.435104  23.5808  15.2615  3.718065
  15866.711  15866.700  0.500  0.434149  23.5772  15.2737  3.724391
  15866.986  15867.000  0.500  0.433068  23.5789  15.2913  3.730769
  15867.328  15867.300  0.500  0.431882  23.5795  15.3099  3.739088
  15867.604  15867.600  0.500  0.430518  23.5746  15.3275  3.747225
  15867.879  15867.900  0.500  0.429322  23.5717  15.344  3.755688
  15868.199  15868.200  0.500  0.427839  23.5704  15.3659  3.765347
  15868.497  15868.500  0.500  0.426756  23.5729  15.3842  3.773816
  15868.784  15868.800  0.500  0.425485  23.565  15.3986  3.781888
  15869.103  15869.100  0.500  0.424240  23.5626  15.4162  3.791267
  15869.368  15869.400  0.500  0.423012  23.5603  15.4336  3.798150
  15869.699  15869.700  0.500  0.421642  23.5567  15.4525  3.808204
  15869.997  15870.000  0.500  0.420528  23.5547  15.4684  3.816022
  15870.261  15870.300  0.500  0.419705  23.5558  15.4818  3.822971
  15870.581  15870.600  0.500  0.418460  23.5516  15.4984  3.829654
  15870.868  15870.900  0.500  0.417660  23.552  15.511  3.836821
  15871.166  15871.200  0.500  0.416825  23.543  15.5181  3.842141
  15871.508  15871.500  0.500  0.415925  23.5471  15.5348  3.849461
  15871.784  15871.800  0.500  0.415196  23.548  15.5466  3.854137
  15872.092  15872.100  0.500  0.414619  23.5438  15.5528  3.857726
  15872.412  15872.400  0.500  0.413879  23.5381  15.5606  3.862058
  15872.677  15872.700  0.500  0.413231  23.5372  15.5701  3.865215
  15873.008  15873.000  0.500  0.412743  23.5321  15.5743  3.868260
  15873.317  15873.300  0.500  0.412151  23.5298  15.582  3.869846
  15873.593  15873.600  0.500  0.411726  23.5253  15.5856  3.872644
  15873.913  15873.900  0.500  0.411290  23.5254  15.5925  3.874958
  15874.211  15874.200  0.500  0.410932  23.5236  15.5969  3.875986
  15874.498  15874.500  0.500  0.410573  23.5264  15.6044  3.877349
  15874.829  15874.800  0.500  0.410320  23.524  15.6067  3.877632
  15875.105  15875.100  0.500  0.409998  23.5214  15.61  3.877218
  15875.392  15875.400  0.500  0.409533  23.5198  15.6162  3.877964
  15875.701  15875.700  0.500  0.409391  23.5204  15.6188  3.879051
  15876.010  15876.000  0.500  0.409008  23.5113  15.6187  3.878325
  15876.308  15876.300  0.500  0.408806  23.5144  15.624  3.878175
  15876.628  15876.600  0.500  0.408561  23.5088  15.6241  3.877984
  15876.904  15876.900  0.500  0.408354  23.5104  15.6284  3.877460
  15877.191  15877.200  0.500  0.408152  23.511  15.632  3.878087
  15877.489  15877.500  0.500  0.407885  23.5074  15.6337  3.876396
  15877.798  15877.800  0.500  0.407510  23.5023  15.6362  3.876114
  15878.085  15878.100  0.500  0.407475  23.5072  15.64  3.876528
  15878.405  15878.400  0.500  0.407336  23.5034  15.6396  3.876055
  15878.692  15878.700  0.500  0.407087  23.504  15.644  3.875506
  15878.968  15879.000  0.500  0.406688  23.4968  15.6454  3.874912
  15879.277  15879.300  0.500  0.406735  23.5006  15.6472  3.875186
  15879.587  15879.600  0.500  0.406333  23.4908  15.6469  3.874653
  15879.874  15879.900  0.500  0.405992  23.4941  15.6545  3.875369
  15880.183  15880.200  0.500  0.405934  23.4937  15.6551  3.876104
  15880.481  15880.500  0.500  0.405662  23.489  15.6562  3.876316
  15880.757  15880.800  0.500  0.405584  23.4902  15.6583  3.878455
  15881.089  15881.100  0.500  0.405321  23.4834  15.6579  3.877647
  15881.387  15881.400  0.500  0.405264  23.4789  15.6558  3.877981
  15881.696  15881.700  0.500  0.405058  23.4828  15.6616  3.879253
  15882.005  15882.000  0.500  0.404884  23.4789  15.6617  3.879589
  15882.303  15882.300  0.500  0.404900  23.4792  15.6617  3.881428
  15882.580  15882.600  0.500  0.404659  23.4737  15.6618  3.882092
  15882.900  15882.900  0.500  0.404591  23.469  15.6597  3.882562
  15883.198  15883.200  0.500  0.404495  23.4652  15.6587  3.882885
  15883.508  15883.500  0.500  0.404661  23.4696  15.659  3.885638
  15883.817  15883.800  0.500  0.404491  23.4644  15.6582  3.884821
  15884.115  15884.100  0.500  0.404527  23.4579  15.6533  3.886458
  15884.403  15884.400  0.500  0.404696  23.4584  15.651  3.888039
  15884.723  15884.700  0.500  0.404880  23.4595  15.6488  3.888559
  15885.021  15885.000  0.500  0.404871  23.455  15.6459  3.890693
  15885.286  15885.300  0.500  0.405175  23.4543  15.6407  3.890946
  15885.596  15885.600  0.500  0.405210  23.4555  15.641  3.891602
  15885.839  15885.800  0.500  0.405459  23.451  15.6341  3.891234
  15886.845  15886.790  0.500  0.405624  23.4457  15.628  3.893313
  15887.806  15887.790  0.500  0.406388  23.439  15.6116  3.893718
  15888.834  15888.810  0.500  0.406858  23.4318  15.5994  3.893331
  15889.885  15889.860  0.500  0.407355  23.4267  15.5883  3.894050
  15890.924  15890.920  0.500  0.407858  23.418  15.5747  3.891810
  15892.008  15892.000  0.500  0.407839  23.4119  15.5709  3.889863
  15893.103  15893.100  0.500  0.407755  23.4026  15.5661  3.887958
  15894.231  15894.220  0.500  0.407739  23.3946  15.561  3.884445
  15895.393  15895.360  0.500  0.407579  23.3859  15.5577  3.880745
  15896.544  15896.510  0.500  0.407582  23.3809  15.5543  3.878019
  15897.728  15897.690  0.500  0.407668  23.3773  15.5505  3.872754
  15898.890  15898.880  0.500  0.407768  23.3675  15.5425  3.867574
  15900.086  15900.100  0.500  0.408084  23.3613  15.5335  3.863569
  15901.315  15901.330  0.500  0.408204  23.3487  15.5232  3.857263
  15902.577  15902.580  0.500  0.408861  23.345  15.5106  3.854505
  15903.840  15903.850  0.500  0.408787  23.3333  15.5039  3.853006
  15905.169  15905.140  0.500  0.408655  23.3194  15.4968  3.851982
  15906.476  15906.450  0.500  0.408192  23.3089  15.497  3.855058
  15907.795  15907.780  0.500  0.407425  23.298  15.5016  3.861165
  15909.147  15909.130  0.500  0.406598  23.2855  15.5061  3.864321
  15910.510  15910.500  0.500  0.405499  23.2234  15.4817  3.862365
  15911.885  15911.880  0.500  0.404702  23.0666  15.3895  3.845030
  15913.304  15913.290  0.500  0.403886  23.1046  15.4274  3.859142
  15914.724  15914.710  0.500  0.402744  23.2397  15.5354  3.888646
  15916.166  15916.150  0.500  0.402289  23.2696  15.5624  3.898507
  15917.642  15917.610  0.500  0.401638  23.2614  15.567  3.898760
  15919.129  15919.090  0.500  0.401062  23.2484  15.5673  3.898713
  15920.594  15920.590  0.500  0.400643  23.2403  15.5684  3.899185
  15922.126  15922.110  0.500  0.400365  23.2293  15.5654  3.897682
  15923.658  15923.650  0.500  0.400277  23.2188  15.5597  3.895837
  15925.202  15925.210  0.500  0.400354  23.2119  15.5539  3.893208
  15926.812  15926.780  0.500  0.400734  23.198  15.5387  3.889180
  15928.401  15928.380  0.500  0.401076  23.1918  15.5292  3.886878
  15930.023  15929.990  0.500  0.401628  23.1801  15.5128  3.883570
  15931.624  15931.630  0.500  0.402161  23.1694  15.4974  3.880287
  15933.324  15933.280  0.500  0.402391  23.1559  15.4848  3.877738
  15934.914  15934.950  0.500  0.402424  23.1398  15.4735  3.876662
  15936.649  15936.640  0.500  0.402717  23.1343  15.4653  3.877077
  15938.284  15938.350  0.500  0.402507  23.1222  15.4605  3.879389
  15940.087  15940.080  0.500  0.402178  23.1129  15.4593  3.881476
  15941.790  15941.830  0.500  0.401475  23.0996  15.4613  3.882901
  15943.604  15943.590  0.500  0.400976  23.0837  15.4583  3.885529
  15945.352  15945.380  0.500  0.400536  23.0662  15.4534  3.887237
  15947.134  15947.180  0.500  0.400079  23.0489  15.4489  3.887889
  15948.960  15949.010  0.500  0.399421  22.9131  15.368  3.868927
  15950.810  15950.850  0.500  0.398789  22.853  15.3374  3.863507
  15952.682  15952.710  0.500  0.398473  23.0167  15.4521  3.893319
  15955.168  15954.590  0.500  0.398014  23.0234  15.4637  3.897533
  15956.383  15956.490  0.500  0.397733  23.0912  15.5136  3.912082
  15958.435  15958.410  0.500  0.397086  23.0639  15.5053  3.910312
  15960.231  15960.350  0.500  0.396585  23.0546  15.5068  3.911430
  15962.205  15962.310  0.500  0.396065  23.0303  15.4985  3.910019
  15964.359  15964.280  0.500  0.395620  23.0247  15.5017  3.913766
  15966.424  15966.280  0.500  0.395159  23.0134  15.5012  3.913935
  15968.200  15968.290  0.500  0.394773  23.0023  15.4997  3.914540
  15970.244  15970.320  0.500  0.394511  22.9832  15.4909  3.913934
  15972.321  15972.380  0.500  0.393985  22.9699  15.4901  3.916665
  15974.377  15974.450  0.500  0.393793  22.9575  15.4847  3.916375
  15976.479  15976.540  0.500  0.393421  22.948  15.484  3.918378
  15978.592  15978.650  0.500  0.393522  22.938  15.4757  3.918180
  15980.716  15980.780  0.500  0.393171  22.9143  15.4652  3.916450
  15982.842  15982.920  0.500  0.392985  22.8919  15.4529  3.916498
  15985.024  15985.090  0.500  0.392871  22.7366  15.3498  3.893019
  15987.240  15987.280  0.500  0.392908  22.7558  15.3622  3.898865
  15989.434  15989.480  0.500  0.392575  22.8811  15.452  3.922946
  15991.662  15991.700  0.500  0.392564  22.8691  15.444  3.922232
  15993.903  15993.950  0.500  0.392106  22.8556  15.442  3.923699
  15996.166  15996.210  0.500  0.391851  22.8437  15.4379  3.925493
  15998.441  15998.490  0.500  0.391426  22.8307  15.4356  3.925828
  16000.751  16000.790  0.500  0.390953  22.8099  15.4289  3.926832
  16003.072  16003.110  0.500  0.390221  22.7965  15.4311  3.929416
  16005.405  16005.450  0.500  0.389820  22.7843  15.429  3.930627
  16007.762  16007.800  0.500  0.389451  22.7736  15.4275  3.932362
  16010.130  16010.180  0.500  0.388783  22.7577  15.427  3.934472
  16012.544  16012.570  0.500  0.388297  22.7435  15.4248  3.936155
  16014.993  16014.990  0.500  0.387776  22.7244  15.4199  3.937492
  16017.397  16017.420  0.500  0.387352  22.711  15.4174  3.938670
  16019.880  16019.870  0.500  0.387003  22.6865  15.4061  3.938365
  16022.309  16022.350  0.500  0.386576  22.6557  15.3918  3.936860
  16024.816  16024.840  0.500  0.386279  22.4426  15.2516  3.902465
  16027.336  16027.350  0.500  0.385651  22.5566  15.3387  3.927160
  16029.845  16029.870  0.500  0.385297  22.6024  15.3753  3.938196
  16032.400  16032.420  0.500  0.384769  22.6133  15.3908  3.945456
  16035.012  16034.990  0.500  0.384282  22.6168  15.4007  3.948224
  16037.547  16037.570  0.500  0.383914  22.6057  15.3988  3.950498
  16040.183  16040.180  0.500  0.383551  22.5918  15.3949  3.951068
  16042.820  16042.800  0.500  0.383173  22.5784  15.3916  3.951385
  16045.425  16045.450  0.500  0.382921  22.5605  15.3832  3.950755
  16048.075  16048.110  0.500  0.382786  22.5431  15.3734  3.951168
  16050.782  16050.790  0.500  0.382326  22.5294  15.3712  3.952044
  16053.480  16053.490  0.500  0.382165  22.5122  15.3619  3.952384
  16056.234  16056.210  0.500  0.381704  22.4943  15.3568  3.953106
  16058.956  16058.950  0.500  0.381345  22.4756  15.3496  3.953615
  16061.701  16061.700  0.500  0.380998  22.4592  15.3437  3.954024
  16064.504  16064.480  0.500  0.380528  22.4437  15.3403  3.957285
  16067.251  16067.270  0.500  0.380144  22.4309  15.3374  3.958732
  16070.067  16070.090  0.500  0.379596  22.4133  15.3338  3.960265
  16072.895  16072.920  0.500  0.379160  22.3963  15.3289  3.960912
  16075.769  16075.770  0.500  0.378580  22.3334  15.2947  3.953483
  16078.668  16078.650  0.500  0.378167  22.3381  15.3042  3.958606
  16081.544  16081.540  0.500  0.377744  22.3525  15.3205  3.964279
  16084.490  16084.450  0.500  0.377060  22.3268  15.3134  3.965070
  16087.369  16087.370  0.500  0.376528  22.3148  15.3133  3.966973
  16090.316  16090.320  0.500  0.376277  22.2988  15.3062  3.968579
  16093.277  16093.290  0.500  0.375727  22.2789  15.3009  3.968661
  16096.283  16096.270  0.500  0.375263  22.2619  15.2964  3.969352
  16099.302  16099.280  0.500  0.374808  22.2314  15.2823  3.967957
  16102.323  16102.300  0.500  0.374551  22.2197  15.2782  3.969526
  16105.344  16105.350  0.500  0.373903  22.2118  15.2827  3.973859
  16108.389  16108.410  0.500  0.373515  22.1926  15.2754  3.974086
  16111.493  16111.490  0.500  0.372813  22.1741  15.2734  3.976262
  16114.597  16114.590  0.500  0.372496  22.1603  15.2687  3.977164
  16117.703  16117.710  0.500  0.371994  22.1376  15.2607  3.977668
  16120.856  16120.850  0.500  0.371543  22.1108  15.2491  3.976935
  16123.987  16124.000  0.500  0.370937  22.0474  15.2147  3.971142
  16127.176  16127.180  0.500  0.370412  22.0839  15.2478  3.982379
  16130.377  16130.370  0.500  0.370012  22.0635  15.2399  3.983696
  16133.615  16133.590  0.500  0.369420  22.0475  15.2378  3.985294
  16136.842  16136.820  0.500  0.368988  22.0298  15.2321  3.985964
  16140.048  16140.070  0.500  0.368598  22.0095  15.224  3.987104
  16143.334  16143.350  0.500  0.368073  21.9802  15.2118  3.986354
  16146.646  16146.640  0.500  0.367655  21.9401  15.1904  3.983791
  16149.935  16149.950  0.500  0.366951  21.9515  15.209  3.991808
  16153.283  16153.270  0.500  0.366526  21.9286  15.1996  3.992069
  16156.621  16156.620  0.500  0.365983  21.9133  15.1972  3.993013
  16159.984  16159.990  0.500  0.365383  21.8865  15.1877  3.994614
  16163.416  16163.370  0.500  0.364988  21.8707  15.1828  3.995329
  16166.804  16166.780  0.500  0.364376  21.8479  15.1762  3.996839
  16170.228  16170.200  0.500  0.363827  21.8407  15.1795  4.000132
  16173.642  16173.650  0.500  0.363348  21.7553  15.1275  3.989324
  16177.091  16177.110  0.500  0.362723  21.7999  15.1679  4.002751
  16180.623  16180.590  0.500  0.361992  21.7801  15.1652  4.005127
  16184.098  16184.090  0.500  0.361506  21.7598  15.1584  4.005891
  16187.621  16187.610  0.500  0.360896  21.7394  15.1535  4.007494
  16191.158  16191.150  0.500  0.360238  21.7182  15.1486  4.009284
  16194.718  16194.700  0.500  0.359718  21.6947  15.1401  4.009167
  16198.303  16198.280  0.500  0.359193  21.6598  15.1238  4.008925
  16201.902  16201.880  0.500  0.358669  21.6541  15.1277  4.012633
  16205.490  16205.490  0.500  0.358389  21.6384  15.1209  4.014202
  16209.114  16209.120  0.500  0.357851  21.6217  15.1174  4.015703
  16212.764  16212.780  0.500  0.357136  21.5954  15.1098  4.015787
  16216.484  16216.450  0.500  0.356664  21.583  15.1082  4.019082
  16220.171  16220.140  0.500  0.355909  21.5592  15.103  4.021191
  16223.848  16223.850  0.500  0.355407  21.5364  15.0946  4.022348
  16227.573  16227.580  0.500  0.354791  21.5148  15.0888  4.022853
  16231.311  16231.320  0.500  0.354113  21.4825  15.0763  4.022564
  16235.098  16235.090  0.500  0.353568  21.4274  15.0458  4.017580
  16238.920  16238.880  0.500  0.352969  21.4389  15.0629  4.025327
  16242.687  16242.680  0.500  0.352467  21.4306  15.0647  4.029339
  16246.502  16246.510  0.500  0.351969  21.4068  15.0555  4.031041
  16250.365  16250.350  0.500  0.351295  21.3819  15.0481  4.030394
  16254.218  16254.210  0.500  0.350539  21.333  15.025  4.027733
  16258.119  16258.090  0.500  0.349933  21.3342  15.0349  4.032303
  16261.964  16261.990  0.500  0.349617  21.3159  15.0268  4.035246
  16265.950  16265.910  0.500  0.348965  21.2935  15.0208  4.035645
  16269.869  16269.850  0.500  0.348333  21.2691  15.0131  4.037417
  16273.847  16273.810  0.500  0.347574  21.2581  15.0167  4.041123
  16277.770  16277.780  0.500  0.347129  21.2329  15.0056  4.042520
  16281.798  16281.780  0.500  0.346519  21.2116  14.9997  4.043547
  16285.806  16285.790  0.500  0.345961  21.191  14.9935  4.044761
  16289.885  16289.830  0.500  0.345161  21.1632  14.9858  4.045566
  16293.897  16293.880  0.500  0.344565  21.1427  14.9802  4.046960
  16297.945  16297.950  0.500  0.343955  21.1171  14.9712  4.047428
  16302.066  16302.040  0.500  0.343396  21.0941  14.9632  4.049788
  16306.176  16306.150  0.500  0.342767  21.0215  14.9211  4.040344
  16310.289  16310.280  0.500  0.342153  21.0529  14.9526  4.052605
  16314.416  16314.430  0.500  0.341445  21.0251  14.9434  4.053775
  16318.626  16318.590  0.500  0.340759  21.0007  14.9363  4.054807
  16322.804  16322.780  0.500  0.340222  20.9867  14.9344  4.057742
  16326.984  16326.980  0.500  0.339672  20.956  14.9207  4.058620
  16331.236  16331.210  0.500  0.339002  20.9301  14.9123  4.058877
  16335.443  16335.450  0.500  0.338182  20.9062  14.9075  4.059165
  16339.711  16339.710  0.500  0.337699  20.8851  14.8996  4.061467
  16344.028  16343.990  0.500  0.336981  20.8648  14.8959  4.063601
  16348.313  16348.290  0.500  0.336427  20.8414  14.8874  4.064401
  16352.611  16352.610  0.500  0.335902  20.8054  14.8695  4.063271
  16356.970  16356.950  0.500  0.335013  20.7874  14.8699  4.066960
  16361.320  16361.310  0.500  0.334322  20.7668  14.8653  4.068335
  16365.708  16365.690  0.500  0.333883  20.7466  14.8574  4.070280
  16370.097  16370.080  0.500  0.333092  20.697  14.8337  4.067009
  16374.548  16374.500  0.500  0.332446  20.6312  14.796  4.061917
  16378.943  16378.930  0.500  0.331882  20.6622  14.8266  4.072597
  16383.375  16383.380  0.500  0.331400  20.6885  14.8526  4.083584
  16387.868  16387.850  0.500  0.330818  20.6785  14.8541  4.088022
  16392.341  16392.340  0.500  0.329989  20.6515  14.847  4.089581
  16396.874  16396.850  0.500  0.329203  20.6251  14.8397  4.090221
  16401.375  16401.380  0.500  0.328524  20.5789  14.8165  4.086893
  16405.973  16405.930  0.500  0.327836  20.5666  14.8179  4.090090
  16410.526  16410.500  0.500  0.327229  20.5427  14.8096  4.093369
  16415.105  16415.080  0.500  0.326497  20.527  14.8091  4.095720
  16419.699  16419.690  0.500  0.325805  20.4896  14.7924  4.095502
  16424.354  16424.310  0.500  0.325089  20.4742  14.7919  4.098325
  16429.013  16428.960  0.500  0.324345  20.4527  14.7873  4.100616
  16433.650  16433.620  0.500  0.323826  20.4224  14.7731  4.100608
  16438.325  16438.300  0.500  0.323058  20.3901  14.7611  4.101511
  16443.038  16443.000  0.500  0.322410  20.3257  14.724  4.094611
  16447.754  16447.720  0.500  0.321864  20.3493  14.7491  4.106179
  16452.497  16452.460  0.500  0.321099  20.3283  14.7451  4.107963
  16457.254  16457.210  0.500  0.320392  20.2876  14.7261  4.106604
  16462.038  16461.990  0.500  0.319573  20.2643  14.7212  4.108814
  16466.800  16466.790  0.500  0.318920  20.2462  14.7176  4.111456
  16471.613  16471.600  0.500  0.318258  20.2261  14.7127  4.114450
  16476.465  16476.430  0.500  0.317604  20.202  14.7049  4.115590
  16481.331  16481.290  0.500  0.316831  20.1546  14.6817  4.112205
  16486.141  16486.160  0.500  0.316010  20.1465  14.6878  4.118308
  16491.061  16491.050  0.500  0.315230  20.1106  14.6732  4.118471
  16495.996  16495.960  0.500  0.314566  20.0822  14.6622  4.119338
  16500.921  16500.890  0.500  0.313914  20.0593  14.655  4.121244
  16505.814  16505.830  0.500  0.313099  20.0298  14.6454  4.121619
  16510.817  16510.800  0.500  0.312490  19.9958  14.6294  4.121711
  16515.848  16515.790  0.500  0.311847  19.9748  14.6234  4.124509
  16520.821  16520.790  0.500  0.311033  19.9509  14.6178  4.126257
  16525.822  16525.820  0.500  0.310447  19.9227  14.6057  4.126840
  16530.897  16530.860  0.500  0.309779  19.8973  14.5968  4.128310
  16535.940  16535.920  0.500  0.308840  19.869  14.5898  4.129690
  16541.009  16541.000  0.500  0.308253  19.8487  14.5834  4.132441
  16546.106  16546.100  0.500  0.307425  19.7875  14.5505  4.126255
  16551.254  16551.220  0.500  0.306587  19.788  14.5631  4.132871
  16556.393  16556.360  0.500  0.306117  19.7608  14.5499  4.135253
  16561.536  16561.520  0.500  0.305170  19.7198  14.5335  4.134048
  16566.778  16566.700  0.500  0.304355  19.7018  14.532  4.136541
  16571.938  16571.890  0.500  0.303644  19.6737  14.5216  4.137490
  16577.175  16577.110  0.500  0.303087  19.6513  14.5132  4.139552
  16582.391  16582.340  0.500  0.302342  19.6055  14.4901  4.137405
  16587.585  16587.590  0.500  0.301513  19.5871  14.4885  4.141318
  16592.904  16592.860  0.500  0.300742  19.5482  14.471  4.139141
  16598.154  16598.150  0.500  0.299816  19.5331  14.4731  4.143487
  16603.492  16603.460  0.500  0.299394  19.5088  14.4612  4.144581
  16608.845  16608.790  0.500  0.298509  19.4778  14.451  4.145087
  16614.202  16614.140  0.500  0.297936  19.4449  14.4349  4.146200
  16619.562  16619.510  0.500  0.297055  19.414  14.4247  4.146571
  16624.962  16624.890  0.500  0.296238  19.3864  14.4159  4.148219
  16630.365  16630.300  0.500  0.295541  19.3572  14.4042  4.149342
  16635.760  16635.720  0.500  0.294770  19.3218  14.389  4.148645
  16641.219  16641.170  0.500  0.293899  19.2913  14.3788  4.148322
  16646.670  16646.630  0.500  0.293098  19.251  14.3603  4.148491
  16652.149  16652.110  0.500  0.292416  19.2215  14.348  4.148150
  16657.631  16657.610  0.500  0.291491  19.2037  14.348  4.152573
  16663.190  16663.130  0.500  0.290618  19.173  14.3376  4.152540
  16668.716  16668.670  0.500  0.290164  19.1408  14.32  4.153745
  16674.270  16674.220  0.500  0.289140  19.109  14.3108  4.153256
  16679.864  16679.800  0.500  0.288623  19.0721  14.2906  4.152919
  16685.462  16685.400  0.500  0.287679  19.0278  14.2709  4.151835
  16691.052  16691.010  0.500  0.286919  18.9903  14.2536  4.150179
  16696.670  16696.650  0.500  0.286056  18.9262  14.2177  4.144529
  16702.353  16702.300  0.500  0.285280  18.853  14.1737  4.135660
  16708.003  16707.970  0.500  0.284542  18.7499  14.1066  4.120055
  16713.657  16713.660  0.500  0.283672  18.0929  13.6242  3.980467