File: xdidata/Pb/Pb-L1-Cerrusite.xdi
# XDI/1.0 BlueSky/1.10.0 BMM/2023-1.0-py310-tiled
# Beamline.name: BMM (06BM) -- Beamline for Materials Measurement (NIST)
# Beamline.xray_source: NSLS-II three-pole wiggler
# Beamline.collimation: paraboloid mirror, 5 nm Rh on 30 nm Pt
# Beamline.focusing: not in use
# Beamline.harmonic_rejection: flat mirror, Pt stripe, pitch = 7.0 mrad relative to beam
# Beamline.software: Bluesky 1.10.0, Ophyd 1.7.0, DataBroker 2.0.0b13, Python 3.10.8, 2023-1.0-py310-tiled
# Detector.I0: 10 cm N2
# Detector.I1: 25 cm N2
# Detector.I2: 25 cm N2
# Element.symbol: Pb
# Element.edge: L1
# Element.reference: Pb
# Element.reference_material: Pb foil
# Facility.name: NSLS-II
# Facility.energy: 3.0
# Facility.current: 401.0
# Facility.mode: top-off
# Facility.GUP: 301027
# Facility.SAF: 310583
# Facility.cycle: 2023-2
# Mono.name: Si(111)
# Mono.d_spacing: 3.13519
# Mono.encoder_resolution: 0.0000050 deg/ct
# Mono.angle_offset: 16.0754 deg
# Mono.scan_mode: pseudo channel cut
# Mono.scan_type: step
# Mono.direction: forward in energy
# Sample.name: PbCO3
# Sample.prep: powder on tape
# Sample.x: 143.785 mm
# Sample.y: 114.695 mm
# Sample.SDD_position: 205.000 mm
# Scan.experimenters: Bruce Ravel
# Scan.edge_energy: 15860.8
# Scan.start_time: 2023-06-23T18:30:26
# Scan.end_time: 2023-06-23T18:38:45
# Scan.transient_id: 84936
# Scan.uid: e41eae72-643c-4ad5-b4e9-27742c4d792d
# Scan.plot_hint: ln(I0/It)  --  ln($5/$6)
# Column.1: energy eV
# Column.2: requested_energy eV
# Column.3: measurement_time seconds
# Column.4: xmu
# Column.5: I0 nA
# Column.6: It nA
# Column.7: Ir nA
# ///////////
# BMM standards collection
# -----------
# energy  requested_energy  measurement_time  xmu  I0  It  Ir
  15660.859  15660.800  0.500  -0.012941  24.7572  25.0796  7.004807
  15670.863  15670.800  0.500  -0.014066  24.6151  24.9638  6.982897
  15680.944  15680.800  0.500  -0.014903  24.6181  24.9877  7.004145
  15690.908  15690.800  0.500  -0.015843  24.5817  24.9743  7.012291
  15700.875  15700.800  0.500  -0.016902  24.5183  24.9362  7.015421
  15710.876  15710.800  0.500  -0.017836  24.4493  24.8893  7.013048
  15720.900  15720.800  0.500  -0.018661  24.4004  24.8601  7.017209
  15730.949  15730.800  0.500  -0.019671  24.3358  24.8193  7.017545
  15740.760  15740.800  0.500  -0.020511  24.284  24.7873  7.018814
  15750.802  15750.800  0.500  -0.021627  24.2109  24.7402  7.016919
  15760.812  15760.800  0.500  -0.022477  24.1533  24.7023  7.016945
  15770.825  15770.800  0.500  -0.023196  24.0962  24.6616  7.013172
  15780.818  15780.800  0.500  -0.023969  24.0394  24.6226  7.011884
  15790.856  15790.800  0.500  -0.024620  23.9784  24.5761  7.005222
  15800.864  15800.800  0.500  -0.025182  23.9201  24.5301  6.996524
  15810.851  15810.800  0.500  -0.025586  23.864  24.4824  6.988791
  15820.873  15820.800  0.500  -0.025501  23.8066  24.4215  6.968086
  15830.876  15830.800  0.500  -0.024933  23.7412  24.3406  6.932449
  15832.785  15832.800  0.500  -0.024639  23.7304  24.3224  6.922454
  15834.794  15834.800  0.500  -0.024409  23.719  24.3051  6.912692
  15836.760  15836.800  0.500  -0.023889  23.7106  24.2838  6.899506
  15838.770  15838.800  0.500  -0.023272  23.6987  24.2567  6.881450
  15840.791  15840.800  0.500  -0.022498  23.6874  24.2263  6.863502
  15842.802  15842.800  0.500  -0.021419  23.675  24.1876  6.836767
  15844.803  15844.800  0.500  -0.020227  23.6533  24.1366  6.806022
  15846.782  15846.800  0.500  -0.018628  23.6379  24.0824  6.768976
  15848.795  15848.800  0.500  -0.016333  23.6307  24.0198  6.719264
  15850.775  15850.800  0.500  -0.013173  23.608  23.9211  6.647859
  15851.017  15851.100  0.500  -0.012740  23.6122  23.915  6.641598
  15851.314  15851.400  0.500  -0.012361  23.6081  23.9018  6.628415
  15851.644  15851.700  0.500  -0.011589  23.6042  23.8794  6.613258
  15851.952  15852.000  0.500  -0.010871  23.6042  23.8622  6.599336
  15852.205  15852.300  0.500  -0.010410  23.5968  23.8438  6.585181
  15852.535  15852.600  0.500  -0.009472  23.6018  23.8264  6.573405
  15852.865  15852.900  0.500  -0.008571  23.5976  23.8007  6.553865
  15853.163  15853.200  0.500  -0.008062  23.5978  23.7888  6.539496
  15853.427  15853.500  0.500  -0.007223  23.5888  23.7598  6.522369
  15853.757  15853.800  0.500  -0.006331  23.5923  23.7422  6.505624
  15854.087  15854.100  0.500  -0.005285  23.5928  23.7178  6.487048
  15854.373  15854.400  0.500  -0.004311  23.5984  23.7003  6.468673
  15854.659  15854.700  0.500  -0.003218  23.5957  23.6717  6.446655
  15854.990  15855.000  0.500  -0.002178  23.593  23.6445  6.426172
  15855.287  15855.300  0.500  -0.000924  23.5907  23.6125  6.400294
  15855.584  15855.600  0.500  0.000196  23.5856  23.581  6.377380
  15855.881  15855.900  0.500  0.001568  23.5834  23.5465  6.350762
  15856.190  15856.200  0.500  0.002964  23.5887  23.5188  6.326815
  15856.498  15856.500  0.500  0.004592  23.5867  23.4787  6.296070
  15856.762  15856.800  0.500  0.005988  23.5855  23.4446  6.267770
  15857.081  15857.100  0.500  0.007718  23.5828  23.4015  6.236539
  15857.401  15857.400  0.500  0.009705  23.5751  23.3474  6.199282
  15857.687  15857.700  0.500  0.011506  23.5762  23.3065  6.165942
  15857.973  15858.000  0.500  0.013446  23.5796  23.2646  6.132950
  15858.282  15858.300  0.500  0.015454  23.5781  23.2165  6.094386
  15858.601  15858.600  0.500  0.017858  23.5754  23.1581  6.054705
  15858.876  15858.900  0.500  0.019950  23.5745  23.1088  6.016786
  15859.207  15859.200  0.500  0.022370  23.5716  23.0502  5.974025
  15859.493  15859.500  0.500  0.024905  23.5791  22.9991  5.933148
  15859.769  15859.800  0.500  0.027226  23.5734  22.9403  5.894834
  15860.077  15860.100  0.500  0.029854  23.5742  22.8809  5.852486
  15860.385  15860.400  0.500  0.032500  23.5758  22.8219  5.810539
  15860.661  15860.700  0.500  0.034944  23.5681  22.7588  5.769570
  15860.991  15861.000  0.500  0.037579  23.5752  22.7057  5.729661
  15861.289  15861.300  0.500  0.040415  23.5747  22.6409  5.687237
  15861.575  15861.600  0.500  0.042795  23.5815  22.5936  5.652087
  15861.862  15861.900  0.500  0.045237  23.5746  22.5319  5.616386
  15862.181  15862.200  0.500  0.047627  23.5762  22.4797  5.581115
  15862.457  15862.500  0.500  0.049524  23.5785  22.4392  5.551802
  15862.765  15862.800  0.500  0.051756  23.5775  22.3883  5.521922
  15863.107  15863.100  0.500  0.053707  23.5701  22.3376  5.492276
  15863.393  15863.400  0.500  0.055164  23.5756  22.3103  5.472174
  15863.680  15863.700  0.500  0.056483  23.5765  22.2818  5.452454
  15863.999  15864.000  0.500  0.057653  23.58  22.2589  5.437675
  15864.275  15864.300  0.500  0.058486  23.5789  22.2394  5.425167
  15864.594  15864.600  0.500  0.059088  23.5776  22.2248  5.414295
  15864.903  15864.900  0.500  0.059436  23.5751  22.2147  5.406912
  15865.201  15865.200  0.500  0.059384  23.5746  22.2154  5.404938
  15865.498  15865.500  0.500  0.059172  23.5721  22.2178  5.404922
  15865.829  15865.800  0.500  0.058742  23.5715  22.2267  5.406438
  15866.082  15866.100  0.500  0.058175  23.5696  22.2375  5.411566
  15866.424  15866.400  0.500  0.057154  23.5662  22.2571  5.417382
  15866.711  15866.700  0.500  0.056221  23.5708  22.2822  5.427325
  15866.986  15867.000  0.500  0.054939  23.5691  22.3092  5.438185
  15867.295  15867.300  0.500  0.053715  23.5681  22.3355  5.449347
  15867.604  15867.600  0.500  0.052217  23.5685  22.3694  5.464412
  15867.901  15867.900  0.500  0.050623  23.5622  22.3991  5.477581
  15868.232  15868.200  0.500  0.048770  23.5609  22.4395  5.493246
  15868.508  15868.500  0.500  0.047268  23.5596  22.4719  5.507152
  15868.806  15868.800  0.500  0.045799  23.5619  22.5071  5.522501
  15869.103  15869.100  0.500  0.044381  23.5576  22.535  5.535464
  15869.379  15869.400  0.500  0.042621  23.5592  22.5762  5.551921
  15869.688  15869.700  0.500  0.041136  23.5583  22.6089  5.567162
  15869.997  15870.000  0.500  0.039727  23.5526  22.6352  5.579227
  15870.272  15870.300  0.500  0.038195  23.5569  22.6741  5.592680
  15870.592  15870.600  0.500  0.036843  23.5511  22.6992  5.606495
  15870.868  15870.900  0.500  0.035620  23.5482  22.7242  5.617153
  15871.166  15871.200  0.500  0.034341  23.5489  22.7539  5.628566
  15871.486  15871.500  0.500  0.033028  23.5447  22.7797  5.639157
  15871.750  15871.800  0.500  0.032108  23.5438  22.7998  5.649064
  15872.092  15872.100  0.500  0.031097  23.5442  22.8233  5.658165
  15872.412  15872.400  0.500  0.030128  23.5404  22.8417  5.664278
  15872.666  15872.700  0.500  0.029403  23.535  22.8531  5.668927
  15873.008  15873.000  0.500  0.028694  23.5386  22.8727  5.675900
  15873.295  15873.300  0.500  0.027886  23.5296  22.8826  5.679397
  15873.582  15873.600  0.500  0.027246  23.5247  22.8924  5.683022
  15873.902  15873.900  0.500  0.026742  23.5255  22.9047  5.685643
  15874.200  15874.200  0.500  0.026067  23.5246  22.9193  5.689530
  15874.498  15874.500  0.500  0.025579  23.5197  22.9257  5.691234
  15874.829  15874.800  0.500  0.025106  23.518  22.9349  5.693647
  15875.116  15875.100  0.500  0.024664  23.5164  22.9435  5.696241
  15875.392  15875.400  0.500  0.024443  23.5165  22.9486  5.696575
  15875.723  15875.700  0.500  0.024051  23.5144  22.9556  5.696452
  15876.010  15876.000  0.500  0.023908  23.5136  22.9581  5.696494
  15876.297  15876.300  0.500  0.023531  23.51  22.9633  5.695358
  15876.628  15876.600  0.500  0.023439  23.5117  22.967  5.694472
  15876.915  15876.900  0.500  0.023194  23.5091  22.9701  5.693976
  15877.202  15877.200  0.500  0.022947  23.5089  22.9756  5.693823
  15877.511  15877.500  0.500  0.022917  23.5073  22.9747  5.692809
  15877.798  15877.800  0.500  0.022887  23.5069  22.975  5.691879
  15878.096  15878.100  0.500  0.022749  23.5034  22.9748  5.691281
  15878.416  15878.400  0.500  0.022589  23.4992  22.9743  5.688863
  15878.692  15878.700  0.500  0.022726  23.5008  22.9728  5.686509
  15878.990  15879.000  0.500  0.022677  23.4921  22.9653  5.686117
  15879.288  15879.300  0.500  0.022668  23.4927  22.9662  5.683454
  15879.587  15879.600  0.500  0.022747  23.4928  22.9644  5.682061
  15879.874  15879.900  0.500  0.022792  23.4883  22.959  5.681247
  15880.194  15880.200  0.500  0.022835  23.4862  22.956  5.678487
  15880.492  15880.500  0.500  0.022875  23.4849  22.9537  5.677050
  15880.768  15880.800  0.500  0.023044  23.4839  22.9489  5.677534
  15881.100  15881.100  0.500  0.022991  23.4755  22.942  5.676194
  15881.376  15881.400  0.500  0.023412  23.48  22.9367  5.675098
  15881.674  15881.700  0.500  0.023403  23.4739  22.9309  5.673962
  15882.005  15882.000  0.500  0.023714  23.4678  22.9179  5.673749
  15882.292  15882.300  0.500  0.023850  23.4681  22.915  5.673760
  15882.580  15882.600  0.500  0.024106  23.4678  22.9088  5.674453
  15882.889  15882.900  0.500  0.024394  23.51  22.9434  5.683547
  15883.198  15883.200  0.500  0.024520  23.5441  22.9738  5.694093
  15883.497  15883.500  0.500  0.024737  23.5374  22.9623  5.692206
  15883.806  15883.800  0.500  0.025064  23.5333  22.9508  5.689663
  15884.115  15884.100  0.500  0.025251  23.5303  22.9436  5.692301
  15884.414  15884.400  0.500  0.025678  23.53  22.9335  5.691694
  15884.701  15884.700  0.500  0.026112  23.534  22.9275  5.693584
  15885.010  15885.000  0.500  0.026149  23.5294  22.9221  5.693020
  15885.309  15885.300  0.500  0.026434  23.5263  22.9126  5.692646
  15885.607  15885.600  0.500  0.026807  23.5252  22.903  5.693055
  15885.828  15885.800  0.500  0.027051  23.5229  22.8951  5.692817
  15886.812  15886.790  0.500  0.028097  23.5143  22.8628  5.691751
  15887.851  15887.790  0.500  0.029239  23.5095  22.8321  5.689568
  15888.845  15888.810  0.500  0.029953  23.5017  22.8082  5.687458
  15889.874  15889.860  0.500  0.030845  23.4938  22.7802  5.684806
  15890.902  15890.920  0.500  0.031438  23.4896  22.7626  5.681790
  15891.997  15892.000  0.500  0.031773  23.4823  22.7479  5.677054
  15893.125  15893.100  0.500  0.031969  23.4755  22.7369  5.673824
  15894.242  15894.220  0.500  0.031678  23.4665  22.7348  5.672036
  15895.371  15895.360  0.500  0.031501  23.4629  22.7354  5.668171
  15896.544  15896.510  0.500  0.031129  23.4585  22.7395  5.664314
  15897.750  15897.690  0.500  0.030230  23.4468  22.7486  5.659688
  15898.901  15898.880  0.500  0.029670  23.4404  22.7551  5.659138
  15900.086  15900.100  0.500  0.029127  23.4314  22.7588  5.655598
  15901.326  15901.330  0.500  0.028421  23.4247  22.7683  5.654509
  15902.588  15902.580  0.500  0.027805  23.412  22.77  5.654053
  15903.829  15903.850  0.500  0.027458  23.4092  22.7752  5.656348
  15905.180  15905.140  0.500  0.026865  23.3961  22.7759  5.656840
  15906.498  15906.450  0.500  0.026491  23.3873  22.7758  5.660919
  15907.817  15907.780  0.500  0.026066  23.3724  22.771  5.664153
  15909.158  15909.130  0.500  0.025592  23.358  22.7678  5.670096
  15910.544  15910.500  0.500  0.025252  23.2993  22.7183  5.664672
  15911.874  15911.880  0.500  0.024791  23.1387  22.5721  5.633516
  15913.271  15913.290  0.500  0.024157  23.1662  22.6133  5.652721
  15914.713  15914.710  0.500  0.023798  23.3065  22.7584  5.691558
  15916.188  15916.150  0.500  0.023585  23.3462  22.802  5.705102
  15917.642  15917.610  0.500  0.023415  23.3374  22.7973  5.706259
  15919.140  15919.090  0.500  0.023211  23.3267  22.7915  5.703900
  15920.605  15920.590  0.500  0.023385  23.3167  22.7778  5.699466
  15922.103  15922.110  0.500  0.023559  23.3097  22.767  5.697799
  15923.669  15923.650  0.500  0.023610  23.292  22.7485  5.689755
  15925.190  15925.210  0.500  0.024125  23.2885  22.7334  5.686896
  15926.779  15926.780  0.500  0.024223  23.2715  22.7146  5.681201
  15928.412  15928.380  0.500  0.024579  23.268  22.7031  5.678052
  15930.023  15929.990  0.500  0.024674  23.2579  22.6911  5.676273
  15931.679  15931.630  0.500  0.024711  23.2482  22.6808  5.675110
  15933.280  15933.280  0.500  0.024610  23.2346  22.6698  5.673393
  15934.926  15934.950  0.500  0.024566  23.2221  22.6586  5.674889
  15936.616  15936.640  0.500  0.024343  23.2073  22.6491  5.675792
  15938.373  15938.350  0.500  0.024126  23.1951  22.6422  5.676263
  15940.087  15940.080  0.500  0.023858  23.1905  22.6438  5.681250
  15941.845  15941.830  0.500  0.023529  23.1773  22.6383  5.682795
  15943.615  15943.590  0.500  0.023190  23.1662  22.6352  5.685734
  15945.374  15945.380  0.500  0.022926  23.1517  22.627  5.688029
  15947.145  15947.180  0.500  0.022616  23.1229  22.6058  5.686013
  15948.994  15949.010  0.500  0.022459  22.9898  22.4792  5.655408
  15950.865  15950.850  0.500  0.022067  22.9325  22.432  5.647489
  15952.749  15952.710  0.500  0.021842  23.0856  22.5868  5.688766
  15954.599  15954.590  0.500  0.021668  23.1058  22.6105  5.694707
  15956.505  15956.490  0.500  0.021505  23.0958  22.6045  5.693845
  15958.401  15958.410  0.500  0.021007  23.0806  22.6008  5.694870
  15960.331  15960.350  0.500  0.020695  23.0706  22.598  5.695308
  15962.261  15962.310  0.500  0.020342  23.0601  22.5957  5.696132
  15964.259  15964.280  0.500  0.020037  23.0456  22.5885  5.697013
  15966.246  15966.280  0.500  0.019580  23.0273  22.5808  5.697092
  15968.244  15968.290  0.500  0.019345  23.0201  22.5791  5.699161
  15970.244  15970.320  0.500  0.019170  23.0062  22.5693  5.698807
  15972.321  15972.380  0.500  0.018708  22.9849  22.5589  5.699254
  15974.411  15974.450  0.500  0.018739  22.979  22.5524  5.700821
  15976.512  15976.540  0.500  0.018538  22.9667  22.5449  5.700538
  15978.894  15978.650  0.500  0.018389  22.9455  22.5275  5.700085
  15980.683  15980.780  0.500  0.018076  22.9249  22.5143  5.697711
  15983.211  15982.920  0.500  0.017993  22.8917  22.4835  5.695224
  15985.068  15985.090  0.500  0.017746  22.7381  22.3382  5.658960
  15987.553  15987.280  0.500  0.017503  22.7832  22.3878  5.677321
  15989.535  15989.480  0.500  0.017390  22.8757  22.4813  5.702537
  15991.763  15991.700  0.500  0.017097  22.8646  22.4771  5.704717
  15994.060  15993.950  0.500  0.017008  22.8477  22.4623  5.702635
  15996.121  15996.210  0.500  0.016697  22.8309  22.4529  5.703849
  15998.453  15998.490  0.500  0.016586  22.8153  22.44  5.703504
  16000.706  16000.790  0.500  0.016294  22.8005  22.432  5.703815
  16003.027  16003.110  0.500  0.015987  22.7883  22.4269  5.706877
  16005.349  16005.450  0.500  0.015762  22.7752  22.4191  5.707207
  16007.739  16007.800  0.500  0.015428  22.7579  22.4095  5.706521
  16010.119  16010.180  0.500  0.015281  22.7478  22.4028  5.709561
  16012.533  16012.570  0.500  0.014979  22.7265  22.3886  5.708852
  16014.925  16014.990  0.500  0.014535  22.7121  22.3844  5.709270
  16017.374  16017.420  0.500  0.014305  22.6988  22.3763  5.711208
  16019.847  16019.870  0.500  0.014047  22.671  22.3547  5.709749
  16022.320  16022.350  0.500  0.013593  22.6383  22.3326  5.705634
  16024.782  16024.840  0.500  0.013408  22.4232  22.1246  5.654259
  16027.302  16027.350  0.500  0.013292  22.5449  22.2473  5.690895
  16029.845  16029.870  0.500  0.012777  22.5849  22.2982  5.706487
  16032.400  16032.420  0.500  0.012408  22.5985  22.3198  5.714600
  16034.956  16034.990  0.500  0.012160  22.6014  22.3282  5.720921
  16037.558  16037.570  0.500  0.011860  22.5941  22.3277  5.722619
  16040.183  16040.180  0.500  0.011566  22.5778  22.3182  5.722678
  16042.775  16042.800  0.500  0.011185  22.5591  22.3082  5.723123
  16045.425  16045.450  0.500  0.010995  22.543  22.2965  5.723410
  16048.086  16048.110  0.500  0.010724  22.5233  22.2831  5.722898
  16050.737  16050.790  0.500  0.010439  22.5056  22.2719  5.722698
  16053.480  16053.490  0.500  0.010135  22.4961  22.2693  5.725974
  16056.223  16056.210  0.500  0.010163  22.4831  22.2557  5.726265
  16058.956  16058.950  0.500  0.009695  22.4644  22.2476  5.726077
  16061.701  16061.700  0.500  0.009422  22.4432  22.2327  5.724933
  16064.470  16064.480  0.500  0.009088  22.4334  22.2304  5.728628
  16067.262  16067.270  0.500  0.008983  22.4103  22.2099  5.728229
  16070.067  16070.090  0.500  0.008704  22.3882  22.1942  5.726048
  16072.906  16072.920  0.500  0.008213  22.3786  22.1956  5.730177
  16075.769  16075.770  0.500  0.008046  22.3286  22.1496  5.722393
  16078.634  16078.650  0.500  0.007646  22.3162  22.1462  5.725061
  16081.556  16081.540  0.500  0.007261  22.3307  22.1692  5.733106
  16084.445  16084.450  0.500  0.007004  22.3169  22.1611  5.733909
  16087.391  16087.370  0.500  0.006738  22.2955  22.1458  5.732893
  16090.294  16090.320  0.500  0.006438  22.2843  22.1413  5.734218
  16093.277  16093.290  0.500  0.006018  22.2624  22.1288  5.733730
  16096.283  16096.270  0.500  0.005835  22.247  22.1176  5.736173
  16099.291  16099.280  0.500  0.005355  22.212  22.0933  5.732400
  16102.300  16102.300  0.500  0.005127  22.2049  22.0913  5.736611
  16105.344  16105.350  0.500  0.004769  22.1988  22.0931  5.740431
  16108.412  16108.410  0.500  0.004318  22.1796  22.084  5.739440
  16111.493  16111.490  0.500  0.004103  22.1574  22.0667  5.740250
  16114.575  16114.590  0.500  0.003748  22.1378  22.0549  5.741503
  16117.669  16117.710  0.500  0.003325  22.1246  22.0512  5.743023
  16120.833  16120.850  0.500  0.002862  22.0963  22.0332  5.742164
  16124.009  16124.000  0.500  0.002728  22.0299  21.9699  5.730904
  16127.176  16127.180  0.500  0.002285  22.0689  22.0185  5.749147
  16130.355  16130.370  0.500  0.001878  22.0485  22.0071  5.747861
  16133.558  16133.590  0.500  0.001674  22.0292  21.9923  5.747829
  16136.785  16136.820  0.500  0.001280  22.0113  21.9831  5.748568
  16140.070  16140.070  0.500  0.001088  22.0018  21.9779  5.751704
  16143.392  16143.350  0.500  0.000732  21.9572  21.9412  5.746854
  16146.668  16146.640  0.500  0.000348  21.9301  21.9224  5.744438
  16149.935  16149.950  0.500  -0.000009  21.937  21.9372  5.752025
  16153.260  16153.270  0.500  -0.000534  21.9118  21.9235  5.752776
  16156.633  16156.620  0.500  -0.000681  21.9144  21.9293  5.757909
  16160.006  16159.990  0.500  -0.001208  21.9039  21.9304  5.761539
  16163.370  16163.370  0.500  -0.001603  21.8831  21.9182  5.762564
  16166.747  16166.780  0.500  -0.001877  21.8576  21.8987  5.762123
  16170.182  16170.200  0.500  -0.002291  21.8381  21.8882  5.763086
  16173.676  16173.650  0.500  -0.002634  21.7649  21.8223  5.750089
  16177.137  16177.110  0.500  -0.002898  21.8053  21.8686  5.767528
  16180.600  16180.590  0.500  -0.003477  21.781  21.8569  5.767707
  16184.041  16184.090  0.500  -0.003793  21.7625  21.8452  5.768738
  16187.621  16187.610  0.500  -0.004141  21.7426  21.8329  5.769896
  16191.192  16191.150  0.500  -0.004514  21.7167  21.815  5.769320
  16194.718  16194.700  0.500  -0.004898  21.6977  21.8043  5.770075
  16198.280  16198.280  0.500  -0.005421  21.6758  21.7937  5.771480
  16201.867  16201.880  0.500  -0.005606  21.6575  21.7793  5.775100
  16205.513  16205.490  0.500  -0.005982  21.6478  21.7777  5.777488
  16209.114  16209.120  0.500  -0.006415  21.6248  21.764  5.777515
  16212.787  16212.780  0.500  -0.006866  21.6035  21.7524  5.778190
  16216.438  16216.450  0.500  -0.007199  21.581  21.7369  5.778409
  16220.125  16220.140  0.500  -0.007706  21.5532  21.7199  5.778378
  16223.859  16223.850  0.500  -0.007991  21.543  21.7159  5.780089
  16227.631  16227.580  0.500  -0.008385  21.5143  21.6954  5.780951
  16231.346  16231.320  0.500  -0.008884  21.4895  21.6813  5.782254
  16235.075  16235.090  0.500  -0.009193  21.436  21.634  5.772357
  16238.897  16238.880  0.500  -0.009622  21.4407  21.648  5.779969
  16242.687  16242.680  0.500  -0.009997  21.4295  21.6448  5.784520
  16246.560  16246.510  0.500  -0.010396  21.4115  21.6353  5.786837
  16250.353  16250.350  0.500  -0.010843  21.374  21.607  5.783555
  16254.195  16254.210  0.500  -0.011250  21.3382  21.5797  5.779977
  16258.119  16258.090  0.500  -0.011578  21.3401  21.5886  5.787903
  16261.999  16261.990  0.500  -0.011986  21.3225  21.5796  5.789635
  16265.950  16265.910  0.500  -0.012409  21.3045  21.5705  5.791134
  16269.822  16269.850  0.500  -0.012747  21.2757  21.5487  5.791510
  16273.801  16273.810  0.500  -0.013291  21.2535  21.5379  5.791744
  16277.781  16277.780  0.500  -0.013918  21.2379  21.5355  5.794338
  16281.833  16281.780  0.500  -0.014178  21.2154  21.5183  5.795777
  16285.794  16285.790  0.500  -0.014687  21.188  21.5015  5.794890
  16289.804  16289.830  0.500  -0.014971  21.1673  21.4866  5.795556
  16293.908  16293.880  0.500  -0.015412  21.1482  21.4767  5.796978
  16298.003  16297.950  0.500  -0.015877  21.1223  21.4603  5.798842
  16302.031  16302.040  0.500  -0.016323  21.0994  21.4466  5.798502
  16306.153  16306.150  0.500  -0.016724  21.0203  21.3748  5.783671
  16310.266  16310.280  0.500  -0.017072  21.0511  21.4136  5.800055
  16314.463  16314.430  0.500  -0.017517  21.0275  21.3991  5.800722
  16318.638  16318.590  0.500  -0.018105  20.9941  21.3776  5.798833
  16322.781  16322.780  0.500  -0.018473  20.9806  21.3717  5.802422
  16327.007  16326.980  0.500  -0.018777  20.9568  21.354  5.801920
  16331.212  16331.210  0.500  -0.019283  20.9281  21.3356  5.802020
  16335.478  16335.450  0.500  -0.019732  20.9127  21.3294  5.804648
  16339.700  16339.710  0.500  -0.020062  20.8918  21.3151  5.807748
  16343.993  16343.990  0.500  -0.020495  20.8697  21.3019  5.808076
  16348.336  16348.290  0.500  -0.020877  20.8455  21.2853  5.808577
  16352.658  16352.610  0.500  -0.021404  20.8213  21.2718  5.810214
  16356.959  16356.950  0.500  -0.021833  20.7993  21.2584  5.809582
  16361.332  16361.310  0.500  -0.022343  20.7682  21.2375  5.808483
  16365.731  16365.690  0.500  -0.022940  20.7508  21.2323  5.813271
  16370.086  16370.080  0.500  -0.023330  20.696  21.1845  5.806261
  16374.513  16374.500  0.500  -0.023771  20.6375  21.134  5.797008
  16378.954  16378.930  0.500  -0.024109  20.6782  21.1828  5.815752
  16383.410  16383.380  0.500  -0.024651  20.6544  21.1698  5.816199
  16387.892  16387.850  0.500  -0.025147  20.6227  21.1478  5.815098
  16392.341  16392.340  0.500  -0.025372  20.6048  21.1343  5.816139
  16396.827  16396.850  0.500  -0.026037  20.5728  21.1155  5.817353
  16401.411  16401.380  0.500  -0.026506  20.5371  21.0887  5.813567
  16405.973  16405.930  0.500  -0.027052  20.5241  21.0868  5.818146
  16410.514  16410.500  0.500  -0.027254  20.5112  21.0779  5.821134
  16415.082  16415.080  0.500  -0.027596  20.4807  21.0537  5.820005
  16419.735  16419.690  0.500  -0.028483  20.4427  21.0333  5.817937
  16424.343  16424.310  0.500  -0.028767  20.4305  21.0267  5.821765
  16428.930  16428.960  0.500  -0.029294  20.4069  21.0135  5.823849
  16433.614  16433.620  0.500  -0.029561  20.3814  20.9929  5.823765
  16438.301  16438.300  0.500  -0.030012  20.3395  20.9592  5.818680
  16443.014  16443.000  0.500  -0.030595  20.2846  20.9148  5.811995
  16447.719  16447.720  0.500  -0.031190  20.2989  20.942  5.823218
  16452.497  16452.460  0.500  -0.031498  20.2736  20.9224  5.825187
  16457.230  16457.210  0.500  -0.032030  20.248  20.907  5.826231
  16462.014  16461.990  0.500  -0.032468  20.2221  20.8895  5.825837
  16466.812  16466.790  0.500  -0.033161  20.2  20.8811  5.828326
  16471.649  16471.600  0.500  -0.033621  20.1752  20.865  5.831348
  16476.429  16476.430  0.500  -0.033976  20.1501  20.8464  5.829366
  16481.308  16481.290  0.500  -0.034531  20.1223  20.8293  5.831332
  16486.201  16486.160  0.500  -0.035041  20.0935  20.8101  5.830252
  16491.097  16491.050  0.500  -0.035494  20.0727  20.798  5.833808
  16495.984  16495.960  0.500  -0.036002  20.0456  20.7804  5.834212
  16500.909  16500.890  0.500  -0.036210  20.02  20.7582  5.834270
  16505.898  16505.830  0.500  -0.036988  19.9891  20.7423  5.833755
  16510.841  16510.800  0.500  -0.037481  19.9641  20.7266  5.834480
  16515.824  16515.790  0.500  -0.037963  19.9366  20.708  5.835176
  16520.809  16520.790  0.500  -0.038311  19.9121  20.6897  5.835927
  16525.858  16525.820  0.500  -0.038909  19.8806  20.6694  5.835799
  16530.873  16530.860  0.500  -0.039331  19.8546  20.6511  5.835888
  16535.904  16535.920  0.500  -0.039876  19.8275  20.6341  5.836170
  16541.021  16541.000  0.500  -0.040419  19.7942  20.6107  5.835524
  16546.142  16546.100  0.500  -0.041004  19.7418  20.5681  5.828645
  16551.218  16551.220  0.500  -0.041338  19.7498  20.5833  5.838443
  16556.381  16556.360  0.500  -0.041896  19.7239  20.5678  5.841330
  16561.548  16561.520  0.500  -0.042329  19.6871  20.5383  5.836990
  16566.729  16566.700  0.500  -0.042990  19.6647  20.5285  5.839955
  16571.914  16571.890  0.500  -0.043593  19.6357  20.5106  5.841087
  16577.175  16577.110  0.500  -0.043889  19.6119  20.4918  5.840809
  16582.378  16582.340  0.500  -0.044456  19.5629  20.4522  5.835706
  16587.585  16587.590  0.500  -0.045040  19.5511  20.4518  5.839346
  16592.868  16592.860  0.500  -0.045439  19.5121  20.4192  5.837137
  16598.202  16598.150  0.500  -0.046031  19.4927  20.411  5.840019
  16603.516  16603.460  0.500  -0.046452  19.4592  20.3845  5.836902
  16608.833  16608.790  0.500  -0.047017  19.4297  20.3651  5.838193
  16614.214  16614.140  0.500  -0.047576  19.4046  20.3501  5.840222
  16619.574  16619.510  0.500  -0.047965  19.3711  20.3229  5.838573
  16624.901  16624.890  0.500  -0.048613  19.3466  20.3103  5.839268
  16630.341  16630.300  0.500  -0.049066  19.316  20.2874  5.839187
  16635.772  16635.720  0.500  -0.049580  19.2919  20.2725  5.841829
  16641.232  16641.170  0.500  -0.050160  19.2569  20.2475  5.839008
  16646.658  16646.630  0.500  -0.050792  19.2259  20.2276  5.837889
  16652.173  16652.110  0.500  -0.051268  19.1936  20.2033  5.837017
  16657.692  16657.610  0.500  -0.051651  19.164  20.1799  5.836406
  16663.177  16663.130  0.500  -0.052227  19.1309  20.1566  5.835565
  16668.667  16668.670  0.500  -0.052813  19.0962  20.1319  5.834029
  16674.282  16674.220  0.500  -0.053216  19.0651  20.1071  5.834306
  16679.840  16679.800  0.500  -0.053894  19.0268  20.0804  5.831153
  16685.401  16685.400  0.500  -0.054365  18.9942  20.0555  5.830565
  16691.076  16691.010  0.500  -0.054845  18.9525  20.021  5.825540
  16696.694  16696.650  0.500  -0.055454  18.9076  19.9857  5.821542
  16702.341  16702.300  0.500  -0.055969  18.8305  19.9145  5.807809
  16708.003  16707.970  0.500  -0.056635  18.7179  19.8086  5.782835
  16713.718  16713.660  0.500  -0.057267  18.0758  19.1412  5.588908