File: xdidata/Pb/Pb-L1-LeadDioxide.xdi
# XDI/1.0 BlueSky/1.10.0 BMM/2023-1.0-py310-tiled
# Beamline.name: BMM (06BM) -- Beamline for Materials Measurement (NIST)
# Beamline.xray_source: NSLS-II three-pole wiggler
# Beamline.collimation: paraboloid mirror, 5 nm Rh on 30 nm Pt
# Beamline.focusing: not in use
# Beamline.harmonic_rejection: flat mirror, Pt stripe, pitch = 7.0 mrad relative to beam
# Beamline.software: Bluesky 1.10.0, Ophyd 1.7.0, DataBroker 2.0.0b13, Python 3.10.8, 2023-1.0-py310-tiled
# Detector.I0: 10 cm N2
# Detector.I1: 25 cm N2
# Detector.I2: 25 cm N2
# Element.symbol: Pb
# Element.edge: L1
# Element.reference: Pb
# Element.reference_material: Pb foil
# Facility.name: NSLS-II
# Facility.energy: 3.0
# Facility.current: 399.0
# Facility.mode: top-off
# Facility.GUP: 301027
# Facility.SAF: 310583
# Facility.cycle: 2023-2
# Mono.name: Si(111)
# Mono.d_spacing: 3.13519
# Mono.encoder_resolution: 0.0000050 deg/ct
# Mono.angle_offset: 16.0754 deg
# Mono.scan_mode: pseudo channel cut
# Mono.scan_type: step
# Mono.direction: forward in energy
# Sample.name: PbO2
# Sample.prep: powder in PEG pellet
# Sample.x: 143.785 mm
# Sample.y: 114.695 mm
# Sample.SDD_position: 205.000 mm
# Scan.experimenters: Bruce Ravel
# Scan.edge_energy: 15860.8
# Scan.start_time: 2023-06-23T18:03:12
# Scan.end_time: 2023-06-23T18:11:58
# Scan.transient_id: 84921
# Scan.uid: 1eb2f177-f428-4115-b19f-fd7987c6c735
# Scan.plot_hint: ln(I0/It)  --  ln($5/$6)
# Column.1: energy eV
# Column.2: requested_energy eV
# Column.3: measurement_time seconds
# Column.4: xmu
# Column.5: I0 nA
# Column.6: It nA
# Column.7: Ir nA
# ///////////
# BMM standards collection
# -----------
# energy  requested_energy  measurement_time  xmu  I0  It  Ir
  15660.827  15660.800  0.500  0.585543  24.8215  13.8207  3.859456
  15670.895  15670.800  0.500  0.584322  24.6771  13.7571  3.846873
  15680.847  15680.800  0.500  0.583057  24.6901  13.7818  3.862620
  15690.865  15690.800  0.500  0.581544  24.6537  13.7823  3.868950
  15700.885  15700.800  0.500  0.580245  24.5926  13.766  3.871033
  15710.930  15710.800  0.500  0.578774  24.5239  13.7477  3.872171
  15720.868  15720.800  0.500  0.577249  24.4757  13.7416  3.878059
  15730.916  15730.800  0.500  0.575722  24.4139  13.7279  3.880413
  15740.836  15740.800  0.500  0.574710  24.3607  13.7119  3.882298
  15750.845  15750.800  0.500  0.573648  24.2936  13.6887  3.881748
  15760.878  15760.800  0.500  0.572570  24.236  13.6709  3.882201
  15770.869  15770.800  0.500  0.571192  24.1835  13.6601  3.884330
  15780.894  15780.800  0.500  0.569481  24.129  13.6527  3.885617
  15790.889  15790.800  0.500  0.568121  24.0721  13.639  3.885929
  15800.897  15800.800  0.500  0.567310  24.0141  13.6172  3.883844
  15810.928  15810.800  0.500  0.566728  23.9543  13.5912  3.878028
  15820.720  15820.800  0.500  0.567377  23.8988  13.5509  3.865866
  15830.744  15830.800  0.500  0.568557  23.8343  13.4984  3.843845
  15832.686  15832.800  0.500  0.569106  23.8243  13.4853  3.837185
  15834.706  15834.800  0.500  0.569514  23.8137  13.4738  3.831479
  15836.694  15836.800  0.500  0.570351  23.8029  13.4564  3.822875
  15838.715  15838.800  0.500  0.571187  23.7904  13.4381  3.811649
  15840.758  15840.800  0.500  0.572572  23.7811  13.4143  3.798511
  15842.726  15842.800  0.500  0.573835  23.7688  13.3904  3.783863
  15844.726  15844.800  0.500  0.575780  23.7541  13.3561  3.764943
  15846.716  15846.800  0.500  0.578034  23.7417  13.3191  3.740600
  15848.718  15848.800  0.500  0.580966  23.7302  13.2737  3.711294
  15850.731  15850.800  0.500  0.585025  23.7059  13.2063  3.667663
  15851.006  15851.100  0.500  0.585726  23.7068  13.1976  3.661094
  15851.325  15851.400  0.500  0.586501  23.7027  13.1851  3.653569
  15851.600  15851.700  0.500  0.587464  23.7016  13.1718  3.647154
  15851.930  15852.000  0.500  0.588145  23.6997  13.1618  3.638498
  15852.238  15852.300  0.500  0.588866  23.6943  13.1493  3.629505
  15852.524  15852.600  0.500  0.590010  23.6962  13.1353  3.621555
  15852.821  15852.900  0.500  0.590625  23.6944  13.1263  3.612326
  15853.141  15853.200  0.500  0.591548  23.6906  13.112  3.602202
  15853.449  15853.500  0.500  0.592788  23.6962  13.0989  3.592100
  15853.735  15853.800  0.500  0.593666  23.6966  13.0876  3.583614
  15854.032  15854.100  0.500  0.594849  23.6981  13.073  3.572474
  15854.362  15854.400  0.500  0.596117  23.6944  13.0543  3.560372
  15854.626  15854.700  0.500  0.597089  23.6934  13.0411  3.548346
  15854.946  15855.000  0.500  0.598589  23.6939  13.0218  3.535931
  15855.276  15855.300  0.500  0.600060  23.6946  13.0031  3.523061
  15855.562  15855.600  0.500  0.601357  23.6939  12.9859  3.508890
  15855.837  15855.900  0.500  0.602929  23.6934  12.9652  3.495254
  15856.146  15856.200  0.500  0.604409  23.6895  12.9439  3.478782
  15856.443  15856.500  0.500  0.606132  23.6852  12.9193  3.462252
  15856.729  15856.800  0.500  0.607803  23.6862  12.8982  3.444456
  15857.048  15857.100  0.500  0.609673  23.6822  12.872  3.426271
  15857.368  15857.400  0.500  0.611822  23.6791  12.8427  3.405725
  15857.643  15857.700  0.500  0.613915  23.6756  12.8139  3.387352
  15857.951  15858.000  0.500  0.616153  23.6732  12.784  3.366473
  15858.249  15858.300  0.500  0.618654  23.6685  12.7495  3.344660
  15858.535  15858.600  0.500  0.621064  23.6669  12.718  3.323476
  15858.854  15858.900  0.500  0.623825  23.6634  12.681  3.299200
  15859.185  15859.200  0.500  0.626658  23.661  12.6438  3.273507
  15859.460  15859.500  0.500  0.629510  23.6577  12.6061  3.249784
  15859.769  15859.800  0.500  0.632518  23.6536  12.566  3.225592
  15860.066  15860.100  0.500  0.635667  23.6514  12.5253  3.199462
  15860.341  15860.400  0.500  0.638859  23.6512  12.4853  3.175407
  15860.661  15860.700  0.500  0.642509  23.6492  12.4388  3.148459
  15860.991  15861.000  0.500  0.646367  23.6521  12.3924  3.121725
  15861.289  15861.300  0.500  0.649786  23.6462  12.347  3.097829
  15861.597  15861.600  0.500  0.653559  23.6492  12.3021  3.073033
  15861.895  15861.900  0.500  0.657596  23.6453  12.2505  3.048381
  15862.181  15862.200  0.500  0.660948  23.6441  12.2089  3.026554
  15862.501  15862.500  0.500  0.665346  23.6416  12.154  3.003050
  15862.809  15862.800  0.500  0.669128  23.6368  12.1057  2.980963
  15863.085  15863.100  0.500  0.672751  23.6365  12.0618  2.962418
  15863.393  15863.400  0.500  0.676526  23.6311  12.0136  2.944001
  15863.713  15863.700  0.500  0.680593  23.6333  11.9659  2.925462
  15864.010  15864.000  0.500  0.684287  23.6321  11.9212  2.909145
  15864.308  15864.300  0.500  0.687818  23.629  11.8776  2.895007
  15864.605  15864.600  0.500  0.691193  23.6242  11.8352  2.880928
  15864.903  15864.900  0.500  0.694405  23.6231  11.7967  2.870089
  15865.201  15865.200  0.500  0.697720  23.6217  11.757  2.858521
  15865.487  15865.500  0.500  0.700626  23.6202  11.7221  2.849470
  15865.763  15865.800  0.500  0.703063  23.6158  11.6914  2.842084
  15866.071  15866.100  0.500  0.705861  23.6156  11.6586  2.835268
  15866.380  15866.400  0.500  0.708254  23.6155  11.6307  2.829488
  15866.656  15866.700  0.500  0.710196  23.6115  11.6062  2.826978
  15866.975  15867.000  0.500  0.711985  23.6088  11.5841  2.822693
  15867.262  15867.300  0.500  0.713684  23.6073  11.5637  2.820062
  15867.549  15867.600  0.500  0.714706  23.6037  11.5501  2.820262
  15867.868  15867.900  0.500  0.715757  23.6025  11.5374  2.819488
  15868.188  15868.200  0.500  0.716397  23.6008  11.5292  2.821920
  15868.464  15868.500  0.500  0.716945  23.5981  11.5215  2.823179
  15868.773  15868.800  0.500  0.717378  23.5959  11.5155  2.825739
  15869.070  15869.100  0.500  0.717095  23.5934  11.5176  2.828391
  15869.368  15869.400  0.500  0.717116  23.5901  11.5157  2.832280
  15869.699  15869.700  0.500  0.716625  23.589  11.5208  2.835410
  15870.008  15870.000  0.500  0.716052  23.5863  11.5261  2.841482
  15870.272  15870.300  0.500  0.715297  23.5835  11.5335  2.845949
  15870.603  15870.600  0.500  0.714211  23.5823  11.5454  2.852147
  15870.890  15870.900  0.500  0.713027  23.5805  11.5582  2.856310
  15871.210  15871.200  0.500  0.711998  23.5758  11.5678  2.861991
  15871.530  15871.500  0.500  0.710631  23.5726  11.582  2.869023
  15871.817  15871.800  0.500  0.709290  23.5695  11.5961  2.873081
  15872.103  15872.100  0.500  0.708128  23.5739  11.6117  2.878635
  15872.412  15872.400  0.500  0.706423  23.5657  11.6275  2.883765
  15872.688  15872.700  0.500  0.704990  23.5624  11.6425  2.887727
  15873.008  15873.000  0.500  0.703592  23.5578  11.6565  2.893122
  15873.350  15873.300  0.500  0.702063  23.5558  11.6734  2.897683
  15873.582  15873.600  0.500  0.700587  23.5539  11.6896  2.901725
  15873.902  15873.900  0.500  0.699101  23.5486  11.7044  2.905825
  15874.222  15874.200  0.500  0.697503  23.5489  11.7233  2.910120
  15874.498  15874.500  0.500  0.696406  23.5506  11.737  2.913384
  15874.796  15874.800  0.500  0.694878  23.5438  11.7516  2.916930
  15875.116  15875.100  0.500  0.693531  23.5445  11.7677  2.920909
  15875.403  15875.400  0.500  0.692185  23.5405  11.7816  2.923072
  15875.679  15875.700  0.500  0.691086  23.5403  11.7945  2.926281
  15875.988  15876.000  0.500  0.690046  23.5413  11.8072  2.928565
  15876.286  15876.300  0.500  0.688672  23.537  11.8213  2.931887
  15876.584  15876.600  0.500  0.687574  23.5369  11.8342  2.933607
  15876.893  15876.900  0.500  0.686398  23.533  11.8462  2.936187
  15877.191  15877.200  0.500  0.685470  23.5319  11.8566  2.939138
  15877.478  15877.500  0.500  0.684367  23.5262  11.8668  2.940493
  15877.776  15877.800  0.500  0.683481  23.5281  11.8783  2.942897
  15878.085  15878.100  0.500  0.682517  23.5232  11.8873  2.944400
  15878.372  15878.400  0.500  0.681637  23.52  11.8961  2.945976
  15878.703  15878.700  0.500  0.680546  23.5157  11.9069  2.946530
  15878.979  15879.000  0.500  0.679708  23.515  11.9166  2.949000
  15879.288  15879.300  0.500  0.678843  23.5094  11.9241  2.951205
  15879.598  15879.600  0.500  0.678021  23.5075  11.9329  2.952537
  15879.896  15879.900  0.500  0.677056  23.5053  11.9433  2.954553
  15880.183  15880.200  0.500  0.676544  23.5029  11.9482  2.955388
  15880.503  15880.500  0.500  0.675596  23.4952  11.9556  2.957685
  15880.801  15880.800  0.500  0.674844  23.4925  11.9632  2.960160
  15881.111  15881.100  0.500  0.674136  23.4878  11.9693  2.961269
  15881.409  15881.400  0.500  0.673581  23.4907  11.9774  2.963494
  15881.718  15881.700  0.500  0.672965  23.4807  11.9797  2.966168
  15882.005  15882.000  0.500  0.672368  23.48  11.9865  2.966637
  15882.326  15882.300  0.500  0.671657  23.4771  11.9936  2.969753
  15882.624  15882.600  0.500  0.670826  23.4711  12.0005  2.971521
  15882.889  15882.900  0.500  0.670672  23.4713  12.0024  2.974107
  15883.220  15883.200  0.500  0.669967  23.4649  12.0076  2.976011
  15883.519  15883.500  0.500  0.669384  23.4604  12.0123  2.978307
  15883.806  15883.800  0.500  0.668747  23.4574  12.0184  2.980546
  15884.126  15884.100  0.500  0.668361  23.4547  12.0217  2.983031
  15884.425  15884.400  0.500  0.667797  23.4512  12.0267  2.985012
  15884.712  15884.700  0.500  0.667260  23.4457  12.0303  2.986830
  15885.010  15885.000  0.500  0.666950  23.4443  12.0333  2.989629
  15885.298  15885.300  0.500  0.666451  23.4422  12.0382  2.990711
  15885.585  15885.600  0.500  0.665850  23.4348  12.0416  2.993407
  15885.784  15885.800  0.500  0.665794  23.4307  12.0402  2.993953
  15886.778  15886.790  0.500  0.664371  23.4269  12.0554  3.001116
  15887.784  15887.790  0.500  0.662874  23.4175  12.0686  3.007111
  15888.801  15888.810  0.500  0.661503  23.4078  12.0802  3.014176
  15889.863  15889.860  0.500  0.660310  23.4013  12.0912  3.017976
  15890.957  15890.920  0.500  0.659517  23.3953  12.0978  3.019866
  15892.030  15892.000  0.500  0.659017  23.3899  12.101  3.020341
  15893.103  15893.100  0.500  0.658896  23.3846  12.0997  3.018867
  15894.242  15894.220  0.500  0.659368  23.3762  12.0897  3.016288
  15895.393  15895.360  0.500  0.659857  23.3669  12.0789  3.010718
  15896.499  15896.510  0.500  0.660449  23.357  12.0667  3.004936
  15897.673  15897.690  0.500  0.661388  23.3491  12.0513  2.999439
  15898.868  15898.880  0.500  0.662448  23.3414  12.0346  2.992155
  15900.086  15900.100  0.500  0.663386  23.3321  12.0185  2.985467
  15901.348  15901.330  0.500  0.664232  23.3242  12.0042  2.980859
  15902.599  15902.580  0.500  0.665178  23.3145  11.9879  2.975273
  15903.873  15903.850  0.500  0.666261  23.3258  11.9807  2.974197
  15905.158  15905.140  0.500  0.667754  23.3341  11.9671  2.973181
  15906.432  15906.450  0.500  0.668617  23.3205  11.9498  2.970995
  15907.773  15907.780  0.500  0.669561  23.3091  11.9327  2.967560
  15909.125  15909.130  0.500  0.670776  23.2936  11.9103  2.966482
  15910.455  15910.500  0.500  0.671746  23.2328  11.8677  2.957977
  15911.907  15911.880  0.500  0.672533  23.0671  11.7738  2.937681
  15913.282  15913.290  0.500  0.673521  23.1136  11.7859  2.945958
  15914.680  15914.710  0.500  0.674005  23.2484  11.8489  2.963254
  15916.166  15916.150  0.500  0.674616  23.2769  11.8561  2.965472
  15917.586  15917.610  0.500  0.674834  23.2688  11.8494  2.965408
  15919.051  15919.090  0.500  0.674982  23.2609  11.8436  2.963337
  15920.605  15920.590  0.500  0.674868  23.25  11.8395  2.962212
  15922.059  15922.110  0.500  0.674587  23.2375  11.8364  2.961954
  15924.135  15923.650  0.500  0.673991  23.2243  11.8367  2.960927
  15925.113  15925.210  0.500  0.673529  23.2201  11.8401  2.961685
  15926.723  15926.780  0.500  0.672795  23.2039  11.8405  2.961760
  15928.256  15928.380  0.500  0.671726  23.1973  11.8498  2.962813
  15930.134  15929.990  0.500  0.670403  23.1891  11.8613  2.966904
  15931.546  15931.630  0.500  0.669369  23.1831  11.8705  2.969754
  15933.191  15933.280  0.500  0.668012  23.1689  11.8793  2.972403
  15934.892  15934.950  0.500  0.666533  23.1593  11.892  2.977692
  15936.527  15936.640  0.500  0.665258  23.1493  11.902  2.981572
  15938.251  15938.350  0.500  0.664101  23.1365  11.9092  2.985947
  15939.987  15940.080  0.500  0.662919  23.1289  11.9193  2.990128
  15941.745  15941.830  0.500  0.662014  23.1165  11.9237  2.993092
  15943.537  15943.590  0.500  0.661118  23.1025  11.9272  2.996840
  15945.341  15945.380  0.500  0.660365  23.0885  11.9289  2.998261
  15947.156  15947.180  0.500  0.660084  23.0677  11.9216  2.998533
  15948.971  15949.010  0.500  0.659557  22.9295  11.8564  2.982483
  15950.810  15950.850  0.500  0.659071  22.879  11.836  2.980006
  15952.682  15952.710  0.500  0.658683  23.0428  11.9254  3.002626
  15954.532  15954.590  0.500  0.658130  23.0564  11.939  3.006583
  15956.439  15956.490  0.500  0.657715  23.0427  11.9369  3.006209
  15958.368  15958.410  0.500  0.657464  23.0309  11.9338  3.007041
  15960.298  15960.350  0.500  0.657170  23.02  11.9317  3.006250
  15962.261  15962.310  0.500  0.656949  23.0074  11.9277  3.007299
  15964.236  15964.280  0.500  0.656803  22.9944  11.9227  3.006872
  15966.246  15966.280  0.500  0.656688  22.9816  11.9175  3.006159
  15968.278  15968.290  0.500  0.656799  22.9722  11.9113  3.006012
  15970.322  15970.320  0.500  0.656986  22.9614  11.9035  3.005360
  15972.388  15972.380  0.500  0.657086  22.945  11.8938  3.003522
  15974.456  15974.450  0.500  0.657383  22.9329  11.884  3.003808
  15976.512  15976.540  0.500  0.657702  22.9239  11.8755  3.002229
  15978.625  15978.650  0.500  0.657857  22.913  11.868  3.001372
  15980.728  15980.780  0.500  0.657943  22.8876  11.8538  3.000141
  15982.864  15982.920  0.500  0.657992  22.8637  11.8409  2.998405
  15985.024  15985.090  0.500  0.657844  22.6986  11.7571  2.978579
  15987.240  15987.280  0.500  0.657577  22.7358  11.7795  2.985627
  15989.468  15989.480  0.500  0.657294  22.8585  11.8464  3.004005
  15991.685  15991.700  0.500  0.656935  22.8506  11.8466  3.005922
  15993.959  15993.950  0.500  0.656696  22.835  11.8414  3.006972
  15996.222  15996.210  0.500  0.656285  22.8164  11.8366  3.007744
  15998.486  15998.490  0.500  0.655709  22.8073  11.8387  3.009072
  16000.762  16000.790  0.500  0.655166  22.7953  11.8389  3.010102
  16003.072  16003.110  0.500  0.654609  22.7792  11.8371  3.011412
  16005.428  16005.450  0.500  0.653847  22.7595  11.8359  3.012478
  16007.784  16007.800  0.500  0.653311  22.7513  11.838  3.014849
  16010.186  16010.180  0.500  0.652519  22.7335  11.8381  3.016658
  16012.567  16012.570  0.500  0.651909  22.7201  11.8383  3.018849
  16015.004  16014.990  0.500  0.651094  22.7047  11.8399  3.020858
  16017.442  16017.420  0.500  0.650227  22.6895  11.8423  3.021653
  16019.892  16019.870  0.500  0.649617  22.6669  11.8377  3.023161
  16022.342  16022.350  0.500  0.649093  22.6371  11.8283  3.021226
  16024.805  16024.840  0.500  0.648439  22.4174  11.7212  2.995957
  16027.347  16027.350  0.500  0.647794  22.5397  11.7928  3.016647
  16029.879  16029.870  0.500  0.647363  22.5825  11.8202  3.024897
  16032.411  16032.420  0.500  0.647115  22.6042  11.8345  3.030614
  16035.024  16034.990  0.500  0.646500  22.6042  11.8418  3.033505
  16037.603  16037.570  0.500  0.645935  22.5875  11.8398  3.034031
  16040.160  16040.180  0.500  0.645733  22.5741  11.8351  3.035240
  16042.809  16042.800  0.500  0.645297  22.5615  11.8336  3.034687
  16045.458  16045.450  0.500  0.644854  22.5421  11.8287  3.036459
  16048.086  16048.110  0.500  0.644129  22.5289  11.8303  3.038338
  16050.771  16050.790  0.500  0.643650  22.5088  11.8255  3.038992
  16053.491  16053.490  0.500  0.643154  22.4929  11.823  3.039231
  16056.223  16056.210  0.500  0.642929  22.4822  11.82  3.040176
  16058.956  16058.950  0.500  0.642828  22.4671  11.8133  3.040966
  16061.678  16061.700  0.500  0.642443  22.45  11.8089  3.040928
  16064.447  16064.480  0.500  0.642208  22.4301  11.8011  3.042372
  16067.240  16067.270  0.500  0.641625  22.4137  11.7994  3.042922
  16070.078  16070.090  0.500  0.641274  22.3982  11.7954  3.043028
  16072.940  16072.920  0.500  0.640844  22.3818  11.7918  3.044269
  16075.781  16075.770  0.500  0.640647  22.3273  11.7654  3.038635
  16078.634  16078.650  0.500  0.640350  22.3249  11.7676  3.040888
  16081.522  16081.540  0.500  0.640081  22.3358  11.7766  3.045483
  16084.467  16084.450  0.500  0.639787  22.3173  11.7702  3.044824
  16087.403  16087.370  0.500  0.639555  22.3001  11.7639  3.044036
  16090.339  16090.320  0.500  0.639393  22.2862  11.7585  3.045723
  16093.311  16093.290  0.500  0.638948  22.2677  11.7539  3.045013
  16096.272  16096.270  0.500  0.638307  22.2478  11.751  3.046262
  16099.268  16099.280  0.500  0.637849  22.2201  11.7417  3.045583
  16102.300  16102.300  0.500  0.637125  22.2066  11.7431  3.048671
  16105.355  16105.350  0.500  0.636346  22.1991  11.7482  3.051630
  16108.435  16108.410  0.500  0.635561  22.1793  11.747  3.053084
  16111.504  16111.490  0.500  0.634885  22.1605  11.745  3.054938
  16114.597  16114.590  0.500  0.634138  22.1433  11.7447  3.056996
  16117.714  16117.710  0.500  0.633325  22.1216  11.7427  3.057568
  16120.867  16120.850  0.500  0.632818  22.0913  11.7325  3.058413
  16124.009  16124.000  0.500  0.632096  22.0327  11.7099  3.054628
  16127.198  16127.180  0.500  0.631532  22.0668  11.7346  3.062739
  16130.366  16130.370  0.500  0.630783  22.0513  11.7352  3.063916
  16133.581  16133.590  0.500  0.630275  22.031  11.7303  3.065604
  16136.819  16136.820  0.500  0.629702  22.0177  11.7299  3.066165
  16140.105  16140.070  0.500  0.629097  21.9978  11.7264  3.069125
  16143.380  16143.350  0.500  0.628921  21.9694  11.7134  3.067806
  16146.646  16146.640  0.500  0.628025  21.9323  11.7041  3.066461
  16149.935  16149.950  0.500  0.627491  21.9423  11.7157  3.072044
  16153.283  16153.270  0.500  0.626924  21.9216  11.7112  3.072252
  16156.633  16156.620  0.500  0.626648  21.9049  11.7055  3.073736
  16160.018  16159.990  0.500  0.626106  21.8903  11.7041  3.074517
  16163.359  16163.370  0.500  0.625358  21.8669  11.7003  3.075798
  16166.804  16166.780  0.500  0.624584  21.8507  11.7007  3.078325
  16170.239  16170.200  0.500  0.624167  21.8277  11.6932  3.078825
  16173.687  16173.650  0.500  0.623394  21.7548  11.6632  3.072209
  16177.137  16177.110  0.500  0.622939  21.7947  11.6899  3.083005
  16180.611  16180.590  0.500  0.622473  21.7686  11.6814  3.083012
  16184.087  16184.090  0.500  0.621888  21.7656  11.6866  3.086611
  16187.598  16187.610  0.500  0.621682  21.8213  11.7189  3.096532
  16191.180  16191.150  0.500  0.621263  21.8006  11.7127  3.097903
  16194.753  16194.700  0.500  0.620684  21.7755  11.706  3.097874
  16198.292  16198.280  0.500  0.620226  21.7525  11.699  3.099353
  16201.856  16201.880  0.500  0.619596  21.7373  11.6982  3.100639
  16205.501  16205.490  0.500  0.619000  21.72  11.6958  3.101875
  16209.138  16209.120  0.500  0.618129  21.6999  11.6952  3.104395
  16212.775  16212.780  0.500  0.617557  21.681  11.6917  3.105806
  16216.472  16216.450  0.500  0.617012  21.6602  11.6868  3.106076
  16220.136  16220.140  0.500  0.616275  21.6357  11.6822  3.107673
  16223.871  16223.850  0.500  0.615597  21.6213  11.6824  3.110635
  16227.596  16227.580  0.500  0.615081  21.6032  11.6786  3.111001
  16231.334  16231.320  0.500  0.614508  21.5769  11.6711  3.111460
  16235.109  16235.090  0.500  0.613720  21.5089  11.6435  3.106187
  16238.897  16238.880  0.500  0.613213  21.5289  11.6602  3.114003
  16242.722  16242.680  0.500  0.612457  21.5182  11.6632  3.116757
  16246.548  16246.510  0.500  0.611590  21.4972  11.662  3.118217
  16250.330  16250.350  0.500  0.611022  21.4732  11.6556  3.120143
  16254.218  16254.210  0.500  0.610282  21.4192  11.6349  3.116310
  16258.107  16258.090  0.500  0.609632  21.4286  11.6475  3.121998
  16262.034  16261.990  0.500  0.608913  21.4132  11.6475  3.124756
  16265.916  16265.910  0.500  0.608405  21.396  11.6441  3.126232
  16269.857  16269.850  0.500  0.607588  21.3697  11.6393  3.126352
  16273.789  16273.810  0.500  0.606857  21.3458  11.6348  3.128531
  16277.804  16277.780  0.500  0.606186  21.3175  11.6271  3.129429
  16281.787  16281.780  0.500  0.605622  21.3043  11.6265  3.131018
  16285.794  16285.790  0.500  0.604899  21.2812  11.6223  3.132612
  16289.839  16289.830  0.500  0.604179  21.2576  11.6178  3.134092
  16293.908  16293.880  0.500  0.603345  21.234  11.6145  3.135272
  16298.015  16297.950  0.500  0.602745  21.216  11.6117  3.137167
  16302.042  16302.040  0.500  0.602125  21.1937  11.6067  3.138722
  16306.141  16306.150  0.500  0.601650  21.1226  11.5732  3.131757
  16310.324  16310.280  0.500  0.601171  21.1524  11.5951  3.140397
  16314.463  16314.430  0.500  0.600421  21.1238  11.5881  3.141292
  16318.603  16318.590  0.500  0.599827  21.1059  11.5851  3.143384
  16322.781  16322.780  0.500  0.599123  21.0858  11.5823  3.143940
  16327.019  16326.980  0.500  0.598695  21.0638  11.5752  3.144630
  16331.247  16331.210  0.500  0.597846  21.0404  11.5721  3.146774
  16335.455  16335.450  0.500  0.597196  21.0158  11.5661  3.147860
  16339.711  16339.710  0.500  0.596428  20.9844  11.5577  3.148128
  16344.017  16343.990  0.500  0.595690  20.965  11.5555  3.149057
  16348.348  16348.290  0.500  0.595169  20.9467  11.5515  3.152262
  16352.646  16352.610  0.500  0.594223  20.9259  11.5509  3.153988
  16356.935  16356.950  0.500  0.593381  20.8996  11.5461  3.155220
  16361.344  16361.310  0.500  0.592745  20.8791  11.5421  3.157201
  16365.708  16365.690  0.500  0.592164  20.8492  11.5323  3.157155
  16370.062  16370.080  0.500  0.591004  20.8075  11.5226  3.156303
  16374.489  16374.500  0.500  0.590508  20.7354  11.4884  3.150484
  16378.943  16378.930  0.500  0.589993  20.7742  11.5158  3.160965
  16383.410  16383.380  0.500  0.589271  20.7582  11.5153  3.164647
  16387.857  16387.850  0.500  0.588481  20.7328  11.5102  3.164754
  16392.388  16392.340  0.500  0.587928  20.7078  11.5027  3.165623
  16396.874  16396.850  0.500  0.587165  20.6845  11.4985  3.167416
  16401.411  16401.380  0.500  0.586428  20.6352  11.4796  3.164416
  16405.938  16405.930  0.500  0.585815  20.6314  11.4845  3.168183
  16410.526  16410.500  0.500  0.584983  20.6119  11.4832  3.169848
  16415.129  16415.080  0.500  0.584314  20.5862  11.4766  3.171379
  16419.723  16419.690  0.500  0.583451  20.5559  11.4696  3.171951
  16424.319  16424.310  0.500  0.582908  20.5387  11.4662  3.174157
  16429.001  16428.960  0.500  0.582133  20.5116  11.4599  3.176466
  16433.661  16433.620  0.500  0.581039  20.4837  11.4569  3.178322
  16438.289  16438.300  0.500  0.580398  20.4464  11.4434  3.177176
  16443.014  16443.000  0.500  0.579154  20.3847  11.423  3.173460
  16447.754  16447.720  0.500  0.578791  20.4016  11.4367  3.181714
  16452.461  16452.460  0.500  0.578007  20.3855  11.4366  3.183510
  16457.206  16457.210  0.500  0.577221  20.3581  11.4302  3.184821
  16462.014  16461.990  0.500  0.576772  20.3252  11.4168  3.185365
  16466.836  16466.790  0.500  0.575850  20.3014  11.414  3.186680
  16471.590  16471.600  0.500  0.575236  20.2733  11.4052  3.187337
  16476.441  16476.430  0.500  0.574475  20.2373  11.3936  3.186824
  16481.331  16481.290  0.500  0.573643  20.1978  11.3808  3.186171
  16486.177  16486.160  0.500  0.572820  20.1785  11.3793  3.188121
  16491.061  16491.050  0.500  0.572282  20.144  11.366  3.189325
  16495.996  16495.960  0.500  0.571275  20.1121  11.3594  3.188983
  16500.921  16500.890  0.500  0.570456  20.0745  11.3474  3.187496
  16505.862  16505.830  0.500  0.569645  20.0331  11.3333  3.187660
  16510.829  16510.800  0.500  0.568955  20.0241  11.336  3.191890
  16515.824  16515.790  0.500  0.568255  20.0008  11.3307  3.192942
  16520.845  16520.790  0.500  0.567345  19.9784  11.3283  3.196088
  16525.858  16525.820  0.500  0.566406  19.9465  11.3209  3.196351
  16530.897  16530.860  0.500  0.565646  19.9179  11.3132  3.197401
  16535.976  16535.920  0.500  0.564685  19.8885  11.3074  3.197904
  16541.069  16541.000  0.500  0.564025  19.8666  11.3024  3.200492
  16546.154  16546.100  0.500  0.563079  19.8126  11.2824  3.196512
  16551.266  16551.220  0.500  0.562219  19.8043  11.2873  3.201991
  16556.441  16556.360  0.500  0.561727  19.7883  11.2838  3.204183
  16561.584  16561.520  0.500  0.560818  19.7541  11.2745  3.205531
  16566.741  16566.700  0.500  0.559993  19.7197  11.2641  3.203875
  16571.914  16571.890  0.500  0.559285  19.6989  11.2602  3.206474
  16577.175  16577.110  0.500  0.558337  19.6734  11.2563  3.208460
  16582.354  16582.340  0.500  0.557506  19.6459  11.25  3.210040
  16587.597  16587.590  0.500  0.556669  19.6162  11.2424  3.210759
  16592.904  16592.860  0.500  0.555880  19.5876  11.2348  3.211270
  16598.226  16598.150  0.500  0.555096  19.5611  11.2284  3.213088
  16603.504  16603.460  0.500  0.554264  19.5338  11.2221  3.214667
  16608.821  16608.790  0.500  0.553348  19.5064  11.2166  3.216053
  16614.202  16614.140  0.500  0.552617  19.4681  11.2027  3.215479
  16619.562  16619.510  0.500  0.551631  19.4442  11.2  3.216941
  16624.925  16624.890  0.500  0.550745  19.4044  11.187  3.216827
  16630.341  16630.300  0.500  0.549766  19.3892  11.1892  3.219703
  16635.797  16635.720  0.500  0.548911  19.3499  11.1761  3.219290
  16641.195  16641.170  0.500  0.548244  19.3307  11.1725  3.221957
  16646.670  16646.630  0.500  0.547460  19.3036  11.1655  3.223665
  16652.173  16652.110  0.500  0.546624  19.2692  11.1549  3.223574
  16657.679  16657.610  0.500  0.545731  19.2347  11.1449  3.222916
  16663.153  16663.130  0.500  0.544772  19.1979  11.1343  3.223687
  16668.740  16668.670  0.500  0.544241  19.1665  11.122  3.223045
  16674.270  16674.220  0.500  0.543275  19.1358  11.1149  3.224961
  16679.852  16679.800  0.500  0.542478  19.1027  11.1045  3.226182
  16685.401  16685.400  0.500  0.541761  19.0602  11.0878  3.224217
  16691.076  16691.010  0.500  0.540827  19.0208  11.0752  3.223467
  16696.707  16696.650  0.500  0.539718  18.9848  11.0665  3.222679
  16702.328  16702.300  0.500  0.539235  18.9118  11.0293  3.217021
  16707.978  16707.970  0.500  0.538049  18.7834  10.9674  3.201719
  16713.718  16713.660  0.500  0.537126  18.0886  10.5714  3.086369