File: xdidata/Pb/Pb-L1-LeadFoil.xdi
# XDI/1.0 BlueSky/1.10.0 BMM/2023-1.0-py310-tiled
# Beamline.name: BMM (06BM) -- Beamline for Materials Measurement (NIST)
# Beamline.xray_source: NSLS-II three-pole wiggler
# Beamline.collimation: paraboloid mirror, 5 nm Rh on 30 nm Pt
# Beamline.focusing: not in use
# Beamline.harmonic_rejection: flat mirror, Pt stripe, pitch = 7.0 mrad relative to beam
# Beamline.software: Bluesky 1.10.0, Ophyd 1.7.0, DataBroker 2.0.0b13, Python 3.10.8, 2023-1.0-py310-tiled
# Detector.I0: 10 cm N2
# Detector.I1: 25 cm N2
# Detector.I2: 25 cm N2
# Element.symbol: Pb
# Element.edge: L1
# Element.reference: Pb
# Element.reference_material: Pb foil
# Facility.name: NSLS-II
# Facility.energy: 3.0
# Facility.current: 399.5
# Facility.mode: top-off
# Facility.GUP: 301027
# Facility.SAF: 310583
# Facility.cycle: 2023-2
# Mono.name: Si(111)
# Mono.d_spacing: 3.13519
# Mono.encoder_resolution: 0.0000050 deg/ct
# Mono.angle_offset: 16.0754 deg
# Mono.scan_mode: pseudo channel cut
# Mono.scan_type: step
# Mono.direction: forward in energy
# Sample.name: Pb foil
# Sample.prep: reference foil
# Sample.x: 109.138 mm
# Sample.y: 153.150 mm
# Sample.SDD_position: 205.000 mm
# Scan.experimenters: Bruce Ravel
# Scan.edge_energy: 15860.8
# Scan.start_time: 2023-05-28T21:36:43
# Scan.end_time: 2023-05-28T21:44:12
# Scan.transient_id: 79036
# Scan.uid: e3ca848f-d3ff-4bd5-ad72-294bd51d37a1
# Scan.plot_hint: ln(It/Ir)  --  ln($6/$7)
# Column.1: energy eV
# Column.2: requested_energy eV
# Column.3: measurement_time seconds
# Column.4: xmu
# Column.5: I0 nA
# Column.6: It nA
# Column.7: Ir nA
# ///////////
# standard reference foil
# -----------
# energy  requested_energy  measurement_time  xmu  I0  It  Ir
  15660.720  15660.800  0.500  1.297320  22.8079  41.7802  11.417
  15670.766  15670.800  0.500  1.295718  22.7401  41.659  11.4021
  15681.116  15680.800  0.500  1.293975  22.736  41.6582  11.4218
  15690.854  15690.800  0.500  1.292101  22.8564  41.8869  11.506
  15700.864  15700.800  0.500  1.290370  22.8214  41.8299  11.5103
  15710.811  15710.800  0.500  1.288577  22.782  41.7606  11.5119
  15720.857  15720.800  0.500  1.286687  22.7249  41.6556  11.5046
  15730.797  15730.800  0.500  1.284900  22.6688  41.5601  11.4988
  15740.793  15740.800  0.500  1.283281  22.6341  41.4967  11.4998
  15750.823  15750.800  0.500  1.281516  22.5661  41.3779  11.4872
  15760.823  15760.800  0.500  1.280261  22.5309  41.3192  11.4853
  15770.792  15770.800  0.500  1.278849  22.5029  41.273  11.4886
  15780.851  15780.800  0.500  1.277639  22.4508  41.1798  11.4766
  15790.802  15790.800  0.500  1.276520  22.4134  41.1183  11.4723
  15800.831  15800.800  0.500  1.275860  22.3525  41.0151  11.451
  15810.840  15810.800  0.500  1.275219  22.3158  40.9456  11.439
  15820.830  15820.800  0.500  1.275603  22.2593  40.8509  11.4081
  15830.865  15830.800  0.500  1.277211  22.2054  40.7537  11.3627
  15832.763  15832.800  0.500  1.277912  22.2027  40.7503  11.3538
  15834.761  15834.800  0.500  1.278527  22.1853  40.7217  11.3388
  15836.760  15836.800  0.500  1.279814  22.1752  40.7032  11.3191
  15838.737  15838.800  0.500  1.281173  22.1668  40.6889  11.2998
  15840.758  15840.800  0.500  1.282456  22.1505  40.6574  11.2766
  15842.759  15842.800  0.500  1.284488  22.1444  40.6462  11.2506
  15844.770  15844.800  0.500  1.287276  22.1362  40.6342  11.2159
  15846.782  15846.800  0.500  1.290551  22.1287  40.6198  11.1753
  15848.773  15848.800  0.500  1.295275  22.1192  40.5998  11.1171
  15850.786  15850.800  0.500  1.301357  22.1008  40.5672  11.0408
  15851.028  15851.100  0.500  1.302364  22.0955  40.5612  11.0281
  15851.347  15851.400  0.500  1.303539  22.0994  40.5644  11.016
  15851.655  15851.700  0.500  1.304777  22.1093  40.5835  11.0076
  15851.963  15852.000  0.500  1.306083  22.0795  40.5351  10.9801
  15852.238  15852.300  0.500  1.307479  22.0787  40.534  10.9645
  15852.546  15852.600  0.500  1.308888  22.0746  40.5244  10.9465
  15852.832  15852.900  0.500  1.310234  22.1324  40.6347  10.9615
  15853.141  15853.200  0.500  1.311725  22.1501  40.6668  10.9538
  15853.438  15853.500  0.500  1.313510  22.1416  40.652  10.9303
  15853.757  15853.800  0.500  1.315237  22.1472  40.661  10.9138
  15854.065  15854.100  0.500  1.317125  22.1479  40.6573  10.8923
  15854.351  15854.400  0.500  1.318931  22.1659  40.6915  10.8818
  15854.648  15854.700  0.500  1.321085  22.1603  40.6846  10.8565
  15854.935  15855.000  0.500  1.322959  22.1456  40.6578  10.829
  15855.254  15855.300  0.500  1.325429  22.1573  40.6777  10.8076
  15855.562  15855.600  0.500  1.327780  22.1519  40.6666  10.7793
  15855.870  15855.900  0.500  1.330474  22.1476  40.6584  10.7481
  15856.146  15856.200  0.500  1.333115  22.1453  40.6529  10.7183
  15856.432  15856.500  0.500  1.335897  22.1345  40.6383  10.6847
  15856.762  15856.800  0.500  1.339015  22.1374  40.6424  10.6525
  15857.059  15857.100  0.500  1.342435  22.1367  40.6464  10.6172
  15857.379  15857.400  0.500  1.345836  22.1468  40.6653  10.5861
  15857.665  15857.700  0.500  1.349292  22.1348  40.6358  10.5419
  15857.962  15858.000  0.500  1.352865  22.1322  40.6391  10.5052
  15858.249  15858.300  0.500  1.356420  22.128  40.6277  10.4649
  15858.546  15858.600  0.500  1.360557  22.1243  40.6233  10.4206
  15858.854  15858.900  0.500  1.364822  22.1305  40.6352  10.3793
  15859.185  15859.200  0.500  1.369429  22.1141  40.6029  10.3234
  15859.460  15859.500  0.500  1.373593  22.1143  40.602  10.2802
  15859.769  15859.800  0.500  1.378000  22.1138  40.598  10.234
  15860.088  15860.100  0.500  1.382716  22.1143  40.6034  10.1872
  15860.385  15860.400  0.500  1.387413  22.1115  40.589  10.1359
  15860.705  15860.700  0.500  1.391935  22.1242  40.6173  10.0972
  15861.002  15861.000  0.500  1.396434  22.1161  40.6103  10.0502
  15861.278  15861.300  0.500  1.400865  22.1126  40.6058  10.0046
  15861.564  15861.600  0.500  1.404813  22.1073  40.5915  9.961677
  15861.895  15861.900  0.500  1.408835  22.1005  40.5774  9.918259
  15862.192  15862.200  0.500  1.412819  22.1137  40.6004  9.884410
  15862.501  15862.500  0.500  1.416567  22.0871  40.5547  9.836347
  15862.809  15862.800  0.500  1.419745  22.091  40.5569  9.805671
  15863.085  15863.100  0.500  1.422928  22.0946  40.5658  9.776663
  15863.393  15863.400  0.500  1.425437  22.0885  40.5538  9.749277
  15863.713  15863.700  0.500  1.427793  22.0881  40.5548  9.726561
  15864.021  15864.000  0.500  1.429916  22.0844  40.5498  9.704751
  15864.319  15864.300  0.500  1.431650  22.0834  40.5518  9.688399
  15864.605  15864.600  0.500  1.432850  22.0863  40.5479  9.675849
  15864.903  15864.900  0.500  1.433745  22.0729  40.5292  9.662758
  15865.201  15865.200  0.500  1.434651  22.0819  40.5433  9.657344
  15865.509  15865.500  0.500  1.434870  22.0702  40.5232  9.650460
  15865.807  15865.800  0.500  1.435162  22.0762  40.5349  9.650418
  15866.093  15866.100  0.500  1.434952  22.0795  40.5404  9.653756
  15866.391  15866.400  0.500  1.434921  22.0787  40.5447  9.655085
  15866.689  15866.700  0.500  1.433924  22.0722  40.5269  9.660465
  15867.008  15867.000  0.500  1.433381  22.0537  40.4929  9.657614
  15867.317  15867.300  0.500  1.432404  22.0517  40.4928  9.667007
  15867.615  15867.600  0.500  1.431523  22.0577  40.4979  9.676753
  15867.879  15867.900  0.500  1.430519  22.0507  40.4925  9.685198
  15868.210  15868.200  0.500  1.429144  22.0554  40.4996  9.700213
  15868.508  15868.500  0.500  1.428089  22.0604  40.5008  9.710732
  15868.806  15868.800  0.500  1.426849  22.0625  40.5109  9.725213
  15869.092  15869.100  0.500  1.425906  22.0477  40.4853  9.728242
  15869.379  15869.400  0.500  1.424643  22.0419  40.4704  9.736943
  15869.699  15869.700  0.500  1.423451  22.0499  40.4843  9.751906
  15870.008  15870.000  0.500  1.422385  22.0354  40.4639  9.757391
  15870.328  15870.300  0.500  1.421159  22.0339  40.4613  9.768728
  15870.603  15870.600  0.500  1.420213  22.0363  40.4594  9.777510
  15870.901  15870.900  0.500  1.419364  22.0495  40.4863  9.792344
  15871.188  15871.200  0.500  1.418548  22.0373  40.4632  9.794740
  15871.486  15871.500  0.500  1.417721  22.0274  40.4449  9.798396
  15871.795  15871.800  0.500  1.417215  22.0306  40.4514  9.804934
  15872.070  15872.100  0.500  1.416674  22.0353  40.4596  9.812237
  15872.379  15872.400  0.500  1.416061  22.0222  40.4413  9.813817
  15872.677  15872.700  0.500  1.415619  22.0248  40.4464  9.819383
  15872.997  15873.000  0.500  1.415249  22.0251  40.4415  9.821844
  15873.317  15873.300  0.500  1.414968  22.0145  40.426  9.820834
  15873.593  15873.600  0.500  1.414917  22.0301  40.4552  9.828420
  15873.891  15873.900  0.500  1.414703  22.0194  40.4392  9.826629
  15874.178  15874.200  0.500  1.414606  22.0006  40.4016  9.818449
  15874.476  15874.500  0.500  1.414797  22.0022  40.4011  9.816449
  15874.785  15874.800  0.500  1.414676  21.9944  40.3932  9.815715
  15875.083  15875.100  0.500  1.414835  22.0036  40.406  9.817272
  15875.370  15875.400  0.500  1.414841  22.0069  40.4122  9.818715
  15875.679  15875.700  0.500  1.414949  21.9944  40.3858  9.811254
  15875.999  15876.000  0.500  1.415270  21.9935  40.3852  9.807962
  15876.297  15876.300  0.500  1.415373  22.0146  40.4228  9.816062
  15876.606  15876.600  0.500  1.415537  22.0074  40.4098  9.811313
  15876.893  15876.900  0.500  1.415685  22.0073  40.4169  9.811583
  15877.180  15877.200  0.500  1.416249  21.9916  40.3799  9.797076
  15877.500  15877.500  0.500  1.416391  21.9792  40.3653  9.792141
  15877.798  15877.800  0.500  1.416754  21.9949  40.3918  9.795008
  15878.085  15878.100  0.500  1.416982  21.9922  40.3906  9.792494
  15878.383  15878.400  0.500  1.417131  21.9793  40.3628  9.784281
  15878.692  15878.700  0.500  1.417342  21.9962  40.3963  9.790325
  15879.012  15879.000  0.500  1.417845  21.9818  40.3729  9.779754
  15879.322  15879.300  0.500  1.417772  21.9771  40.3588  9.777046
  15879.620  15879.600  0.500  1.417693  21.9765  40.3555  9.777028
  15879.907  15879.900  0.500  1.418073  21.9913  40.3833  9.780045
  15880.205  15880.200  0.500  1.418098  21.9744  40.3597  9.774075
  15880.492  15880.500  0.500  1.418243  21.9841  40.3773  9.776925
  15880.812  15880.800  0.500  1.418260  21.974  40.3546  9.771250
  15881.100  15881.100  0.500  1.418046  21.9866  40.3764  9.778627
  15881.387  15881.400  0.500  1.417932  21.9598  40.3294  9.768358
  15881.707  15881.700  0.500  1.417954  21.9617  40.334  9.769271
  15882.016  15882.000  0.500  1.417529  21.9723  40.3501  9.777316
  15882.315  15882.300  0.500  1.417374  21.9732  40.3558  9.780219
  15882.613  15882.600  0.500  1.417076  21.9482  40.3086  9.771694
  15882.900  15882.900  0.500  1.416789  21.9536  40.3204  9.777353
  15883.209  15883.200  0.500  1.416466  21.9601  40.3259  9.781834
  15883.508  15883.500  0.500  1.416097  21.9556  40.321  9.784269
  15883.828  15883.800  0.500  1.415729  21.9577  40.3196  9.787519
  15884.093  15884.100  0.500  1.415633  21.9644  40.3388  9.793137
  15884.403  15884.400  0.500  1.415022  21.9412  40.292  9.787740
  15884.701  15884.700  0.500  1.414628  21.9408  40.2919  9.791578
  15885.043  15885.000  0.500  1.414299  21.9527  40.3236  9.802512
  15885.320  15885.300  0.500  1.413845  21.9356  40.2846  9.797478
  15885.607  15885.600  0.500  1.413350  21.936  40.2871  9.802937
  15885.795  15885.800  0.500  1.413329  21.928  40.2721  9.799500
  15886.801  15886.790  0.500  1.412125  21.9376  40.2924  9.816247
  15887.795  15887.790  0.500  1.411062  21.924  40.2708  9.821412
  15888.801  15888.810  0.500  1.410187  21.9194  40.2566  9.826551
  15889.841  15889.860  0.500  1.409463  21.9146  40.2507  9.832215
  15890.924  15890.920  0.500  1.409027  21.9179  40.2525  9.836945
  15891.997  15892.000  0.500  1.409117  21.9126  40.2466  9.834612
  15893.092  15893.100  0.500  1.409290  21.9092  40.2403  9.831391
  15894.209  15894.220  0.500  1.409608  21.894  40.2121  9.821353
  15895.382  15895.360  0.500  1.410280  21.8822  40.1912  9.809678
  15896.544  15896.510  0.500  1.411130  21.8738  40.1783  9.798178
  15897.706  15897.690  0.500  1.411952  21.8724  40.1754  9.789416
  15898.868  15898.880  0.500  1.412685  21.858  40.1456  9.774990
  15900.108  15900.100  0.500  1.413494  21.8605  40.1547  9.769304
  15901.348  15901.330  0.500  1.414261  21.8665  40.1702  9.765571
  15902.599  15902.580  0.500  1.414338  21.8441  40.1259  9.754069
  15903.851  15903.850  0.500  1.414331  21.8356  40.1102  9.750313
  15905.147  15905.140  0.500  1.413944  21.8494  40.1366  9.760506
  15906.443  15906.450  0.500  1.413468  21.8304  40.1027  9.756910
  15907.784  15907.780  0.500  1.412499  21.8246  40.0971  9.765007
  15909.147  15909.130  0.500  1.411508  21.8115  40.0711  9.768345
  15910.533  15910.500  0.500  1.410251  21.778  40.0031  9.764028
  15911.907  15911.880  0.500  1.409378  21.6473  39.7686  9.715266
  15913.316  15913.290  0.500  1.407970  21.6298  39.7351  9.720781
  15914.746  15914.710  0.500  1.407096  21.7579  39.9652  9.785617
  15916.166  15916.150  0.500  1.406778  21.8053  40.0535  9.810347
  15917.631  15917.610  0.500  1.406339  21.7823  40.0129  9.804717
  15919.106  15919.090  0.500  1.406473  21.7892  40.031  9.807836
  15920.572  15920.590  0.500  1.406316  21.7761  40.0053  9.803060
  15922.103  15922.110  0.500  1.406827  21.762  39.9834  9.792706
  15923.636  15923.650  0.500  1.407163  21.7481  39.9578  9.783142
  15925.202  15925.210  0.500  1.407013  21.7575  39.974  9.788571
  15926.801  15926.780  0.500  1.407373  21.7332  39.9336  9.775165
  15928.434  15928.380  0.500  1.407087  21.728  39.9224  9.775229
  15930.034  15929.990  0.500  1.406977  21.7215  39.9121  9.773777
  15931.646  15931.630  0.500  1.406691  21.7118  39.8911  9.771428
  15933.302  15933.280  0.500  1.406591  21.7243  39.9242  9.780501
  15934.937  15934.950  0.500  1.406200  21.701  39.8746  9.772175
  15936.627  15936.640  0.500  1.405548  21.6846  39.8514  9.772861
  15938.373  15938.350  0.500  1.404721  21.6785  39.8368  9.777370
  15940.076  15940.080  0.500  1.404393  21.6708  39.8226  9.777074
  15941.879  15941.830  0.500  1.403369  21.6651  39.8114  9.784344
  15943.615  15943.590  0.500  1.402637  21.6567  39.7946  9.787394
  15945.419  15945.380  0.500  1.401926  21.639  39.7656  9.787203
  15947.200  15947.180  0.500  1.401425  21.6158  39.7225  9.781513
  15949.016  15949.010  0.500  1.400927  21.4949  39.503  9.732285
  15950.854  15950.850  0.500  1.400596  21.4143  39.3619  9.700752
  15952.704  15952.710  0.500  1.400116  21.5994  39.6994  9.788611
  15954.588  15954.590  0.500  1.399969  21.6282  39.7503  9.802605
  15956.539  15956.490  0.500  1.399823  21.6089  39.7172  9.795871
  15958.424  15958.410  0.500  1.399638  21.6062  39.711  9.796146
  15960.376  15960.350  0.500  1.399270  21.5825  39.6719  9.790100
  15962.317  15962.310  0.500  1.399024  21.5793  39.6631  9.790342
  15964.281  15964.280  0.500  1.398670  21.5837  39.6715  9.795886
  15966.290  15966.280  0.500  1.398158  21.5611  39.6337  9.791562
  15968.300  15968.290  0.500  1.397834  21.5976  39.7002  9.811189
  15970.322  15970.320  0.500  1.397569  21.6065  39.7191  9.818438
  15972.411  15972.380  0.500  1.397002  21.6147  39.7361  9.828218
  15974.478  15974.450  0.500  1.396549  21.5947  39.7007  9.823914
  15976.579  15976.540  0.500  1.396072  21.5994  39.7078  9.830349
  15978.648  15978.650  0.500  1.395261  21.5727  39.6553  9.825332
  15980.806  15980.780  0.500  1.394970  21.5681  39.6583  9.828926
  15982.909  15982.920  0.500  1.394506  21.5238  39.5696  9.811500
  15985.080  15985.090  0.500  1.394055  21.3869  39.3155  9.752880
  15987.284  15987.280  0.500  1.393194  21.3934  39.3345  9.766015
  15989.512  15989.480  0.500  1.392928  21.5307  39.587  9.831312
  15991.730  15991.700  0.500  1.392418  21.5279  39.5846  9.835732
  15993.970  15993.950  0.500  1.391918  21.521  39.5721  9.837546
  15996.211  15996.210  0.500  1.391513  21.5117  39.5557  9.837447
  15998.497  15998.490  0.500  1.390995  21.4907  39.5225  9.834296
  16000.773  16000.790  0.500  1.390295  21.5076  39.5492  9.847816
  16003.128  16003.110  0.500  1.390024  21.4714  39.4861  9.834779
  16005.506  16005.450  0.500  1.389617  21.4623  39.4665  9.833886
  16007.818  16007.800  0.500  1.388855  21.4523  39.453  9.838041
  16010.186  16010.180  0.500  1.388390  21.4375  39.424  9.835368
  16012.578  16012.570  0.500  1.387720  21.4276  39.4101  9.838493
  16014.981  16014.990  0.500  1.387319  21.4057  39.3689  9.832134
  16017.419  16017.420  0.500  1.386618  21.4036  39.3654  9.838154
  16019.880  16019.870  0.500  1.386186  21.3754  39.3137  9.829480
  16022.387  16022.350  0.500  1.385666  21.3768  39.3192  9.835973
  16024.872  16024.840  0.500  1.385141  21.1672  38.9299  9.743714
  16027.392  16027.350  0.500  1.384538  21.2862  39.1503  9.804776
  16029.879  16029.870  0.500  1.383990  21.3015  39.1795  9.817481
  16032.434  16032.420  0.500  1.383645  21.3288  39.2351  9.834800
  16035.012  16034.990  0.500  1.382935  21.3147  39.2058  9.834427
  16037.592  16037.570  0.500  1.382741  21.3147  39.2124  9.838002
  16040.205  16040.180  0.500  1.382086  21.2986  39.1822  9.836867
  16042.820  16042.800  0.500  1.381777  21.2987  39.183  9.840098
  16045.458  16045.450  0.500  1.381229  21.2754  39.1343  9.833263
  16048.109  16048.110  0.500  1.380390  21.2616  39.1159  9.836880
  16050.805  16050.790  0.500  1.379891  21.2556  39.1037  9.838737
  16053.491  16053.490  0.500  1.379438  21.2413  39.0834  9.838058
  16056.212  16056.210  0.500  1.378876  21.2309  39.0663  9.839286
  16058.945  16058.950  0.500  1.378359  21.225  39.0473  9.839581
  16061.712  16061.700  0.500  1.377768  21.206  39.0189  9.838261
  16064.504  16064.480  0.500  1.377015  21.1961  39.0006  9.841039
  16067.296  16067.270  0.500  1.376490  21.1782  38.9661  9.837498
  16070.123  16070.090  0.500  1.375854  21.1671  38.9555  9.841083
  16072.918  16072.920  0.500  1.375400  21.1615  38.9466  9.843288
  16075.747  16075.770  0.500  1.374766  21.1015  38.8368  9.821767
  16078.668  16078.650  0.500  1.374084  21.0969  38.8257  9.825671
  16081.578  16081.540  0.500  1.373652  21.1268  38.8849  9.844910
  16084.479  16084.450  0.500  1.373066  21.106  38.845  9.840565
  16087.414  16087.370  0.500  1.372542  21.0873  38.8193  9.839220
  16090.328  16090.320  0.500  1.371900  21.073  38.787  9.837333
  16093.299  16093.290  0.500  1.371382  21.0606  38.7709  9.838341
  16096.306  16096.270  0.500  1.370740  21.0444  38.7367  9.835990
  16099.325  16099.280  0.500  1.370170  21.0224  38.7019  9.832749
  16102.323  16102.300  0.500  1.369648  21.0156  38.6884  9.834444
  16105.355  16105.350  0.500  1.368669  20.9958  38.6514  9.834671
  16108.389  16108.410  0.500  1.368260  20.9872  38.6395  9.835672
  16111.470  16111.490  0.500  1.367451  20.982  38.6222  9.839207
  16114.609  16114.590  0.500  1.366837  20.958  38.589  9.836805
  16117.737  16117.710  0.500  1.366152  20.946  38.5676  9.838068
  16120.878  16120.850  0.500  1.365603  20.9307  38.5404  9.836555
  16124.009  16124.000  0.500  1.364779  20.855  38.4081  9.810861
  16127.198  16127.180  0.500  1.364147  20.9118  38.5064  9.842191
  16130.423  16130.370  0.500  1.363205  20.8935  38.4736  9.843081
  16133.615  16133.590  0.500  1.362586  20.8759  38.4418  9.841028
  16136.831  16136.820  0.500  1.362077  20.8643  38.416  9.839428
  16140.059  16140.070  0.500  1.361397  20.8589  38.4152  9.845909
  16143.369  16143.350  0.500  1.360729  20.8216  38.3426  9.833854
  16146.691  16146.640  0.500  1.359973  20.8025  38.314  9.833949
  16150.015  16149.950  0.500  1.359517  20.8148  38.336  9.844087
  16153.306  16153.270  0.500  1.358591  20.7887  38.2876  9.840780
  16156.644  16156.620  0.500  1.358106  20.7741  38.268  9.840504
  16159.972  16159.990  0.500  1.357360  20.7639  38.2468  9.842395
  16163.393  16163.370  0.500  1.356661  20.7539  38.236  9.846496
  16166.804  16166.780  0.500  1.356001  20.7237  38.1752  9.837334
  16170.239  16170.200  0.500  1.355316  20.7024  38.1388  9.834685
  16173.676  16173.650  0.500  1.354350  20.6428  38.024  9.814556
  16177.103  16177.110  0.500  1.353699  20.683  38.1012  9.840899
  16180.623  16180.590  0.500  1.352807  20.6878  38.113  9.852725
  16184.156  16184.090  0.500  1.352355  20.6568  38.0553  9.842263
  16187.644  16187.610  0.500  1.351466  20.654  38.0546  9.850834
  16191.169  16191.150  0.500  1.350866  20.6198  37.9959  9.841525
  16194.695  16194.700  0.500  1.350283  20.611  37.9798  9.843109
  16198.315  16198.280  0.500  1.349323  20.5795  37.9223  9.837646
  16201.925  16201.880  0.500  1.348636  20.5632  37.8965  9.837712
  16205.490  16205.490  0.500  1.347918  20.5703  37.9089  9.847989
  16209.138  16209.120  0.500  1.346822  20.5479  37.8642  9.847173
  16212.833  16212.780  0.500  1.346397  20.526  37.8301  9.842496
  16216.484  16216.450  0.500  1.345653  20.5142  37.8075  9.843934
  16220.159  16220.140  0.500  1.344862  20.4873  37.7557  9.838217
  16223.859  16223.850  0.500  1.344164  20.4794  37.7449  9.842256
  16227.585  16227.580  0.500  1.343376  20.4541  37.7035  9.839220
  16231.334  16231.320  0.500  1.342491  20.4387  37.674  9.840218
  16235.167  16235.090  0.500  1.341933  20.3954  37.5987  9.826060
  16238.932  16238.880  0.500  1.341129  20.3923  37.5902  9.831719
  16242.699  16242.680  0.500  1.340381  20.3881  37.5866  9.838138
  16246.560  16246.510  0.500  1.339537  20.3715  37.5531  9.837667
  16250.376  16250.350  0.500  1.338826  20.3513  37.5181  9.835503
  16254.276  16254.210  0.500  1.338002  20.3186  37.4631  9.829163
  16258.119  16258.090  0.500  1.336995  20.3184  37.4624  9.838895
  16262.034  16261.990  0.500  1.336248  20.3026  37.436  9.839310
  16265.950  16265.910  0.500  1.335412  20.2845  37.4054  9.839473
  16269.892  16269.850  0.500  1.334421  20.2725  37.3807  9.842733
  16273.859  16273.810  0.500  1.333822  20.267  37.3705  9.845941
  16277.804  16277.780  0.500  1.332946  20.2416  37.332  9.844422
  16281.764  16281.780  0.500  1.332287  20.2239  37.2977  9.841872
  16285.818  16285.790  0.500  1.331321  20.2035  37.2603  9.841491
  16289.850  16289.830  0.500  1.330549  20.1887  37.2362  9.842732
  16293.943  16293.880  0.500  1.329751  20.1664  37.1984  9.840580
  16297.969  16297.950  0.500  1.328912  20.1571  37.1762  9.842970
  16302.054  16302.040  0.500  1.327973  20.1249  37.1197  9.837232
  16306.188  16306.150  0.500  1.327116  20.0669  37.0165  9.818290
  16310.348  16310.280  0.500  1.326449  20.1033  37.0845  9.842904
  16314.451  16314.430  0.500  1.325747  20.0784  37.0416  9.838407
  16318.603  16318.590  0.500  1.324952  20.0626  37.0117  9.838306
  16322.804  16322.780  0.500  1.323936  20.0438  36.9749  9.838494
  16327.042  16326.980  0.500  1.323146  20.023  36.9456  9.838483
  16331.236  16331.210  0.500  1.322245  20.0023  36.9089  9.837575
  16335.467  16335.450  0.500  1.321456  19.9783  36.8613  9.832618
  16339.746  16339.710  0.500  1.320466  19.9692  36.8494  9.839195
  16344.075  16343.990  0.500  1.319794  19.9451  36.8053  9.834017
  16348.348  16348.290  0.500  1.318912  19.9444  36.8069  9.843117
  16352.681  16352.610  0.500  1.317958  19.9065  36.7436  9.835591
  16356.959  16356.950  0.500  1.317151  19.8927  36.7111  9.834814
  16361.367  16361.310  0.500  1.316154  19.8702  36.6724  9.834243
  16365.778  16365.690  0.500  1.315398  19.8515  36.644  9.834052
  16370.121  16370.080  0.500  1.314601  19.8144  36.5755  9.823499
  16374.548  16374.500  0.500  1.313653  19.7529  36.4634  9.802685
  16379.002  16378.930  0.500  1.313000  19.8007  36.5579  9.834519
  16383.481  16383.380  0.500  1.312174  19.7832  36.5197  9.832358
  16387.998  16387.850  0.500  1.311144  19.7626  36.4835  9.832732
  16392.282  16392.340  0.500  1.310410  19.7334  36.4354  9.826972
  16396.804  16396.850  0.500  1.309497  19.7147  36.3967  9.825500
  16401.316  16401.380  0.500  1.308557  19.6791  36.3344  9.817897
  16405.891  16405.930  0.500  1.307748  19.6697  36.3233  9.822854
  16410.479  16410.500  0.500  1.306808  19.6592  36.3052  9.827186
  16415.046  16415.080  0.500  1.305840  19.6363  36.2676  9.826520
  16419.652  16419.690  0.500  1.305130  19.607  36.2094  9.817716
  16424.272  16424.310  0.500  1.304090  19.5989  36.1988  9.825047
  16428.930  16428.960  0.500  1.303253  19.5743  36.149  9.819761
  16433.590  16433.620  0.500  1.302284  19.5447  36.0949  9.814578
  16438.254  16438.300  0.500  1.301502  19.5145  36.0512  9.810349
  16442.991  16443.000  0.500  1.300562  19.4722  35.9694  9.797306
  16447.683  16447.720  0.500  1.299309  19.4847  35.9904  9.815305
  16452.437  16452.460  0.500  1.298537  19.47  35.971  9.817585
  16457.195  16457.210  0.500  1.297594  19.4608  35.9545  9.822345
  16461.990  16461.990  0.500  1.296808  19.4227  35.8883  9.811980
  16466.800  16466.790  0.500  1.295722  19.4154  35.8739  9.818698
  16471.602  16471.600  0.500  1.294897  19.3902  35.8278  9.814159
  16476.406  16476.430  0.500  1.294054  19.3625  35.7805  9.809476
  16481.284  16481.290  0.500  1.292941  19.3417  35.7453  9.810752
  16486.165  16486.160  0.500  1.292072  19.3285  35.7168  9.811427
  16491.049  16491.050  0.500  1.291072  19.307  35.6767  9.810215
  16495.936  16495.960  0.500  1.290492  19.2856  35.6446  9.807095
  16500.874  16500.890  0.500  1.289305  19.2582  35.597  9.805627
  16505.862  16505.830  0.500  1.288182  19.2342  35.5486  9.803288
  16510.829  16510.800  0.500  1.287272  19.2702  35.6193  9.831729
  16515.824  16515.790  0.500  1.286322  19.2603  35.6088  9.838178
  16520.797  16520.790  0.500  1.285426  19.2433  35.5749  9.837619
  16525.810  16525.820  0.500  1.284652  19.2148  35.5209  9.830290
  16530.897  16530.860  0.500  1.283537  19.1928  35.4817  9.830396
  16535.952  16535.920  0.500  1.282574  19.1649  35.431  9.825812
  16540.997  16541.000  0.500  1.281563  19.1509  35.4041  9.828282
  16546.094  16546.100  0.500  1.280749  19.1059  35.3259  9.814555
  16551.218  16551.220  0.500  1.279703  19.1031  35.3279  9.825379
  16556.393  16556.360  0.500  1.278662  19.0824  35.2863  9.824046
  16561.524  16561.520  0.500  1.277834  19.0474  35.2266  9.815551
  16566.741  16566.700  0.500  1.276637  19.0331  35.1959  9.818750
  16571.902  16571.890  0.500  1.275846  19.0149  35.1682  9.818786
  16577.139  16577.110  0.500  1.274772  18.9859  35.1157  9.814652
  16582.378  16582.340  0.500  1.273822  18.9731  35.09  9.816805
  16587.597  16587.590  0.500  1.272597  18.9474  35.0445  9.816084
  16592.880  16592.860  0.500  1.271852  18.9179  34.9884  9.807661
  16598.166  16598.150  0.500  1.270748  18.9003  34.9615  9.810944
  16603.504  16603.460  0.500  1.269702  18.8719  34.9132  9.807649
  16608.821  16608.790  0.500  1.268752  18.8521  34.8772  9.806864
  16614.141  16614.140  0.500  1.267636  18.8278  34.8313  9.804881
  16619.538  16619.510  0.500  1.266852  18.8028  34.7924  9.801626
  16624.913  16624.890  0.500  1.265710  18.7896  34.7647  9.805000
  16630.317  16630.300  0.500  1.264801  18.7692  34.7316  9.804567
  16635.736  16635.720  0.500  1.263627  18.7366  34.6728  9.799469
  16641.195  16641.170  0.500  1.262792  18.7076  34.6235  9.793703
  16646.646  16646.630  0.500  1.261776  18.6759  34.5676  9.787827
  16652.161  16652.110  0.500  1.260528  18.6518  34.523  9.787429
  16657.643  16657.610  0.500  1.259692  18.6376  34.498  9.788516
  16663.165  16663.130  0.500  1.258650  18.6148  34.4547  9.786408
  16668.691  16668.670  0.500  1.257529  18.5859  34.4034  9.782815
  16674.270  16674.220  0.500  1.256446  18.5573  34.3505  9.778362
  16679.827  16679.800  0.500  1.255763  18.526  34.2983  9.770162
  16685.438  16685.400  0.500  1.254615  18.4952  34.2465  9.766601
  16691.040  16691.010  0.500  1.253593  18.4708  34.2025  9.764041
  16696.694  16696.650  0.500  1.252462  18.4344  34.1323  9.755023
  16702.328  16702.300  0.500  1.251518  18.3939  34.0625  9.744270
  16708.027  16707.970  0.500  1.250538  18.3151  33.9156  9.711759
  16713.681  16713.660  0.500  1.249807  17.9347  33.2122  9.517283