File: xdidata/Pb/Pb-L3-Massicot.xdi
# XDI/1.0 BlueSky/1.10.0 BMM/2023-1.0-py310-tiled
# Beamline.name: BMM (06BM) -- Beamline for Materials Measurement (NIST)
# Beamline.xray_source: NSLS-II three-pole wiggler
# Beamline.collimation: paraboloid mirror, 5 nm Rh on 30 nm Pt
# Beamline.focusing: not in use
# Beamline.harmonic_rejection: flat mirror, Pt stripe, pitch = 7.0 mrad relative to beam
# Beamline.software: Bluesky 1.10.0, Ophyd 1.7.0, DataBroker 2.0.0b13, Python 3.10.8, 2023-1.0-py310-tiled
# Detector.I0: 10 cm N2
# Detector.I1: 25 cm N2
# Detector.I2: 25 cm N2
# Element.symbol: Pb
# Element.edge: L3
# Element.reference: Pb
# Element.reference_material: Pb foil
# Facility.name: NSLS-II
# Facility.energy: 3.0
# Facility.current: 400.1
# Facility.mode: top-off
# Facility.GUP: 301027
# Facility.SAF: 310583
# Facility.cycle: 2023-2
# Mono.name: Si(111)
# Mono.d_spacing: 3.13519
# Mono.encoder_resolution: 0.0000050 deg/ct
# Mono.angle_offset: 16.0754 deg
# Mono.scan_mode: pseudo channel cut
# Mono.scan_type: step
# Mono.direction: forward in energy
# Sample.name: PbO
# Sample.prep: powder on tape
# Sample.x: 143.785 mm
# Sample.y: 114.695 mm
# Sample.SDD_position: 205.000 mm
# Scan.experimenters: Bruce Ravel
# Scan.edge_energy: 13035.2
# Scan.start_time: 2023-06-23T16:41:09
# Scan.end_time: 2023-06-23T16:49:32
# Scan.transient_id: 84872
# Scan.uid: 829dc3ec-db94-4b86-8ee1-22a8b4761c2a
# Scan.plot_hint: ln(I0/It)  --  ln($5/$6)
# Column.1: energy eV
# Column.2: requested_energy eV
# Column.3: measurement_time seconds
# Column.4: xmu
# Column.5: I0 nA
# Column.6: It nA
# Column.7: Ir nA
# ///////////
# BMM standards collection
# -----------
# energy  requested_energy  measurement_time  xmu  I0  It  Ir
  12835.161  12835.200  0.500  0.592095  50.0585  27.6907  12.3653
  12845.212  12845.200  0.500  0.589428  49.9553  27.7074  12.3953
  12855.222  12855.200  0.500  0.586777  49.8309  27.7118  12.4202
  12865.232  12865.200  0.500  0.583970  49.7252  27.7308  12.448
  12875.252  12875.200  0.500  0.581315  49.5525  27.7079  12.4604
  12885.272  12885.200  0.500  0.578633  49.4909  27.7478  12.4985
  12895.200  12895.200  0.500  0.576058  49.365  27.7485  12.52
  12905.208  12905.200  0.500  0.573430  49.2455  27.7542  12.5402
  12915.204  12915.200  0.500  0.570907  48.6176  27.4696  12.4316
  12925.243  12925.200  0.500  0.568423  48.9928  27.7504  12.5808
  12935.263  12935.200  0.500  0.566067  48.8977  27.7619  12.6023
  12945.298  12945.200  0.500  0.563769  48.7166  27.7227  12.6016
  12955.319  12955.200  0.500  0.561667  48.4414  27.6241  12.5736
  12965.173  12965.200  0.500  0.559813  48.5159  27.7179  12.6293
  12975.189  12975.200  0.500  0.558293  48.3633  27.6727  12.6184
  12985.213  12985.200  0.500  0.557416  48.2801  27.6494  12.6144
  12995.194  12995.200  0.500  0.557625  48.1585  27.574  12.5764
  13005.176  13005.200  0.500  0.559558  48.0543  27.4612  12.5017
  13007.132  13007.200  0.500  0.560375  48.0328  27.4264  12.4801
  13009.132  13009.200  0.500  0.561324  48.0034  27.3837  12.4495
  13011.148  13011.200  0.500  0.562670  47.984  27.3358  12.417
  13013.149  13013.200  0.500  0.564054  47.9563  27.2822  12.3753
  13015.144  13015.200  0.500  0.566004  47.9284  27.2133  12.3279
  13017.132  13017.200  0.500  0.568293  47.9087  27.1399  12.2735
  13019.128  13019.200  0.500  0.571225  47.8852  27.0472  12.2037
  13021.147  13021.200  0.500  0.574905  47.8625  26.935  12.1187
  13023.159  13023.200  0.500  0.579691  47.8355  26.7913  12.0079
  13025.172  13025.200  0.500  0.586086  47.8139  26.6085  11.867
  13025.446  13025.500  0.500  0.586998  47.8062  26.58  11.8442
  13025.734  13025.800  0.500  0.588437  47.8079  26.5427  11.8193
  13026.052  13026.100  0.500  0.589576  47.7983  26.5072  11.789
  13026.356  13026.400  0.500  0.590925  47.7967  26.4705  11.7603
  13026.652  13026.700  0.500  0.592275  47.7904  26.4313  11.7309
  13026.948  13027.000  0.500  0.593689  47.7863  26.3917  11.699
  13027.252  13027.300  0.500  0.595173  47.7819  26.3502  11.6653
  13027.563  13027.600  0.500  0.596912  47.7794  26.303  11.6316
  13027.837  13027.900  0.500  0.598499  47.7724  26.2575  11.5968
  13028.155  13028.200  0.500  0.600218  47.7679  26.2099  11.5592
  13028.458  13028.500  0.500  0.602315  47.7647  26.1532  11.5168
  13028.769  13028.800  0.500  0.604345  47.7593  26.0972  11.4736
  13029.051  13029.100  0.500  0.606290  47.7535  26.0433  11.4301
  13029.347  13029.400  0.500  0.608669  47.752  25.9807  11.3809
  13029.658  13029.700  0.500  0.611193  47.7493  25.9137  11.3284
  13029.962  13030.000  0.500  0.613796  47.7452  25.8441  11.2748
  13030.251  13030.300  0.500  0.616591  47.7404  25.7694  11.2195
  13030.547  13030.600  0.500  0.619681  47.7361  25.6876  11.1541
  13030.865  13030.900  0.500  0.623023  47.7296  25.5984  11.0844
  13031.169  13031.200  0.500  0.626740  47.7291  25.5031  11.0097
  13031.451  13031.500  0.500  0.630498  47.7217  25.4035  10.9342
  13031.754  13031.800  0.500  0.634706  47.7168  25.2943  10.8493
  13032.080  13032.100  0.500  0.639391  47.7133  25.1742  10.7556
  13032.384  13032.400  0.500  0.644614  47.7135  25.0432  10.6551
  13032.673  13032.700  0.500  0.649720  47.7011  24.9091  10.5546
  13032.962  13033.000  0.500  0.655972  47.6983  24.7524  10.4347
  13033.273  13033.300  0.500  0.662780  47.6982  24.5845  10.3061
  13033.584  13033.600  0.500  0.669967  47.6951  24.4068  10.1728
  13033.881  13033.900  0.500  0.677502  47.6862  24.2191  10.0364
  13034.177  13034.200  0.500  0.685871  47.6861  24.0172  9.887588
  13034.481  13034.500  0.500  0.694992  47.6779  23.795  9.724072
  13034.793  13034.800  0.500  0.704877  47.6737  23.5589  9.557337
  13035.089  13035.100  0.500  0.714908  47.8423  23.4063  9.424502
  13035.393  13035.400  0.500  0.725968  47.8357  23.1456  9.241556
  13035.697  13035.700  0.500  0.737890  47.8356  22.8712  9.058174
  13036.001  13036.000  0.500  0.750087  47.8306  22.5916  8.868167
  13036.282  13036.300  0.500  0.762038  47.8297  22.3228  8.685819
  13036.586  13036.600  0.500  0.775159  47.8214  22.028  8.492139
  13036.898  13036.900  0.500  0.788343  47.8172  21.7376  8.302054
  13037.202  13037.200  0.500  0.800936  47.8169  21.4654  8.121261
  13037.491  13037.500  0.500  0.812826  47.8085  21.208  7.950542
  13037.802  13037.800  0.500  0.825589  47.8055  20.9377  7.771347
  13038.106  13038.100  0.500  0.837640  47.7997  20.6844  7.598425
  13038.403  13038.400  0.500  0.848566  47.7977  20.4588  7.443094
  13038.685  13038.700  0.500  0.859216  47.794  20.2405  7.290166
  13038.989  13039.000  0.500  0.869727  47.7904  20.0273  7.136022
  13039.308  13039.300  0.500  0.880257  47.7885  19.8168  6.983472
  13039.590  13039.600  0.500  0.889702  47.7787  19.6264  6.841229
  13039.901  13039.900  0.500  0.899796  47.7737  19.4273  6.693292
  13040.205  13040.200  0.500  0.910408  47.7699  19.2207  6.536488
  13040.502  13040.500  0.500  0.920929  47.7699  19.0195  6.387028
  13040.799  13040.800  0.500  0.931828  47.7648  18.8114  6.235260
  13041.096  13041.100  0.500  0.943679  47.7584  18.5873  6.076034
  13041.392  13041.400  0.500  0.956304  47.7586  18.3541  5.913391
  13041.682  13041.700  0.500  0.969165  47.754  18.1178  5.752365
  13041.986  13042.000  0.500  0.983134  47.7497  17.8649  5.589396
  13042.298  13042.300  0.500  0.999458  47.7421  17.5729  5.410191
  13042.595  13042.600  0.500  1.016207  47.7432  17.2814  5.238718
  13042.884  13042.900  0.500  1.033784  47.7376  16.9783  5.071829
  13043.181  13043.200  0.500  1.052667  47.7318  16.6587  4.902203
  13043.485  13043.500  0.500  1.073995  47.7298  16.3064  4.724286
  13043.775  13043.800  0.500  1.094957  47.7248  15.9665  4.560765
  13044.071  13044.100  0.500  1.117828  47.7187  15.6035  4.392784
  13044.398  13044.400  0.500  1.142871  47.7169  15.217  4.220694
  13044.695  13044.700  0.500  1.167888  47.7134  14.84  4.061114
  13044.999  13045.000  0.500  1.190930  47.7064  14.4998  3.918654
  13045.281  13045.300  0.500  1.215229  47.7004  14.1499  3.776999
  13045.593  13045.600  0.500  1.239731  47.6979  13.8067  3.639778
  13045.898  13045.900  0.500  1.262106  47.6969  13.5009  3.519316
  13046.187  13046.200  0.500  1.282897  47.6906  13.2214  3.410082
  13046.506  13046.500  0.500  1.304400  47.6864  12.939  3.299185
  13046.811  13046.800  0.500  1.322777  47.6765  12.7008  3.209086
  13047.108  13047.100  0.500  1.338798  47.6696  12.4971  3.130503
  13047.412  13047.400  0.500  1.354543  47.653  12.2976  3.053785
  13047.702  13047.700  0.500  1.368724  47.6402  12.1212  2.988109
  13047.992  13048.000  0.500  1.380695  47.6218  11.9723  2.932268
  13048.296  13048.300  0.500  1.392204  47.604  11.8309  2.881040
  13048.608  13048.600  0.500  1.402709  47.5852  11.7026  2.836133
  13048.920  13048.900  0.500  1.411808  47.5784  11.595  2.798079
  13049.188  13049.200  0.500  1.419840  47.571  11.5004  2.766552
  13049.514  13049.500  0.500  1.427795  47.5695  11.4089  2.736882
  13049.804  13049.800  0.500  1.435104  47.5769  11.3276  2.712309
  13050.109  13050.100  0.500  1.441703  47.5842  11.2548  2.692530
  13050.406  13050.400  0.500  1.448030  47.5972  11.1869  2.674063
  13050.718  13050.700  0.500  1.454264  47.61  11.1204  2.656166
  13051.008  13051.000  0.500  1.459981  47.6151  11.0582  2.642847
  13051.298  13051.300  0.500  1.465566  47.6202  10.9977  2.628646
  13051.602  13051.600  0.500  1.471314  47.6148  10.9335  2.613474
  13051.892  13051.900  0.500  1.477196  47.6115  10.8686  2.599727
  13052.204  13052.200  0.500  1.482914  47.6129  10.8069  2.586208
  13052.487  13052.500  0.500  1.489287  47.6069  10.737  2.571978
  13052.799  13052.800  0.500  1.495805  47.5985  10.6653  2.555619
  13053.089  13053.100  0.500  1.503094  47.6008  10.5884  2.539291
  13053.379  13053.400  0.500  1.509632  47.5933  10.5177  2.521771
  13053.676  13053.700  0.500  1.517264  47.5845  10.4358  2.502705
  13054.003  13054.000  0.500  1.526143  47.5871  10.3441  2.480552
  13054.278  13054.300  0.500  1.534064  47.5791  10.2608  2.459832
  13054.575  13054.600  0.500  1.543204  47.5764  10.1669  2.436856
  13054.903  13054.900  0.500  1.552972  47.5703  10.0667  2.412041
  13055.185  13055.200  0.500  1.562214  47.5668  9.973396  2.387235
  13055.483  13055.500  0.500  1.571756  47.5627  9.877835  2.360838
  13055.795  13055.800  0.500  1.581775  47.5562  9.778023  2.334327
  13056.100  13056.100  0.500  1.591628  47.5542  9.681740  2.308342
  13056.390  13056.400  0.500  1.600580  47.5505  9.594711  2.283191
  13056.695  13056.700  0.500  1.609843  47.543  9.504739  2.256434
  13057.007  13057.000  0.500  1.619217  47.5425  9.415966  2.230686
  13057.297  13057.300  0.500  1.627618  47.5317  9.335080  2.205111
  13057.587  13057.600  0.500  1.635882  47.5332  9.258544  2.180323
  13057.907  13057.900  0.500  1.644165  47.5269  9.180944  2.154413
  13058.212  13058.200  0.500  1.652282  47.5263  9.106608  2.128979
  13058.502  13058.500  0.500  1.659439  47.5244  9.041298  2.105699
  13058.800  13058.800  0.500  1.666902  47.5138  8.972081  2.080935
  13059.112  13059.100  0.500  1.673755  47.5102  8.910142  2.056878
  13059.395  13059.400  0.500  1.679966  47.5041  8.853829  2.035069
  13059.700  13059.700  0.500  1.685833  47.4992  8.801121  2.013591
  13060.005  13060.000  0.500  1.691382  47.496  8.751849  1.992882
  13060.221  13060.200  0.500  1.694457  47.4902  8.723899  1.980604
  13061.225  13061.190  0.500  1.706307  47.4808  8.619430  1.928773
  13062.215  13062.190  0.500  1.708586  47.4643  8.596809  1.904973
  13063.243  13063.210  0.500  1.700977  47.4512  8.660097  1.908285
  13064.285  13064.260  0.500  1.684504  47.4422  8.802249  1.937889
  13065.327  13065.320  0.500  1.662805  47.4288  8.992809  1.985205
  13066.400  13066.400  0.500  1.639863  47.4144  9.198706  2.039843
  13067.510  13067.500  0.500  1.618703  47.3994  9.392460  2.094492
  13068.612  13068.620  0.500  1.601673  47.382  9.550270  2.141543
  13069.767  13069.760  0.500  1.588494  47.3599  9.672452  2.178959
  13070.930  13070.910  0.500  1.579810  47.3148  9.747509  2.200675
  13072.115  13072.090  0.500  1.574991  47.2636  9.784007  2.209317
  13073.308  13073.280  0.500  1.573466  47.2701  9.800287  2.211579
  13074.516  13074.500  0.500  1.574759  47.296  9.792992  2.209157
  13075.739  13075.730  0.500  1.577757  47.2827  9.760942  2.201792
  13076.970  13076.980  0.500  1.581426  47.2592  9.720346  2.191161
  13078.261  13078.250  0.500  1.584530  47.2473  9.687781  2.184133
  13079.560  13079.540  0.500  1.586251  47.2354  9.668688  2.176518
  13080.866  13080.850  0.500  1.586942  47.2188  9.658620  2.169146
  13082.195  13082.180  0.500  1.586808  47.2003  9.656124  2.159762
  13083.569  13083.530  0.500  1.586856  47.1846  9.652448  2.149123
  13084.921  13084.900  0.500  1.586082  47.1694  9.656811  2.138880
  13086.303  13086.280  0.500  1.585020  47.1484  9.662775  2.130406
  13087.707  13087.690  0.500  1.584066  47.1268  9.667557  2.124821
  13089.112  13089.110  0.500  1.583706  47.1086  9.667297  2.122856
  13090.548  13090.550  0.500  1.584914  47.0826  9.650315  2.120304
  13092.043  13092.010  0.500  1.587748  47.0406  9.614405  2.117319
  13093.494  13093.490  0.500  1.592479  46.9697  9.554605  2.112010
  13095.012  13094.990  0.500  1.598559  46.9959  9.501994  2.106525
  13096.531  13096.510  0.500  1.605219  47.0022  9.440188  2.099969
  13098.073  13098.050  0.500  1.611778  46.9838  9.374799  2.090680
  13099.608  13099.610  0.500  1.617595  46.9605  9.315796  2.081675
  13101.180  13101.180  0.500  1.622215  46.9288  9.266596  2.076290
  13102.783  13102.780  0.500  1.625218  46.893  9.231757  2.071651
  13104.416  13104.390  0.500  1.627317  46.881  9.210053  2.068750
  13106.027  13106.030  0.500  1.628415  46.8123  9.186475  2.066502
  13107.706  13107.680  0.500  1.628088  46.8359  9.194098  2.066801
  13109.355  13109.350  0.500  1.627456  46.8298  9.198706  2.066552
  13111.050  13111.040  0.500  1.626000  46.8091  9.208055  2.066063
  13112.760  13112.750  0.500  1.624410  46.7861  9.218166  2.065040
  13114.478  13114.480  0.500  1.622009  46.7616  9.235480  2.064896
  13116.242  13116.230  0.500  1.619223  46.7126  9.251559  2.063496
  13118.028  13117.990  0.500  1.615799  46.6429  9.269434  2.064737
  13119.793  13119.780  0.500  1.611909  46.6867  9.314300  2.073691
  13121.573  13121.580  0.500  1.607919  46.6731  9.348801  2.081323
  13123.414  13123.410  0.500  1.603993  46.6471  9.380358  2.091413
  13125.255  13125.250  0.500  1.600993  46.6107  9.401203  2.099640
  13127.142  13127.110  0.500  1.598294  46.5903  9.422484  2.108344
  13129.022  13128.990  0.500  1.596347  46.5776  9.438260  2.116657
  13130.917  13130.890  0.500  1.594235  46.5473  9.452063  2.122844
  13132.798  13132.810  0.500  1.592216  46.5012  9.461798  2.128652
  13134.740  13134.750  0.500  1.590433  46.4966  9.477751  2.133538
  13136.705  13136.710  0.500  1.589095  46.4772  9.486469  2.137638
  13138.693  13138.680  0.500  1.587809  46.4577  9.494684  2.140344
  13140.697  13140.680  0.500  1.586507  46.4326  9.501942  2.143012
  13142.709  13142.690  0.500  1.585117  46.4088  9.510262  2.145393
  13144.721  13144.720  0.500  1.584084  46.3823  9.514658  2.147907
  13146.787  13146.780  0.500  1.583137  46.3567  9.518427  2.148600
  13148.877  13148.850  0.500  1.582638  46.3326  9.518231  2.149955
  13150.967  13150.940  0.500  1.582340  46.3022  9.514816  2.148158
  13153.072  13153.050  0.500  1.582356  46.2656  9.507141  2.147539
  13155.179  13155.180  0.500  1.582682  46.2532  9.501489  2.146616
  13157.316  13157.320  0.500  1.583402  46.2262  9.489102  2.145222
  13159.507  13159.490  0.500  1.584102  46.2016  9.477421  2.143303
  13161.706  13161.680  0.500  1.584883  46.1767  9.464913  2.140207
  13163.921  13163.880  0.500  1.585795  46.1509  9.451004  2.138380
  13166.122  13166.100  0.500  1.586495  46.1228  9.438647  2.137287
  13168.369  13168.350  0.500  1.586596  46.0434  9.421450  2.133885
  13170.646  13170.610  0.500  1.586779  46.0624  9.423602  2.135930
  13172.918  13172.890  0.500  1.586517  46.0393  9.421356  2.136708
  13175.212  13175.190  0.500  1.586250  46.0176  9.419418  2.137218
  13177.530  13177.510  0.500  1.585315  45.9926  9.423113  2.139312
  13179.849  13179.850  0.500  1.584156  45.9605  9.427445  2.140549
  13182.207  13182.200  0.500  1.582886  45.9335  9.433883  2.144060
  13184.619  13184.580  0.500  1.581342  45.9021  9.442015  2.146860
  13187.001  13186.970  0.500  1.579956  45.8758  9.449699  2.149581
  13189.399  13189.390  0.500  1.578688  45.8495  9.456253  2.152171
  13191.829  13191.820  0.500  1.577424  45.8164  9.461375  2.155876
  13194.297  13194.270  0.500  1.576165  45.7853  9.466875  2.159035
  13196.774  13196.750  0.500  1.574982  45.754  9.471599  2.161539
  13199.259  13199.240  0.500  1.574082  45.7256  9.474233  2.163301
  13201.761  13201.750  0.500  1.572964  45.6943  9.478345  2.166559
  13204.279  13204.270  0.500  1.572185  45.6679  9.480237  2.168349
  13206.859  13206.820  0.500  1.571142  45.637  9.483712  2.170603
  13209.416  13209.390  0.500  1.569975  45.6027  9.487665  2.172688
  13211.960  13211.970  0.500  1.568841  45.5716  9.491941  2.175180
  13214.596  13214.580  0.500  1.567624  45.538  9.496497  2.177050
  13217.226  13217.200  0.500  1.566313  45.508  9.502704  2.180128
  13219.864  13219.850  0.500  1.565180  45.476  9.506772  2.180875
  13222.526  13222.510  0.500  1.563922  45.4393  9.511061  2.182750
  13225.204  13225.190  0.500  1.562729  45.3856  9.511171  2.183888
  13227.914  13227.890  0.500  1.561384  45.3651  9.519652  2.186315
  13230.641  13230.610  0.500  1.560291  45.3399  9.524781  2.186829
  13233.338  13233.350  0.500  1.559180  45.3138  9.529873  2.190241
  13236.097  13236.100  0.500  1.557867  45.2717  9.533533  2.191917
  13238.896  13238.880  0.500  1.556836  45.2392  9.536526  2.192982
  13241.688  13241.670  0.500  1.556157  45.2029  9.535346  2.193666
  13244.490  13244.490  0.500  1.555478  45.3176  9.566019  2.201491
  13247.346  13247.320  0.500  1.555128  45.2825  9.561964  2.202993
  13250.195  13250.170  0.500  1.554633  45.2389  9.557472  2.203303
  13253.061  13253.050  0.500  1.554575  45.1941  9.548563  2.202859
  13255.936  13255.940  0.500  1.554449  45.1531  9.541102  2.202510
  13258.866  13258.850  0.500  1.554405  45.0974  9.529768  2.202182
  13261.790  13261.770  0.500  1.554256  45.0444  9.519985  2.201094
  13264.723  13264.720  0.500  1.554125  44.9842  9.508500  2.199245
  13267.695  13267.690  0.500  1.554164  44.8983  9.489984  2.196842
  13270.707  13270.670  0.500  1.553873  44.7421  9.459711  2.191085
  13273.698  13273.680  0.500  1.553510  44.4413  9.399527  2.177385
  13276.712  13276.700  0.500  1.552760  44.2997  9.376611  2.174404
  13279.767  13279.750  0.500  1.551748  44.3232  9.391071  2.177852
  13282.831  13282.810  0.500  1.550223  44.2755  9.395302  2.180163
  13285.896  13285.890  0.500  1.548874  44.1783  9.387311  2.179671
  13289.017  13288.990  0.500  1.547308  44.1007  9.385514  2.180403
  13292.132  13292.110  0.500  1.545675  44.0878  9.398102  2.185153
  13295.271  13295.250  0.500  1.544002  44.0895  9.414199  2.189378
  13298.411  13298.400  0.500  1.542311  44.0414  9.419857  2.191578
  13301.607  13301.580  0.500  1.540980  43.9694  9.416986  2.193219
  13304.790  13304.770  0.500  1.539711  43.9361  9.421799  2.195969
  13308.004  13307.990  0.500  1.538540  43.9405  9.433772  2.200269
  13311.251  13311.220  0.500  1.537089  43.9088  9.440665  2.203926
  13314.508  13314.470  0.500  1.536190  43.8877  9.444615  2.207056
  13317.751  13317.750  0.500  1.535400  43.856  9.445240  2.208781
  13321.080  13321.040  0.500  1.534271  43.8086  9.445698  2.210564
  13324.380  13324.350  0.500  1.533433  43.7551  9.442061  2.211698
  13327.674  13327.670  0.500  1.532533  43.6922  9.436980  2.211797
  13331.063  13331.020  0.500  1.531656  43.6545  9.437122  2.213990
  13334.430  13334.390  0.500  1.530248  43.6458  9.448540  2.218436
  13337.776  13337.770  0.500  1.528770  43.6236  9.457690  2.222854
  13341.201  13341.180  0.500  1.527353  43.6022  9.466468  2.226096
  13344.620  13344.600  0.500  1.525648  43.5771  9.477151  2.230375
  13348.072  13348.050  0.500  1.523900  43.548  9.487397  2.234179
  13351.518  13351.510  0.500  1.522290  43.5262  9.497934  2.237814
  13355.028  13354.990  0.500  1.520793  43.4945  9.505229  2.242250
  13358.493  13358.490  0.500  1.519376  43.4373  9.506192  2.243765
  13362.030  13362.010  0.500  1.518235  43.4147  9.512077  2.248141
  13365.593  13365.550  0.500  1.517053  43.3558  9.510427  2.249052
  13369.126  13369.100  0.500  1.515917  43.3133  9.511898  2.251051
  13372.708  13372.680  0.500  1.514928  43.2711  9.512031  2.253432
  13376.315  13376.280  0.500  1.514050  43.2334  9.512096  2.255820
  13379.924  13379.890  0.500  1.513277  43.2014  9.512394  2.257798
  13383.551  13383.520  0.500  1.512440  43.1633  9.511957  2.259845
  13387.219  13387.180  0.500  1.511711  43.1331  9.512241  2.262731
  13390.865  13390.850  0.500  1.510607  43.0922  9.513721  2.264870
  13394.553  13394.540  0.500  1.509393  43.0511  9.516191  2.267026
  13398.282  13398.250  0.500  1.507916  43.0103  9.521231  2.270548
  13402.021  13401.980  0.500  1.506337  42.9783  9.529181  2.273510
  13405.746  13405.720  0.500  1.504792  42.9154  9.529939  2.276713
  13409.505  13409.490  0.500  1.502724  42.9076  9.547925  2.281837
  13413.305  13413.280  0.500  1.501079  42.8733  9.556011  2.286487
  13417.107  13417.080  0.500  1.499056  42.833  9.566364  2.291587
  13420.951  13420.910  0.500  1.497605  42.7961  9.571989  2.295315
  13424.773  13424.750  0.500  1.495566  42.74  9.578969  2.298192
  13428.629  13428.610  0.500  1.493883  42.634  9.571310  2.299281
  13432.535  13432.490  0.500  1.492391  42.653  9.589874  2.306662
  13436.427  13436.390  0.500  1.490845  42.6074  9.594432  2.310472
  13440.353  13440.310  0.500  1.489529  42.5706  9.598766  2.313199
  13444.297  13444.250  0.500  1.487984  42.5249  9.603293  2.315880
  13448.235  13448.210  0.500  1.486761  42.4767  9.604148  2.318444
  13452.216  13452.180  0.500  1.485527  42.4464  9.609147  2.323460
  13456.214  13456.180  0.500  1.484099  42.4066  9.613854  2.326734
  13460.199  13460.190  0.500  1.482705  42.3515  9.614750  2.328387
  13464.266  13464.230  0.500  1.481121  42.3146  9.621610  2.332775
  13468.303  13468.280  0.500  1.479672  42.2693  9.625234  2.336312
  13472.367  13472.350  0.500  1.478083  42.2159  9.628359  2.339227
  13476.465  13476.440  0.500  1.476395  42.1619  9.632290  2.341931
  13480.565  13480.550  0.500  1.474796  41.9821  9.606578  2.338462
  13484.684  13484.680  0.500  1.473014  42.0809  9.646361  2.350176
  13488.877  13488.830  0.500  1.471375  42.0862  9.663399  2.357179
  13493.025  13492.990  0.500  1.469547  41.9906  9.659074  2.358299
  13497.223  13497.180  0.500  1.468096  41.9927  9.673596  2.363724
  13501.424  13501.380  0.500  1.466545  41.953  9.679443  2.368429
  13505.635  13505.610  0.500  1.465288  41.8981  9.678946  2.371662
  13509.905  13509.850  0.500  1.463681  41.8479  9.682895  2.373961
  13514.145  13514.110  0.500  1.462506  41.7947  9.681958  2.375879
  13518.412  13518.390  0.500  1.461136  41.7322  9.680723  2.377615
  13522.746  13522.690  0.500  1.459802  41.6906  9.683979  2.381373
  13527.051  13527.010  0.500  1.458504  41.6307  9.682642  2.383265
  13531.398  13531.350  0.500  1.456920  41.5879  9.688017  2.387408
  13535.781  13535.710  0.500  1.455256  41.4731  9.677355  2.386531
  13540.134  13540.090  0.500  1.454107  41.122  9.606463  2.373259
  13544.530  13544.480  0.500  1.451936  41.5089  9.717918  2.401711
  13548.944  13548.900  0.500  1.450124  41.4501  9.721763  2.405430
  13553.386  13553.330  0.500  1.448640  41.3653  9.716289  2.407652
  13557.871  13557.780  0.500  1.446701  40.7577  9.592142  2.379594
  13562.271  13562.250  0.500  1.444933  41.3149  9.740486  2.418258
  13566.786  13566.740  0.500  1.443220  41.0541  9.695588  2.410493
  13571.304  13571.250  0.500  1.441147  41.1963  9.749366  2.425784
  13575.833  13575.780  0.500  1.439565  40.6378  9.632417  2.399661
  13580.405  13580.330  0.500  1.437728  41.1317  9.767401  2.436410
  13584.997  13584.900  0.500  1.435991  41.0792  9.771896  2.439654
  13589.535  13589.480  0.500  1.434359  40.9987  9.768682  2.441845
  13594.149  13594.090  0.500  1.432793  40.4196  9.645797  2.413796
  13598.791  13598.710  0.500  1.430942  40.9528  9.791142  2.452154
  13603.460  13603.360  0.500  1.429286  40.8783  9.789529  2.454783
  13608.075  13608.020  0.500  1.427863  40.8328  9.792570  2.458797
  13612.759  13612.700  0.500  1.425954  40.7629  9.794462  2.462091
  13617.445  13617.400  0.500  1.424382  40.7455  9.805694  2.467763
  13622.160  13622.120  0.500  1.422526  40.6836  9.808990  2.470822
  13626.893  13626.860  0.500  1.420755  40.6494  9.818101  2.476275
  13631.720  13631.610  0.500  1.418924  40.576  9.818355  2.479207
  13636.444  13636.390  0.500  1.417095  40.5304  9.825273  2.483581
  13641.228  13641.190  0.500  1.415235  40.4983  9.835763  2.489237
  13646.041  13646.000  0.500  1.413490  40.4431  9.839515  2.492784
  13650.889  13650.830  0.500  1.411773  40.3331  9.829606  2.493743
  13655.749  13655.690  0.500  1.409849  40.3526  9.853291  2.502958
  13660.604  13660.560  0.500  1.408115  40.3056  9.858920  2.507935
  13665.487  13665.450  0.500  1.406182  40.2537  9.865265  2.512801
  13670.406  13670.360  0.500  1.404446  40.1911  9.867023  2.515708
  13675.313  13675.290  0.500  1.402533  40.155  9.877065  2.521520
  13680.272  13680.230  0.500  1.400863  40.1021  9.880532  2.525665
  13685.235  13685.200  0.500  1.399029  40.0448  9.884505  2.529687
  13690.226  13690.190  0.500  1.397209  39.9831  9.887260  2.534190
  13695.237  13695.190  0.500  1.395530  39.9528  9.896378  2.539344
  13700.252  13700.220  0.500  1.393671  39.8931  9.899975  2.543848
  13705.287  13705.260  0.500  1.391558  39.843  9.908447  2.548882
  13710.358  13710.320  0.500  1.389959  39.7976  9.913011  2.552787
  13715.450  13715.400  0.500  1.387889  39.7423  9.919729  2.557148
  13720.545  13720.500  0.500  1.385794  39.6978  9.929432  2.563311
  13725.645  13725.620  0.500  1.383792  39.634  9.933324  2.566988
  13730.822  13730.760  0.500  1.382097  39.6021  9.942165  2.572707
  13735.954  13735.920  0.500  1.380205  39.5499  9.947859  2.577915
  13741.139  13741.100  0.500  1.378061  39.4938  9.955082  2.581713
  13746.320  13746.290  0.500  1.376053  39.4411  9.961765  2.586961
  13751.546  13751.510  0.500  1.374147  39.3854  9.966700  2.592120
  13756.768  13756.740  0.500  1.372294  39.3289  9.970851  2.595336
  13762.051  13761.990  0.500  1.370335  39.281  9.978227  2.601740
  13767.290  13767.260  0.500  1.368271  39.2145  9.981913  2.605394
  13772.598  13772.550  0.500  1.366282  39.1699  9.990424  2.610723
  13777.894  13777.860  0.500  1.364330  39.1179  9.996657  2.616625
  13783.244  13783.190  0.500  1.362673  39.0632  9.999242  2.619564
  13788.582  13788.540  0.500  1.360625  39.0115  10.0065  2.625277
  13793.948  13793.910  0.500  1.358640  38.9592  10.0129  2.630037
  13799.336  13799.290  0.500  1.356898  38.9042  10.0162  2.635256
  13804.728  13804.700  0.500  1.354601  38.8283  10.0197  2.638763
  13810.174  13810.120  0.500  1.352866  38.7916  10.0276  2.645301
  13815.616  13815.570  0.500  1.350790  38.7195  10.0297  2.648912
  13821.062  13821.030  0.500  1.348826  38.6787  10.0389  2.654481
  13826.563  13826.510  0.500  1.346648  38.616  10.0444  2.659426
  13832.043  13832.010  0.500  1.344786  38.5699  10.0511  2.664704
  13837.570  13837.530  0.500  1.342820  38.5048  10.0539  2.669213
  13843.109  13843.070  0.500  1.340742  38.4484  10.0601  2.675450
  13848.669  13848.620  0.500  1.338566  38.3835  10.065  2.678611
  13854.243  13854.200  0.500  1.336603  38.2958  10.0617  2.682259
  13859.837  13859.800  0.500  1.334558  38.2534  10.0711  2.689099
  13865.462  13865.410  0.500  1.332403  38.1756  10.0723  2.692112
  13871.091  13871.050  0.500  1.330268  38.0899  10.0712  2.695255
  13876.750  13876.700  0.500  1.328418  38.0056  10.0675  2.698595
  13882.430  13882.370  0.500  1.326491  37.8566  10.0474  2.697408
  13888.090  13888.060  0.500  1.324173  37.6979  10.0285  2.695781