File: xdidata/Pb/Pb-L3-Galena.xdi
# XDI/1.0 BlueSky/1.10.0 BMM/2023-1.0-py310-tiled
# Beamline.name: BMM (06BM) -- Beamline for Materials Measurement (NIST)
# Beamline.xray_source: NSLS-II three-pole wiggler
# Beamline.collimation: paraboloid mirror, 5 nm Rh on 30 nm Pt
# Beamline.focusing: not in use
# Beamline.harmonic_rejection: flat mirror, Pt stripe, pitch = 7.0 mrad relative to beam
# Beamline.software: Bluesky 1.10.0, Ophyd 1.7.0, DataBroker 2.0.0b13, Python 3.10.8, 2023-1.0-py310-tiled
# Detector.I0: 10 cm N2
# Detector.I1: 25 cm N2
# Detector.I2: 25 cm N2
# Element.symbol: Pb
# Element.edge: L3
# Element.reference: Pb
# Element.reference_material: Pb foil
# Facility.name: NSLS-II
# Facility.energy: 3.0
# Facility.current: 399.7
# Facility.mode: top-off
# Facility.GUP: 301027
# Facility.SAF: 310583
# Facility.cycle: 2023-2
# Mono.name: Si(111)
# Mono.d_spacing: 3.13519
# Mono.encoder_resolution: 0.0000050 deg/ct
# Mono.angle_offset: 16.0754 deg
# Mono.scan_mode: pseudo channel cut
# Mono.scan_type: step
# Mono.direction: forward in energy
# Sample.name: PbS2
# Sample.prep: powder on tape
# Sample.x: 143.785 mm
# Sample.y: 114.695 mm
# Sample.SDD_position: 205.000 mm
# Scan.experimenters: Bruce Ravel
# Scan.edge_energy: 13035.2
# Scan.start_time: 2023-06-23T16:58:38
# Scan.end_time: 2023-06-23T17:06:47
# Scan.transient_id: 84882
# Scan.uid: ecd66214-cfd8-45c3-a5f1-cdd362b073cc
# Scan.plot_hint: ln(I0/It)  --  ln($5/$6)
# Column.1: energy eV
# Column.2: requested_energy eV
# Column.3: measurement_time seconds
# Column.4: xmu
# Column.5: I0 nA
# Column.6: It nA
# Column.7: Ir nA
# ///////////
# BMM standards collection
# -----------
# energy  requested_energy  measurement_time  xmu  I0  It  Ir
  12835.197  12835.200  0.500  0.115462  50.0247  44.5697  19.9252
  12845.212  12845.200  0.500  0.113705  49.9126  44.5481  19.9491
  12855.229  12855.200  0.500  0.112058  49.7865  44.5088  19.9672
  12865.240  12865.200  0.500  0.110302  49.6836  44.4948  19.9905
  12875.244  12875.200  0.500  0.108644  49.5078  44.411  19.9879
  12885.279  12885.200  0.500  0.106964  49.4436  44.428  20.0321
  12895.287  12895.200  0.500  0.105342  49.3211  44.3898  20.0448
  12905.252  12905.200  0.500  0.103659  49.196  44.3518  20.0579
  12915.269  12915.200  0.500  0.102030  48.5765  43.8647  19.8694
  12925.265  12925.200  0.500  0.100440  48.9422  44.2653  20.0867
  12935.285  12935.200  0.500  0.098932  48.85  44.2485  20.1036
  12945.174  12945.200  0.500  0.097396  48.6942  44.1752  20.0969
  12955.195  12955.200  0.500  0.096030  48.3639  43.9355  20.0149
  12965.210  12965.200  0.500  0.094815  48.5039  44.1163  20.1189
  12975.226  12975.200  0.500  0.093671  48.352  44.0285  20.094
  12985.199  12985.200  0.500  0.092851  48.2737  43.9933  20.0874
  12995.217  12995.200  0.500  0.092480  48.1473  43.8943  20.0382
  13005.221  13005.200  0.500  0.093064  48.0446  43.7752  19.9494
  13007.161  13007.200  0.500  0.093316  48.0208  43.7425  19.9225
  13009.147  13009.200  0.500  0.093570  47.9966  43.7092  19.89
  13011.148  13011.200  0.500  0.094029  47.9691  43.6642  19.8517
  13013.149  13013.200  0.500  0.094678  47.9501  43.6186  19.8085
  13015.159  13015.200  0.500  0.095568  47.9215  43.5538  19.7522
  13017.162  13017.200  0.500  0.096397  47.8997  43.4979  19.6899
  13019.158  13019.200  0.500  0.097678  47.8759  43.4206  19.6095
  13021.147  13021.200  0.500  0.099212  47.8529  43.3332  19.5204
  13023.166  13023.200  0.500  0.101151  47.8315  43.2299  19.398
  13025.164  13025.200  0.500  0.103806  47.8051  43.0915  19.2451
  13025.431  13025.500  0.500  0.104282  47.8004  43.0668  19.2182
  13025.764  13025.800  0.500  0.104718  47.7928  43.0412  19.1858
  13026.038  13026.100  0.500  0.105289  47.793  43.0168  19.1579
  13026.341  13026.400  0.500  0.105809  47.7905  42.9922  19.1288
  13026.645  13026.700  0.500  0.106261  47.7805  42.9638  19.0942
  13026.933  13027.000  0.500  0.106964  47.7826  42.9355  19.0626
  13027.252  13027.300  0.500  0.107527  47.774  42.9036  19.0234
  13027.563  13027.600  0.500  0.108156  47.7638  42.8674  18.9849
  13027.844  13027.900  0.500  0.108766  47.7598  42.8377  18.9498
  13028.155  13028.200  0.500  0.109549  47.7621  42.8062  18.9085
  13028.444  13028.500  0.500  0.110242  47.7578  42.7727  18.8653
  13028.755  13028.800  0.500  0.111016  47.7565  42.7385  18.8204
  13029.066  13029.100  0.500  0.111883  47.7503  42.6959  18.7725
  13029.355  13029.400  0.500  0.112772  47.7489  42.6567  18.7199
  13029.636  13029.700  0.500  0.113746  47.7441  42.6109  18.6653
  13029.954  13030.000  0.500  0.114629  47.7393  42.569  18.6082
  13030.236  13030.300  0.500  0.115613  47.735  42.5233  18.5461
  13030.569  13030.600  0.500  0.116969  47.728  42.4594  18.474
  13030.865  13030.900  0.500  0.118160  47.7253  42.4065  18.4023
  13031.154  13031.200  0.500  0.119411  47.7221  42.3506  18.3258
  13031.473  13031.500  0.500  0.120802  47.7154  42.2859  18.2407
  13031.747  13031.800  0.500  0.122148  47.7122  42.2262  18.1565
  13032.080  13032.100  0.500  0.123760  47.7073  42.1537  18.0579
  13032.392  13032.400  0.500  0.125642  47.7045  42.0721  17.9463
  13032.673  13032.700  0.500  0.127360  47.8819  42.156  17.9075
  13032.992  13033.000  0.500  0.129461  47.8844  42.0698  17.7878
  13033.273  13033.300  0.500  0.131496  47.8798  41.9802  17.6617
  13033.592  13033.600  0.500  0.133915  47.8713  41.8714  17.513
  13033.896  13033.900  0.500  0.136508  47.8705  41.7622  17.3605
  13034.177  13034.200  0.500  0.139114  47.8653  41.649  17.2069
  13034.481  13034.500  0.500  0.142010  47.8634  41.5269  17.0403
  13034.785  13034.800  0.500  0.145154  47.8581  41.3919  16.863
  13035.119  13035.100  0.500  0.148695  47.8561  41.2439  16.6698
  13035.400  13035.400  0.500  0.152046  47.851  41.1016  16.4836
  13035.689  13035.700  0.500  0.155862  47.8462  40.941  16.2891
  13035.986  13036.000  0.500  0.160165  47.845  40.7641  16.0816
  13036.282  13036.300  0.500  0.164522  47.8387  40.5815  15.8731
  13036.594  13036.600  0.500  0.169506  47.8366  40.378  15.6455
  13036.876  13036.900  0.500  0.174440  47.8319  40.1753  15.4308
  13037.187  13037.200  0.500  0.180405  47.8269  39.9322  15.1922
  13037.461  13037.500  0.500  0.186154  47.8221  39.6993  14.9686
  13037.795  13037.800  0.500  0.193269  47.8185  39.4149  14.7076
  13038.062  13038.100  0.500  0.199578  47.814  39.1633  14.4798
  13038.388  13038.400  0.500  0.207424  47.8092  38.8533  14.2159
  13038.678  13038.700  0.500  0.214709  47.8025  38.5659  13.9758
  13038.996  13039.000  0.500  0.223316  47.8002  38.2335  13.6971
  13039.278  13039.300  0.500  0.230900  47.7981  37.943  13.4584
  13039.612  13039.600  0.500  0.240300  47.7947  37.5854  13.1718
  13039.901  13039.900  0.500  0.248851  47.7926  37.2637  12.9148
  13040.205  13040.200  0.500  0.258170  47.7846  36.9119  12.631
  13040.495  13040.500  0.500  0.266707  47.7752  36.5909  12.3696
  13040.814  13040.800  0.500  0.276292  47.7749  36.2416  12.0824
  13041.096  13041.100  0.500  0.285266  47.7783  35.9204  11.8191
  13041.415  13041.400  0.500  0.295065  47.7717  35.5652  11.5284
  13041.697  13041.700  0.500  0.304115  47.7633  35.2386  11.2658
  13042.016  13042.000  0.500  0.313945  47.7576  34.8897  10.9807
  13042.298  13042.300  0.500  0.323333  47.7626  34.5673  10.7217
  13042.602  13042.600  0.500  0.333589  47.7547  34.209  10.4419
  13042.891  13042.900  0.500  0.342746  47.7482  33.8926  10.195
  13043.181  13043.200  0.500  0.352660  47.7452  33.5561  9.942514
  13043.470  13043.500  0.500  0.362286  47.7418  33.2323  9.704618
  13043.789  13043.800  0.500  0.372776  47.7414  32.8852  9.453171
  13044.071  13044.100  0.500  0.382101  47.7346  32.5753  9.238060
  13044.391  13044.400  0.500  0.392515  47.7283  32.2336  9.008324
  13044.688  13044.700  0.500  0.401976  47.7291  31.9306  8.807526
  13044.992  13045.000  0.500  0.411933  47.7271  31.6129  8.601366
  13045.289  13045.300  0.500  0.420880  47.7207  31.3272  8.418634
  13045.601  13045.600  0.500  0.430130  47.7141  31.0344  8.238511
  13045.883  13045.900  0.500  0.438654  47.7094  30.768  8.076517
  13046.202  13046.200  0.500  0.447329  47.704  30.4988  7.914300
  13046.514  13046.500  0.500  0.455188  47.7016  30.2585  7.770050
  13046.804  13046.800  0.500  0.462243  47.6963  30.0424  7.640585
  13047.115  13047.100  0.500  0.469365  47.6833  29.8211  7.512601
  13047.420  13047.400  0.500  0.475731  47.6719  29.6248  7.401062
  13047.710  13047.700  0.500  0.481680  47.6493  29.4351  7.298290
  13048.007  13048.000  0.500  0.487362  47.6393  29.2622  7.205836
  13048.311  13048.300  0.500  0.492637  47.6209  29.097  7.121396
  13048.608  13048.600  0.500  0.497516  47.6017  28.9437  7.048526
  13048.898  13048.900  0.500  0.501971  47.5925  28.8095  6.985751
  13049.202  13049.200  0.500  0.506218  47.5855  28.6832  6.931316
  13049.492  13049.500  0.500  0.510169  47.5802  28.5668  6.884313
  13049.797  13049.800  0.500  0.514189  47.5851  28.4552  6.843218
  13050.086  13050.100  0.500  0.517776  47.5932  28.3581  6.809042
  13050.384  13050.400  0.500  0.521366  47.6033  28.2625  6.780082
  13050.666  13050.700  0.500  0.524719  47.6132  28.1738  6.754945
  13051.000  13051.000  0.500  0.528003  47.6199  28.0854  6.731675
  13051.283  13051.300  0.500  0.531266  47.6247  27.9966  6.712967
  13051.595  13051.600  0.500  0.534517  47.6242  27.9055  6.693970
  13051.892  13051.900  0.500  0.537434  47.6229  27.8234  6.676527
  13052.204  13052.200  0.500  0.540617  47.6156  27.7308  6.659200
  13052.487  13052.500  0.500  0.543517  47.613  27.649  6.643473
  13052.814  13052.800  0.500  0.546929  47.6144  27.5556  6.624540
  13053.096  13053.100  0.500  0.549855  47.6046  27.4695  6.608867
  13053.416  13053.400  0.500  0.553230  47.6033  27.3761  6.588985
  13053.698  13053.700  0.500  0.556328  47.5975  27.2882  6.569269
  13054.010  13054.000  0.500  0.559713  47.5953  27.1947  6.546645
  13054.300  13054.300  0.500  0.562999  47.5889  27.1018  6.522223
  13054.620  13054.600  0.500  0.566688  47.5907  27.003  6.497552
  13054.895  13054.900  0.500  0.569778  47.5892  26.9189  6.473486
  13055.215  13055.200  0.500  0.573008  47.5795  26.8266  6.447529
  13055.490  13055.500  0.500  0.575906  47.5757  26.7468  6.422478
  13055.810  13055.800  0.500  0.579031  47.5731  26.6619  6.393889
  13056.115  13056.100  0.500  0.581345  47.5681  26.5975  6.369129
  13056.390  13056.400  0.500  0.583432  47.5612  26.5382  6.343895
  13056.687  13056.700  0.500  0.585373  47.5615  26.4869  6.318248
  13056.970  13057.000  0.500  0.586631  47.5549  26.45  6.296550
  13057.297  13057.300  0.500  0.587834  47.5541  26.4177  6.271270
  13057.580  13057.600  0.500  0.588376  47.5484  26.4002  6.250145
  13057.885  13057.900  0.500  0.588571  47.5403  26.3906  6.226715
  13058.175  13058.200  0.500  0.588401  47.5373  26.3934  6.206843
  13058.495  13058.500  0.500  0.587717  47.5316  26.4083  6.184575
  13058.792  13058.800  0.500  0.586765  47.5293  26.4322  6.166018
  13059.090  13059.100  0.500  0.585523  47.5261  26.4632  6.147632
  13059.395  13059.400  0.500  0.583800  47.5194  26.5051  6.129395
  13059.685  13059.700  0.500  0.582115  47.5174  26.5487  6.112379
  13060.020  13060.000  0.500  0.579754  47.5106  26.6076  6.093965
  13060.198  13060.200  0.500  0.578342  47.5072  26.6433  6.083269
  13061.218  13061.190  0.500  0.571059  47.4975  26.8326  6.039003
  13062.223  13062.190  0.500  0.564399  47.48  27.002  6.012604
  13063.235  13063.210  0.500  0.559470  47.4688  27.129  6.001486
  13064.255  13064.260  0.500  0.556750  47.4647  27.2005  6.009333
  13065.335  13065.320  0.500  0.555818  47.4521  27.2186  6.024465
  13066.422  13066.400  0.500  0.556681  47.4377  27.187  6.044310
  13067.517  13067.500  0.500  0.558464  47.4218  27.1294  6.063413
  13068.635  13068.620  0.500  0.560802  47.4093  27.0589  6.082138
  13069.782  13069.760  0.500  0.562692  47.3871  26.9952  6.096876
  13070.923  13070.910  0.500  0.563943  47.3517  26.9413  6.101083
  13072.100  13072.090  0.500  0.564090  47.2911  26.9028  6.097176
  13073.278  13073.280  0.500  0.563575  47.2963  26.9197  6.098517
  13074.516  13074.500  0.500  0.562368  47.3267  26.9695  6.106174
  13075.762  13075.730  0.500  0.560859  47.3122  27.002  6.110721
  13077.008  13076.980  0.500  0.560331  47.297  27.0075  6.112191
  13078.298  13078.250  0.500  0.560721  47.2792  26.9869  6.106222
  13079.530  13079.540  0.500  0.562108  47.269  26.9436  6.088585
  13080.843  13080.850  0.500  0.564505  47.2587  26.8732  6.058226
  13082.187  13082.180  0.500  0.567213  47.2421  26.7912  6.018112
  13083.546  13083.530  0.500  0.570054  47.2238  26.7048  5.969376
  13084.913  13084.900  0.500  0.573218  47.2142  26.615  5.918547
  13086.273  13086.280  0.500  0.576360  47.1953  26.5209  5.871074
  13087.677  13087.690  0.500  0.579453  47.1734  26.4268  5.831886
  13089.112  13089.110  0.500  0.582560  47.1579  26.3361  5.801908
  13090.570  13090.550  0.500  0.586039  47.1429  26.2363  5.785095
  13092.043  13092.010  0.500  0.589651  47.1029  26.1195  5.772049
  13093.494  13093.490  0.500  0.592807  47.0361  26.0003  5.765946
  13095.012  13094.990  0.500  0.594449  47.0544  25.9678  5.778338
  13096.531  13096.510  0.500  0.593242  47.0699  26.0077  5.804423
  13098.073  13098.050  0.500  0.589397  47.0524  26.0981  5.841246
  13099.638  13099.610  0.500  0.583080  47.0332  26.2529  5.889855
  13101.210  13101.180  0.500  0.575738  47.0108  26.4337  5.942568
  13102.768  13102.780  0.500  0.568677  46.978  26.6024  5.990138
  13104.393  13104.390  0.500  0.562300  46.9628  26.764  6.036273
  13106.034  13106.030  0.500  0.557033  46.895  26.8664  6.064226
  13107.691  13107.680  0.500  0.554184  46.922  26.9586  6.084996
  13109.355  13109.350  0.500  0.553331  46.9221  26.9817  6.085958
  13111.035  13111.040  0.500  0.554365  46.903  26.9428  6.067785
  13112.767  13112.750  0.500  0.556593  46.8846  26.8723  6.041320
  13114.493  13114.480  0.500  0.559492  46.8552  26.7777  6.007577
  13116.212  13116.230  0.500  0.562433  46.814  26.6756  5.971985
  13117.983  13117.990  0.500  0.565092  46.7417  26.5637  5.939468
  13119.763  13119.780  0.500  0.566676  46.7808  26.5438  5.931610
  13121.611  13121.580  0.500  0.567425  46.7687  26.5171  5.925260
  13123.414  13123.410  0.500  0.567612  46.7483  26.5006  5.928550
  13125.248  13125.250  0.500  0.567402  46.7193  26.4897  5.935715
  13127.089  13127.110  0.500  0.567137  46.6981  26.4847  5.946282
  13128.969  13128.990  0.500  0.567096  46.6879  26.48  5.958463
  13130.857  13130.890  0.500  0.567045  46.658  26.4643  5.965206
  13132.776  13132.810  0.500  0.567439  46.6081  26.4257  5.964509
  13134.702  13134.750  0.500  0.568277  46.6106  26.405  5.965601
  13136.795  13136.710  0.500  0.569140  46.5819  26.3659  5.960902
  13138.625  13138.680  0.500  0.569546  46.5624  26.3442  5.957774
  13141.277  13140.680  0.500  0.569489  46.5273  26.3258  5.958347
  13142.769  13142.690  0.500  0.568602  46.5017  26.3347  5.961443
  13144.684  13144.720  0.500  0.567207  46.4825  26.3605  5.968510
  13146.840  13146.780  0.500  0.565306  46.454  26.3945  5.979485
  13148.862  13148.850  0.500  0.563528  46.4262  26.4257  5.987102
  13150.921  13150.940  0.500  0.561799  46.3979  26.4553  5.995437
  13153.050  13153.050  0.500  0.560129  46.3654  26.481  6.002664
  13155.164  13155.180  0.500  0.558574  46.3541  26.5157  6.011735
  13157.316  13157.320  0.500  0.557054  46.3312  26.5429  6.018154
  13159.484  13159.490  0.500  0.555667  46.3086  26.5667  6.026395
  13161.661  13161.680  0.500  0.554283  46.2783  26.5862  6.033014
  13163.861  13163.880  0.500  0.553455  46.2542  26.5943  6.038489
  13166.084  13166.100  0.500  0.553046  46.3093  26.6369  6.051912
  13168.353  13168.350  0.500  0.553141  46.3394  26.6516  6.058967
  13170.609  13170.610  0.500  0.553644  46.3409  26.6392  6.059517
  13172.895  13172.890  0.500  0.554368  46.3296  26.6134  6.057894
  13175.167  13175.190  0.500  0.554755  46.3025  26.5875  6.053832
  13177.492  13177.510  0.500  0.555113  46.2705  26.5596  6.051337
  13179.827  13179.850  0.500  0.555124  46.2492  26.5471  6.051961
  13182.192  13182.200  0.500  0.555092  46.2178  26.5299  6.049887
  13184.566  13184.580  0.500  0.555111  46.1922  26.5147  6.050157
  13186.970  13186.970  0.500  0.555133  46.1672  26.4998  6.050225
  13189.384  13189.390  0.500  0.555045  46.1372  26.4849  6.050460
  13191.813  13191.820  0.500  0.554720  46.1091  26.4774  6.051484
  13194.251  13194.270  0.500  0.554340  46.0718  26.466  6.055471
  13196.736  13196.750  0.500  0.553868  46.0455  26.4634  6.059679
  13199.229  13199.240  0.500  0.553225  46.0153  26.463  6.066349
  13201.761  13201.750  0.500  0.552580  45.9826  26.4613  6.069890
  13204.279  13204.270  0.500  0.551682  45.95  26.4663  6.074864
  13206.813  13206.820  0.500  0.550696  45.9232  26.477  6.081872
  13209.386  13209.390  0.500  0.549821  45.8872  26.4794  6.086312
  13211.990  13211.970  0.500  0.548526  45.8597  26.4978  6.093358
  13214.611  13214.580  0.500  0.547473  45.8234  26.5047  6.099144
  13217.203  13217.200  0.500  0.546296  45.7948  26.5193  6.104102
  13219.841  13219.850  0.500  0.545528  45.759  26.5189  6.106557
  13222.495  13222.510  0.500  0.544759  45.7188  26.5161  6.108240
  13225.166  13225.190  0.500  0.544180  45.6746  26.5058  6.106493
  13227.876  13227.890  0.500  0.543601  45.6415  26.5019  6.106700
  13230.610  13230.610  0.500  0.543369  45.6222  26.4969  6.107750
  13233.353  13233.350  0.500  0.543151  45.5939  26.4862  6.108274
  13236.082  13236.100  0.500  0.542847  45.556  26.4722  6.105505
  13238.866  13238.880  0.500  0.543057  45.5241  26.4481  6.105286
  13241.673  13241.670  0.500  0.542810  45.4825  26.4305  6.102322
  13244.513  13244.490  0.500  0.542912  45.448  26.4078  6.101031
  13247.338  13247.320  0.500  0.542986  45.412  26.3849  6.099892
  13250.172  13250.170  0.500  0.542978  45.3737  26.3628  6.100423
  13253.023  13253.050  0.500  0.542586  45.3257  26.3453  6.099644
  13255.921  13255.940  0.500  0.542353  45.2847  26.3275  6.100716
  13258.851  13258.850  0.500  0.541817  45.2387  26.3149  6.101266
  13261.782  13261.770  0.500  0.541154  45.1837  26.3004  6.101888
  13264.707  13264.720  0.500  0.540324  45.1186  26.2843  6.101289
  13267.672  13267.690  0.500  0.539585  45.0315  26.2529  6.097791
  13270.669  13270.670  0.500  0.538579  44.8783  26.19  6.085671
  13273.682  13273.680  0.500  0.537814  44.5709  26.0305  6.052819
  13276.689  13276.700  0.500  0.537188  44.4258  25.9619  6.039633
  13279.744  13279.750  0.500  0.536584  44.4536  25.9939  6.049566
  13282.823  13282.810  0.500  0.536076  44.4111  25.9822  6.050291
  13285.904  13285.890  0.500  0.535730  44.3221  25.9392  6.043332
  13288.979  13288.990  0.500  0.535309  44.2327  25.8977  6.036316
  13292.101  13292.110  0.500  0.534867  44.2094  25.8956  6.040635
  13295.278  13295.250  0.500  0.534141  44.2226  25.9221  6.048922
  13298.419  13298.400  0.500  0.533455  44.165  25.906  6.048952
  13301.569  13301.580  0.500  0.532713  44.1047  25.8899  6.050658
  13304.759  13304.770  0.500  0.531901  44.0685  25.8897  6.054492
  13307.997  13307.990  0.500  0.531083  44.0684  25.9108  6.064346
  13311.236  13311.220  0.500  0.530317  44.0509  25.9204  6.071763
  13314.477  13314.470  0.500  0.529612  44.0218  25.9215  6.076656
  13317.774  13317.750  0.500  0.528994  43.9947  25.9216  6.083921
  13321.072  13321.040  0.500  0.528604  43.9481  25.9042  6.084728
  13324.365  13324.350  0.500  0.528055  43.8875  25.8827  6.084249
  13327.659  13327.670  0.500  0.527602  43.8342  25.863  6.083638
  13331.024  13331.020  0.500  0.527096  43.7833  25.846  6.084415
  13334.399  13334.390  0.500  0.526538  43.7936  25.8666  6.094430
  13337.784  13337.770  0.500  0.525865  43.7633  25.866  6.097988
  13341.170  13341.180  0.500  0.525339  43.7382  25.8648  6.102639
  13344.612  13344.600  0.500  0.524573  43.7112  25.8686  6.109511
  13348.072  13348.050  0.500  0.523907  43.6867  25.8714  6.114119
  13351.510  13351.510  0.500  0.523238  43.6614  25.8737  6.119462
  13354.989  13354.990  0.500  0.522340  43.6341  25.8807  6.125313
  13358.517  13358.490  0.500  0.521758  43.5728  25.8594  6.125659
  13362.038  13362.010  0.500  0.520720  43.5423  25.8682  6.133004
  13365.546  13365.550  0.500  0.519982  43.509  25.8675  6.138254
  13369.126  13369.100  0.500  0.519145  43.4576  25.8585  6.142826
  13372.700  13372.680  0.500  0.518414  43.4096  25.8489  6.145850
  13376.292  13376.280  0.500  0.517552  43.3812  25.8543  6.151683
  13379.893  13379.890  0.500  0.516840  43.3325  25.8436  6.155093
  13383.543  13383.520  0.500  0.516046  43.2993  25.8443  6.160989
  13387.211  13387.180  0.500  0.515211  43.2674  25.8469  6.166574
  13390.857  13390.850  0.500  0.514546  43.2223  25.8371  6.170548
  13394.553  13394.540  0.500  0.513746  43.1843  25.835  6.174211
  13398.266  13398.250  0.500  0.513035  43.1454  25.8301  6.180362
  13401.989  13401.980  0.500  0.512277  43.1102  25.8286  6.186105
  13405.722  13405.720  0.500  0.511527  43.0648  25.8207  6.189053
  13409.505  13409.490  0.500  0.510840  43.0511  25.8303  6.196960
  13413.297  13413.280  0.500  0.510097  43.0034  25.8208  6.201103
  13417.091  13417.080  0.500  0.509387  42.9774  25.8236  6.208461
  13420.959  13420.910  0.500  0.508406  42.9301  25.8204  6.211957
  13424.781  13424.750  0.500  0.507594  42.8759  25.8088  6.214944
  13428.606  13428.610  0.500  0.506812  42.7758  25.7687  6.211649
  13432.527  13432.490  0.500  0.505945  42.7942  25.8021  6.224251
  13436.403  13436.390  0.500  0.505240  42.7434  25.7897  6.228513
  13440.313  13440.310  0.500  0.504384  42.7018  25.7866  6.233748
  13444.265  13444.250  0.500  0.503439  42.6521  25.781  6.237580
  13448.251  13448.210  0.500  0.502759  42.6153  25.7762  6.243934
  13452.176  13452.180  0.500  0.501905  42.5657  25.7683  6.248771
  13456.198  13456.180  0.500  0.500986  42.5279  25.769  6.255227
  13460.207  13460.190  0.500  0.500194  42.4862  25.7642  6.259669
  13464.250  13464.230  0.500  0.499482  42.4424  25.756  6.265758
  13468.296  13468.280  0.500  0.498563  42.396  25.7515  6.269569
  13472.375  13472.350  0.500  0.497530  42.3419  25.7452  6.274920
  13476.441  13476.440  0.500  0.496707  42.3011  25.7415  6.281981
  13480.581  13480.550  0.500  0.495806  42.1449  25.6696  6.269032
  13484.708  13484.680  0.500  0.494998  42.2089  25.7294  6.290597
  13488.837  13488.830  0.500  0.494146  42.2127  25.7536  6.303134
  13493.009  13492.990  0.500  0.493252  42.1182  25.7189  6.300547
  13497.215  13497.180  0.500  0.492479  42.1182  25.7389  6.311417
  13501.384  13501.380  0.500  0.491602  42.0719  25.7331  6.315766
  13505.643  13505.610  0.500  0.490788  42.0258  25.7258  6.321128
  13509.881  13509.850  0.500  0.489840  41.9724  25.7175  6.325188
  13514.129  13514.110  0.500  0.489061  41.9267  25.7095  6.329266
  13518.420  13518.390  0.500  0.488337  41.8809  25.7001  6.334462
  13522.714  13522.690  0.500  0.487409  41.8204  25.6867  6.336578
  13527.019  13527.010  0.500  0.486452  41.7487  25.6672  6.337753
  13531.382  13531.350  0.500  0.485681  41.7127  25.6649  6.344267
  13535.709  13535.710  0.500  0.484723  41.6115  25.6272  6.340157
  13540.126  13540.090  0.500  0.484045  41.166  25.37  6.286373
  13544.498  13544.480  0.500  0.483041  41.63  25.6817  6.369107
  13548.904  13548.900  0.500  0.482020  41.5774  25.6755  6.373193
  13553.346  13553.330  0.500  0.481267  41.5104  25.6534  6.375468
  13557.807  13557.780  0.500  0.480350  40.8396  25.262  6.285812
  13562.279  13562.250  0.500  0.479324  41.4405  25.66  6.390612
  13566.770  13566.740  0.500  0.478477  41.166  25.5116  6.361977
  13571.256  13571.250  0.500  0.477504  41.3226  25.6336  6.399173
  13575.801  13575.780  0.500  0.476669  40.6965  25.2663  6.315822
  13580.341  13580.330  0.500  0.475587  41.256  25.6414  6.415718
  13584.941  13584.900  0.500  0.474818  41.2001  25.6264  6.418388
  13589.503  13589.480  0.500  0.473850  41.1266  25.6055  6.419469
  13594.117  13594.090  0.500  0.472812  40.6086  25.3092  6.351065
  13598.742  13598.710  0.500  0.471893  41.0826  25.6282  6.438889
  13603.379  13603.360  0.500  0.470997  41.0114  25.6067  6.442223
  13608.067  13608.020  0.500  0.469883  40.9653  25.6064  6.450266
  13612.726  13612.700  0.500  0.469058  40.8999  25.5867  6.452321
  13617.413  13617.400  0.500  0.467958  40.8604  25.5901  6.459997
  13622.135  13622.120  0.500  0.467157  40.8058  25.5763  6.465162
  13626.902  13626.860  0.500  0.466105  40.785  25.5902  6.475575
  13631.655  13631.610  0.500  0.465187  40.7083  25.5656  6.475552
  13636.420  13636.390  0.500  0.464196  40.6803  25.5733  6.484728
  13641.212  13641.190  0.500  0.463243  40.6254  25.5631  6.490565
  13646.041  13646.000  0.500  0.462165  40.5676  25.5543  6.495498
  13650.840  13650.830  0.500  0.461192  40.4722  25.519  6.495809
  13655.741  13655.690  0.500  0.460164  40.4844  25.553  6.512861
  13660.580  13660.560  0.500  0.459316  40.4338  25.5427  6.517664
  13665.463  13665.450  0.500  0.458255  40.38  25.5358  6.523261
  13670.423  13670.360  0.500  0.457205  40.3249  25.5277  6.529799
  13675.313  13675.290  0.500  0.456241  40.2724  25.5191  6.536482
  13680.280  13680.230  0.500  0.455117  40.2256  25.5181  6.542693
  13685.227  13685.200  0.500  0.454277  40.1703  25.5044  6.547296
  13690.242  13690.190  0.500  0.453127  40.1144  25.4982  6.553899
  13695.237  13695.190  0.500  0.452348  40.0696  25.4896  6.560469
  13700.244  13700.220  0.500  0.451155  40.0057  25.4793  6.565344
  13705.311  13705.260  0.500  0.450116  39.9427  25.4656  6.570149
  13710.342  13710.320  0.500  0.449135  39.9004  25.4636  6.578239
  13715.433  13715.400  0.500  0.448028  39.8567  25.464  6.585951
  13720.537  13720.500  0.500  0.447113  39.8124  25.4589  6.592285
  13725.628  13725.620  0.500  0.446050  39.7649  25.4556  6.596630
  13730.822  13730.760  0.500  0.445107  39.7077  25.4429  6.603937
  13735.962  13735.920  0.500  0.443788  39.6508  25.44  6.610202
  13741.139  13741.100  0.500  0.442984  39.5887  25.4206  6.614749
  13746.353  13746.290  0.500  0.441893  39.5454  25.4205  6.622324
  13751.546  13751.510  0.500  0.440829  39.4772  25.4037  6.625953
  13756.809  13756.740  0.500  0.439798  39.4232  25.3951  6.631273
  13762.027  13761.990  0.500  0.438755  39.3733  25.3895  6.640034
  13767.339  13767.260  0.500  0.437755  39.3178  25.379  6.645261
  13772.515  13772.550  0.500  0.436663  39.2503  25.3631  6.649587
  13777.828  13777.860  0.500  0.435503  39.1969  25.358  6.656707
  13783.161  13783.190  0.500  0.434480  39.1497  25.3534  6.664065
  13788.549  13788.540  0.500  0.433291  39.0866  25.3427  6.670535
  13793.915  13793.910  0.500  0.432119  39.0332  25.3377  6.676129
  13799.261  13799.290  0.500  0.431191  38.9779  25.3253  6.682628
  13804.711  13804.700  0.500  0.430114  38.9188  25.3141  6.689136
  13810.099  13810.120  0.500  0.429189  38.866  25.3032  6.696482
  13815.582  13815.570  0.500  0.428133  38.7808  25.2744  6.696217
  13821.037  13821.030  0.500  0.426853  38.7438  25.2826  6.706698
  13826.546  13826.510  0.500  0.425827  38.6852  25.2703  6.711827
  13832.051  13832.010  0.500  0.424659  38.6275  25.2621  6.718279
  13837.561  13837.530  0.500  0.423625  38.5756  25.2543  6.724930
  13843.117  13843.070  0.500  0.422476  38.608  25.3046  6.748044
  13848.661  13848.620  0.500  0.421546  38.5698  25.303  6.757232
  13854.268  13854.200  0.500  0.420289  38.4881  25.2811  6.759609
  13859.837  13859.800  0.500  0.419156  38.4467  25.2826  6.769309
  13865.453  13865.410  0.500  0.418118  38.3734  25.2606  6.772553
  13871.091  13871.050  0.500  0.417064  38.2975  25.2372  6.776213
  13876.733  13876.700  0.500  0.415776  38.1905  25.1991  6.773690
  13882.405  13882.370  0.500  0.414681  38.0471  25.1321  6.765932
  13888.115  13888.060  0.500  0.413689  37.8961  25.0571  6.755343