File: xdidata/Pb/Pb-L3-LeadDioxide.xdi
# XDI/1.0 BlueSky/1.10.0 BMM/2023-1.0-py310-tiled
# Beamline.name: BMM (06BM) -- Beamline for Materials Measurement (NIST)
# Beamline.xray_source: NSLS-II three-pole wiggler
# Beamline.collimation: paraboloid mirror, 5 nm Rh on 30 nm Pt
# Beamline.focusing: not in use
# Beamline.harmonic_rejection: flat mirror, Pt stripe, pitch = 7.0 mrad relative to beam
# Beamline.software: Bluesky 1.10.0, Ophyd 1.7.0, DataBroker 2.0.0b13, Python 3.10.8, 2023-1.0-py310-tiled
# Detector.I0: 10 cm N2
# Detector.I1: 25 cm N2
# Detector.I2: 25 cm N2
# Element.symbol: Pb
# Element.edge: L3
# Element.reference: Pb
# Element.reference_material: Pb foil
# Facility.name: NSLS-II
# Facility.energy: 3.0
# Facility.current: 400.7
# Facility.mode: top-off
# Facility.GUP: 301027
# Facility.SAF: 310583
# Facility.cycle: 2023-2
# Mono.name: Si(111)
# Mono.d_spacing: 3.13519
# Mono.encoder_resolution: 0.0000050 deg/ct
# Mono.angle_offset: 16.0754 deg
# Mono.scan_mode: pseudo channel cut
# Mono.scan_type: step
# Mono.direction: forward in energy
# Sample.name: PbO2
# Sample.prep: powder in PEG pellet
# Sample.x: 143.785 mm
# Sample.y: 114.695 mm
# Sample.SDD_position: 205.000 mm
# Scan.experimenters: Bruce Ravel
# Scan.edge_energy: 13035.2
# Scan.start_time: 2023-06-23T16:50:03
# Scan.end_time: 2023-06-23T16:58:06
# Scan.transient_id: 84877
# Scan.uid: 863f7c54-7f7a-4c38-b9fa-66488bd74ece
# Scan.plot_hint: ln(I0/It)  --  ln($5/$6)
# Column.1: energy eV
# Column.2: requested_energy eV
# Column.3: measurement_time seconds
# Column.4: xmu
# Column.5: I0 nA
# Column.6: It nA
# Column.7: Ir nA
# ///////////
# BMM standards collection
# -----------
# energy  requested_energy  measurement_time  xmu  I0  It  Ir
  12835.075  12835.200  0.500  0.242681  50.1484  39.3425  17.5718
  12845.198  12845.200  0.500  0.240839  50.0388  39.3289  17.5989
  12855.200  12855.200  0.500  0.238890  49.9048  39.3001  17.6157
  12865.225  12865.200  0.500  0.237185  49.8066  39.2897  17.6402
  12875.252  12875.200  0.500  0.235386  49.6349  39.2248  17.6418
  12885.258  12885.200  0.500  0.233500  49.5699  39.2474  17.6812
  12895.287  12895.200  0.500  0.231928  49.4505  39.2144  17.6962
  12905.288  12905.200  0.500  0.230050  49.3259  39.1891  17.7098
  12915.254  12915.200  0.500  0.228246  48.7017  38.7631  17.5437
  12925.243  12925.200  0.500  0.226717  49.0767  39.1213  17.7363
  12935.248  12935.200  0.500  0.225080  48.9778  39.1064  17.7544
  12945.298  12945.200  0.500  0.223532  48.8272  39.0466  17.7508
  12955.187  12955.200  0.500  0.221992  48.5  38.8447  17.6824
  12965.195  12965.200  0.500  0.220589  48.6337  39.0065  17.7735
  12975.204  12975.200  0.500  0.219687  48.4809  38.919  17.7506
  12985.221  12985.200  0.500  0.219004  48.3965  38.8778  17.7407
  12995.209  12995.200  0.500  0.218770  48.2715  38.7865  17.6941
  13005.235  13005.200  0.500  0.219823  48.1614  38.6573  17.6038
  13007.169  13007.200  0.500  0.220165  48.1361  38.6238  17.5762
  13009.147  13009.200  0.500  0.220764  48.1173  38.5855  17.5458
  13011.140  13011.200  0.500  0.221551  48.0915  38.5345  17.5058
  13013.149  13013.200  0.500  0.222340  48.0653  38.4831  17.4653
  13015.174  13015.200  0.500  0.223489  48.0362  38.4157  17.4102
  13017.169  13017.200  0.500  0.224741  48.018  38.353  17.3463
  13019.150  13019.200  0.500  0.226584  47.9943  38.2636  17.2705
  13021.177  13021.200  0.500  0.228775  47.9721  38.1621  17.1725
  13023.166  13023.200  0.500  0.231728  47.9448  38.028  17.0505
  13025.157  13025.200  0.500  0.235906  47.9234  37.8525  16.8905
  13025.453  13025.500  0.500  0.236777  47.921  37.8177  16.8597
  13025.742  13025.800  0.500  0.237537  47.9184  37.7869  16.8289
  13026.030  13026.100  0.500  0.238222  47.9075  37.7524  16.799
  13026.341  13026.400  0.500  0.239209  47.9071  37.7149  16.767
  13026.630  13026.700  0.500  0.240127  47.897  37.6723  16.7293
  13026.948  13027.000  0.500  0.241154  47.8969  37.6335  16.6911
  13027.237  13027.300  0.500  0.242281  47.8961  37.5905  16.6553
  13027.533  13027.600  0.500  0.243250  47.888  37.5478  16.6149
  13027.859  13027.900  0.500  0.244419  47.8844  37.5011  16.5727
  13028.133  13028.200  0.500  0.245784  47.8842  37.4498  16.5265
  13028.451  13028.500  0.500  0.247278  47.8794  37.3901  16.4752
  13028.762  13028.800  0.500  0.248789  47.8723  37.3282  16.4222
  13029.051  13029.100  0.500  0.250407  47.8657  37.2627  16.3675
  13029.369  13029.400  0.500  0.252335  47.8601  37.1866  16.3022
  13029.643  13029.700  0.500  0.254147  47.8548  37.1151  16.2413
  13029.969  13030.000  0.500  0.256245  47.8533  37.0361  16.1702
  13030.265  13030.300  0.500  0.258648  47.8526  36.9467  16.0956
  13030.554  13030.600  0.500  0.260986  47.8454  36.8549  16.0155
  13030.880  13030.900  0.500  0.264097  47.8389  36.7354  15.9217
  13031.177  13031.200  0.500  0.267046  47.8357  36.6248  15.8299
  13031.488  13031.500  0.500  0.270400  47.8239  36.4932  15.7214
  13031.784  13031.800  0.500  0.274202  47.8271  36.3571  15.6086
  13032.095  13032.100  0.500  0.278153  47.8189  36.2075  15.4876
  13032.399  13032.400  0.500  0.282862  47.8163  36.0355  15.3525
  13032.680  13032.700  0.500  0.287481  47.8116  35.8659  15.2155
  13032.999  13033.000  0.500  0.293017  47.8027  35.6613  15.0514
  13033.288  13033.300  0.500  0.298532  47.8056  35.4673  14.8956
  13033.592  13033.600  0.500  0.304496  47.7948  35.2484  14.7207
  13033.881  13033.900  0.500  0.310527  47.792  35.0344  14.5454
  13034.185  13034.200  0.500  0.317104  47.7854  34.8  14.3521
  13034.481  13034.500  0.500  0.323559  47.7847  34.5756  14.1617
  13034.778  13034.800  0.500  0.329633  47.7761  34.36  13.9764
  13035.082  13035.100  0.500  0.335843  47.7741  34.1458  13.7869
  13035.356  13035.400  0.500  0.341273  47.7725  33.9598  13.6074
  13035.689  13035.700  0.500  0.346768  47.7657  33.7689  13.4124
  13035.979  13036.000  0.500  0.351150  47.7609  33.6178  13.2435
  13036.282  13036.300  0.500  0.355317  47.7572  33.4755  13.0672
  13036.572  13036.600  0.500  0.358417  47.7532  33.3691  12.9119
  13036.890  13036.900  0.500  0.361070  47.7457  33.2754  12.7506
  13037.180  13037.200  0.500  0.362770  47.7402  33.2151  12.6145
  13037.484  13037.500  0.500  0.364085  47.7342  33.1673  12.4722
  13037.780  13037.800  0.500  0.365024  47.7346  33.1364  12.3459
  13038.106  13038.100  0.500  0.365543  47.7255  33.1129  12.2053
  13038.388  13038.400  0.500  0.366015  47.7213  33.0944  12.0823
  13038.692  13038.700  0.500  0.366526  47.7205  33.0769  11.9489
  13038.996  13039.000  0.500  0.367163  47.712  33.05  11.8211
  13039.301  13039.300  0.500  0.368144  47.7076  33.0145  11.6779
  13039.590  13039.600  0.500  0.369448  47.7094  32.9727  11.5364
  13039.901  13039.900  0.500  0.371246  47.7015  32.9081  11.3763
  13040.198  13040.200  0.500  0.373683  47.6942  32.8229  11.2139
  13040.502  13040.500  0.500  0.376838  47.693  32.7187  11.028
  13040.806  13040.800  0.500  0.380329  47.6855  32.5995  10.8487
  13041.088  13041.100  0.500  0.384710  47.6789  32.4525  10.6548
  13041.400  13041.400  0.500  0.389956  47.6771  32.2816  10.4466
  13041.682  13041.700  0.500  0.395344  47.6762  32.1074  10.2408
  13041.986  13042.000  0.500  0.401700  47.6691  31.8993  10.0252
  13042.275  13042.300  0.500  0.408657  47.6654  31.6756  9.808378
  13042.587  13042.600  0.500  0.416713  47.6609  31.4185  9.578165
  13042.884  13042.900  0.500  0.425508  47.657  31.1409  9.347954
  13043.181  13043.200  0.500  0.435203  47.6525  30.8375  9.112834
  13043.478  13043.500  0.500  0.445151  47.6408  30.5248  8.890223
  13043.804  13043.800  0.500  0.456870  47.6399  30.1686  8.647311
  13044.079  13044.100  0.500  0.468045  47.6376  29.8319  8.433284
  13044.405  13044.400  0.500  0.481511  47.6293  29.4277  8.195918
  13044.695  13044.700  0.500  0.493900  47.6267  29.0638  7.992375
  13044.999  13045.000  0.500  0.507950  47.621  28.6549  7.774349
  13045.296  13045.300  0.500  0.521362  47.617  28.2708  7.577284
  13045.616  13045.600  0.500  0.535424  47.6123  27.8732  7.376794
  13045.890  13045.900  0.500  0.548051  47.6051  27.5193  7.204718
  13046.217  13046.200  0.500  0.562329  47.6009  27.1268  7.017636
  13046.506  13046.500  0.500  0.573940  47.5946  26.8101  6.867202
  13046.826  13046.800  0.500  0.586044  47.5958  26.4882  6.716246
  13047.101  13047.100  0.500  0.595932  47.5808  26.2193  6.592876
  13047.412  13047.400  0.500  0.605934  47.5669  25.9508  6.466466
  13047.687  13047.700  0.500  0.613993  47.5519  25.7344  6.367628
  13047.999  13048.000  0.500  0.621985  47.5271  25.5162  6.268744
  13048.281  13048.300  0.500  0.628299  47.5152  25.3493  6.194258
  13048.586  13048.600  0.500  0.634718  47.5001  25.1791  6.117958
  13048.876  13048.900  0.500  0.639841  47.4815  25.0406  6.061100
  13049.188  13049.200  0.500  0.645008  47.4782  24.9098  6.007142
  13049.485  13049.500  0.500  0.649315  47.4769  24.8021  5.965434
  13049.804  13049.800  0.500  0.653955  47.4772  24.6875  5.924396
  13050.094  13050.100  0.500  0.658177  47.4869  24.5884  5.892441
  13050.406  13050.400  0.500  0.662307  47.4961  24.4919  5.862825
  13050.673  13050.700  0.500  0.666347  47.5062  24.3983  5.838109
  13051.008  13051.000  0.500  0.670949  47.5115  24.289  5.810319
  13051.298  13051.300  0.500  0.675452  47.5164  24.1824  5.785564
  13051.602  13051.600  0.500  0.680284  47.5168  24.066  5.760377
  13051.892  13051.900  0.500  0.685037  47.5133  23.9501  5.735870
  13052.227  13052.200  0.500  0.690542  47.5054  23.8147  5.706987
  13052.509  13052.500  0.500  0.695957  47.5069  23.6868  5.678173
  13052.806  13052.800  0.500  0.701977  47.5041  23.5433  5.647463
  13053.096  13053.100  0.500  0.707845  47.4983  23.4027  5.616637
  13053.408  13053.400  0.500  0.714369  47.4968  23.2497  5.581688
  13053.713  13053.700  0.500  0.720959  47.4918  23.0946  5.546230
  13053.996  13054.000  0.500  0.727673  47.4887  22.9386  5.509099
  13054.300  13054.300  0.500  0.734218  47.481  22.7852  5.470728
  13054.598  13054.600  0.500  0.741496  47.4776  22.6184  5.430625
  13054.903  13054.900  0.500  0.748306  47.4678  22.4602  5.389160
  13055.200  13055.200  0.500  0.755143  47.4695  22.308  5.347036
  13055.490  13055.500  0.500  0.761822  47.4648  22.1573  5.307172
  13055.787  13055.800  0.500  0.768406  47.4586  22.009  5.264313
  13056.092  13056.100  0.500  0.774688  47.4525  21.8684  5.222375
  13056.397  13056.400  0.500  0.780938  47.4534  21.7325  5.182012
  13056.695  13056.700  0.500  0.786683  47.4446  21.604  5.139886
  13057.000  13057.000  0.500  0.791896  47.4438  21.4913  5.100723
  13057.312  13057.300  0.500  0.797416  47.4339  21.3686  5.058394
  13057.602  13057.600  0.500  0.802319  47.4297  21.2622  5.019203
  13057.907  13057.900  0.500  0.807156  47.4276  21.1586  4.976553
  13058.205  13058.200  0.500  0.811670  47.428  21.0635  4.937695
  13058.517  13058.500  0.500  0.816226  47.4178  20.9633  4.894669
  13058.807  13058.800  0.500  0.820057  47.4153  20.882  4.856349
  13059.112  13059.100  0.500  0.824347  47.4151  20.7925  4.812862
  13059.402  13059.400  0.500  0.827819  47.4044  20.7158  4.776153
  13059.722  13059.700  0.500  0.831829  47.4033  20.6324  4.733133
  13060.005  13060.000  0.500  0.835005  47.3977  20.5645  4.697840
  13060.198  13060.200  0.500  0.837187  47.3965  20.5192  4.670158
  13061.218  13061.190  0.500  0.847545  47.3832  20.3021  4.554942
  13062.193  13062.190  0.500  0.856452  47.3705  20.1166  4.464325
  13063.198  13063.210  0.500  0.865819  47.3605  19.9249  4.395095
  13064.255  13064.260  0.500  0.874914  47.3429  19.7371  4.347848
  13065.335  13065.320  0.500  0.882395  47.3307  19.585  4.324308
  13066.430  13066.400  0.500  0.886170  47.3242  19.5085  4.325954
  13067.517  13067.500  0.500  0.884450  47.3072  19.5351  4.356469
  13068.620  13068.620  0.500  0.878542  47.2939  19.6453  4.407069
  13069.753  13069.760  0.500  0.869663  47.2777  19.8138  4.466738
  13070.938  13070.910  0.500  0.859037  47.2343  20.007  4.521219
  13072.108  13072.090  0.500  0.848843  47.1815  20.1894  4.566206
  13073.301  13073.280  0.500  0.839151  47.1861  20.388  4.608273
  13074.516  13074.500  0.500  0.830030  47.2098  20.5852  4.648873
  13075.739  13075.730  0.500  0.821198  47.1916  20.7598  4.689052
  13076.970  13076.980  0.500  0.812963  47.1709  20.9223  4.724808
  13078.276  13078.250  0.500  0.805557  47.1573  21.0717  4.757730
  13079.567  13079.540  0.500  0.799413  47.187  21.2149  4.783474
  13080.881  13080.850  0.500  0.794100  47.2284  21.3467  4.801042
  13082.195  13082.180  0.500  0.789070  47.2159  21.4486  4.806299
  13083.524  13083.530  0.500  0.783921  47.2049  21.5543  4.808053
  13084.898  13084.900  0.500  0.778804  47.1817  21.6542  4.805324
  13086.288  13086.280  0.500  0.774310  47.1648  21.744  4.803935
  13087.685  13087.690  0.500  0.771155  47.1504  21.806  4.800817
  13089.120  13089.110  0.500  0.769389  47.1322  21.8362  4.801382
  13090.540  13090.550  0.500  0.769180  47.1186  21.8344  4.804566
  13092.021  13092.010  0.500  0.770346  47.0766  21.7895  4.805662
  13093.486  13093.490  0.500  0.772610  47.0089  21.709  4.802913
  13095.012  13094.990  0.500  0.776105  47.0254  21.6409  4.804701
  13096.516  13096.510  0.500  0.780128  47.0457  21.5632  4.802082
  13098.051  13098.050  0.500  0.784499  47.024  21.4593  4.791273
  13099.570  13099.610  0.500  0.789463  47.0088  21.3462  4.776834
  13101.172  13101.180  0.500  0.794085  46.9862  21.2375  4.761491
  13102.760  13102.780  0.500  0.798237  46.9553  21.1356  4.747947
  13104.386  13104.390  0.500  0.802115  46.9326  21.0436  4.734006
  13106.012  13106.030  0.500  0.805859  46.8735  20.9386  4.712793
  13107.638  13107.680  0.500  0.809306  46.8927  20.8751  4.700220
  13109.782  13109.350  0.500  0.812329  46.8834  20.8079  4.681974
  13110.975  13111.040  0.500  0.813925  46.866  20.767  4.667622
  13112.812  13112.750  0.500  0.815525  46.8403  20.7225  4.646584
  13114.411  13114.480  0.500  0.816718  46.8211  20.6893  4.630346
  13116.287  13116.230  0.500  0.818438  46.7755  20.6336  4.608016
  13117.991  13117.990  0.500  0.820231  46.7047  20.5655  4.586877
  13119.740  13119.780  0.500  0.822238  46.741  20.5402  4.578179
  13121.573  13121.580  0.500  0.824433  46.7306  20.4906  4.567504
  13123.399  13123.410  0.500  0.825919  46.7103  20.4513  4.563739
  13125.248  13125.250  0.500  0.826789  46.6831  20.4216  4.565969
  13127.082  13127.110  0.500  0.826906  46.6617  20.4099  4.571713
  13128.992  13128.990  0.500  0.826496  46.6465  20.4116  4.581379
  13130.850  13130.890  0.500  0.825656  46.6145  20.4147  4.591758
  13132.791  13132.810  0.500  0.823159  46.573  20.4475  4.604834
  13134.717  13134.750  0.500  0.819700  46.5749  20.5192  4.626108
  13136.720  13136.710  0.500  0.814180  46.5487  20.6212  4.651265
  13138.678  13138.680  0.500  0.808537  46.5301  20.7296  4.679262
  13140.697  13140.680  0.500  0.802615  46.509  20.8433  4.707471
  13142.686  13142.690  0.500  0.797222  46.4836  20.9445  4.732567
  13144.714  13144.720  0.500  0.792302  46.4574  21.036  4.752700
  13146.750  13146.780  0.500  0.788428  46.4357  21.1078  4.770573
  13148.846  13148.850  0.500  0.785275  46.4096  21.1625  4.784181
  13150.929  13150.940  0.500  0.782834  46.38  21.2007  4.794967
  13153.065  13153.050  0.500  0.781250  46.3414  21.2166  4.798842
  13155.194  13155.180  0.500  0.780726  46.3288  21.222  4.800566
  13157.316  13157.320  0.500  0.781273  46.3102  21.2019  4.797449
  13159.477  13159.490  0.500  0.782322  46.2841  21.1677  4.791382
  13161.661  13161.680  0.500  0.783823  46.2566  21.1234  4.782845
  13163.876  13163.880  0.500  0.785289  46.2286  21.0797  4.776643
  13166.107  13166.100  0.500  0.786371  46.1946  21.0414  4.769690
  13168.346  13168.350  0.500  0.787155  46.1299  20.9955  4.762364
  13170.624  13170.610  0.500  0.787662  46.1484  20.9932  4.764708
  13172.880  13172.890  0.500  0.787975  46.1257  20.9763  4.763489
  13175.174  13175.190  0.500  0.788499  46.099  20.9532  4.759975
  13177.508  13177.510  0.500  0.789099  46.0698  20.9274  4.757665
  13179.857  13179.850  0.500  0.790046  46.0399  20.894  4.752793
  13182.215  13182.200  0.500  0.791222  46.0099  20.8559  4.744706
  13184.596  13184.580  0.500  0.792508  45.9817  20.8163  4.739578
  13186.955  13186.970  0.500  0.793708  45.9559  20.7796  4.733719
  13189.369  13189.390  0.500  0.794895  45.9233  20.7403  4.726727
  13191.813  13191.820  0.500  0.795873  45.8978  20.7085  4.723509
  13194.274  13194.270  0.500  0.796348  45.8695  20.6859  4.722321
  13196.759  13196.750  0.500  0.796535  45.8372  20.6675  4.723030
  13199.252  13199.240  0.500  0.796248  45.8021  20.6576  4.724178
  13201.738  13201.750  0.500  0.795714  45.777  20.6573  4.728033
  13204.264  13204.270  0.500  0.794722  45.735  20.6588  4.732580
  13206.805  13206.820  0.500  0.793263  45.7119  20.6785  4.738525
  13209.401  13209.390  0.500  0.791722  45.6853  20.6983  4.746995
  13211.983  13211.970  0.500  0.789822  45.6486  20.7211  4.754326
  13214.604  13214.580  0.500  0.788582  45.619  20.7333  4.760037
  13217.203  13217.200  0.500  0.787542  45.5848  20.7393  4.763080
  13219.856  13219.850  0.500  0.786648  45.5394  20.7372  4.765105
  13222.518  13222.510  0.500  0.785761  45.5154  20.7447  4.767326
  13225.197  13225.190  0.500  0.784600  45.4595  20.7433  4.769092
  13227.892  13227.890  0.500  0.783063  45.4364  20.7646  4.775391
  13230.603  13230.610  0.500  0.781429  45.4134  20.7881  4.781284
  13233.323  13233.350  0.500  0.780148  45.3876  20.8029  4.785559
  13236.097  13236.100  0.500  0.779456  45.3552  20.8024  4.788696
  13238.889  13238.880  0.500  0.779152  45.3224  20.7937  4.788497
  13241.658  13241.670  0.500  0.778796  45.286  20.7844  4.788431
  13244.490  13244.490  0.500  0.778225  45.2473  20.7785  4.790218
  13247.323  13247.320  0.500  0.776855  45.2061  20.788  4.794888
  13250.165  13250.170  0.500  0.775246  45.1658  20.8029  4.801136
  13253.069  13253.050  0.500  0.773374  45.1198  20.8207  4.809800
  13255.921  13255.940  0.500  0.771730  45.079  20.8361  4.816225
  13258.851  13258.850  0.500  0.770664  45.0323  20.8367  4.820036
  13261.790  13261.770  0.500  0.770425  44.9778  20.8165  4.817917
  13264.723  13264.720  0.500  0.770611  44.9155  20.7837  4.814462
  13267.695  13267.690  0.500  0.771446  44.83  20.7269  4.802626
  13270.669  13270.670  0.500  0.772414  44.6789  20.637  4.785557
  13273.682  13273.680  0.500  0.773375  44.3738  20.4764  4.750529
  13276.736  13276.700  0.500  0.774168  44.2292  20.3935  4.734320
  13279.767  13279.750  0.500  0.775026  44.2534  20.3872  4.734553
  13282.800  13282.810  0.500  0.775813  44.2137  20.3529  4.728630
  13285.912  13285.890  0.500  0.776209  44.1211  20.3022  4.719218
  13289.017  13288.990  0.500  0.776225  44.0413  20.2651  4.713550
  13292.101  13292.110  0.500  0.775880  44.0112  20.2583  4.713924
  13295.247  13295.250  0.500  0.775189  44.0304  20.2811  4.722030
  13298.411  13298.400  0.500  0.774298  43.9822  20.277  4.724005
  13301.600  13301.580  0.500  0.773305  43.907  20.2624  4.724175
  13304.766  13304.770  0.500  0.772379  43.8709  20.2646  4.728025
  13307.997  13307.990  0.500  0.771287  43.8715  20.287  4.737136
  13311.213  13311.220  0.500  0.770349  43.856  20.2988  4.743899
  13314.485  13314.470  0.500  0.769290  43.8262  20.3065  4.751224
  13317.751  13317.750  0.500  0.768173  43.7965  20.3154  4.756729
  13321.057  13321.040  0.500  0.766860  43.7396  20.3157  4.761140
  13324.365  13324.350  0.500  0.765620  43.6882  20.317  4.764942
  13327.705  13327.670  0.500  0.764451  43.628  20.3127  4.767766
  13331.032  13331.020  0.500  0.763647  43.5911  20.3119  4.772632
  13334.423  13334.390  0.500  0.762921  43.5882  20.3253  4.777046
  13337.792  13337.770  0.500  0.762786  43.5647  20.3171  4.779938
  13341.193  13341.180  0.500  0.762446  43.5453  20.3149  4.782756
  13344.605  13344.600  0.500  0.761743  43.5122  20.3138  4.786604
  13348.064  13348.050  0.500  0.760522  43.4817  20.3243  4.793039
  13351.518  13351.510  0.500  0.758879  43.4669  20.3508  4.803324
  13354.989  13354.990  0.500  0.757248  43.4349  20.369  4.810420
  13358.501  13358.490  0.500  0.755649  43.3746  20.3733  4.815339
  13362.023  13362.010  0.500  0.754379  43.3579  20.3913  4.823494
  13365.562  13365.550  0.500  0.753620  43.3033  20.3811  4.826312
  13369.118  13369.100  0.500  0.753184  43.2548  20.3672  4.826214
  13372.708  13372.680  0.500  0.752987  43.2056  20.348  4.826045
  13376.292  13376.280  0.500  0.752874  43.1751  20.3359  4.828613
  13379.885  13379.890  0.500  0.752609  43.1328  20.3214  4.828524
  13383.559  13383.520  0.500  0.752228  43.0941  20.3109  4.831254
  13387.195  13387.180  0.500  0.751685  43.0669  20.3091  4.836036
  13390.842  13390.850  0.500  0.751013  43.0252  20.3031  4.839627
  13394.545  13394.540  0.500  0.750241  42.9871  20.3008  4.842663
  13398.297  13398.250  0.500  0.749663  42.947  20.2936  4.845321
  13402.013  13401.980  0.500  0.749053  42.9059  20.2865  4.848641
  13405.738  13405.720  0.500  0.748660  42.8587  20.2721  4.849868
  13409.512  13409.490  0.500  0.747998  42.8421  20.2777  4.855406
  13413.305  13413.280  0.500  0.747391  42.8105  20.2751  4.859134
  13417.083  13417.080  0.500  0.746649  42.7687  20.2703  4.862049
  13420.943  13420.910  0.500  0.746013  42.7192  20.2598  4.863220
  13424.773  13424.750  0.500  0.745251  42.6803  20.2567  4.868947
  13428.621  13428.610  0.500  0.744553  42.574  20.2204  4.862420
  13432.503  13432.490  0.500  0.743880  42.5875  20.2404  4.873044
  13436.419  13436.390  0.500  0.742967  42.5476  20.2399  4.877954
  13440.321  13440.310  0.500  0.741923  42.4979  20.2374  4.880860
  13444.257  13444.250  0.500  0.740979  42.4559  20.2365  4.886182
  13448.267  13448.210  0.500  0.739910  42.4019  20.2324  4.890259
  13452.184  13452.180  0.500  0.739193  42.3767  20.2349  4.897283
  13456.183  13456.180  0.500  0.738378  42.3321  20.23  4.900458
  13460.223  13460.190  0.500  0.737378  42.2746  20.2228  4.903317
  13464.250  13464.230  0.500  0.736182  42.2342  20.2276  4.909783
  13468.311  13468.280  0.500  0.734875  42.196  20.2358  4.917771
  13472.375  13472.350  0.500  0.733366  42.1486  20.2435  4.924615
  13476.433  13476.440  0.500  0.732050  42.0995  20.2466  4.930248
  13480.565  13480.550  0.500  0.730846  41.932  20.1903  4.921512
  13484.700  13484.680  0.500  0.729747  42.0083  20.2493  4.940377
  13488.837  13488.830  0.500  0.728801  42.0055  20.2671  4.949990
  13493.009  13492.990  0.500  0.727985  41.9142  20.2396  4.949143
  13497.207  13497.180  0.500  0.727385  41.9126  20.251  4.955258
  13501.400  13501.380  0.500  0.726975  41.8673  20.2374  4.957445
  13505.643  13505.610  0.500  0.726362  41.8095  20.2218  4.958585
  13509.865  13509.850  0.500  0.725746  41.7775  20.2188  4.963814
  13514.113  13514.110  0.500  0.724962  41.7167  20.2052  4.964076
  13518.428  13518.390  0.500  0.724128  41.6544  20.1918  4.966251
  13522.706  13522.690  0.500  0.723424  41.796  20.2748  4.991240
  13527.051  13527.010  0.500  0.722552  41.7266  20.2588  4.992183
  13531.374  13531.350  0.500  0.721701  41.6791  20.2529  4.996222
  13535.733  13535.710  0.500  0.720913  41.5712  20.2164  4.993075
  13540.118  13540.090  0.500  0.720146  41.1673  20.0354  4.955394
  13544.506  13544.480  0.500  0.719059  41.6002  20.2681  5.016820
  13548.928  13548.900  0.500  0.717887  41.5524  20.2685  5.021833
  13553.378  13553.330  0.500  0.716796  41.479  20.2548  5.023457
  13557.791  13557.780  0.500  0.715797  40.8178  19.9518  4.954209
  13562.287  13562.250  0.500  0.714831  41.4061  20.259  5.037141
  13566.754  13566.740  0.500  0.713888  41.14  20.1478  5.014540
  13571.288  13571.250  0.500  0.713011  41.2925  20.2402  5.043197
  13575.825  13575.780  0.500  0.712412  40.6952  19.9594  4.979950
  13580.341  13580.330  0.500  0.711514  41.2271  20.2384  5.053901
  13584.925  13584.900  0.500  0.710867  41.1662  20.2216  5.054782
  13589.503  13589.480  0.500  0.710149  41.0894  20.1984  5.055363
  13594.109  13594.090  0.500  0.709139  40.5485  19.9526  4.997509
  13598.759  13598.710  0.500  0.708414  41.0521  20.2151  5.070161
  13603.379  13603.360  0.500  0.707250  40.9798  20.203  5.072996
  13608.067  13608.020  0.500  0.706274  40.9367  20.2014  5.078330
  13612.726  13612.700  0.500  0.704802  40.8628  20.1947  5.082818
  13617.429  13617.400  0.500  0.703395  40.84  20.2118  5.093865
  13622.152  13622.120  0.500  0.701668  40.7703  20.2122  5.098013
  13626.877  13626.860  0.500  0.700571  40.7422  20.2204  5.106988
  13631.647  13631.610  0.500  0.699062  40.6628  20.2115  5.109210
  13636.403  13636.390  0.500  0.698035  40.6497  20.2258  5.120143
  13641.237  13641.190  0.500  0.696810  40.589  20.2203  5.124050
  13646.049  13646.000  0.500  0.695905  40.5266  20.2075  5.125863
  13650.848  13650.830  0.500  0.695142  40.428  20.1737  5.124143
  13655.741  13655.690  0.500  0.694348  40.4483  20.1999  5.138734
  13660.580  13660.560  0.500  0.693480  40.4015  20.194  5.142901
  13665.487  13665.450  0.500  0.692564  40.3296  20.1766  5.144383
  13670.406  13670.360  0.500  0.691662  40.2879  20.1739  5.149318
  13675.313  13675.290  0.500  0.690751  40.236  20.1662  5.154348
  13680.272  13680.230  0.500  0.690031  40.1778  20.1516  5.157182
  13685.227  13685.200  0.500  0.689217  40.1278  20.1429  5.161977
  13690.234  13690.190  0.500  0.688248  40.0653  20.131  5.163595
  13695.245  13695.190  0.500  0.687291  40.0166  20.1258  5.170600
  13700.244  13700.220  0.500  0.686210  39.9663  20.1223  5.175779
  13705.336  13705.260  0.500  0.684982  39.9077  20.1174  5.181907
  13710.334  13710.320  0.500  0.683701  39.8615  20.1199  5.187541
  13715.450  13715.400  0.500  0.682283  39.8131  20.124  5.194941
  13720.529  13720.500  0.500  0.681015  39.7567  20.121  5.200326
  13725.669  13725.620  0.500  0.679678  39.6948  20.1165  5.205530
  13730.797  13730.760  0.500  0.678392  39.6479  20.1186  5.212938
  13735.937  13735.920  0.500  0.677490  39.5957  20.1103  5.216406
  13741.164  13741.100  0.500  0.676678  39.5364  20.0964  5.218673
  13746.345  13746.290  0.500  0.675621  39.4861  20.0921  5.225388
  13751.546  13751.510  0.500  0.674773  39.4111  20.071  5.226318
  13756.801  13756.740  0.500  0.673745  39.3502  20.0605  5.229190
  13762.027  13761.990  0.500  0.672626  39.3133  20.0642  5.238281
  13767.306  13767.260  0.500  0.671616  39.2536  20.054  5.242695
  13772.606  13772.550  0.500  0.670448  39.1969  20.0484  5.247072
  13777.911  13777.860  0.500  0.669200  39.126  20.0371  5.251747
  13783.244  13783.190  0.500  0.668092  39.0727  20.032  5.255839
  13788.590  13788.540  0.500  0.667083  39.0183  20.0243  5.261857
  13793.965  13793.910  0.500  0.665820  38.9833  20.0317  5.269116
  13799.378  13799.290  0.500  0.664528  38.9146  20.0222  5.273976
  13804.669  13804.700  0.500  0.663322  38.849  20.0125  5.278324
  13810.115  13810.120  0.500  0.662090  38.7879  20.0057  5.283655
  13815.574  13815.570  0.500  0.660699  38.7095  19.9931  5.286005
  13821.037  13821.030  0.500  0.659492  38.6837  20.0039  5.298160
  13826.513  13826.510  0.500  0.658128  38.6254  20.001  5.302678
  13832.001  13832.010  0.500  0.656805  38.5683  19.9979  5.309368
  13837.553  13837.530  0.500  0.655707  38.4942  19.9814  5.311949
  13843.067  13843.070  0.500  0.654584  38.4464  19.979  5.317924
  13848.644  13848.620  0.500  0.653574  38.3802  19.9647  5.319578
  13854.251  13854.200  0.500  0.652718  38.2923  19.9361  5.322351
  13859.854  13859.800  0.500  0.651695  38.2473  19.933  5.327511
  13865.470  13865.410  0.500  0.650588  38.1718  19.9157  5.329744
  13871.091  13871.050  0.500  0.649604  38.0909  19.8931  5.332864
  13876.733  13876.700  0.500  0.648382  38.003  19.8714  5.332187
  13882.413  13882.370  0.500  0.647233  37.8477  19.813  5.324380
  13888.098  13888.060  0.500  0.645925  37.6922  19.7574  5.316241