File: xdidata/Pb/Pb-L3-Angelsite.xdi
# XDI/1.0 BlueSky/1.10.0 BMM/2023-1.0-py310-tiled
# Beamline.name: BMM (06BM) -- Beamline for Materials Measurement (NIST)
# Beamline.xray_source: NSLS-II three-pole wiggler
# Beamline.collimation: paraboloid mirror, 5 nm Rh on 30 nm Pt
# Beamline.focusing: not in use
# Beamline.harmonic_rejection: flat mirror, Pt stripe, pitch = 7.0 mrad relative to beam
# Beamline.software: Bluesky 1.10.0, Ophyd 1.7.0, DataBroker 2.0.0b13, Python 3.10.8, 2023-1.0-py310-tiled
# Detector.I0: 10 cm N2
# Detector.I1: 25 cm N2
# Detector.I2: 25 cm N2
# Element.symbol: Pb
# Element.edge: L3
# Element.reference: Pb
# Element.reference_material: Pb foil
# Facility.name: NSLS-II
# Facility.energy: 3.0
# Facility.current: 400.9
# Facility.mode: top-off
# Facility.GUP: 301027
# Facility.SAF: 310583
# Facility.cycle: 2023-2
# Mono.name: Si(111)
# Mono.d_spacing: 3.13519
# Mono.encoder_resolution: 0.0000050 deg/ct
# Mono.angle_offset: 16.0754 deg
# Mono.scan_mode: pseudo channel cut
# Mono.scan_type: step
# Mono.direction: forward in energy
# Sample.name: PbSO4
# Sample.prep: powder on tape
# Sample.x: 143.785 mm
# Sample.y: 114.695 mm
# Sample.SDD_position: 205.000 mm
# Scan.experimenters: Bruce Ravel
# Scan.edge_energy: 13035.2
# Scan.start_time: 2023-06-23T17:07:19
# Scan.end_time: 2023-06-23T17:15:15
# Scan.transient_id: 84887
# Scan.uid: fadb15ae-21f6-4401-a3e6-e6eb289fed29
# Scan.plot_hint: ln(I0/It)  --  ln($5/$6)
# Column.1: energy eV
# Column.2: requested_energy eV
# Column.3: measurement_time seconds
# Column.4: xmu
# Column.5: I0 nA
# Column.6: It nA
# Column.7: Ir nA
# ///////////
# BMM standards collection
# -----------
# energy  requested_energy  measurement_time  xmu  I0  It  Ir
  12835.154  12835.200  0.500  -0.056743  50.1545  53.0828  23.7852
  12845.205  12845.200  0.500  -0.058219  50.0488  53.0491  23.811
  12855.222  12855.200  0.500  -0.059546  49.9209  52.9838  23.8218
  12865.203  12865.200  0.500  -0.060911  49.8181  52.9469  23.8446
  12875.244  12875.200  0.500  -0.062228  49.6485  52.8362  23.8344
  12885.243  12885.200  0.500  -0.063638  49.5844  52.8425  23.8776
  12895.251  12895.200  0.500  -0.064905  49.4637  52.7806  23.8861
  12905.296  12905.200  0.500  -0.066145  49.3451  52.7194  23.8966
  12915.233  12915.200  0.500  -0.067456  48.7368  52.1378  23.6682
  12925.236  12925.200  0.500  -0.068769  49.0897  52.5843  23.9119
  12935.299  12935.200  0.500  -0.070074  48.9915  52.5477  23.9275
  12945.217  12945.200  0.500  -0.071268  48.8463  52.4545  23.916
  12955.224  12955.200  0.500  -0.072575  48.5193  52.1715  23.8184
  12965.254  12965.200  0.500  -0.073657  48.654  52.373  23.9377
  12975.241  12975.200  0.500  -0.074631  48.4996  52.2577  23.9023
  12985.250  12985.200  0.500  -0.075545  48.4192  52.2188  23.8928
  12995.246  12995.200  0.500  -0.076097  48.2977  52.1165  23.8402
  13005.243  13005.200  0.500  -0.076298  48.1956  52.0167  23.755
  13007.183  13007.200  0.500  -0.076218  48.1675  51.9822  23.7267
  13009.176  13009.200  0.500  -0.076121  48.145  51.9529  23.6961
  13011.177  13011.200  0.500  -0.075994  48.1212  51.9206  23.6555
  13013.186  13013.200  0.500  -0.075774  48.0958  51.8818  23.613
  13015.181  13015.200  0.500  -0.075495  48.0699  51.8394  23.5603
  13017.184  13017.200  0.500  -0.075178  48.0491  51.8006  23.4996
  13019.180  13019.200  0.500  -0.074602  48.0295  51.7496  23.4236
  13021.199  13021.200  0.500  -0.074064  48.0031  51.6934  23.3342
  13023.211  13023.200  0.500  -0.073271  47.9812  51.6288  23.2221
  13025.164  13025.200  0.500  -0.072246  47.9577  51.5507  23.0751
  13025.438  13025.500  0.500  -0.072021  47.9517  51.5326  23.0485
  13025.742  13025.800  0.500  -0.071841  47.947  51.5183  23.0229
  13026.052  13026.100  0.500  -0.071572  47.9449  51.5022  22.9922
  13026.341  13026.400  0.500  -0.071429  47.9381  51.4875  22.9616
  13026.652  13026.700  0.500  -0.071164  47.9364  51.4721  22.9267
  13026.941  13027.000  0.500  -0.071030  47.9259  51.4539  22.8979
  13027.252  13027.300  0.500  -0.070825  47.9227  51.4399  22.8648
  13027.570  13027.600  0.500  -0.070399  47.9218  51.4171  22.822
  13027.866  13027.900  0.500  -0.070242  47.9168  51.4036  22.7885
  13028.177  13028.200  0.500  -0.069943  47.9115  51.3826  22.746
  13028.466  13028.500  0.500  -0.069607  47.9055  51.3588  22.7055
  13028.777  13028.800  0.500  -0.069354  47.8981  51.3379  22.6593
  13029.088  13029.100  0.500  -0.069029  47.8982  51.3213  22.6099
  13029.369  13029.400  0.500  -0.068748  47.8931  51.3014  22.5654
  13029.680  13029.700  0.500  -0.068343  47.8905  51.2779  22.5097
  13029.984  13030.000  0.500  -0.068113  47.8775  51.2522  22.4545
  13030.273  13030.300  0.500  -0.067602  47.8816  51.2304  22.3952
  13030.591  13030.600  0.500  -0.067285  47.8764  51.2085  22.3257
  13030.873  13030.900  0.500  -0.066860  47.8669  51.1767  22.2592
  13031.184  13031.200  0.500  -0.066361  47.8659  51.1501  22.1818
  13031.473  13031.500  0.500  -0.065891  47.8596  51.1193  22.1024
  13031.777  13031.800  0.500  -0.065407  47.8588  51.0938  22.02
  13032.080  13032.100  0.500  -0.064822  47.8564  51.0613  21.9257
  13032.369  13032.400  0.500  -0.064306  47.8516  51.0298  21.8288
  13032.666  13032.700  0.500  -0.063787  47.8449  50.9962  21.7189
  13032.962  13033.000  0.500  -0.063187  47.8396  50.9599  21.6068
  13033.266  13033.300  0.500  -0.062575  47.8367  50.9257  21.4764
  13033.570  13033.600  0.500  -0.061898  47.8302  50.8843  21.3421
  13033.874  13033.900  0.500  -0.061036  47.8283  50.8385  21.1994
  13034.185  13034.200  0.500  -0.060175  47.8215  50.7876  21.039
  13034.474  13034.500  0.500  -0.059441  47.8189  50.7475  20.8853
  13034.785  13034.800  0.500  -0.058352  47.818  50.6913  20.7047
  13035.074  13035.100  0.500  -0.057582  47.8119  50.6458  20.5384
  13035.393  13035.400  0.500  -0.056560  47.8075  50.5895  20.3452
  13035.689  13035.700  0.500  -0.055483  47.8061  50.5335  20.1608
  13035.993  13036.000  0.500  -0.054353  47.8004  50.4704  19.9564
  13036.297  13036.300  0.500  -0.053077  47.7958  50.4012  19.7571
  13036.594  13036.600  0.500  -0.051829  47.7941  50.3366  19.5544
  13036.898  13036.900  0.500  -0.050563  47.7852  50.2635  19.3491
  13037.194  13037.200  0.500  -0.049049  47.7817  50.1838  19.1348
  13037.498  13037.500  0.500  -0.047380  47.7813  50.0997  18.919
  13037.802  13037.800  0.500  -0.045692  47.7741  50.0077  18.7064
  13038.092  13038.100  0.500  -0.043829  47.77  49.9102  18.4939
  13038.411  13038.400  0.500  -0.041895  47.7657  49.8094  18.2696
  13038.700  13038.700  0.500  -0.039874  47.7627  49.7057  18.0506
  13038.996  13039.000  0.500  -0.037676  47.7556  49.5892  17.8273
  13039.278  13039.300  0.500  -0.035278  47.7536  49.4683  17.6056
  13039.582  13039.600  0.500  -0.032615  47.7455  49.3284  17.3486
  13039.879  13039.900  0.500  -0.029815  47.7439  49.1888  17.1124
  13040.191  13040.200  0.500  -0.026556  47.7414  49.0261  16.8445
  13040.487  13040.500  0.500  -0.023403  47.735  48.8653  16.5865
  13040.792  13040.800  0.500  -0.019647  47.728  48.675  16.2925
  13041.096  13041.100  0.500  -0.015674  47.728  48.482  16.0133
  13041.392  13041.400  0.500  -0.011436  47.7234  48.2722  15.7184
  13041.704  13041.700  0.500  -0.006488  47.7242  48.0349  15.4011
  13041.993  13042.000  0.500  -0.001415  47.7175  47.7851  15.0988
  13042.298  13042.300  0.500  0.004239  47.7125  47.5107  14.7814
  13042.595  13042.600  0.500  0.010265  47.7109  47.2237  14.4662
  13042.914  13042.900  0.500  0.017166  47.7047  46.8928  14.1399
  13043.196  13043.200  0.500  0.024013  47.7014  46.5696  13.8386
  13043.515  13043.500  0.500  0.031861  47.6983  46.2025  13.5191
  13043.812  13043.800  0.500  0.040468  47.6928  45.8013  13.1982
  13044.094  13044.100  0.500  0.048666  47.686  45.4209  12.9136
  13044.398  13044.400  0.500  0.058240  47.6819  44.9843  12.6096
  13044.680  13044.700  0.500  0.067571  47.6794  44.5641  12.3307
  13044.992  13045.000  0.500  0.077690  47.6763  44.1125  12.0475
  13045.296  13045.300  0.500  0.087850  47.6673  43.6584  11.7754
  13045.578  13045.600  0.500  0.098040  47.6656  43.2142  11.5223
  13045.898  13045.900  0.500  0.109405  47.6602  42.721  11.2496
  13046.187  13046.200  0.500  0.119522  47.6587  42.2897  11.0202
  13046.499  13046.500  0.500  0.130436  47.6496  41.8227  10.7794
  13046.796  13046.800  0.500  0.140373  47.6442  41.4044  10.5704
  13047.086  13047.100  0.500  0.150512  47.635  40.9788  10.3657
  13047.412  13047.400  0.500  0.160645  47.6257  40.5578  10.1669
  13047.695  13047.700  0.500  0.169319  47.6033  40.1886  10.0005
  13048.007  13048.000  0.500  0.178226  47.5873  39.8188  9.836166
  13048.311  13048.300  0.500  0.186042  47.5682  39.4929  9.699281
  13048.616  13048.600  0.500  0.192970  47.5558  39.2101  9.581664
  13048.920  13048.900  0.500  0.199447  47.5405  38.9443  9.472729
  13049.210  13049.200  0.500  0.204975  47.5357  38.7258  9.388377
  13049.514  13049.500  0.500  0.209925  47.5288  38.529  9.314144
  13049.797  13049.800  0.500  0.213983  47.5346  38.3776  9.260189
  13050.109  13050.100  0.500  0.217557  47.5393  38.2445  9.212781
  13050.391  13050.400  0.500  0.220205  47.5508  38.1526  9.183213
  13050.703  13050.700  0.500  0.222685  47.5644  38.069  9.158710
  13050.978  13051.000  0.500  0.224203  47.5652  38.0118  9.144641
  13051.298  13051.300  0.500  0.225722  47.5709  37.9587  9.132391
  13051.587  13051.600  0.500  0.226463  47.5677  37.928  9.129402
  13051.892  13051.900  0.500  0.226949  47.5673  37.9093  9.128921
  13052.175  13052.200  0.500  0.227105  47.5661  37.9025  9.131644
  13052.494  13052.500  0.500  0.227246  47.5627  37.8944  9.137516
  13052.791  13052.800  0.500  0.227034  47.5574  37.8982  9.143846
  13053.096  13053.100  0.500  0.226706  47.5538  37.9078  9.151788
  13053.401  13053.400  0.500  0.226286  47.5499  37.9206  9.158180
  13053.706  13053.700  0.500  0.225731  47.5439  37.9369  9.165134
  13054.003  13054.000  0.500  0.225306  47.5447  37.9536  9.170023
  13054.293  13054.300  0.500  0.224777  47.5412  37.9709  9.172347
  13054.613  13054.600  0.500  0.224204  47.5351  37.9877  9.176189
  13054.903  13054.900  0.500  0.223344  47.5276  38.0145  9.176001
  13055.215  13055.200  0.500  0.222634  47.527  38.041  9.175546
  13055.505  13055.500  0.500  0.221770  47.5195  38.0679  9.173076
  13055.832  13055.800  0.500  0.220672  47.5142  38.1054  9.169507
  13056.107  13056.100  0.500  0.219747  47.5117  38.1387  9.165162
  13056.397  13056.400  0.500  0.218355  47.5061  38.1873  9.160100
  13056.695  13056.700  0.500  0.216981  47.4991  38.2342  9.154676
  13057.000  13057.000  0.500  0.215404  47.5054  38.2996  9.147968
  13057.297  13057.300  0.500  0.213687  47.5649  38.4135  9.154203
  13057.587  13057.600  0.500  0.211629  47.5647  38.4924  9.144047
  13057.877  13057.900  0.500  0.209662  47.5586  38.5633  9.130830
  13058.182  13058.200  0.500  0.207500  47.554  38.643  9.118313
  13058.480  13058.500  0.500  0.205275  47.5475  38.7238  9.102353
  13058.800  13058.800  0.500  0.202909  47.5431  38.8119  9.086422
  13059.090  13059.100  0.500  0.200645  47.5431  38.8999  9.068190
  13059.395  13059.400  0.500  0.198138  47.537  38.9926  9.046266
  13059.700  13059.700  0.500  0.195899  47.5367  39.0797  9.026041
  13060.005  13060.000  0.500  0.193617  47.5272  39.1612  9.001038
  13060.213  13060.200  0.500  0.192053  47.5245  39.2202  8.986044
  13061.218  13061.190  0.500  0.185979  47.507  39.4446  8.911243
  13062.215  13062.190  0.500  0.181798  47.4975  39.602  8.846148
  13063.243  13063.210  0.500  0.180127  47.4899  39.6619  8.803364
  13064.255  13064.260  0.500  0.180249  47.4688  39.6394  8.785313
  13065.320  13065.320  0.500  0.182229  47.4629  39.5561  8.784325
  13066.430  13066.400  0.500  0.184782  47.4466  39.4416  8.795549
  13067.510  13067.500  0.500  0.187790  47.4363  39.3147  8.817534
  13068.642  13068.620  0.500  0.190266  47.4215  39.2053  8.843727
  13069.790  13069.760  0.500  0.192160  47.4054  39.1177  8.865503
  13070.923  13070.910  0.500  0.193144  47.3578  39.0401  8.871793
  13072.108  13072.090  0.500  0.193515  47.3069  38.9836  8.864912
  13073.286  13073.280  0.500  0.193686  47.3112  38.9804  8.860799
  13074.516  13074.500  0.500  0.194249  47.3342  38.9775  8.853523
  13075.747  13075.730  0.500  0.195767  47.3314  38.9161  8.837310
  13077.022  13076.980  0.500  0.197946  47.3018  38.8071  8.812252
  13078.276  13078.250  0.500  0.200789  47.2894  38.6868  8.781151
  13079.545  13079.540  0.500  0.204284  47.2859  38.5489  8.739496
  13080.851  13080.850  0.500  0.207721  47.2726  38.4058  8.686365
  13082.217  13082.180  0.500  0.211019  47.2519  38.2627  8.622811
  13083.561  13083.530  0.500  0.213356  47.2375  38.1617  8.560879
  13084.928  13084.900  0.500  0.214438  47.2246  38.11  8.505447
  13086.295  13086.280  0.500  0.214257  47.2087  38.1041  8.467493
  13087.685  13087.690  0.500  0.213135  47.1871  38.1294  8.443111
  13089.112  13089.110  0.500  0.211387  47.1713  38.1834  8.442271
  13090.570  13090.550  0.500  0.209259  47.1553  38.2517  8.464181
  13092.043  13092.010  0.500  0.207107  47.1135  38.3001  8.494622
  13093.509  13093.490  0.500  0.205273  47.0505  38.3191  8.527023
  13094.997  13094.990  0.500  0.203850  47.0648  38.3853  8.571302
  13096.539  13096.510  0.500  0.203013  47.0814  38.431  8.607684
  13098.066  13098.050  0.500  0.202430  47.0619  38.4375  8.630325
  13099.645  13099.610  0.500  0.201953  47.0481  38.4446  8.652007
  13101.172  13101.180  0.500  0.201396  47.0239  38.4462  8.669679
  13102.768  13102.780  0.500  0.200850  46.9901  38.4395  8.685752
  13104.408  13104.390  0.500  0.200097  46.9747  38.4559  8.700410
  13106.072  13106.030  0.500  0.199189  46.9147  38.4417  8.706381
  13107.698  13107.680  0.500  0.197946  46.9314  38.5032  8.719555
  13109.355  13109.350  0.500  0.196779  46.9359  38.5518  8.724105
  13111.027  13111.040  0.500  0.195439  46.914  38.5855  8.719385
  13112.752  13112.750  0.500  0.194353  46.8923  38.6096  8.710965
  13114.501  13114.480  0.500  0.193441  46.8737  38.6295  8.695237
  13116.234  13116.230  0.500  0.192905  46.8372  38.6201  8.675595
  13117.976  13117.990  0.500  0.192694  46.7584  38.5633  8.652710
  13119.763  13119.780  0.500  0.192658  46.7929  38.5931  8.653892
  13121.603  13121.580  0.500  0.193223  46.789  38.5681  8.648849
  13123.429  13123.410  0.500  0.193972  46.7703  38.5238  8.648186
  13125.255  13125.250  0.500  0.194895  46.7354  38.4595  8.647837
  13127.104  13127.110  0.500  0.195798  46.7151  38.4081  8.652264
  13128.984  13128.990  0.500  0.196882  46.7011  38.355  8.657877
  13130.902  13130.890  0.500  0.197961  46.6724  38.2901  8.660332
  13132.813  13132.810  0.500  0.198903  46.6293  38.2187  8.657101
  13134.740  13134.750  0.500  0.199601  46.6333  38.1954  8.658965
  13136.712  13136.710  0.500  0.199698  46.6086  38.1714  8.659747
  13138.723  13138.680  0.500  0.199600  46.5876  38.158  8.662200
  13140.667  13140.680  0.500  0.199309  46.5625  38.1485  8.664400
  13142.686  13142.690  0.500  0.198527  46.5406  38.1604  8.668468
  13144.691  13144.720  0.500  0.197497  46.5123  38.1764  8.675011
  13146.757  13146.780  0.500  0.196089  46.4896  38.2116  8.684755
  13148.831  13148.850  0.500  0.194736  46.4715  38.2485  8.696571
  13150.914  13150.940  0.500  0.193125  46.4361  38.281  8.703662
  13153.035  13153.050  0.500  0.192026  46.4009  38.294  8.710639
  13155.171  13155.180  0.500  0.190999  46.3922  38.3261  8.718693
  13157.497  13157.320  0.500  0.190180  46.3545  38.3264  8.720428
  13159.431  13159.490  0.500  0.189867  46.3363  38.3233  8.721635
  13161.729  13161.680  0.500  0.189706  46.3085  38.3065  8.722347
  13164.012  13163.880  0.500  0.189515  46.2731  38.2845  8.721755
  13166.273  13166.100  0.500  0.189255  46.2473  38.2731  8.725039
  13168.422  13168.350  0.500  0.188954  46.1735  38.2235  8.719628
  13170.601  13170.610  0.500  0.188732  46.1886  38.2445  8.729830
  13172.880  13172.890  0.500  0.188519  46.1768  38.2429  8.733165
  13175.189  13175.190  0.500  0.188329  46.1501  38.2281  8.733325
  13177.508  13177.510  0.500  0.187991  46.1183  38.2146  8.735083
  13179.827  13179.850  0.500  0.187881  46.0898  38.1953  8.734362
  13182.177  13182.200  0.500  0.187748  46.0648  38.1796  8.735561
  13184.581  13184.580  0.500  0.187596  46.033  38.159  8.735654
  13186.986  13186.970  0.500  0.187556  46.0072  38.1392  8.736285
  13189.399  13189.390  0.500  0.187205  45.9797  38.1298  8.739203
  13191.821  13191.820  0.500  0.186987  45.9518  38.1149  8.741807
  13194.244  13194.270  0.500  0.186543  45.9198  38.1053  8.748329
  13196.736  13196.750  0.500  0.185999  45.8889  38.1004  8.754100
  13199.259  13199.240  0.500  0.185648  45.8641  38.0932  8.759567
  13201.769  13201.750  0.500  0.185061  45.8283  38.0858  8.764660
  13204.279  13204.270  0.500  0.184664  45.7979  38.0756  8.768824
  13206.805  13206.820  0.500  0.184527  45.7767  38.0632  8.772101
  13209.371  13209.390  0.500  0.184073  45.7416  38.0513  8.774833
  13211.952  13211.970  0.500  0.183654  45.7092  38.0402  8.776961
  13214.588  13214.580  0.500  0.183311  45.6758  38.0255  8.779388
  13217.210  13217.200  0.500  0.182806  45.6424  38.0169  8.781705
  13219.856  13219.850  0.500  0.182254  45.6062  38.0077  8.781392
  13222.503  13222.510  0.500  0.181825  45.5779  38.0004  8.779993
  13225.174  13225.190  0.500  0.181441  45.5281  37.9735  8.777019
  13227.899  13227.890  0.500  0.180988  45.5032  37.97  8.778933
  13230.610  13230.610  0.500  0.180763  45.4865  37.9645  8.779701
  13233.369  13233.350  0.500  0.180235  45.4535  37.957  8.780831
  13236.105  13236.100  0.500  0.179808  45.4157  37.9417  8.780555
  13238.866  13238.880  0.500  0.179356  45.3741  37.924  8.780427
  13241.650  13241.670  0.500  0.178876  45.3399  37.9137  8.783452
  13244.490  13244.490  0.500  0.178454  45.3042  37.8998  8.783815
  13247.330  13247.320  0.500  0.178082  45.2667  37.8826  8.787172
  13250.165  13250.170  0.500  0.177709  45.2253  37.862  8.787571
  13253.038  13253.050  0.500  0.177464  45.1869  37.8391  8.788590
  13255.929  13255.940  0.500  0.177090  45.1408  37.8147  8.790441
  13258.843  13258.850  0.500  0.176828  45.0941  37.7854  8.790805
  13261.752  13261.770  0.500  0.176532  45.0425  37.7534  8.787524
  13264.715  13264.720  0.500  0.176072  44.9775  37.7162  8.783754
  13267.680  13267.690  0.500  0.175821  44.8894  37.6518  8.774325
  13270.669  13270.670  0.500  0.175395  44.7437  37.5456  8.752523
  13273.690  13273.680  0.500  0.175024  44.4453  37.309  8.702120
  13276.697  13276.700  0.500  0.174527  44.2801  37.1888  8.679524
  13279.752  13279.750  0.500  0.174169  44.3067  37.2245  8.691981
  13282.793  13282.810  0.500  0.173675  44.2709  37.2128  8.694106
  13285.866  13285.890  0.500  0.173195  44.1893  37.162  8.686103
  13288.986  13288.990  0.500  0.172588  44.0943  37.1047  8.676543
  13292.108  13292.110  0.500  0.172218  44.0585  37.0883  8.677631
  13295.240  13295.250  0.500  0.171744  44.0913  37.1335  8.693229
  13298.396  13298.400  0.500  0.171273  44.0396  37.1074  8.692031
  13301.584  13301.580  0.500  0.170966  43.9686  37.0589  8.688205
  13304.790  13304.770  0.500  0.170394  43.9245  37.0429  8.690861
  13307.997  13307.990  0.500  0.169976  43.9344  37.0668  8.702961
  13311.221  13311.220  0.500  0.169483  43.914  37.0678  8.710859
  13314.485  13314.470  0.500  0.169078  43.8911  37.0635  8.716305
  13317.766  13317.750  0.500  0.168553  43.8632  37.0595  8.723522
  13321.041  13321.040  0.500  0.168076  43.8156  37.0369  8.726801
  13324.357  13324.350  0.500  0.167416  43.7591  37.0135  8.726266
  13327.690  13327.670  0.500  0.166905  43.6889  36.9731  8.725830
  13331.032  13331.020  0.500  0.166378  43.6488  36.9586  8.728209
  13334.384  13334.390  0.500  0.165892  43.663  36.9886  8.742416
  13337.776  13337.770  0.500  0.165221  43.6325  36.9875  8.749639
  13341.201  13341.180  0.500  0.164596  43.609  36.9907  8.756702
  13344.597  13344.600  0.500  0.164093  43.5808  36.9854  8.760421
  13348.064  13348.050  0.500  0.163568  43.5573  36.9849  8.767816
  13351.534  13351.510  0.500  0.163016  43.5325  36.9843  8.775471
  13355.012  13354.990  0.500  0.162535  43.5028  36.9768  8.780071
  13358.501  13358.490  0.500  0.162042  43.4438  36.9449  8.778414
  13362.038  13362.010  0.500  0.161514  43.4194  36.9436  8.787328
  13365.585  13365.550  0.500  0.161039  43.3727  36.9214  8.789481
  13369.102  13369.100  0.500  0.160528  43.3234  36.8983  8.792857
  13372.684  13372.680  0.500  0.159910  43.2816  36.8854  8.794876
  13376.292  13376.280  0.500  0.159399  43.2424  36.8709  8.800047
  13379.901  13379.890  0.500  0.158736  43.1988  36.8582  8.805065
  13383.512  13383.520  0.500  0.158347  43.1721  36.8497  8.813982
  13387.211  13387.180  0.500  0.157571  43.13  36.8424  8.819512
  13390.881  13390.850  0.500  0.157015  43.0919  36.8302  8.822299
  13394.569  13394.540  0.500  0.156573  43.0584  36.8179  8.828586
  13398.250  13398.250  0.500  0.155863  43.0153  36.8072  8.834929
  13401.989  13401.980  0.500  0.155431  42.9817  36.7943  8.839971
  13405.730  13405.720  0.500  0.154724  42.928  36.7744  8.841313
  13409.505  13409.490  0.500  0.154154  43.099  36.9419  8.890305
  13413.281  13413.280  0.500  0.153498  43.0559  36.9292  8.897205
  13417.107  13417.080  0.500  0.152823  43.0232  36.926  8.902543
  13420.935  13420.910  0.500  0.152182  42.976  36.9091  8.907361
  13424.773  13424.750  0.500  0.151640  42.9389  36.8973  8.913220
  13428.645  13428.610  0.500  0.151073  42.8349  36.8288  8.903879
  13432.480  13432.490  0.500  0.150363  42.8451  36.8637  8.921418
  13436.419  13436.390  0.500  0.149772  42.8048  36.8509  8.926128
  13440.329  13440.310  0.500  0.149227  42.76  36.8324  8.932283
  13444.273  13444.250  0.500  0.148592  42.7135  36.8156  8.936078
  13448.228  13448.210  0.500  0.148038  42.6714  36.7998  8.942624
  13452.216  13452.180  0.500  0.147307  42.6313  36.7921  8.949238
  13456.198  13456.180  0.500  0.146762  42.5854  36.7724  8.954785
  13460.199  13460.190  0.500  0.146048  42.5399  36.7594  8.959620
  13464.258  13464.230  0.500  0.145493  42.4929  36.7392  8.965323
  13468.327  13468.280  0.500  0.144894  42.4511  36.7251  8.971150
  13472.343  13472.350  0.500  0.144189  42.3999  36.7066  8.974745
  13476.449  13476.440  0.500  0.143489  42.3611  36.6987  8.981991
  13480.565  13480.550  0.500  0.143038  42.205  36.58  8.960493
  13484.684  13484.680  0.500  0.142271  42.2589  36.6548  8.989212
  13488.861  13488.830  0.500  0.141579  42.2658  36.6862  9.004980
  13493.001  13492.990  0.500  0.141038  42.1755  36.6276  9.000253
  13497.183  13497.180  0.500  0.140225  42.1734  36.6556  9.015470
  13501.416  13501.380  0.500  0.139632  42.1312  36.6405  9.020947
  13505.635  13505.610  0.500  0.139080  42.0843  36.62  9.027935
  13509.873  13509.850  0.500  0.138386  42.0303  36.5984  9.030472
  13514.121  13514.110  0.500  0.137812  41.9786  36.5744  9.032831
  13518.381  13518.390  0.500  0.137137  41.9286  36.5555  9.037022
  13522.698  13522.690  0.500  0.136407  41.8785  36.5385  9.041513
  13527.035  13527.010  0.500  0.135808  41.8057  36.4968  9.041171
  13531.358  13531.350  0.500  0.135022  41.7655  36.4904  9.046438
  13535.741  13535.710  0.500  0.134444  41.6709  36.4288  9.040267
  13540.134  13540.090  0.500  0.133466  41.1939  36.047  8.958908
  13544.506  13544.480  0.500  0.133117  41.68  36.4851  9.076958
  13548.936  13548.900  0.500  0.132374  41.6275  36.4662  9.081231
  13553.338  13553.330  0.500  0.131699  41.5643  36.4354  9.082207
  13557.807  13557.780  0.500  0.131027  40.8764  35.8565  8.947481
  13562.287  13562.250  0.500  0.130369  41.4943  36.4225  9.099910
  13566.730  13566.740  0.500  0.129777  41.219  36.2023  9.055419
  13571.304  13571.250  0.500  0.129075  41.3768  36.3664  9.107212
  13575.809  13575.780  0.500  0.128367  40.7328  35.8257  8.982459
  13580.341  13580.330  0.500  0.127590  41.3079  36.3598  9.124167
  13584.941  13584.900  0.500  0.126903  41.2587  36.3415  9.129522
  13589.495  13589.480  0.500  0.126197  41.1731  36.2917  9.126467
  13594.125  13594.090  0.500  0.125550  40.668  35.8697  9.029830
  13598.726  13598.710  0.500  0.124749  41.1311  36.3071  9.150543
  13603.411  13603.360  0.500  0.124127  41.0675  36.2736  9.152763
  13608.051  13608.020  0.500  0.123411  41.0181  36.2559  9.158777
  13612.718  13612.700  0.500  0.122696  40.9552  36.2262  9.161668
  13617.429  13617.400  0.500  0.121987  40.9198  36.2205  9.171715
  13622.127  13622.120  0.500  0.121228  40.8456  36.1823  9.173469
  13626.893  13626.860  0.500  0.120317  40.8247  36.1968  9.186351
  13631.655  13631.610  0.500  0.119752  40.7588  36.1587  9.186992
  13636.420  13636.390  0.500  0.119041  40.7306  36.1595  9.198778
  13641.228  13641.190  0.500  0.118233  40.6737  36.1381  9.203821
  13646.041  13646.000  0.500  0.117554  40.6214  36.1162  9.210410
  13650.865  13650.830  0.500  0.116868  40.531  36.0605  9.206726
  13655.716  13655.690  0.500  0.116106  40.5415  36.0974  9.227632
  13660.588  13660.560  0.500  0.115385  40.4928  36.08  9.234657
  13665.479  13665.450  0.500  0.114673  40.4332  36.0525  9.236898
  13670.398  13670.360  0.500  0.113840  40.3759  36.0315  9.243768
  13675.337  13675.290  0.500  0.112894  40.3177  36.0136  9.248093
  13680.239  13680.230  0.500  0.112340  40.2776  35.9977  9.259040
  13685.235  13685.200  0.500  0.111522  40.2235  35.9788  9.263370
  13690.251  13690.190  0.500  0.110960  40.1713  35.9523  9.268617
  13695.212  13695.190  0.500  0.110121  40.1153  35.9323  9.275150
  13700.252  13700.220  0.500  0.109316  40.0645  35.9157  9.280896
  13705.287  13705.260  0.500  0.108497  40.0087  35.8951  9.288403
  13710.358  13710.320  0.500  0.107772  39.9597  35.8771  9.293445
  13715.425  13715.400  0.500  0.107021  39.9143  35.8633  9.301959
  13720.562  13720.500  0.500  0.106255  39.8568  35.839  9.307175
  13725.653  13725.620  0.500  0.105461  39.8115  35.8267  9.314997
  13730.806  13730.760  0.500  0.104728  39.7618  35.8083  9.322277
  13735.979  13735.920  0.500  0.103823  39.7018  35.7866  9.327056
  13741.139  13741.100  0.500  0.103139  39.6472  35.7619  9.333358
  13746.320  13746.290  0.500  0.102354  39.5914  35.7395  9.338502
  13751.521  13751.510  0.500  0.101620  39.5273  35.7079  9.339801
  13756.793  13756.740  0.500  0.100870  39.476  35.6882  9.348128
  13762.035  13761.990  0.500  0.100084  39.4203  35.666  9.355266
  13767.281  13767.260  0.500  0.099238  39.3672  35.6481  9.360751
  13772.615  13772.550  0.500  0.098429  39.3113  35.6262  9.369478
  13777.886  13777.860  0.500  0.097732  39.2543  35.5994  9.373071
  13783.261  13783.190  0.500  0.096865  39.2034  35.5841  9.381408
  13788.590  13788.540  0.500  0.096235  39.1478  35.556  9.384831
  13793.948  13793.910  0.500  0.095318  39.085  35.5315  9.389964
  13799.344  13799.290  0.500  0.094653  39.0326  35.5076  9.398556
  13804.744  13804.700  0.500  0.093661  38.9753  35.4906  9.405089
  13810.157  13810.120  0.500  0.092872  38.9221  35.4701  9.411546
  13815.632  13815.570  0.500  0.092078  38.8324  35.4165  9.409457
  13821.079  13821.030  0.500  0.091293  38.8081  35.4221  9.421983
  13826.588  13826.510  0.500  0.090463  38.7357  35.3854  9.425454
  13832.043  13832.010  0.500  0.089604  38.693  35.3768  9.435560
  13837.628  13837.530  0.500  0.088907  38.6172  35.3321  9.437277
  13843.033  13843.070  0.500  0.087964  38.5633  35.3161  9.443893
  13848.594  13848.620  0.500  0.087295  38.5  35.2817  9.446340
  13854.192  13854.200  0.500  0.086365  38.4069  35.2291  9.446500
  13859.787  13859.800  0.500  0.085564  38.3735  35.2266  9.458762
  13865.420  13865.410  0.500  0.084716  38.3043  35.193  9.462297
  13871.065  13871.050  0.500  0.083922  38.2189  35.1424  9.462242
  13876.724  13876.700  0.500  0.083096  38.1258  35.0858  9.458139
  13882.371  13882.370  0.500  0.082226  37.9535  34.9576  9.437031
  13888.098  13888.060  0.500  0.081421  37.8229  34.8653  9.425900