File: xdidata/Pb/Pb-L1-LeadChloride.xdi
# XDI/1.0 BlueSky/1.10.0 BMM/2023-1.0-py310-tiled
# Beamline.name: BMM (06BM) -- Beamline for Materials Measurement (NIST)
# Beamline.xray_source: NSLS-II three-pole wiggler
# Beamline.collimation: paraboloid mirror, 5 nm Rh on 30 nm Pt
# Beamline.focusing: not in use
# Beamline.harmonic_rejection: flat mirror, Pt stripe, pitch = 7.0 mrad relative to beam
# Beamline.software: Bluesky 1.10.0, Ophyd 1.7.0, DataBroker 2.0.0b13, Python 3.10.8, 2023-1.0-py310-tiled
# Detector.I0: 10 cm N2
# Detector.I1: 25 cm N2
# Detector.I2: 25 cm N2
# Element.symbol: Pb
# Element.edge: L1
# Element.reference: Pb
# Element.reference_material: Pb foil
# Facility.name: NSLS-II
# Facility.energy: 3.0
# Facility.current: 399.0
# Facility.mode: top-off
# Facility.GUP: 301027
# Facility.SAF: 310583
# Facility.cycle: 2023-2
# Mono.name: Si(111)
# Mono.d_spacing: 3.13519
# Mono.encoder_resolution: 0.0000050 deg/ct
# Mono.angle_offset: 16.0754 deg
# Mono.scan_mode: pseudo channel cut
# Mono.scan_type: step
# Mono.direction: forward in energy
# Sample.name: PbCl
# Sample.prep: powder on tape
# Sample.x: 143.785 mm
# Sample.y: 114.695 mm
# Sample.SDD_position: 205.000 mm
# Scan.experimenters: Bruce Ravel
# Scan.edge_energy: 15860.8
# Scan.start_time: 2023-06-23T18:39:18
# Scan.end_time: 2023-06-23T18:47:14
# Scan.transient_id: 84941
# Scan.uid: 1954825a-70fe-498e-bb44-2ed6af995909
# Scan.plot_hint: ln(I0/It)  --  ln($5/$6)
# Column.1: energy eV
# Column.2: requested_energy eV
# Column.3: measurement_time seconds
# Column.4: xmu
# Column.5: I0 nA
# Column.6: It nA
# Column.7: Ir nA
# ///////////
# BMM standards collection
# -----------
# energy  requested_energy  measurement_time  xmu  I0  It  Ir
  15660.849  15660.800  0.500  3.174105  24.7089  1.033611  0.287655
  15670.884  15670.800  0.500  3.169728  24.5662  1.032147  0.287948
  15680.965  15680.800  0.500  3.164307  24.5724  1.038022  0.289918
  15690.908  15690.800  0.500  3.159356  24.5374  1.041688  0.291932
  15700.896  15700.800  0.500  3.154115  24.4746  1.044483  0.293001
  15710.854  15710.800  0.500  3.149175  24.3995  1.046435  0.293805
  15720.868  15720.800  0.500  3.144626  24.3524  1.049177  0.295367
  15730.927  15730.800  0.500  3.139498  24.2888  1.051813  0.296437
  15740.836  15740.800  0.500  3.134391  24.2386  1.055017  0.297687
  15750.802  15750.800  0.500  3.130432  24.1662  1.056038  0.298558
  15760.856  15760.800  0.500  3.126757  24.111  1.057505  0.299692
  15770.847  15770.800  0.500  3.122437  24.0585  1.059768  0.300468
  15780.851  15780.800  0.500  3.118671  23.9988  1.061128  0.301432
  15790.835  15790.800  0.500  3.115747  23.9422  1.061725  0.301981
  15800.842  15800.800  0.500  3.113914  23.8821  1.061004  0.301708
  15810.862  15810.800  0.500  3.112736  23.8313  1.059996  0.301505
  15820.852  15820.800  0.500  3.114138  23.8656  1.060035  0.301318
  15830.876  15830.800  0.500  3.120133  23.8012  1.050852  0.298315
  15832.807  15832.800  0.500  3.122767  23.7904  1.047614  0.297274
  15834.827  15834.800  0.500  3.125558  23.7795  1.044216  0.296115
  15836.804  15836.800  0.500  3.129774  23.7685  1.039342  0.294554
  15838.803  15838.800  0.500  3.134039  23.7575  1.034441  0.292641
  15840.791  15840.800  0.500  3.139529  23.7446  1.028217  0.290281
  15842.791  15842.800  0.500  3.146059  23.7303  1.020908  0.287613
  15844.803  15844.800  0.500  3.155998  23.7145  1.010139  0.283828
  15846.804  15846.800  0.500  3.167616  23.706  0.998115  0.279654
  15848.795  15848.800  0.500  3.183349  23.6936  0.982019  0.273685
  15850.808  15850.800  0.500  3.204496  23.6684  0.960449  0.265484
  15851.050  15851.100  0.500  3.208413  23.6627  0.956463  0.264681
  15851.358  15851.400  0.500  3.212714  23.6609  0.952287  0.262847
  15851.644  15851.700  0.500  3.216978  23.6531  0.947920  0.261682
  15851.952  15852.000  0.500  3.221203  23.6559  0.944034  0.260054
  15852.260  15852.300  0.500  3.226396  23.6544  0.939088  0.258244
  15852.568  15852.600  0.500  3.231646  23.6527  0.934105  0.256773
  15852.854  15852.900  0.500  3.236385  23.6514  0.929635  0.254780
  15853.152  15853.200  0.500  3.241606  23.6497  0.924727  0.253145
  15853.471  15853.500  0.500  3.247224  23.6511  0.919600  0.251201
  15853.757  15853.800  0.500  3.253921  23.6509  0.913456  0.249616
  15854.043  15854.100  0.500  3.259826  23.6503  0.908056  0.247563
  15854.351  15854.400  0.500  3.266626  23.6509  0.901925  0.245052
  15854.659  15854.700  0.500  3.274521  23.649  0.894759  0.242893
  15854.946  15855.000  0.500  3.281122  23.6512  0.888955  0.240488
  15855.265  15855.300  0.500  3.289907  23.6476  0.881048  0.237942
  15855.595  15855.600  0.500  3.299234  23.6449  0.872766  0.234847
  15855.859  15855.900  0.500  3.308127  23.6449  0.865040  0.232493
  15856.168  15856.200  0.500  3.318137  23.6423  0.856331  0.229660
  15856.487  15856.500  0.500  3.328375  23.641  0.847560  0.226309
  15856.784  15856.800  0.500  3.338413  23.6351  0.838885  0.223215
  15857.081  15857.100  0.500  3.349583  23.6323  0.829469  0.219876
  15857.390  15857.400  0.500  3.362532  23.6298  0.818711  0.216570
  15857.698  15857.700  0.500  3.376386  23.6271  0.807355  0.212700
  15857.973  15858.000  0.500  3.388214  23.6246  0.797778  0.209218
  15858.293  15858.300  0.500  3.403025  23.6228  0.785990  0.205375
  15858.612  15858.600  0.500  3.418919  23.62  0.773503  0.201262
  15858.898  15858.900  0.500  3.432909  23.6119  0.762494  0.197630
  15859.207  15859.200  0.500  3.448589  23.6145  0.750717  0.193499
  15859.515  15859.500  0.500  3.466419  23.6126  0.737389  0.189507
  15859.780  15859.800  0.500  3.481286  23.6078  0.726361  0.185542
  15860.099  15860.100  0.500  3.498585  23.6028  0.713752  0.181296
  15860.418  15860.400  0.500  3.517528  23.6045  0.700410  0.177340
  15860.694  15860.700  0.500  3.533689  23.6026  0.689125  0.173628
  15861.013  15861.000  0.500  3.551109  23.6025  0.677221  0.169773
  15861.322  15861.300  0.500  3.569040  23.6019  0.665171  0.166229
  15861.586  15861.600  0.500  3.583333  23.6004  0.655689  0.163062
  15861.906  15861.900  0.500  3.599694  23.5983  0.644991  0.159715
  15862.203  15862.200  0.500  3.614547  23.5939  0.635362  0.156799
  15862.479  15862.500  0.500  3.627233  23.5944  0.627366  0.154293
  15862.787  15862.800  0.500  3.639203  23.59  0.619786  0.152243
  15863.085  15863.100  0.500  3.649921  23.5938  0.613278  0.149933
  15863.360  15863.400  0.500  3.657984  23.59  0.608255  0.148134
  15863.680  15863.700  0.500  3.666335  23.5894  0.603182  0.146867
  15863.977  15864.000  0.500  3.672596  23.587  0.599356  0.145777
  15864.275  15864.300  0.500  3.675524  23.5793  0.597408  0.144825
  15864.561  15864.600  0.500  3.678625  23.5821  0.595629  0.144576
  15864.870  15864.900  0.500  3.678737  23.5791  0.595488  0.144244
  15865.168  15865.200  0.500  3.677394  23.5781  0.596263  0.144173
  15865.509  15865.500  0.500  3.674638  23.5703  0.597710  0.144666
  15865.807  15865.800  0.500  3.670011  23.57  0.600473  0.145087
  15866.082  15866.100  0.500  3.664871  23.5663  0.603472  0.146093
  15866.402  15866.400  0.500  3.657331  23.5674  0.608069  0.147323
  15866.667  15866.700  0.500  3.650699  23.5638  0.612023  0.148240
  15867.008  15867.000  0.500  3.641964  23.5632  0.617376  0.150011
  15867.306  15867.300  0.500  3.631902  23.5615  0.623573  0.151418
  15867.615  15867.600  0.500  3.623709  23.5536  0.628492  0.153047
  15867.913  15867.900  0.500  3.613275  23.5562  0.635155  0.154734
  15868.199  15868.200  0.500  3.605335  23.5483  0.640004  0.156115
  15868.508  15868.500  0.500  3.594720  23.5512  0.646913  0.157959
  15868.828  15868.800  0.500  3.584716  23.5468  0.653295  0.159774
  15869.103  15869.100  0.500  3.576825  23.5437  0.658385  0.161003
  15869.401  15869.400  0.500  3.569232  23.5392  0.663275  0.162820
  15869.710  15869.700  0.500  3.560084  23.5381  0.669341  0.163984
  15869.997  15870.000  0.500  3.552848  23.5376  0.674187  0.165206
  15870.328  15870.300  0.500  3.544381  23.5271  0.679615  0.166878
  15870.614  15870.600  0.500  3.539083  23.5306  0.683326  0.168243
  15870.890  15870.900  0.500  3.533976  23.5335  0.686910  0.169179
  15871.210  15871.200  0.500  3.527273  23.5283  0.691378  0.170080
  15871.475  15871.500  0.500  3.522965  23.5268  0.694319  0.171128
  15871.806  15871.800  0.500  3.518745  23.5248  0.697194  0.171800
  15872.103  15872.100  0.500  3.514712  23.5228  0.699953  0.172742
  15872.379  15872.400  0.500  3.511618  23.5223  0.702109  0.173331
  15872.688  15872.700  0.500  3.508455  23.518  0.704204  0.174019
  15872.986  15873.000  0.500  3.506397  23.517  0.705624  0.174476
  15873.262  15873.300  0.500  3.503317  23.5103  0.707599  0.174768
  15873.615  15873.600  0.500  3.501353  23.5077  0.708913  0.175280
  15873.869  15873.900  0.500  3.499628  23.5046  0.710040  0.175420
  15874.189  15874.200  0.500  3.497983  23.5026  0.711151  0.175873
  15874.498  15874.500  0.500  3.497184  23.5006  0.711659  0.175914
  15874.763  15874.800  0.500  3.496370  23.4977  0.712151  0.175995
  15875.094  15875.100  0.500  3.495609  23.4994  0.712743  0.176127
  15875.403  15875.400  0.500  3.494900  23.4991  0.713241  0.176502
  15875.668  15875.700  0.500  3.494183  23.4966  0.713676  0.176176
  15876.010  15876.000  0.500  3.493832  23.4942  0.713851  0.176256
  15876.308  15876.300  0.500  3.494299  23.4959  0.713572  0.176333
  15876.595  15876.600  0.500  3.493464  23.4937  0.714102  0.176265
  15876.926  15876.900  0.500  3.494095  23.4871  0.713451  0.176410
  15877.202  15877.200  0.500  3.493848  23.4856  0.713581  0.176461
  15877.511  15877.500  0.500  3.494098  23.4891  0.713510  0.176015
  15877.809  15877.800  0.500  3.494106  23.4873  0.713449  0.175817
  15878.118  15878.100  0.500  3.494255  23.4814  0.713163  0.175910
  15878.416  15878.400  0.500  3.494911  23.4779  0.712588  0.175606
  15878.725  15878.700  0.500  3.494672  23.474  0.712641  0.175679
  15879.023  15879.000  0.500  3.495466  23.4722  0.712021  0.175454
  15879.311  15879.300  0.500  3.495299  23.4728  0.712156  0.175215
  15879.631  15879.600  0.500  3.495948  23.475  0.711763  0.175367
  15879.896  15879.900  0.500  3.496603  23.4719  0.711203  0.175362
  15880.194  15880.200  0.500  3.496685  23.4733  0.711187  0.175457
  15880.514  15880.500  0.500  3.496852  23.4686  0.710926  0.174866
  15880.801  15880.800  0.500  3.497090  23.4707  0.710818  0.175245
  15881.077  15881.100  0.500  3.496972  23.4687  0.710842  0.174943
  15881.409  15881.400  0.500  3.497515  23.4673  0.710416  0.174695
  15881.685  15881.700  0.500  3.497535  23.4632  0.710276  0.175176
  15881.961  15882.000  0.500  3.498008  23.4625  0.709920  0.174882
  15882.303  15882.300  0.500  3.497658  23.4596  0.710080  0.175137
  15882.580  15882.600  0.500  3.498057  23.4567  0.709710  0.174975
  15882.878  15882.900  0.500  3.497424  23.4544  0.710088  0.175195
  15883.187  15883.200  0.500  3.497784  23.4492  0.709674  0.175081
  15883.474  15883.500  0.500  3.497475  23.4524  0.709992  0.175158
  15883.773  15883.800  0.500  3.497474  23.4499  0.709918  0.175168
  15884.115  15884.100  0.500  3.497241  23.4429  0.709870  0.175465
  15884.403  15884.400  0.500  3.496887  23.445  0.710184  0.175240
  15884.690  15884.700  0.500  3.497440  23.4415  0.709687  0.175409
  15884.999  15885.000  0.500  3.497014  23.441  0.709973  0.175625
  15885.298  15885.300  0.500  3.496444  23.4382  0.710294  0.175758
  15885.574  15885.600  0.500  3.496516  23.4383  0.710246  0.175737
  15885.795  15885.800  0.500  3.495894  23.4364  0.710630  0.175986
  15886.823  15886.790  0.500  3.495332  23.4235  0.710637  0.176092
  15887.828  15887.790  0.500  3.495116  23.4201  0.710688  0.176436
  15888.845  15888.810  0.500  3.494923  23.4198  0.710817  0.176609
  15889.896  15889.860  0.500  3.494535  23.4116  0.710843  0.176407
  15890.946  15890.920  0.500  3.494603  23.408  0.710686  0.176615
  15892.019  15892.000  0.500  3.495317  23.4003  0.709945  0.176494
  15893.092  15893.100  0.500  3.496708  23.3915  0.708692  0.176084
  15894.209  15894.220  0.500  3.498291  23.3849  0.707371  0.175696
  15895.404  15895.360  0.500  3.499958  23.376  0.705923  0.175142
  15896.522  15896.510  0.500  3.502219  23.3709  0.704177  0.174668
  15897.706  15897.690  0.500  3.504118  23.3612  0.702548  0.173989
  15898.912  15898.880  0.500  3.505314  23.3564  0.701563  0.173636
  15900.152  15900.100  0.500  3.505520  23.3494  0.701211  0.173267
  15901.337  15901.330  0.500  3.505852  23.3351  0.700546  0.173181
  15902.577  15902.580  0.500  3.505260  23.3295  0.700795  0.173318
  15903.851  15903.850  0.500  3.503725  23.3211  0.701618  0.173367
  15905.136  15905.140  0.500  3.501915  23.3139  0.702673  0.173586
  15906.443  15906.450  0.500  3.499553  23.3022  0.703979  0.174246
  15907.806  15907.780  0.500  3.497166  23.2893  0.705270  0.174705
  15909.147  15909.130  0.500  3.494129  23.2746  0.706971  0.175188
  15910.533  15910.500  0.500  3.492315  23.2135  0.706396  0.175432
  15911.896  15911.880  0.500  3.489111  23.0567  0.703873  0.174983
  15913.293  15913.290  0.500  3.486178  23.0882  0.706907  0.175738
  15914.702  15914.710  0.500  3.483537  23.2247  0.712966  0.177643
  15916.144  15916.150  0.500  3.480967  23.2633  0.715990  0.178287
  15917.631  15917.610  0.500  3.479038  23.2541  0.717087  0.178644
  15919.106  15919.090  0.500  3.477461  23.2446  0.717925  0.179015
  15920.627  15920.590  0.500  3.476137  23.2327  0.718511  0.178945
  15922.137  15922.110  0.500  3.475904  23.2211  0.718317  0.179058
  15923.669  15923.650  0.500  3.475561  23.2184  0.718482  0.178995
  15925.213  15925.210  0.500  3.476174  23.2097  0.717773  0.178813
  15926.768  15926.780  0.500  3.475740  23.1951  0.717630  0.178495
  15928.390  15928.380  0.500  3.476726  23.1804  0.716469  0.178576
  15929.990  15929.990  0.500  3.477220  23.1723  0.715866  0.178506
  15931.624  15931.630  0.500  3.478445  23.1603  0.714618  0.177803
  15933.302  15933.280  0.500  3.478860  23.1512  0.714042  0.177677
  15934.948  15934.950  0.500  3.479666  23.1412  0.713158  0.177936
  15936.660  15936.640  0.500  3.480457  23.1325  0.712327  0.177741
  15938.351  15938.350  0.500  3.479878  23.1177  0.712283  0.177702
  15940.054  15940.080  0.500  3.479644  23.105  0.712059  0.177901
  15941.856  15941.830  0.500  3.478582  23.0978  0.712594  0.178284
  15943.615  15943.590  0.500  3.477623  23.084  0.712851  0.178499
  15945.408  15945.380  0.500  3.475366  23.0685  0.713983  0.178426
  15947.234  15947.180  0.500  3.474297  23.0444  0.713999  0.178922
  15949.005  15949.010  0.500  3.472458  22.9139  0.711261  0.178241
  15950.843  15950.850  0.500  3.470576  22.8439  0.710424  0.178084
  15952.660  15952.710  0.500  3.467915  23.0042  0.717315  0.179951
  15954.588  15954.590  0.500  3.465604  23.0268  0.719682  0.180410
  15956.505  15956.490  0.500  3.463608  23.0129  0.720685  0.180654
  15958.424  15958.410  0.500  3.461519  22.9978  0.721718  0.181006
  15960.331  15960.350  0.500  3.459337  22.9881  0.722990  0.181429
  15962.295  15962.310  0.500  3.456983  22.9744  0.724262  0.181700
  15964.236  15964.280  0.500  3.456068  22.97  0.724785  0.182137
  15966.302  15966.280  0.500  3.454256  23.036  0.728187  0.182871
  15968.244  15968.290  0.500  3.452778  23.0237  0.728873  0.182932
  15970.344  15970.320  0.500  3.452107  23.0159  0.729115  0.183447
  15972.321  15972.380  0.500  3.450441  22.9976  0.729751  0.183584
  15974.422  15974.450  0.500  3.450508  22.9908  0.729487  0.183520
  15976.512  15976.540  0.500  3.449503  22.9746  0.729705  0.183875
  15978.648  15978.650  0.500  3.448675  22.9578  0.729776  0.183859
  15980.761  15980.780  0.500  3.447925  22.9383  0.729705  0.183886
  15982.875  15982.920  0.500  3.447220  22.9148  0.729471  0.183837
  15985.684  15985.090  0.500  3.446406  22.7219  0.723919  0.182863
  15987.173  15987.280  0.500  3.444721  22.7694  0.726654  0.183369
  15989.792  15989.480  0.500  3.443855  22.8933  0.731243  0.184609
  15991.674  15991.700  0.500  3.442955  22.8828  0.731565  0.185032
  15993.824  15993.950  0.500  3.441794  22.8746  0.732154  0.185028
  15996.189  15996.210  0.500  3.439711  22.8579  0.733145  0.185098
  15998.486  15998.490  0.500  3.439782  22.8427  0.732604  0.185388
  16000.796  16000.790  0.500  3.437827  22.831  0.733661  0.185845
  16003.106  16003.110  0.500  3.436821  22.8181  0.733986  0.186024
  16005.428  16005.450  0.500  3.434050  22.8013  0.735480  0.186513
  16007.773  16007.800  0.500  3.431970  22.7914  0.736692  0.186512
  16010.130  16010.180  0.500  3.430587  22.7737  0.737139  0.186841
  16012.555  16012.570  0.500  3.429409  22.7642  0.737698  0.187231
  16015.004  16014.990  0.500  3.427616  22.7447  0.738388  0.187777
  16017.431  16017.420  0.500  3.425219  22.7284  0.739629  0.187971
  16019.880  16019.870  0.500  3.423560  22.712  0.740325  0.188178
  16022.365  16022.350  0.500  3.422055  22.679  0.740363  0.188508
  16024.850  16024.840  0.500  3.420109  22.4646  0.734791  0.186957
  16027.325  16027.350  0.500  3.418947  22.58  0.739425  0.188111
  16029.845  16029.870  0.500  3.417471  22.6172  0.741736  0.188961
  16032.423  16032.420  0.500  3.416036  22.6387  0.743508  0.189676
  16035.012  16034.990  0.500  3.413358  22.6438  0.745670  0.189974
  16037.580  16037.570  0.500  3.413147  22.6283  0.745318  0.190396
  16040.183  16040.180  0.500  3.411005  22.611  0.746346  0.190460
  16042.831  16042.800  0.500  3.409974  22.5924  0.746499  0.190621
  16045.436  16045.450  0.500  3.408745  22.5824  0.747087  0.190957
  16048.109  16048.110  0.500  3.407439  22.5656  0.747507  0.191321
  16050.771  16050.790  0.500  3.406315  22.5533  0.747938  0.191292
  16053.468  16053.490  0.500  3.404251  22.5353  0.748886  0.191596
  16056.212  16056.210  0.500  3.403642  22.5208  0.748861  0.191786
  16058.956  16058.950  0.500  3.401263  22.5026  0.750037  0.192302
  16061.701  16061.700  0.500  3.400407  22.4885  0.750208  0.192195
  16064.526  16064.480  0.500  3.399043  22.4709  0.750647  0.192862
  16067.262  16067.270  0.500  3.397495  22.4576  0.751364  0.192934
  16070.078  16070.090  0.500  3.395931  22.4365  0.751834  0.193071
  16072.884  16072.920  0.500  3.394910  22.4206  0.752066  0.193423
  16075.781  16075.770  0.500  3.392452  22.3661  0.752085  0.193546
  16078.679  16078.650  0.500  3.391110  22.3585  0.752838  0.193742
  16081.556  16081.540  0.500  3.388895  22.3724  0.754977  0.194454
  16084.479  16084.450  0.500  3.388116  22.3615  0.755197  0.194796
  16087.380  16087.370  0.500  3.385993  22.3401  0.756080  0.195085
  16090.316  16090.320  0.500  3.383871  22.322  0.757070  0.195134
  16093.277  16093.290  0.500  3.382263  22.3075  0.757795  0.195560
  16096.272  16096.270  0.500  3.380369  22.2891  0.758606  0.196067
  16099.257  16099.280  0.500  3.378104  22.2573  0.759244  0.196091
  16102.323  16102.300  0.500  3.375974  22.2384  0.760216  0.196555
  16105.355  16105.350  0.500  3.374243  22.2354  0.761429  0.196881
  16108.435  16108.410  0.500  3.372574  22.2227  0.762266  0.197462
  16111.504  16111.490  0.500  3.371233  22.2049  0.762676  0.197632
  16114.563  16114.590  0.500  3.369084  22.1806  0.763481  0.197763
  16117.703  16117.710  0.500  3.366811  22.168  0.764785  0.198150
  16120.833  16120.850  0.500  3.365474  22.1406  0.764862  0.198573
  16124.032  16124.000  0.500  3.363474  22.0735  0.764070  0.198460
  16127.198  16127.180  0.500  3.362232  22.1143  0.766434  0.199193
  16130.366  16130.370  0.500  3.360385  22.0941  0.767148  0.199513
  16133.592  16133.590  0.500  3.358056  22.0711  0.768136  0.200039
  16136.819  16136.820  0.500  3.356703  22.0622  0.768868  0.200457
  16140.093  16140.070  0.500  3.353813  22.0434  0.770435  0.200728
  16143.369  16143.350  0.500  3.352351  22.0065  0.770269  0.200885
  16146.646  16146.640  0.500  3.350410  21.9735  0.770611  0.201307
  16149.924  16149.950  0.500  3.348591  21.9894  0.772572  0.201812
  16153.260  16153.270  0.500  3.346902  21.9655  0.773035  0.202106
  16156.656  16156.620  0.500  3.344243  21.9451  0.774376  0.202504
  16160.006  16159.990  0.500  3.343162  21.9309  0.774712  0.202834
  16163.370  16163.370  0.500  3.340553  21.9133  0.776110  0.203127
  16166.758  16166.780  0.500  3.338681  21.8913  0.776784  0.203681
  16170.205  16170.200  0.500  3.336397  21.8723  0.777886  0.203968
  16173.687  16173.650  0.500  3.334317  21.7977  0.776847  0.203776
  16177.126  16177.110  0.500  3.332360  21.8244  0.779321  0.204496
  16180.600  16180.590  0.500  3.330698  21.8134  0.780225  0.204962
  16184.075  16184.090  0.500  3.328660  21.798  0.781264  0.205534
  16187.610  16187.610  0.500  3.326231  21.7764  0.782388  0.206084
  16191.146  16191.150  0.500  3.324676  21.7523  0.782740  0.206260
  16194.707  16194.700  0.500  3.322099  21.7361  0.784175  0.206642
  16198.315  16198.280  0.500  3.320445  21.7089  0.784487  0.206900
  16201.879  16201.880  0.500  3.318484  21.6909  0.785379  0.207438
  16205.478  16205.490  0.500  3.315834  21.6791  0.787031  0.207648
  16209.114  16209.120  0.500  3.314135  21.6543  0.787470  0.208121
  16212.787  16212.780  0.500  3.311324  21.6352  0.788990  0.208894
  16216.449  16216.450  0.500  3.309506  21.6191  0.789838  0.209191
  16220.136  16220.140  0.500  3.307616  21.5952  0.790457  0.209510
  16223.859  16223.850  0.500  3.305342  21.5748  0.791506  0.209810
  16227.585  16227.580  0.500  3.302739  21.5506  0.792681  0.210315
  16231.358  16231.320  0.500  3.301538  21.5229  0.792611  0.210434
  16235.063  16235.090  0.500  3.298300  21.4701  0.793232  0.210620
  16238.886  16238.880  0.500  3.296499  21.476  0.794882  0.211649
  16242.710  16242.680  0.500  3.294546  21.4634  0.795967  0.212068
  16246.525  16246.510  0.500  3.292083  21.4434  0.797188  0.212478
  16250.376  16250.350  0.500  3.289579  21.4265  0.798556  0.213001
  16254.195  16254.210  0.500  3.287863  21.3737  0.797957  0.213020
  16258.107  16258.090  0.500  3.285306  21.3731  0.799975  0.213708
  16262.011  16261.990  0.500  3.283158  21.3626  0.801304  0.214286
  16265.939  16265.910  0.500  3.281057  21.3409  0.802174  0.214323
  16269.846  16269.850  0.500  3.278432  21.3156  0.803329  0.214915
  16273.789  16273.810  0.500  3.276621  21.292  0.803892  0.215539
  16277.816  16277.780  0.500  3.274155  21.2662  0.804900  0.215983
  16281.775  16281.780  0.500  3.271828  21.2471  0.806050  0.216221
  16285.818  16285.790  0.500  3.269378  21.225  0.807188  0.216538
  16289.815  16289.830  0.500  3.267473  21.1974  0.807677  0.217125
  16293.920  16293.880  0.500  3.264359  21.1777  0.809443  0.217462
  16297.969  16297.950  0.500  3.262106  21.16  0.810589  0.217885
  16302.066  16302.040  0.500  3.260068  21.1362  0.811328  0.218709
  16306.153  16306.150  0.500  3.257602  21.0632  0.810525  0.218487
  16310.289  16310.280  0.500  3.255050  21.0901  0.813632  0.219373
  16314.474  16314.430  0.500  3.252855  21.0711  0.814685  0.220096
  16318.615  16318.590  0.500  3.251284  21.0458  0.814987  0.220513
  16322.816  16322.780  0.500  3.248491  21.0231  0.816385  0.220650
  16326.949  16326.980  0.500  3.245836  21.0016  0.817718  0.221264
  16331.259  16331.210  0.500  3.243504  20.9783  0.818719  0.221870
  16335.478  16335.450  0.500  3.241519  20.955  0.819433  0.222251
  16339.735  16339.710  0.500  3.238802  20.9252  0.820494  0.222562
  16343.970  16343.990  0.500  3.237117  20.898  0.820810  0.223063
  16348.301  16348.290  0.500  3.234187  20.8868  0.822777  0.223493
  16352.646  16352.610  0.500  3.231626  20.8564  0.823687  0.223719
  16356.947  16356.950  0.500  3.229481  20.8368  0.824679  0.224285
  16361.273  16361.310  0.500  3.226381  20.8141  0.826338  0.225041
  16365.719  16365.690  0.500  3.224437  20.7883  0.826919  0.225479
  16370.133  16370.080  0.500  3.221948  20.7431  0.827180  0.225810
  16374.536  16374.500  0.500  3.219101  20.6711  0.826657  0.226107
  16378.954  16378.930  0.500  3.217076  20.7189  0.830250  0.227142
  16383.387  16383.380  0.500  3.214710  20.6913  0.831107  0.227487
  16387.915  16387.850  0.500  3.211961  20.6671  0.832422  0.228178
  16392.376  16392.340  0.500  3.209630  20.637  0.833146  0.228794
  16396.827  16396.850  0.500  3.206691  20.5984  0.834037  0.229125
  16401.387  16401.380  0.500  3.204044  20.5696  0.835077  0.229261
  16405.961  16405.930  0.500  3.201526  20.5618  0.836866  0.230396
  16410.538  16410.500  0.500  3.198870  20.5405  0.838224  0.230824
  16415.082  16415.080  0.500  3.196710  20.5167  0.839063  0.231036
  16419.735  16419.690  0.500  3.194344  20.4729  0.839253  0.231553
  16424.354  16424.310  0.500  3.191911  20.4593  0.840738  0.232039
  16428.977  16428.960  0.500  3.188839  20.4356  0.842348  0.232814
  16433.626  16433.620  0.500  3.186552  20.4109  0.843256  0.233049
  16438.325  16438.300  0.500  3.184187  20.3636  0.843295  0.233559
  16443.050  16443.000  0.500  3.181253  20.3196  0.843946  0.233478
  16447.719  16447.720  0.500  3.178736  20.3291  0.846467  0.234551
  16452.473  16452.460  0.500  3.176492  20.313  0.847696  0.235357
  16457.266  16457.210  0.500  3.173401  20.273  0.848648  0.235431
  16462.026  16461.990  0.500  3.171286  20.2426  0.849169  0.235992
  16466.800  16466.790  0.500  3.168223  20.2295  0.851222  0.236622
  16471.613  16471.600  0.500  3.164800  20.2099  0.853312  0.237636
  16476.477  16476.430  0.500  3.162905  20.1779  0.853580  0.237862
  16481.296  16481.290  0.500  3.160098  20.1567  0.855081  0.238656
  16486.177  16486.160  0.500  3.157296  20.1344  0.856528  0.239104
  16491.061  16491.050  0.500  3.154353  20.0993  0.857556  0.239622
  16496.031  16495.960  0.500  3.152120  20.1525  0.861748  0.241094
  16500.909  16500.890  0.500  3.149459  20.1273  0.862964  0.241614
  16505.862  16505.830  0.500  3.145999  20.0954  0.864584  0.242004
  16510.829  16510.800  0.500  3.143556  20.0741  0.865777  0.242752
  16515.824  16515.790  0.500  3.141111  20.0455  0.866661  0.243240
  16520.761  16520.790  0.500  3.138048  20.0194  0.868189  0.244108
  16525.858  16525.820  0.500  3.135905  19.9843  0.868525  0.244367
  16530.909  16530.860  0.500  3.133338  19.9587  0.869643  0.244952
  16535.928  16535.920  0.500  3.130603  19.9349  0.870986  0.245432
  16540.997  16541.000  0.500  3.127079  19.9089  0.872918  0.246121
  16546.142  16546.100  0.500  3.124375  19.844  0.872431  0.246198
  16551.266  16551.220  0.500  3.122123  19.8528  0.874784  0.247255
  16556.381  16556.360  0.500  3.119489  19.8151  0.875425  0.247690
  16561.584  16561.520  0.500  3.116417  19.7826  0.876681  0.248086
  16566.753  16566.700  0.500  3.113755  19.7665  0.878303  0.248885
  16571.926  16571.890  0.500  3.110965  19.7431  0.879710  0.249562
  16577.115  16577.110  0.500  3.108160  19.7154  0.880944  0.250318
  16582.354  16582.340  0.500  3.105196  19.6778  0.881873  0.250737
  16587.634  16587.590  0.500  3.102490  19.6573  0.883344  0.251536
  16592.856  16592.860  0.500  3.099643  19.6214  0.884244  0.251999
  16598.166  16598.150  0.500  3.096854  19.5962  0.885576  0.252600
  16603.516  16603.460  0.500  3.094118  19.5649  0.886582  0.253166
  16608.833  16608.790  0.500  3.091393  19.5392  0.887834  0.253627
  16614.177  16614.140  0.500  3.087947  19.5018  0.889192  0.254210
  16619.586  16619.510  0.500  3.085946  19.4738  0.889695  0.254839
  16624.925  16624.890  0.500  3.082857  19.4547  0.891574  0.255716
  16630.293  16630.300  0.500  3.079463  19.423  0.893145  0.256203
  16635.760  16635.720  0.500  3.076661  19.3888  0.894074  0.256630
  16641.244  16641.170  0.500  3.073984  19.36  0.895140  0.257201
  16646.670  16646.630  0.500  3.070914  19.332  0.896595  0.257930
  16652.124  16652.110  0.500  3.068635  19.2968  0.897005  0.258327
  16657.643  16657.610  0.500  3.065360  19.272  0.898789  0.259249
  16663.214  16663.130  0.500  3.062215  19.237  0.899983  0.259810
  16668.667  16668.670  0.500  3.059638  19.2066  0.900878  0.260043
  16674.270  16674.220  0.500  3.056540  19.1719  0.902041  0.260750
  16679.852  16679.800  0.500  3.054122  19.1366  0.902561  0.261519
  16685.426  16685.400  0.500  3.050501  19.1  0.904103  0.261728
  16691.028  16691.010  0.500  3.047643  19.0553  0.904566  0.262224
  16696.719  16696.650  0.500  3.044769  19.0011  0.904590  0.262641
  16702.365  16702.300  0.500  3.041897  18.9444  0.904488  0.262857
  16707.978  16707.970  0.500  3.038642  18.8253  0.901731  0.262317
  16713.706  16713.660  0.500  3.035792  18.199  0.874219  0.254277