File: xdidata/Pb/Pb-L3-Cerrusite.xdi
# XDI/1.0 BlueSky/1.10.0 BMM/2023-1.0-py310-tiled
# Beamline.name: BMM (06BM) -- Beamline for Materials Measurement (NIST)
# Beamline.xray_source: NSLS-II three-pole wiggler
# Beamline.collimation: paraboloid mirror, 5 nm Rh on 30 nm Pt
# Beamline.focusing: not in use
# Beamline.harmonic_rejection: flat mirror, Pt stripe, pitch = 7.0 mrad relative to beam
# Beamline.software: Bluesky 1.10.0, Ophyd 1.7.0, DataBroker 2.0.0b13, Python 3.10.8, 2023-1.0-py310-tiled
# Detector.I0: 10 cm N2
# Detector.I1: 25 cm N2
# Detector.I2: 25 cm N2
# Element.symbol: Pb
# Element.edge: L3
# Element.reference: Pb
# Element.reference_material: Pb foil
# Facility.name: NSLS-II
# Facility.energy: 3.0
# Facility.current: 399.7
# Facility.mode: top-off
# Facility.GUP: 301027
# Facility.SAF: 310583
# Facility.cycle: 2023-2
# Mono.name: Si(111)
# Mono.d_spacing: 3.13519
# Mono.encoder_resolution: 0.0000050 deg/ct
# Mono.angle_offset: 16.0754 deg
# Mono.scan_mode: pseudo channel cut
# Mono.scan_type: step
# Mono.direction: forward in energy
# Sample.name: PbCO3
# Sample.prep: powder on tape
# Sample.x: 143.785 mm
# Sample.y: 114.695 mm
# Sample.SDD_position: 205.000 mm
# Scan.experimenters: Bruce Ravel
# Scan.edge_energy: 13035.2
# Scan.start_time: 2023-06-23T17:15:48
# Scan.end_time: 2023-06-23T17:23:38
# Scan.transient_id: 84892
# Scan.uid: aaba488b-4abf-4de7-b656-7c3376169d93
# Scan.plot_hint: ln(I0/It)  --  ln($5/$6)
# Column.1: energy eV
# Column.2: requested_energy eV
# Column.3: measurement_time seconds
# Column.4: xmu
# Column.5: I0 nA
# Column.6: It nA
# Column.7: Ir nA
# ///////////
# BMM standards collection
# -----------
# energy  requested_energy  measurement_time  xmu  I0  It  Ir
  12835.168  12835.200  0.500  -0.080059  49.9743  54.1398  24.2091
  12845.212  12845.200  0.500  -0.081476  49.8683  54.1015  24.2301
  12855.236  12855.200  0.500  -0.082620  49.7461  54.0306  24.2421
  12865.225  12865.200  0.500  -0.083959  49.6438  53.9918  24.2639
  12875.244  12875.200  0.500  -0.085246  49.4807  53.8838  24.2585
  12885.236  12885.200  0.500  -0.086533  49.414  53.8804  24.2984
  12895.258  12895.200  0.500  -0.087813  49.2947  53.8192  24.3099
  12905.266  12905.200  0.500  -0.089155  49.1731  53.7585  24.3188
  12915.298  12915.200  0.500  -0.090382  48.5646  53.1585  24.0825
  12925.207  12925.200  0.500  -0.091621  48.9212  53.6152  24.3343
  12935.241  12935.200  0.500  -0.092755  48.8289  53.5747  24.3467
  12945.254  12945.200  0.500  -0.094052  48.6826  53.4835  24.3395
  12955.261  12955.200  0.500  -0.095182  48.3623  53.1917  24.2378
  12965.268  12965.200  0.500  -0.096143  48.5001  53.3946  24.3583
  12975.255  12975.200  0.500  -0.097138  48.3471  53.2791  24.3205
  12985.250  12985.200  0.500  -0.097969  48.2661  53.2341  24.3146
  12995.253  12995.200  0.500  -0.098577  48.1427  53.1302  24.2579
  13005.265  13005.200  0.500  -0.098634  48.0449  53.0253  24.173
  13007.205  13007.200  0.500  -0.098612  48.0197  52.9964  24.142
  13009.206  13009.200  0.500  -0.098426  47.9987  52.9633  24.1091
  13011.199  13011.200  0.500  -0.098229  47.9717  52.9232  24.0674
  13013.171  13013.200  0.500  -0.098042  47.9484  52.8875  24.0238
  13015.188  13015.200  0.500  -0.097680  47.9228  52.8401  23.9676
  13017.199  13017.200  0.500  -0.097202  47.9019  52.7919  23.9022
  13019.224  13019.200  0.500  -0.096762  47.8715  52.7352  23.8235
  13021.191  13021.200  0.500  -0.096114  47.8487  52.6759  23.7343
  13023.181  13023.200  0.500  -0.095269  47.8264  52.6068  23.6169
  13025.194  13025.200  0.500  -0.094034  47.8043  52.5176  23.4588
  13025.468  13025.500  0.500  -0.093851  47.7994  52.5026  23.4341
  13025.764  13025.800  0.500  -0.093720  47.7957  52.4917  23.4068
  13026.052  13026.100  0.500  -0.093504  47.7896  52.4736  23.378
  13026.378  13026.400  0.500  -0.093202  47.7885  52.4566  23.3449
  13026.652  13026.700  0.500  -0.092946  47.783  52.4371  23.3129
  13026.970  13027.000  0.500  -0.092664  47.7803  52.4194  23.2799
  13027.266  13027.300  0.500  -0.092598  47.7679  52.4024  23.2439
  13027.563  13027.600  0.500  -0.092168  47.7674  52.3793  23.2074
  13027.866  13027.900  0.500  -0.091985  47.9028  52.5181  23.2345
  13028.162  13028.200  0.500  -0.091632  47.9001  52.4967  23.1977
  13028.466  13028.500  0.500  -0.091319  47.8965  52.4763  23.155
  13028.755  13028.800  0.500  -0.091071  47.8904  52.4565  23.1074
  13029.058  13029.100  0.500  -0.090761  47.8859  52.4354  23.0598
  13029.369  13029.400  0.500  -0.090333  47.8843  52.4113  23.0095
  13029.658  13029.700  0.500  -0.089878  47.8803  52.383  22.9551
  13029.969  13030.000  0.500  -0.089494  47.8771  52.3594  22.8962
  13030.243  13030.300  0.500  -0.089245  47.8679  52.3363  22.8362
  13030.569  13030.600  0.500  -0.088735  47.8649  52.3063  22.7676
  13030.865  13030.900  0.500  -0.088213  47.861  52.2748  22.696
  13031.177  13031.200  0.500  -0.087783  47.8568  52.2477  22.6166
  13031.480  13031.500  0.500  -0.087191  47.8529  52.2125  22.5308
  13031.769  13031.800  0.500  -0.086615  47.8467  52.1757  22.4455
  13032.088  13032.100  0.500  -0.086047  47.8418  52.1408  22.3423
  13032.384  13032.400  0.500  -0.085278  47.8421  52.101  22.2392
  13032.703  13032.700  0.500  -0.084677  47.8306  52.0571  22.1225
  13032.992  13033.000  0.500  -0.083844  47.8293  52.0124  22.0035
  13033.318  13033.300  0.500  -0.083163  47.824  51.9712  21.8692
  13033.592  13033.600  0.500  -0.082377  47.8216  51.9278  21.7355
  13033.903  13033.900  0.500  -0.081475  47.8171  51.8761  21.5844
  13034.177  13034.200  0.500  -0.080639  47.8119  51.8271  21.43
  13034.503  13034.500  0.500  -0.079510  47.8119  51.7686  21.255
  13034.778  13034.800  0.500  -0.078651  47.8058  51.7176  21.0904
  13035.096  13035.100  0.500  -0.077385  47.802  51.648  20.8995
  13035.385  13035.400  0.500  -0.076279  47.7982  51.5869  20.7221
  13035.689  13035.700  0.500  -0.074910  47.7966  51.5146  20.519
  13035.971  13036.000  0.500  -0.073686  47.7895  51.4439  20.3258
  13036.290  13036.300  0.500  -0.072311  47.781  51.3641  20.109
  13036.572  13036.600  0.500  -0.070883  47.7794  51.2891  19.9078
  13036.876  13036.900  0.500  -0.068952  47.7794  51.1901  19.6817
  13037.180  13037.200  0.500  -0.067212  47.7749  51.0963  19.4614
  13037.476  13037.500  0.500  -0.065355  47.7697  50.9959  19.2436
  13037.802  13037.800  0.500  -0.063038  47.7653  50.8733  18.9975
  13038.084  13038.100  0.500  -0.060963  47.7633  50.7657  18.7864
  13038.418  13038.400  0.500  -0.058400  47.7564  50.6284  18.5337
  13038.692  13038.700  0.500  -0.055990  47.7509  50.5008  18.3081
  13039.004  13039.000  0.500  -0.053164  47.7456  50.3527  18.0565
  13039.301  13039.300  0.500  -0.050281  47.7427  50.2047  17.8194
  13039.590  13039.600  0.500  -0.047399  47.735  50.0521  17.5759
  13039.909  13039.900  0.500  -0.043727  47.7341  49.8677  17.295
  13040.198  13040.200  0.500  -0.040252  47.7333  49.6939  17.0337
  13040.517  13040.500  0.500  -0.036325  47.7293  49.495  16.7433
  13040.799  13040.800  0.500  -0.032469  47.7207  49.2955  16.4659
  13041.096  13041.100  0.500  -0.028069  47.7176  49.076  16.1653
  13041.385  13041.400  0.500  -0.023701  47.7131  48.8575  15.8768
  13041.682  13041.700  0.500  -0.018852  47.7106  48.6185  15.5755
  13041.993  13042.000  0.500  -0.013451  47.7033  48.3493  15.2529
  13042.283  13042.300  0.500  -0.007958  47.7027  48.0839  14.9487
  13042.595  13042.600  0.500  -0.001711  47.6943  47.776  14.6176
  13042.877  13042.900  0.500  0.004472  47.6945  47.4817  14.3158
  13043.203  13043.200  0.500  0.011927  47.6888  47.1234  13.9798
  13043.485  13043.500  0.500  0.019139  47.6849  46.7809  13.6785
  13043.797  13043.800  0.500  0.027152  47.6754  46.3984  13.3566
  13044.101  13044.100  0.500  0.035573  47.6746  46.0085  13.0551
  13044.398  13044.400  0.500  0.044199  47.671  45.6099  12.7593
  13044.717  13044.700  0.500  0.053271  47.6666  45.1938  12.466
  13044.999  13045.000  0.500  0.061738  47.6588  44.8054  12.2085
  13045.319  13045.300  0.500  0.071708  47.6576  44.3598  11.9219
  13045.601  13045.600  0.500  0.080266  47.649  43.9739  11.6857
  13045.905  13045.900  0.500  0.089363  47.6481  43.5748  11.4422
  13046.202  13046.200  0.500  0.098161  47.6408  43.1865  11.2111
  13046.506  13046.500  0.500  0.106536  47.6386  42.8244  11.0047
  13046.804  13046.800  0.500  0.114388  47.6296  42.4814  10.8128
  13047.093  13047.100  0.500  0.122097  47.6257  42.1518  10.6334
  13047.398  13047.400  0.500  0.129955  47.6133  41.8109  10.4533
  13047.687  13047.700  0.500  0.136838  47.5956  41.5086  10.3
  13047.984  13048.000  0.500  0.143851  47.5774  41.2029  10.1509
  13048.274  13048.300  0.500  0.150109  47.5571  40.9283  10.0229
  13048.578  13048.600  0.500  0.156606  47.54  40.6486  9.899073
  13048.890  13048.900  0.500  0.162737  47.5263  40.3885  9.792133
  13049.188  13049.200  0.500  0.168083  47.5177  40.1659  9.704861
  13049.507  13049.500  0.500  0.173743  47.5152  39.9371  9.618685
  13049.789  13049.800  0.500  0.178458  47.5172  39.7509  9.553538
  13050.124  13050.100  0.500  0.183817  47.5299  39.549  9.488488
  13050.391  13050.400  0.500  0.187910  47.5335  39.3905  9.442276
  13050.711  13050.700  0.500  0.192493  47.5467  39.2213  9.395369
  13051.008  13051.000  0.500  0.196453  47.5561  39.074  9.359985
  13051.320  13051.300  0.500  0.200457  47.5559  38.9177  9.322744
  13051.602  13051.600  0.500  0.203982  47.5597  38.7839  9.293313
  13051.914  13051.900  0.500  0.207648  47.5566  38.6394  9.264474
  13052.204  13052.200  0.500  0.210784  47.5577  38.5193  9.241043
  13052.502  13052.500  0.500  0.213767  47.5507  38.399  9.218352
  13052.814  13052.800  0.500  0.216612  47.554  38.2925  9.198021
  13053.111  13053.100  0.500  0.218873  47.5452  38.199  9.181568
  13053.401  13053.400  0.500  0.220834  47.5411  38.1208  9.166651
  13053.691  13053.700  0.500  0.222464  47.5394  38.0574  9.154132
  13054.003  13054.000  0.500  0.223682  47.5348  38.0074  9.144004
  13054.286  13054.300  0.500  0.224404  47.5315  37.9773  9.134848
  13054.583  13054.600  0.500  0.224699  47.5258  37.9615  9.131060
  13054.880  13054.900  0.500  0.224472  47.5212  37.9665  9.127290
  13055.200  13055.200  0.500  0.224008  47.5208  37.9838  9.123816
  13055.497  13055.500  0.500  0.223060  47.5123  38.013  9.123612
  13055.795  13055.800  0.500  0.221764  47.5116  38.0618  9.124211
  13056.077  13056.100  0.500  0.220228  47.5044  38.1145  9.125264
  13056.412  13056.400  0.500  0.218164  47.4994  38.1892  9.126174
  13056.710  13056.700  0.500  0.216154  47.5018  38.268  9.126826
  13057.007  13057.000  0.500  0.213754  47.4927  38.3526  9.123875
  13057.297  13057.300  0.500  0.211464  47.4895  38.4379  9.122348
  13057.617  13057.600  0.500  0.208797  47.483  38.5353  9.116877
  13057.907  13057.900  0.500  0.206338  47.4812  38.6288  9.110918
  13058.212  13058.200  0.500  0.203758  47.4759  38.7242  9.102150
  13058.510  13058.500  0.500  0.201110  47.4738  38.8251  9.090063
  13058.815  13058.800  0.500  0.198483  47.4692  38.9234  9.075853
  13059.112  13059.100  0.500  0.195838  47.4655  39.0235  9.059439
  13059.410  13059.400  0.500  0.193445  47.4616  39.1139  9.040563
  13059.707  13059.700  0.500  0.191016  47.4579  39.2059  9.021748
  13059.990  13060.000  0.500  0.188701  47.4533  39.293  9.001656
  13060.198  13060.200  0.500  0.187019  47.4509  39.3571  8.986497
  13061.181  13061.190  0.500  0.179894  47.4329  39.6235  8.918898
  13062.215  13062.190  0.500  0.173327  47.4218  39.8752  8.873949
  13063.220  13063.210  0.500  0.167725  47.411  40.0901  8.864561
  13064.278  13064.260  0.500  0.162857  47.3956  40.2726  8.889981
  13065.357  13065.320  0.500  0.159256  47.3873  40.4109  8.939672
  13066.430  13066.400  0.500  0.156810  47.3794  40.5031  8.997011
  13067.510  13067.500  0.500  0.155886  47.365  40.5282  9.051207
  13068.627  13068.620  0.500  0.156948  47.352  40.474  9.091478
  13069.760  13069.760  0.500  0.159831  47.3334  40.3417  9.106304
  13070.938  13070.910  0.500  0.164378  47.2898  40.1216  9.078906
  13072.100  13072.090  0.500  0.169796  47.2347  39.8584  9.025208
  13073.316  13073.280  0.500  0.175394  47.2401  39.6404  8.972579
  13074.501  13074.500  0.500  0.180645  47.2701  39.4578  8.925589
  13075.739  13075.730  0.500  0.185074  47.2572  39.2727  8.880064
  13076.970  13076.980  0.500  0.188351  47.2308  39.1225  8.846664
  13078.261  13078.250  0.500  0.190550  47.2215  39.0288  8.821769
  13079.567  13079.540  0.500  0.191569  47.216  38.9845  8.802974
  13080.881  13080.850  0.500  0.192160  47.2023  38.9502  8.773173
  13082.195  13082.180  0.500  0.192941  47.1893  38.909  8.731975
  13083.546  13083.530  0.500  0.194468  47.1777  38.8402  8.677383
  13084.913  13084.900  0.500  0.196464  47.1589  38.7472  8.613558
  13086.303  13086.280  0.500  0.198667  47.1444  38.6501  8.549741
  13087.715  13087.690  0.500  0.200696  47.1248  38.5557  8.501999
  13089.112  13089.110  0.500  0.201871  47.1076  38.4964  8.478007
  13090.555  13090.550  0.500  0.201935  47.0876  38.4776  8.476973
  13092.028  13092.010  0.500  0.200715  47.0505  38.4941  8.499387
  13093.509  13093.490  0.500  0.198332  46.9845  38.5319  8.537288
  13095.020  13094.990  0.500  0.195001  46.9988  38.6722  8.597962
  13096.524  13096.510  0.500  0.191550  47.0154  38.8196  8.657855
  13098.058  13098.050  0.500  0.187900  47.0013  38.9499  8.708781
  13099.608  13099.610  0.500  0.184501  46.9811  39.0657  8.755426
  13101.195  13101.180  0.500  0.181675  46.9607  39.1592  8.794423
  13102.798  13102.780  0.500  0.179720  46.9297  39.21  8.822603
  13104.416  13104.390  0.500  0.178443  46.9151  39.2478  8.844182
  13106.034  13106.030  0.500  0.177806  46.8539  39.2216  8.844566
  13107.683  13107.680  0.500  0.177398  46.8688  39.2501  8.852806
  13109.362  13109.350  0.500  0.177492  46.8722  39.2493  8.847021
  13111.065  13111.040  0.500  0.177588  46.8523  39.2289  8.828647
  13112.767  13112.750  0.500  0.178119  46.8314  39.1906  8.803948
  13114.486  13114.480  0.500  0.178819  46.8092  39.1445  8.775173
  13116.234  13116.230  0.500  0.179666  46.7728  39.081  8.744051
  13118.013  13117.990  0.500  0.180412  46.6932  38.9854  8.709784
  13119.793  13119.780  0.500  0.180961  46.7321  38.9964  8.706131
  13121.588  13121.580  0.500  0.181437  46.723  38.9703  8.702129
  13123.406  13123.410  0.500  0.181797  46.7049  38.9412  8.705103
  13125.263  13125.250  0.500  0.181754  46.6753  38.9182  8.713628
  13127.142  13127.110  0.500  0.181877  46.6551  38.8966  8.727816
  13128.984  13128.990  0.500  0.181809  46.6433  38.8893  8.743086
  13130.857  13130.890  0.500  0.181862  46.6141  38.8629  8.754107
  13132.821  13132.810  0.500  0.182061  46.5647  38.8141  8.755099
  13134.763  13134.750  0.500  0.182360  46.5658  38.8034  8.761431
  13136.720  13136.710  0.500  0.182690  46.5504  38.7777  8.759241
  13138.693  13138.680  0.500  0.182859  46.522  38.7475  8.758843
  13140.697  13140.680  0.500  0.182929  46.5015  38.7277  8.758078
  13142.686  13142.690  0.500  0.182761  46.48  38.7163  8.757342
  13144.736  13144.720  0.500  0.182056  46.4544  38.7222  8.761985
  13146.750  13146.780  0.500  0.181156  46.4292  38.7361  8.766990
  13148.854  13148.850  0.500  0.180063  46.4078  38.7606  8.774843
  13150.944  13150.940  0.500  0.179069  46.3814  38.7771  8.782128
  13153.027  13153.050  0.500  0.177802  46.342  38.7933  8.786490
  13155.171  13155.180  0.500  0.176981  46.3343  38.8187  8.794832
  13157.301  13157.320  0.500  0.176141  46.3062  38.8277  8.798294
  13159.477  13159.490  0.500  0.175582  46.281  38.8283  8.801658
  13161.646  13161.680  0.500  0.175140  46.255  38.8237  8.804336
  13163.838  13163.880  0.500  0.174804  46.2299  38.8156  8.806656
  13166.076  13166.100  0.500  0.174461  46.199  38.803  8.809316
  13168.429  13168.350  0.500  0.173984  46.284  38.8929  8.836290
  13170.548  13170.610  0.500  0.173664  46.2897  38.9102  8.844162
  13172.948  13172.890  0.500  0.173141  46.266  38.9106  8.850433
  13175.394  13175.190  0.500  0.172843  46.2445  38.9041  8.853101
  13177.523  13177.510  0.500  0.172490  46.2089  38.8879  8.851906
  13179.910  13179.850  0.500  0.172229  46.1842  38.8772  8.855999
  13182.230  13182.200  0.500  0.171946  46.1549  38.8636  8.856968
  13184.619  13184.580  0.500  0.171701  46.1277  38.8502  8.858047
  13187.016  13186.970  0.500  0.171521  46.0982  38.8323  8.858721
  13189.429  13189.390  0.500  0.171567  46.0741  38.8103  8.859599
  13191.844  13191.820  0.500  0.171389  46.0451  38.7927  8.861162
  13194.297  13194.270  0.500  0.171173  46.017  38.7774  8.866376
  13196.782  13196.750  0.500  0.170907  45.9838  38.7597  8.867792
  13199.282  13199.240  0.500  0.170846  45.9533  38.7364  8.872475
  13201.791  13201.750  0.500  0.170605  45.925  38.7218  8.874699
  13204.302  13204.270  0.500  0.170586  45.8964  38.6985  8.876379
  13206.851  13206.820  0.500  0.170331  45.8672  38.6837  8.879090
  13209.401  13209.390  0.500  0.169992  45.8335  38.6684  8.881180
  13211.990  13211.970  0.500  0.169543  45.8012  38.6585  8.883346
  13214.604  13214.580  0.500  0.169046  45.7694  38.6509  8.886875
  13217.233  13217.200  0.500  0.168363  45.7374  38.6503  8.888371
  13219.887  13219.850  0.500  0.167649  45.703  38.6488  8.891437
  13222.541  13222.510  0.500  0.167026  45.6714  38.6461  8.894459
  13225.204  13225.190  0.500  0.166382  45.6179  38.6257  8.892230
  13227.914  13227.890  0.500  0.165851  45.5887  38.6215  8.894233
  13230.649  13230.610  0.500  0.165361  45.5718  38.6261  8.897769
  13233.384  13233.350  0.500  0.164913  45.5395  38.6161  8.898302
  13236.128  13236.100  0.500  0.164519  45.5018  38.5993  8.896587
  13238.889  13238.880  0.500  0.164202  45.4708  38.5852  8.896604
  13241.666  13241.670  0.500  0.164027  45.4336  38.5604  8.895724
  13244.497  13244.490  0.500  0.163695  45.3924  38.5382  8.897071
  13247.323  13247.320  0.500  0.163440  45.3522  38.5139  8.896667
  13250.180  13250.170  0.500  0.163156  45.3172  38.4951  8.898955
  13253.046  13253.050  0.500  0.162845  45.276  38.4721  8.900153
  13255.936  13255.940  0.500  0.162472  45.2368  38.4531  8.901989
  13258.866  13258.850  0.500  0.162005  45.1808  38.4234  8.902492
  13261.790  13261.770  0.500  0.161539  45.1296  38.3978  8.900930
  13264.746  13264.720  0.500  0.161163  45.0724  38.3635  8.899743
  13267.695  13267.690  0.500  0.160761  44.9811  38.3012  8.890146
  13270.653  13270.670  0.500  0.160414  44.8427  38.1966  8.869630
  13273.674  13273.680  0.500  0.160117  44.5394  37.9495  8.816933
  13276.705  13276.700  0.500  0.159741  44.368  37.8177  8.790854
  13279.760  13279.750  0.500  0.159523  44.3999  37.8532  8.803643
  13282.808  13282.810  0.500  0.159088  44.3567  37.8327  8.803381
  13285.881  13285.890  0.500  0.158880  44.2711  37.7676  8.792878
  13288.994  13288.990  0.500  0.158456  44.1912  37.7154  8.784570
  13292.116  13292.110  0.500  0.158067  44.1481  37.6933  8.782734
  13295.255  13295.250  0.500  0.157711  44.1784  37.7326  8.798135
  13298.388  13298.400  0.500  0.157133  44.1263  37.7099  8.798863
  13301.569  13301.580  0.500  0.156612  44.0549  37.6685  8.796872
  13304.766  13304.770  0.500  0.156002  44.0145  37.6569  8.799923
  13307.989  13307.990  0.500  0.155393  44.0162  37.6813  8.812637
  13311.213  13311.220  0.500  0.154778  43.996  37.6872  8.820555
  13314.477  13314.470  0.500  0.154198  43.9732  37.6895  8.829351
  13317.766  13317.750  0.500  0.153666  43.9487  37.6886  8.836188
  13321.065  13321.040  0.500  0.152953  43.8977  37.6717  8.840039
  13324.365  13324.350  0.500  0.152720  43.8487  37.6384  8.840390
  13327.682  13327.670  0.500  0.152223  43.7912  37.6077  8.840909
  13331.048  13331.020  0.500  0.151779  43.7401  37.5805  8.839517
  13334.415  13334.390  0.500  0.151192  43.7426  37.6048  8.853642
  13337.784  13337.770  0.500  0.150791  43.7249  37.6046  8.859841
  13341.209  13341.180  0.500  0.150401  43.702  37.5996  8.865355
  13344.612  13344.600  0.500  0.149848  43.6764  37.5984  8.870144
  13348.064  13348.050  0.500  0.149373  43.6474  37.5913  8.877061
  13351.510  13351.510  0.500  0.148899  43.6196  37.5851  8.882518
  13355.012  13354.990  0.500  0.148409  43.5876  37.576  8.889016
  13358.509  13358.490  0.500  0.147997  43.5369  37.5477  8.887497
  13362.023  13362.010  0.500  0.147352  43.5172  37.5549  8.897504
  13365.577  13365.550  0.500  0.146603  43.4634  37.5366  8.901248
  13369.134  13369.100  0.500  0.146259  43.4196  37.5116  8.902596
  13372.692  13372.680  0.500  0.145670  43.3761  37.4962  8.907752
  13376.284  13376.280  0.500  0.145045  43.3363  37.4852  8.911753
  13379.901  13379.890  0.500  0.144481  43.2993  37.4744  8.918268
  13383.543  13383.520  0.500  0.144037  43.2665  37.4625  8.925444
  13387.188  13387.180  0.500  0.143348  43.222  37.4498  8.929903
  13390.889  13390.850  0.500  0.142962  43.1959  37.4417  8.935106
  13394.576  13394.540  0.500  0.142407  43.1532  37.4254  8.940918
  13398.258  13398.250  0.500  0.141666  43.1143  37.4193  8.945515
  13401.974  13401.980  0.500  0.141228  43.0783  37.4045  8.951503
  13405.754  13405.720  0.500  0.140564  43.0277  37.3854  8.955397
  13409.520  13409.490  0.500  0.139936  43.0139  37.3969  8.965593
  13413.289  13413.280  0.500  0.139366  42.9817  37.3901  8.973877
  13417.083  13417.080  0.500  0.138639  42.9404  37.3814  8.978331
  13420.943  13420.910  0.500  0.138182  42.8949  37.3589  8.982026
  13424.757  13424.750  0.500  0.137411  42.8515  37.3499  8.988414
  13428.613  13428.610  0.500  0.136886  42.7495  37.2806  8.980051
  13432.511  13432.490  0.500  0.136242  42.7606  37.3142  8.995498
  13436.388  13436.390  0.500  0.135727  42.7247  37.3021  9.002804
  13440.329  13440.310  0.500  0.135199  42.681  37.2837  9.006581
  13444.265  13444.250  0.500  0.134486  42.638  37.2726  9.011646
  13448.220  13448.210  0.500  0.133819  42.588  37.2538  9.017963
  13452.184  13452.180  0.500  0.133303  42.5513  37.2409  9.023840
  13456.222  13456.180  0.500  0.132666  42.5111  37.2294  9.030963
  13460.199  13460.190  0.500  0.132051  42.4683  37.2148  9.036684
  13464.242  13464.230  0.500  0.131438  42.4227  37.1977  9.042254
  13468.319  13468.280  0.500  0.130820  42.3802  37.1834  9.047647
  13472.359  13472.350  0.500  0.130175  42.3216  37.1559  9.050786
  13476.449  13476.440  0.500  0.129641  42.2928  37.1505  9.057760
  13480.581  13480.550  0.500  0.128890  42.1433  37.0469  9.041376
  13484.692  13484.680  0.500  0.128307  42.1922  37.1116  9.067481
  13488.829  13488.830  0.500  0.127647  42.2003  37.1432  9.081887
  13493.017  13492.990  0.500  0.127025  42.1031  37.0806  9.076986
  13497.207  13497.180  0.500  0.126298  42.1056  37.1099  9.093277
  13501.384  13501.380  0.500  0.125886  42.0654  37.0897  9.097379
  13505.635  13505.610  0.500  0.125249  42.0136  37.0676  9.102345
  13509.857  13509.850  0.500  0.124441  41.9676  37.057  9.109474
  13514.137  13514.110  0.500  0.123967  41.9079  37.0218  9.109725
  13518.428  13518.390  0.500  0.123260  41.8647  37.0099  9.114725
  13522.722  13522.690  0.500  0.122581  41.8129  36.9892  9.118945
  13527.051  13527.010  0.500  0.122110  41.7544  36.9548  9.119701
  13531.382  13531.350  0.500  0.121353  41.7128  36.9459  9.126117
  13535.725  13535.710  0.500  0.120722  41.6166  36.884  9.119183
  13540.126  13540.090  0.500  0.119984  41.1097  36.4616  9.028668
  13544.498  13544.480  0.500  0.119436  41.6268  36.9405  9.154867
  13548.904  13548.900  0.500  0.118741  41.5706  36.9163  9.159229
  13553.362  13553.330  0.500  0.118008  41.5049  36.8849  9.161555
  13557.783  13557.780  0.500  0.117304  40.8114  36.2942  9.024066
  13562.263  13562.250  0.500  0.116603  41.4436  36.8822  9.179172
  13566.778  13566.740  0.500  0.116038  41.1574  36.6483  9.132311
  13571.272  13571.250  0.500  0.115346  41.3309  36.8282  9.187803
  13575.801  13575.780  0.500  0.114725  40.673  36.2645  9.058076
  13580.349  13580.330  0.500  0.114013  41.2707  36.8236  9.206331
  13584.908  13584.900  0.500  0.113367  41.2096  36.7928  9.208960
  13589.519  13589.480  0.500  0.112640  41.1363  36.7542  9.209386
  13594.101  13594.090  0.500  0.111934  40.6551  36.3499  9.116085
  13598.742  13598.710  0.500  0.111270  41.0865  36.76  9.232121
  13603.355  13603.360  0.500  0.110602  41.022  36.7268  9.233873
  13608.067  13608.020  0.500  0.109809  40.9808  36.7191  9.241773
  13612.743  13612.700  0.500  0.109138  40.9113  36.6813  9.244319
  13617.413  13617.400  0.500  0.108401  40.8851  36.6848  9.254249
  13622.160  13622.120  0.500  0.107643  40.8173  36.6518  9.257241
  13626.853  13626.860  0.500  0.107112  40.7994  36.6552  9.268500
  13631.655  13631.610  0.500  0.106239  40.7256  36.6209  9.272518
  13636.412  13636.390  0.500  0.105617  40.6938  36.615  9.281427
  13641.212  13641.190  0.500  0.104980  40.6464  36.5957  9.285858
  13646.033  13646.000  0.500  0.104233  40.5957  36.5774  9.292906
  13650.848  13650.830  0.500  0.103438  40.5004  36.5205  9.291412
  13655.724  13655.690  0.500  0.102837  40.5065  36.548  9.308554
  13660.571  13660.560  0.500  0.102097  40.4549  36.5284  9.314168
  13665.495  13665.450  0.500  0.101204  40.402  36.5133  9.321258
  13670.390  13670.360  0.500  0.100499  40.3511  36.493  9.329013
  13675.313  13675.290  0.500  0.099747  40.2953  36.4699  9.332094
  13680.280  13680.230  0.500  0.099010  40.2367  36.4437  9.337639
  13685.219  13685.200  0.500  0.098374  40.1882  36.423  9.346041
  13690.234  13690.190  0.500  0.097657  40.143  36.408  9.351520
  13695.221  13695.190  0.500  0.096756  40.089  36.3919  9.359387
  13700.268  13700.220  0.500  0.096057  40.0401  36.3729  9.366623
  13705.295  13705.260  0.500  0.095258  39.9877  36.3544  9.372696
  13710.350  13710.320  0.500  0.094584  39.9412  36.3365  9.380313
  13715.450  13715.400  0.500  0.093995  39.896  36.3168  9.387402
  13720.545  13720.500  0.500  0.093180  39.844  36.2991  9.394532
  13725.661  13725.620  0.500  0.092390  39.7923  36.2806  9.398646
  13730.797  13730.760  0.500  0.091608  39.7388  36.2602  9.405307
  13735.970  13735.920  0.500  0.090860  39.6855  36.2387  9.411959
  13741.139  13741.100  0.500  0.090159  39.6198  36.2041  9.415380
  13746.303  13746.290  0.500  0.089336  39.5795  36.197  9.424038
  13751.579  13751.510  0.500  0.088595  39.5181  36.1676  9.427410
  13756.768  13756.740  0.500  0.087850  39.4716  36.152  9.436216
  13762.027  13761.990  0.500  0.087061  39.4115  36.1254  9.442075
  13767.298  13767.260  0.500  0.086223  39.3547  36.1036  9.445310
  13772.590  13772.550  0.500  0.085494  39.3035  36.0829  9.455278
  13777.936  13777.860  0.500  0.084703  39.246  36.0586  9.459391
  13783.211  13783.190  0.500  0.083926  39.1931  36.038  9.467367
  13788.632  13788.540  0.500  0.083219  39.1406  36.0152  9.473337
  13793.874  13793.910  0.500  0.082364  39.1639  36.0675  9.498913
  13799.253  13799.290  0.500  0.081624  39.117  36.051  9.507671
  13804.686  13804.700  0.500  0.080688  39.0599  36.032  9.514154
  13810.115  13810.120  0.500  0.079939  39.001  36.0046  9.520000
  13815.566  13815.570  0.500  0.079226  38.911  35.9472  9.516236
  13821.020  13821.030  0.500  0.078458  38.8933  35.9584  9.533136
  13826.513  13826.510  0.500  0.077660  38.8259  35.9248  9.535704
  13832.018  13832.010  0.500  0.076885  38.7716  35.9024  9.541982
  13837.544  13837.530  0.500  0.075980  38.7141  35.8816  9.551415
  13843.125  13843.070  0.500  0.075258  38.6528  35.8506  9.553574
  13848.636  13848.620  0.500  0.074490  38.5875  35.8175  9.558547
  13854.268  13854.200  0.500  0.073578  38.5003  35.7692  9.557044
  13859.820  13859.800  0.500  0.072868  38.4617  35.7587  9.569820
  13865.445  13865.410  0.500  0.072000  38.3899  35.723  9.571470
  13871.091  13871.050  0.500  0.071112  38.305  35.6756  9.572419
  13876.733  13876.700  0.500  0.070435  38.2139  35.615  9.568727
  13882.422  13882.370  0.500  0.069539  38.0569  35.5004  9.551137
  13888.090  13888.060  0.500  0.068827  37.9142  35.3925  9.534914