File: xdidata/Pb/Pb-L3-LeadChloride.xdi
# XDI/1.0 BlueSky/1.10.0 BMM/2023-1.0-py310-tiled
# Beamline.name: BMM (06BM) -- Beamline for Materials Measurement (NIST)
# Beamline.xray_source: NSLS-II three-pole wiggler
# Beamline.collimation: paraboloid mirror, 5 nm Rh on 30 nm Pt
# Beamline.focusing: not in use
# Beamline.harmonic_rejection: flat mirror, Pt stripe, pitch = 7.0 mrad relative to beam
# Beamline.software: Bluesky 1.10.0, Ophyd 1.7.0, DataBroker 2.0.0b13, Python 3.10.8, 2023-1.0-py310-tiled
# Detector.I0: 10 cm N2
# Detector.I1: 25 cm N2
# Detector.I2: 25 cm N2
# Element.symbol: Pb
# Element.edge: L3
# Element.reference: Pb
# Element.reference_material: Pb foil
# Facility.name: NSLS-II
# Facility.energy: 3.0
# Facility.current: 400.0
# Facility.mode: top-off
# Facility.GUP: 301027
# Facility.SAF: 310583
# Facility.cycle: 2023-2
# Mono.name: Si(111)
# Mono.d_spacing: 3.13519
# Mono.encoder_resolution: 0.0000050 deg/ct
# Mono.angle_offset: 16.0754 deg
# Mono.scan_mode: pseudo channel cut
# Mono.scan_type: step
# Mono.direction: forward in energy
# Sample.name: PbCl
# Sample.prep: powder on tape
# Sample.x: 143.785 mm
# Sample.y: 114.695 mm
# Sample.SDD_position: 205.000 mm
# Scan.experimenters: Bruce Ravel
# Scan.edge_energy: 13035.2
# Scan.start_time: 2023-06-23T17:24:11
# Scan.end_time: 2023-06-23T17:32:24
# Scan.transient_id: 84897
# Scan.uid: 2970ed40-5b97-41c4-97c5-dec35ca7609c
# Scan.plot_hint: ln(I0/It)  --  ln($5/$6)
# Column.1: energy eV
# Column.2: requested_energy eV
# Column.3: measurement_time seconds
# Column.4: xmu
# Column.5: I0 nA
# Column.6: It nA
# Column.7: Ir nA
# ///////////
# BMM standards collection
# -----------
# energy  requested_energy  measurement_time  xmu  I0  It  Ir
  12835.140  12835.200  0.500  1.837757  49.9794  7.955424  3.557091
  12845.219  12845.200  0.500  1.832241  49.8789  7.983345  3.574674
  12855.236  12855.200  0.500  1.826826  49.7529  8.006408  3.589910
  12865.225  12865.200  0.500  1.821386  49.6513  8.033648  3.609035
  12875.230  12875.200  0.500  1.816281  49.4872  8.048080  3.621629
  12885.243  12885.200  0.500  1.811082  49.4211  8.079221  3.641531
  12895.251  12895.200  0.500  1.805827  49.2965  8.101318  3.659335
  12905.259  12905.200  0.500  1.800756  49.1799  8.123246  3.672675
  12915.298  12915.200  0.500  1.795838  48.582  8.064046  3.651339
  12925.214  12925.200  0.500  1.791495  48.932  8.157483  3.700065
  12935.234  12935.200  0.500  1.786915  48.8417  8.179819  3.716756
  12945.269  12945.200  0.500  1.782334  48.6948  8.192662  3.726451
  12955.261  12955.200  0.500  1.778161  48.3724  8.172455  3.722211
  12965.247  12965.200  0.500  1.774691  48.513  8.224696  3.749476
  12975.292  12975.200  0.500  1.771842  48.3612  8.222352  3.751843
  12985.169  12985.200  0.500  1.769704  48.2731  8.224931  3.753252
  12995.172  12995.200  0.500  1.769879  48.1465  8.201926  3.742928
  13005.191  13005.200  0.500  1.773747  48.0503  8.153941  3.714480
  13007.154  13007.200  0.500  1.775166  48.0292  8.138800  3.706470
  13009.139  13009.200  0.500  1.776752  48.0042  8.121682  3.694775
  13011.155  13011.200  0.500  1.779028  47.9775  8.098706  3.680319
  13013.149  13013.200  0.500  1.781935  47.9572  8.071779  3.664665
  13015.151  13015.200  0.500  1.785085  47.9255  8.041074  3.645613
  13017.147  13017.200  0.500  1.789061  47.9068  8.006035  3.623118
  13019.143  13019.200  0.500  1.794144  47.8859  7.961977  3.594089
  13021.162  13021.200  0.500  1.800342  47.8573  7.908048  3.561702
  13023.137  13023.200  0.500  1.808039  47.8364  7.843985  3.520093
  13025.150  13025.200  0.500  1.818045  47.8112  7.761808  3.465830
  13025.431  13025.500  0.500  1.819786  47.804  7.747137  3.456213
  13025.719  13025.800  0.500  1.821734  47.8075  7.732621  3.446758
  13026.038  13026.100  0.500  1.823703  47.799  7.716046  3.436466
  13026.334  13026.400  0.500  1.825593  47.7909  7.700175  3.425004
  13026.637  13026.700  0.500  1.827589  47.7913  7.684882  3.414975
  13026.956  13027.000  0.500  1.829953  47.7852  7.665756  3.403124
  13027.237  13027.300  0.500  1.831886  47.7786  7.649896  3.391687
  13027.555  13027.600  0.500  1.834309  47.7746  7.630743  3.378862
  13027.859  13027.900  0.500  1.836641  47.7691  7.612084  3.366323
  13028.148  13028.200  0.500  1.839147  47.7668  7.592676  3.351789
  13028.451  13028.500  0.500  1.841903  47.7616  7.570952  3.338380
  13028.755  13028.800  0.500  1.844598  47.7594  7.550223  3.324633
  13029.066  13029.100  0.500  1.847683  47.7573  7.526637  3.308478
  13029.355  13029.400  0.500  1.850501  47.7509  7.504464  3.293481
  13029.651  13029.700  0.500  1.853880  47.7445  7.478137  3.275593
  13029.947  13030.000  0.500  1.857223  47.7442  7.453125  3.257957
  13030.251  13030.300  0.500  1.860843  47.738  7.425238  3.237352
  13030.562  13030.600  0.500  1.864517  47.7345  7.397465  3.219052
  13030.851  13030.900  0.500  1.868362  47.7281  7.368089  3.198546
  13031.162  13031.200  0.500  1.872844  47.7284  7.335180  3.174792
  13031.451  13031.500  0.500  1.877200  47.7185  7.301798  3.150795
  13031.777  13031.800  0.500  1.882276  47.7144  7.264197  3.123636
  13032.058  13032.100  0.500  1.887055  47.7119  7.229183  3.097661
  13032.369  13032.400  0.500  1.892971  47.7099  7.186244  3.067107
  13032.658  13032.700  0.500  1.898418  47.7044  7.146381  3.037374
  13032.984  13033.000  0.500  1.904813  47.6954  7.099490  3.001374
  13033.288  13033.300  0.500  1.911703  47.6971  7.050981  2.967491
  13033.584  13033.600  0.500  1.918772  47.6868  6.999807  2.930264
  13033.866  13033.900  0.500  1.925344  47.6861  6.953851  2.894446
  13034.192  13034.200  0.500  1.933972  47.685  6.893948  2.849113
  13034.474  13034.500  0.500  1.942075  47.6814  6.837799  2.809337
  13034.785  13034.800  0.500  1.951082  47.6732  6.775325  2.763053
  13035.096  13035.100  0.500  1.960609  47.6732  6.711077  2.716536
  13035.393  13035.400  0.500  1.971038  47.6656  6.640392  2.666652
  13035.689  13035.700  0.500  1.981528  47.6665  6.571231  2.617941
  13035.979  13036.000  0.500  1.993251  47.6593  6.493655  2.566166
  13036.290  13036.300  0.500  2.005658  47.6556  6.413099  2.512243
  13036.594  13036.600  0.500  2.019452  47.647  6.324102  2.453252
  13036.876  13036.900  0.500  2.032813  47.6467  6.240128  2.400162
  13037.180  13037.200  0.500  2.048414  47.6407  6.142752  2.340421
  13037.469  13037.500  0.500  2.064266  47.6399  6.046045  2.283303
  13037.788  13037.800  0.500  2.083188  47.6347  5.932071  2.217147
  13038.077  13038.100  0.500  2.100655  47.629  5.828661  2.158546
  13038.396  13038.400  0.500  2.122305  47.6291  5.703843  2.089457
  13038.692  13038.700  0.500  2.143917  47.625  5.581413  2.026644
  13038.989  13039.000  0.500  2.168305  47.6179  5.446130  1.954793
  13039.286  13039.300  0.500  2.193326  47.6153  5.311261  1.886818
  13039.597  13039.600  0.500  2.220382  47.6111  5.169025  1.816160
  13039.916  13039.900  0.500  2.250925  47.6081  5.013215  1.739771
  13040.191  13040.200  0.500  2.281173  47.6036  4.863387  1.668969
  13040.532  13040.500  0.500  2.318110  47.5951  4.686188  1.587648
  13040.799  13040.800  0.500  2.353028  47.5917  4.525058  1.513920
  13041.111  13041.100  0.500  2.394373  47.5876  4.341408  1.431985
  13041.407  13041.400  0.500  2.436933  47.5826  4.160080  1.354042
  13041.711  13041.700  0.500  2.483312  47.578  3.971166  1.273136
  13042.001  13042.000  0.500  2.532325  47.5765  3.781096  1.195535
  13042.305  13042.300  0.500  2.585501  47.569  3.584718  1.115505
  13042.587  13042.600  0.500  2.639548  47.5681  3.396055  1.041748
  13042.884  13042.900  0.500  2.696877  47.5636  3.206536  0.968907
  13043.196  13043.200  0.500  2.760312  47.5595  3.009185  0.894587
  13043.493  13043.500  0.500  2.822309  47.5568  2.828130  0.828328
  13043.789  13043.800  0.500  2.886268  47.5489  2.652467  0.765391
  13044.079  13044.100  0.500  2.950245  47.5474  2.488008  0.707809
  13044.405  13044.400  0.500  3.018089  47.5419  2.324544  0.651082
  13044.688  13044.700  0.500  3.078577  47.5357  2.187815  0.604021
  13044.992  13045.000  0.500  3.138942  47.5364  2.059685  0.561367
  13045.296  13045.300  0.500  3.192873  47.5292  1.951254  0.525074
  13045.601  13045.600  0.500  3.248385  47.5271  1.845802  0.490321
  13045.890  13045.900  0.500  3.294009  47.5193  1.763193  0.462846
  13046.209  13046.200  0.500  3.339021  47.5154  1.685451  0.437299
  13046.499  13046.500  0.500  3.377920  47.5095  1.620948  0.415919
  13046.804  13046.800  0.500  3.414733  47.5079  1.562307  0.397058
  13047.101  13047.100  0.500  3.448390  47.4981  1.510285  0.380550
  13047.405  13047.400  0.500  3.480576  47.4886  1.462159  0.364877
  13047.710  13047.700  0.500  3.511480  47.4662  1.416995  0.350280
  13048.007  13048.000  0.500  3.539703  47.4548  1.377230  0.338131
  13048.296  13048.300  0.500  3.566328  47.436  1.340515  0.327270
  13048.593  13048.600  0.500  3.591892  47.4175  1.306171  0.317301
  13048.898  13048.900  0.500  3.617945  47.4038  1.272212  0.307482
  13049.180  13049.200  0.500  3.639076  47.3969  1.245431  0.300163
  13049.500  13049.500  0.500  3.661556  47.3936  1.217659  0.292107
  13049.782  13049.800  0.500  3.681142  47.396  1.194104  0.285964
  13050.094  13050.100  0.500  3.701339  47.4  1.170329  0.280052
  13050.376  13050.400  0.500  3.717987  47.413  1.151319  0.275029
  13050.711  13050.700  0.500  3.734896  47.6029  1.136551  0.270957
  13051.000  13051.000  0.500  3.749172  47.6096  1.120597  0.267610
  13051.305  13051.300  0.500  3.762581  47.6141  1.105778  0.263925
  13051.602  13051.600  0.500  3.773626  47.6131  1.093607  0.260971
  13051.907  13051.900  0.500  3.784242  47.6119  1.082031  0.258695
  13052.204  13052.200  0.500  3.792227  47.6117  1.073421  0.256558
  13052.509  13052.500  0.500  3.799443  47.6082  1.065626  0.255387
  13052.814  13052.800  0.500  3.805479  47.6054  1.059149  0.253465
  13053.111  13053.100  0.500  3.808755  47.5996  1.055558  0.252611
  13053.408  13053.400  0.500  3.812383  47.5949  1.051631  0.252322
  13053.706  13053.700  0.500  3.815258  47.5916  1.048539  0.251437
  13053.996  13054.000  0.500  3.816113  47.5816  1.047424  0.251320
  13054.300  13054.300  0.500  3.816927  47.5825  1.046590  0.251223
  13054.613  13054.600  0.500  3.817242  47.5781  1.046163  0.250977
  13054.903  13054.900  0.500  3.817291  47.5737  1.046016  0.250696
  13055.200  13055.200  0.500  3.817087  47.5715  1.046180  0.250774
  13055.490  13055.500  0.500  3.816669  47.5663  1.046505  0.250453
  13055.795  13055.800  0.500  3.816230  47.5646  1.046926  0.250041
  13056.092  13056.100  0.500  3.816424  47.5571  1.046560  0.250153
  13056.382  13056.400  0.500  3.815969  47.5516  1.046914  0.249633
  13056.680  13056.700  0.500  3.815806  47.548  1.047004  0.249008
  13057.000  13057.000  0.500  3.816071  47.5395  1.046541  0.248397
  13057.290  13057.300  0.500  3.816760  47.541  1.045853  0.247494
  13057.602  13057.600  0.500  3.817097  47.5378  1.045429  0.246566
  13057.885  13057.900  0.500  3.817886  47.532  1.044478  0.245723
  13058.197  13058.200  0.500  3.818803  47.5258  1.043385  0.244410
  13058.502  13058.500  0.500  3.819535  47.5225  1.042549  0.243527
  13058.800  13058.800  0.500  3.820354  47.5194  1.041628  0.242218
  13059.090  13059.100  0.500  3.821733  47.515  1.040095  0.240854
  13059.410  13059.400  0.500  3.822574  47.5107  1.039126  0.239557
  13059.707  13059.700  0.500  3.823453  47.5022  1.038028  0.238060
  13060.005  13060.000  0.500  3.823921  47.5015  1.037527  0.236907
  13060.213  13060.200  0.500  3.824742  47.4988  1.036617  0.235657
  13061.211  13061.190  0.500  3.826413  47.4797  1.034470  0.232148
  13062.208  13062.190  0.500  3.826730  47.4756  1.034054  0.229299
  13063.213  13063.210  0.500  3.825509  47.4626  1.035033  0.228271
  13064.270  13064.260  0.500  3.823605  47.4509  1.036750  0.228127
  13065.335  13065.320  0.500  3.819964  47.4399  1.040290  0.229191
  13066.445  13066.400  0.500  3.816021  47.423  1.044028  0.231187
  13067.525  13067.500  0.500  3.811332  47.41  1.048647  0.233573
  13068.627  13068.620  0.500  3.806113  47.3921  1.053735  0.236043
  13069.753  13069.760  0.500  3.798912  47.3779  1.061034  0.238857
  13070.923  13070.910  0.500  3.790250  47.3408  1.069426  0.241625
  13072.115  13072.090  0.500  3.784013  47.2848  1.074845  0.242883
  13073.316  13073.280  0.500  3.780893  47.2868  1.078249  0.243535
  13074.524  13074.500  0.500  3.782170  47.3146  1.077505  0.243071
  13075.739  13075.730  0.500  3.787612  47.3081  1.071512  0.241524
  13076.985  13076.980  0.500  3.796431  47.2812  1.061499  0.239246
  13078.261  13078.250  0.500  3.807138  47.2715  1.049978  0.236776
  13079.567  13079.540  0.500  3.817754  47.2671  1.038794  0.233650
  13080.873  13080.850  0.500  3.829005  47.2506  1.026815  0.230844
  13082.210  13082.180  0.500  3.838937  47.2355  1.016340  0.227186
  13083.569  13083.530  0.500  3.850364  47.2173  1.004406  0.223949
  13084.906  13084.900  0.500  3.861032  47.2  0.993384  0.220139
  13086.280  13086.280  0.500  3.872750  47.19  0.981603  0.216544
  13087.685  13087.690  0.500  3.882449  47.1677  0.971670  0.213587
  13089.127  13089.110  0.500  3.892117  47.1574  0.962110  0.211235
  13090.563  13090.550  0.500  3.898145  47.1348  0.955869  0.209670
  13092.021  13092.010  0.500  3.901283  47.1032  0.952236  0.209685
  13093.471  13093.490  0.500  3.899712  47.0313  0.952278  0.210389
  13094.997  13094.990  0.500  3.896128  47.0464  0.956005  0.211802
  13096.539  13096.510  0.500  3.888359  47.0675  0.963891  0.214421
  13098.080  13098.050  0.500  3.877638  47.0474  0.973865  0.216858
  13099.615  13099.610  0.500  3.865819  47.0294  0.985066  0.220182
  13101.187  13101.180  0.500  3.852764  47.01  0.997600  0.223395
  13102.783  13102.780  0.500  3.839748  46.9793  1.010009  0.226701
  13104.401  13104.390  0.500  3.827027  46.9632  1.022588  0.230002
  13106.057  13106.030  0.500  3.815002  46.9041  1.033657  0.232870
  13107.706  13107.680  0.500  3.805202  46.9216  1.044226  0.234765
  13109.340  13109.350  0.500  3.799753  46.9201  1.049899  0.236008
  13111.057  13111.040  0.500  3.796543  46.9039  1.052910  0.236510
  13112.775  13112.750  0.500  3.795472  46.8844  1.053600  0.236006
  13114.501  13114.480  0.500  3.796284  46.8648  1.052305  0.235156
  13116.234  13116.230  0.500  3.798299  46.8242  1.049277  0.234365
  13118.013  13117.990  0.500  3.800972  46.7474  1.044761  0.232902
  13119.800  13119.780  0.500  3.804923  46.7859  1.041497  0.232014
  13121.588  13121.580  0.500  3.809155  46.7791  1.036947  0.231020
  13123.429  13123.410  0.500  3.814419  46.7595  1.031072  0.229959
  13125.225  13125.250  0.500  3.819926  46.7297  1.024756  0.228698
  13127.127  13127.110  0.500  3.826003  46.7139  1.018202  0.227760
  13129.007  13128.990  0.500  3.831085  46.6971  1.012678  0.226950
  13130.910  13130.890  0.500  3.835382  46.6704  1.007759  0.226381
  13132.813  13132.810  0.500  3.838882  46.6248  1.003256  0.225498
  13134.740  13134.750  0.500  3.840921  46.6232  1.001177  0.225440
  13136.705  13136.710  0.500  3.840798  46.6066  1.000944  0.225425
  13138.693  13138.680  0.500  3.838763  46.5804  1.002419  0.226057
  13140.674  13140.680  0.500  3.835431  46.5626  1.005381  0.226712
  13142.664  13142.690  0.500  3.830184  46.5343  1.010057  0.228071
  13144.729  13144.720  0.500  3.823457  46.5142  1.016433  0.229236
  13146.787  13146.780  0.500  3.816696  46.4881  1.022756  0.230856
  13148.854  13148.850  0.500  3.811491  46.4652  1.027586  0.232018
  13150.936  13150.940  0.500  3.806691  46.4359  1.031881  0.233059
  13153.065  13153.050  0.500  3.802302  46.4009  1.035636  0.233981
  13155.186  13155.180  0.500  3.798828  46.3883  1.038960  0.234460
  13157.308  13157.320  0.500  3.795478  46.3708  1.042052  0.235240
  13159.484  13159.490  0.500  3.792092  46.3435  1.044971  0.236072
  13161.698  13161.680  0.500  3.789382  46.3166  1.047200  0.236907
  13163.861  13163.880  0.500  3.785977  46.2909  1.050186  0.237655
  13166.054  13166.100  0.500  3.783899  46.263  1.051738  0.238070
  13168.308  13168.350  0.500  3.781865  46.1961  1.052356  0.238383
  13170.571  13170.610  0.500  3.781472  46.2013  1.052888  0.238836
  13172.857  13172.890  0.500  3.781348  46.188  1.052715  0.238889
  13175.258  13175.190  0.500  3.782311  46.1593  1.051047  0.238505
  13177.432  13177.510  0.500  3.783003  46.1329  1.049721  0.238128
  13179.917  13179.850  0.500  3.783812  46.0967  1.048048  0.238060
  13182.313  13182.200  0.500  3.784616  46.0671  1.046532  0.237693
  13184.748  13184.580  0.500  3.785351  46.0395  1.045138  0.237967
  13187.077  13186.970  0.500  3.784334  46.0103  1.045538  0.237946
  13189.399  13189.390  0.500  3.783337  45.9776  1.045836  0.237897
  13191.775  13191.820  0.500  3.782461  45.9544  1.046225  0.238256
  13194.236  13194.270  0.500  3.781007  45.929  1.047169  0.238842
  13196.713  13196.750  0.500  3.778619  45.9038  1.049096  0.239340
  13199.199  13199.240  0.500  3.776654  45.8705  1.050396  0.240011
  13201.723  13201.750  0.500  3.774702  45.8364  1.051668  0.240542
  13204.241  13204.270  0.500  3.772763  45.8109  1.053122  0.241029
  13206.798  13206.820  0.500  3.770270  45.7774  1.054977  0.241531
  13209.371  13209.390  0.500  3.767793  45.7478  1.056911  0.241944
  13211.952  13211.970  0.500  3.765462  45.713  1.058572  0.242702
  13214.550  13214.580  0.500  3.762650  45.6843  1.060887  0.242781
  13217.187  13217.200  0.500  3.760152  45.6511  1.062767  0.243450
  13219.841  13219.850  0.500  3.757861  45.6237  1.064566  0.244290
  13222.503  13222.510  0.500  3.755345  45.5886  1.066427  0.244856
  13225.174  13225.190  0.500  3.752640  45.5359  1.068078  0.245154
  13227.861  13227.890  0.500  3.750943  45.5073  1.069221  0.245395
  13230.595  13230.610  0.500  3.749323  45.4937  1.070633  0.246086
  13233.346  13233.350  0.500  3.747313  45.4596  1.071984  0.246315
  13236.097  13236.100  0.500  3.745990  45.4268  1.072629  0.246587
  13238.866  13238.880  0.500  3.744593  45.3909  1.073280  0.246778
  13241.635  13241.670  0.500  3.743748  45.3516  1.073257  0.246823
  13244.467  13244.490  0.500  3.742405  45.3142  1.073814  0.247004
  13247.307  13247.320  0.500  3.741883  45.2786  1.073529  0.247184
  13250.157  13250.170  0.500  3.741067  45.2416  1.073528  0.247534
  13253.046  13253.050  0.500  3.740461  45.1967  1.073112  0.247558
  13255.921  13255.940  0.500  3.740241  45.1544  1.072345  0.247654
  13258.828  13258.850  0.500  3.738898  45.104  1.072586  0.247998
  13261.759  13261.770  0.500  3.737858  45.0537  1.072506  0.248175
  13264.715  13264.720  0.500  3.736525  44.9955  1.072548  0.248177
  13267.687  13267.690  0.500  3.735177  44.9108  1.071973  0.247954
  13270.646  13270.670  0.500  3.733789  44.7711  1.070123  0.248033
  13273.667  13273.680  0.500  3.731578  44.4681  1.065233  0.246797
  13276.705  13276.700  0.500  3.729666  44.2999  1.063235  0.246346
  13279.744  13279.750  0.500  3.728105  44.325  1.065500  0.247188
  13282.800  13282.810  0.500  3.726263  44.29  1.066621  0.247583
  13285.866  13285.890  0.500  3.723711  44.1992  1.067154  0.247646
  13288.963  13288.990  0.500  3.721878  44.114  1.067052  0.247943
  13292.085  13292.110  0.500  3.719565  44.0764  1.068611  0.248321
  13295.247  13295.250  0.500  3.716984  44.1065  1.072105  0.249328
  13298.403  13298.400  0.500  3.715402  44.0501  1.072428  0.249697
  13301.546  13301.580  0.500  3.712428  43.9776  1.073853  0.250178
  13304.751  13304.770  0.500  3.710219  43.941  1.075331  0.250960
  13307.981  13307.990  0.500  3.707901  43.9451  1.077928  0.251176
  13311.213  13311.220  0.500  3.705448  43.9274  1.080140  0.251875
  13314.454  13314.470  0.500  3.703015  44.0434  1.085631  0.253441
  13317.751  13317.750  0.500  3.701387  44.0175  1.086760  0.254073
  13321.041  13321.040  0.500  3.698701  43.9686  1.088474  0.254868
  13324.365  13324.350  0.500  3.695700  43.9148  1.090407  0.255171
  13327.667  13327.670  0.500  3.694629  43.8571  1.090140  0.255615
  13331.024  13331.020  0.500  3.692592  43.8038  1.091038  0.255713
  13334.399  13334.390  0.500  3.689940  43.8103  1.094097  0.256776
  13337.776  13337.770  0.500  3.688668  43.7875  1.094919  0.257208
  13341.170  13341.180  0.500  3.686599  43.7648  1.096619  0.257982
  13344.605  13344.600  0.500  3.684131  43.7326  1.098519  0.258825
  13348.072  13348.050  0.500  3.682444  43.7109  1.099829  0.259269
  13351.502  13351.510  0.500  3.679492  43.6858  1.102447  0.259890
  13354.989  13354.990  0.500  3.677617  43.6608  1.103883  0.260422
  13358.509  13358.490  0.500  3.674670  43.6024  1.105660  0.260933
  13362.015  13362.010  0.500  3.672887  43.5781  1.107014  0.261839
  13365.538  13365.550  0.500  3.669668  43.5271  1.109284  0.262428
  13369.126  13369.100  0.500  3.667135  43.4753  1.110774  0.262794
  13372.700  13372.680  0.500  3.665092  43.4376  1.112081  0.263549
  13376.284  13376.280  0.500  3.661866  43.4001  1.114711  0.264538
  13379.885  13379.890  0.500  3.659679  43.3647  1.116242  0.264827
  13383.551  13383.520  0.500  3.656540  43.3233  1.118682  0.266016
  13387.195  13387.180  0.500  3.654285  43.2881  1.120297  0.266330
  13390.865  13390.850  0.500  3.651237  43.2544  1.122840  0.267201
  13394.561  13394.540  0.500  3.648336  43.2168  1.125123  0.268143
  13398.274  13398.250  0.500  3.645615  43.1796  1.127218  0.268607
  13401.981  13401.980  0.500  3.642459  43.1393  1.129727  0.269605
  13405.738  13405.720  0.500  3.640124  43.0973  1.131265  0.270426
  13409.512  13409.490  0.500  3.636981  43.0791  1.134348  0.271383
  13413.281  13413.280  0.500  3.634912  43.0473  1.135858  0.272086
  13417.083  13417.080  0.500  3.632162  43.0033  1.137820  0.272684
  13420.943  13420.910  0.500  3.629352  42.9602  1.139878  0.273543
  13424.781  13424.750  0.500  3.626426  42.9183  1.142105  0.274022
  13428.598  13428.610  0.500  3.623981  42.81  1.142010  0.274603
  13432.503  13432.490  0.500  3.620532  42.8276  1.146427  0.275574
  13436.395  13436.390  0.500  3.618248  42.7871  1.147963  0.276267
  13440.329  13440.310  0.500  3.615426  42.7429  1.150017  0.277350
  13444.250  13444.250  0.500  3.612891  42.7021  1.151835  0.277967
  13448.235  13448.210  0.500  3.609768  42.654  1.154139  0.278698
  13452.168  13452.180  0.500  3.606863  42.6174  1.156502  0.279400
  13456.206  13456.180  0.500  3.604050  42.5771  1.158662  0.280455
  13460.223  13460.190  0.500  3.601469  42.5319  1.160424  0.281328
  13464.219  13464.230  0.500  3.598445  42.4845  1.162643  0.282122
  13468.311  13468.280  0.500  3.595202  42.4432  1.165284  0.282674
  13472.367  13472.350  0.500  3.592616  42.3895  1.166822  0.283777
  13476.457  13476.440  0.500  3.589791  42.3571  1.169230  0.284550
  13480.565  13480.550  0.500  3.586673  42.2207  1.169105  0.284456
  13484.700  13484.680  0.500  3.583889  42.2554  1.173328  0.286022
  13488.837  13488.830  0.500  3.581350  42.2579  1.176378  0.287062
  13493.009  13492.990  0.500  3.578236  42.1606  1.177330  0.287447
  13497.199  13497.180  0.500  3.575573  42.1702  1.180740  0.288897
  13501.392  13501.380  0.500  3.572190  42.1235  1.183427  0.289605
  13505.643  13505.610  0.500  3.568953  42.0774  1.185967  0.290733
  13509.881  13509.850  0.500  3.565983  42.0292  1.188130  0.291257
  13514.113  13514.110  0.500  3.563417  41.9823  1.189856  0.292276
  13518.436  13518.390  0.500  3.560313  41.9267  1.191973  0.292901
  13522.722  13522.690  0.500  3.557312  41.8767  1.194130  0.293829
  13527.035  13527.010  0.500  3.553763  41.8027  1.196258  0.294581
  13531.382  13531.350  0.500  3.550504  41.768  1.199166  0.295399
  13535.725  13535.710  0.500  3.547705  41.681  1.200022  0.296123
  13540.102  13540.090  0.500  3.544869  41.1452  1.187961  0.293253
  13544.514  13544.480  0.500  3.541619  41.6873  1.207530  0.298443
  13548.904  13548.900  0.500  3.538677  41.6347  1.209559  0.299373
  13553.362  13553.330  0.500  3.535569  41.5695  1.211426  0.300157
  13557.807  13557.780  0.500  3.532535  40.8691  1.194632  0.296311
  13562.263  13562.250  0.500  3.529307  41.503  1.217086  0.302180
  13566.754  13566.740  0.500  3.526175  41.2273  1.212791  0.301545
  13571.256  13571.250  0.500  3.523641  41.3865  1.220566  0.303663
  13575.809  13575.780  0.500  3.520478  40.721  1.204741  0.300276
  13580.357  13580.330  0.500  3.517470  41.3159  1.226025  0.305733
  13584.925  13584.900  0.500  3.513690  41.2738  1.229416  0.306924
  13589.495  13589.480  0.500  3.510714  41.1888  1.230539  0.307567
  13594.101  13594.090  0.500  3.506983  40.722  1.221141  0.305551
  13598.734  13598.710  0.500  3.503253  41.1489  1.238554  0.310274
  13603.387  13603.360  0.500  3.500607  41.0869  1.239965  0.311238
  13608.019  13608.020  0.500  3.496751  41.0411  1.243367  0.312234
  13612.751  13612.700  0.500  3.493103  40.9743  1.245879  0.312869
  13617.413  13617.400  0.500  3.489978  40.9403  1.248741  0.314031
  13622.152  13622.120  0.500  3.486894  40.8728  1.250535  0.315356
  13626.877  13626.860  0.500  3.483795  40.855  1.253869  0.316310
  13631.639  13631.610  0.500  3.480154  40.7744  1.255959  0.317063
  13636.428  13636.390  0.500  3.476811  40.7487  1.259372  0.318394
  13641.196  13641.190  0.500  3.473187  40.7044  1.262568  0.319438
  13646.033  13646.000  0.500  3.469943  40.6473  1.264895  0.320481
  13650.848  13650.830  0.500  3.466491  40.5616  1.266592  0.321367
  13655.724  13655.690  0.500  3.463492  40.5559  1.270219  0.323099
  13660.604  13660.560  0.500  3.459473  40.509  1.273861  0.324113
  13665.454  13665.450  0.500  3.456303  40.4478  1.275972  0.325051
  13670.398  13670.360  0.500  3.452660  40.4035  1.279227  0.326101
  13675.313  13675.290  0.500  3.449619  40.3526  1.281508  0.327374
  13680.272  13680.230  0.500  3.445334  40.2924  1.285089  0.328228
  13685.219  13685.200  0.500  3.442207  40.2511  1.287793  0.329673
  13690.218  13690.190  0.500  3.438736  40.1978  1.290560  0.330910
  13695.221  13695.190  0.500  3.435311  40.1529  1.293540  0.332036
  13700.276  13700.220  0.500  3.432044  40.0976  1.295988  0.332921
  13705.311  13705.260  0.500  3.428158  40.0399  1.299163  0.334381
  13710.325  13710.320  0.500  3.424550  39.9945  1.302377  0.335171
  13715.466  13715.400  0.500  3.421218  39.9438  1.305069  0.336788
  13720.537  13720.500  0.500  3.417326  39.9005  1.308738  0.338291
  13725.669  13725.620  0.500  3.414072  39.8502  1.311348  0.339166
  13730.797  13730.760  0.500  3.410209  39.7927  1.314525  0.340038
  13735.946  13735.920  0.500  3.406218  39.7398  1.318026  0.341651
  13741.155  13741.100  0.500  3.402979  39.6844  1.320457  0.342465
  13746.312  13746.290  0.500  3.398900  39.6313  1.324081  0.343799
  13751.604  13751.510  0.500  3.395368  39.569  1.326680  0.345077
  13756.710  13756.740  0.500  3.391867  39.5135  1.329462  0.346355
  13761.961  13761.990  0.500  3.388118  39.4662  1.332860  0.347646
  13767.248  13767.260  0.500  3.384206  39.406  1.336044  0.348685
  13772.532  13772.550  0.500  3.380673  39.3509  1.338897  0.350017
  13777.869  13777.860  0.500  3.376890  39.3001  1.342234  0.351297
  13783.170  13783.190  0.500  3.373430  39.2462  1.345043  0.352618
  13788.573  13788.540  0.500  3.369129  39.1905  1.348923  0.354082
  13793.932  13793.910  0.500  3.365410  39.1398  1.352194  0.355644
  13799.303  13799.290  0.500  3.361009  39.073  1.355840  0.356510
  13804.728  13804.700  0.500  3.358115  39.028  1.358206  0.357810
  13810.157  13810.120  0.500  3.354197  38.969  1.361477  0.359295
  13815.599  13815.570  0.500  3.350588  38.8947  1.363792  0.360410
  13821.079  13821.030  0.500  3.346325  38.8621  1.368472  0.361916
  13826.555  13826.510  0.500  3.342708  38.8042  1.371384  0.363413
  13832.060  13832.010  0.500  3.338390  38.7376  1.374955  0.364626
  13837.578  13837.530  0.500  3.334871  38.6824  1.377835  0.365834
  13843.125  13843.070  0.500  3.331030  38.6292  1.381237  0.367230
  13848.636  13848.620  0.500  3.327416  38.5627  1.383851  0.368164
  13854.243  13854.200  0.500  3.323666  38.4801  1.386073  0.369728
  13859.829  13859.800  0.500  3.319566  38.4395  1.390299  0.371257
  13865.445  13865.410  0.500  3.315785  38.3782  1.393340  0.372595
  13871.099  13871.050  0.500  3.312152  38.2906  1.395220  0.373831
  13876.741  13876.700  0.500  3.307703  38.1979  1.398050  0.374815
  13882.413  13882.370  0.500  3.303763  38.0422  1.397847  0.375192
  13888.115  13888.060  0.500  3.299695  37.8994  1.398275  0.376035