File: xdidata/Fe/Fe-Aegerine.xdi
# XDI/1.0 BlueSky/1.10.0 BMM/2023-1.0-py310-tiled
# Beamline.name: BMM (06BM) -- Beamline for Materials Measurement (NIST)
# Beamline.xray_source: NSLS-II three-pole wiggler
# Beamline.collimation: paraboloid mirror, 5 nm Rh on 30 nm Pt
# Beamline.focusing: not in use
# Beamline.harmonic_rejection: flat mirror, Si stripe, pitch = 7.0 mrad relative to beam
# Beamline.software: Bluesky 1.10.0, Ophyd 1.7.0, DataBroker 2.0.0b13, Python 3.10.8, 2023-1.0-py310-tiled
# Detector.I0: 10 cm N2
# Detector.I1: 25 cm N2
# Detector.I2: 25 cm N2
# Element.symbol: Fe
# Element.edge: K
# Element.reference: Fe
# Element.reference_material: Fe foil
# Facility.name: NSLS-II
# Facility.energy: 3.0
# Facility.current: 399.1
# Facility.mode: top-off
# Facility.GUP: 123456
# Facility.SAF: 301027
# Facility.cycle: 2023-2
# Mono.name: Si(111)
# Mono.d_spacing: 3.13519
# Mono.encoder_resolution: 0.0000050 deg/ct
# Mono.angle_offset: 16.0754 deg
# Mono.scan_mode: pseudo channel cut
# Mono.scan_type: step
# Mono.direction: forward in energy
# Sample.name: NaFeSi2O6
# Sample.prep: PEG pellet
# Sample.x: 116.329 mm
# Sample.y: 114.126 mm
# Sample.SDD_position: 205.000 mm
# Scan.experimenters: Bruce Ravel
# Scan.edge_energy: 7112.0
# Scan.start_time: 2023-05-05T18:14:53
# Scan.end_time: 2023-05-05T18:22:55
# Scan.transient_id: 74546
# Scan.uid: ef611f40-a351-4c09-8037-43cde6b3e65a
# Scan.plot_hint: ln(I0/It)  --  ln($5/$6)
# Column.1: energy eV
# Column.2: requested_energy eV
# Column.3: measurement_time seconds
# Column.4: xmu
# Column.5: I0 nA
# Column.6: It nA
# Column.7: Ir nA
# ///////////
# courtesy Martin Stennett, University of Sheffield
# -----------
# energy  requested_energy  measurement_time  xmu  I0  It  Ir
  6912.009  6912.000  0.500  3.361038  153.104  5.312572  0.997334
  6922.007  6922.000  0.500  3.344237  152.979  5.398173  1.020571
  6932.017  6932.000  0.500  3.327700  153.005  5.489120  1.044769
  6942.011  6942.000  0.500  3.311168  153.031  5.581581  1.070015
  6952.004  6952.000  0.500  3.294827  153.019  5.673104  1.095006
  6962.010  6962.000  0.500  3.278462  153.026  5.766961  1.120500
  6972.010  6972.000  0.500  3.263056  153.543  5.876266  1.149899
  6982.023  6982.000  0.500  3.246561  153.523  5.973246  1.177116
  6992.016  6992.000  0.500  3.230597  153.506  6.068691  1.203755
  7002.013  7002.000  0.500  3.214679  153.462  6.164278  1.230999
  7012.016  7012.000  0.500  3.198786  153.353  6.258602  1.258025
  7022.022  7022.000  0.500  3.183304  153.344  6.355876  1.286130
  7032.014  7032.000  0.500  3.167768  153.315  6.454158  1.314358
  7042.017  7042.000  0.500  3.152376  153.257  6.551781  1.342391
  7052.013  7052.000  0.500  3.136971  153.181  6.650217  1.370832
  7062.008  7062.000  0.500  3.122386  152.456  6.715985  1.391902
  7072.013  7072.000  0.500  3.107504  152.969  6.839623  1.424766
  7081.984  7082.000  0.500  3.093149  152.93  6.936724  1.450138
  7083.983  7084.000  0.500  3.090366  152.709  6.946028  1.452179
  7085.982  7086.000  0.500  3.087905  152.82  6.968204  1.457931
  7087.983  7088.000  0.500  3.085160  152.842  6.988339  1.462168
  7089.985  7090.000  0.500  3.082188  152.828  7.008487  1.466298
  7091.989  7092.000  0.500  3.079816  152.817  7.024630  1.469207
  7093.976  7094.000  0.500  3.077439  152.778  7.039569  1.470690
  7096.016  7096.000  0.500  3.074818  152.762  7.057299  1.473153
  7098.003  7098.000  0.500  3.072629  152.741  7.071787  1.473603
  7099.994  7100.000  0.500  3.070492  152.754  7.087526  1.472954
  7102.003  7102.000  0.500  3.068544  152.723  7.099917  1.469302
  7102.292  7102.300  0.500  3.068302  152.713  7.101148  1.468387
  7102.587  7102.600  0.500  3.068110  152.701  7.101972  1.467550
  7102.889  7102.900  0.500  3.067909  152.727  7.104610  1.466311
  7103.186  7103.200  0.500  3.067614  152.731  7.106897  1.465765
  7103.488  7103.500  0.500  3.067313  152.718  7.108416  1.464690
  7103.785  7103.800  0.500  3.067175  152.704  7.108727  1.462895
  7104.091  7104.100  0.500  3.066848  152.697  7.110734  1.461045
  7104.384  7104.400  0.500  3.066648  152.685  7.111630  1.459559
  7104.686  7104.700  0.500  3.066441  152.706  7.114050  1.457473
  7104.989  7105.000  0.500  3.066414  152.707  7.114306  1.455641
  7105.287  7105.300  0.500  3.066129  152.688  7.115441  1.452964
  7105.584  7105.600  0.500  3.065972  152.703  7.117249  1.451014
  7105.890  7105.900  0.500  3.065826  152.677  7.117075  1.447575
  7106.190  7106.200  0.500  3.065585  152.659  7.117983  1.444449
  7106.490  7106.500  0.500  3.065541  152.641  7.117425  1.440553
  7106.790  7106.800  0.500  3.065519  152.64  7.117565  1.437190
  7107.085  7107.100  0.500  3.065331  152.659  7.119769  1.432423
  7107.387  7107.400  0.500  3.065443  152.641  7.118134  1.427385
  7107.687  7107.700  0.500  3.065294  152.639  7.119106  1.421355
  7107.987  7108.000  0.500  3.065331  152.638  7.118798  1.413898
  7108.289  7108.300  0.500  3.065711  152.638  7.116072  1.405604
  7108.589  7108.600  0.500  3.065895  152.605  7.113225  1.394904
  7108.886  7108.900  0.500  3.065883  152.603  7.113226  1.384193
  7109.188  7109.200  0.500  3.065793  152.606  7.114000  1.369742
  7109.495  7109.500  0.500  3.065942  152.588  7.112103  1.351536
  7109.795  7109.800  0.500  3.066227  152.561  7.108837  1.326004
  7110.093  7110.100  0.500  3.066924  152.556  7.103658  1.292653
  7110.393  7110.400  0.500  3.067342  152.545  7.100167  1.244647
  7110.697  7110.700  0.500  3.068647  152.547  7.090999  1.177373
  7110.999  7111.000  0.500  3.069689  152.495  7.081189  1.089870
  7111.297  7111.300  0.500  3.071742  152.449  7.064536  0.986963
  7111.589  7111.600  0.500  3.073460  152.438  7.051915  0.882459
  7111.887  7111.900  0.500  3.076002  152.372  7.030974  0.785913
  7112.196  7112.200  0.500  3.079286  152.329  7.005950  0.707620
  7112.492  7112.500  0.500  3.083988  152.309  6.972132  0.649616
  7112.790  7112.800  0.500  3.089851  152.275  6.929853  0.604756
  7113.094  7113.100  0.500  3.095987  152.287  6.888002  0.567869
  7113.393  7113.400  0.500  3.100729  152.263  6.854337  0.536244
  7113.701  7113.700  0.500  3.103664  152.252  6.833760  0.508434
  7114.000  7114.000  0.500  3.105216  152.237  6.822469  0.484295
  7114.298  7114.300  0.500  3.108136  152.227  6.802127  0.462457
  7114.598  7114.600  0.500  3.110121  152.22  6.788341  0.444791
  7114.899  7114.900  0.500  3.108191  152.194  6.800276  0.432337
  7115.201  7115.200  0.500  3.102286  152.191  6.840448  0.425226
  7115.495  7115.500  0.500  3.095731  152.204  6.885987  0.421180
  7115.800  7115.800  0.500  3.090780  152.172  6.918720  0.418344
  7116.092  7116.100  0.500  3.088254  152.154  6.935409  0.415273
  7116.393  7116.400  0.500  3.087891  152.14  6.937282  0.411435
  7116.696  7116.700  0.500  3.089225  152.158  6.928850  0.405139
  7116.996  7117.000  0.500  3.091740  152.133  6.910319  0.395546
  7117.297  7117.300  0.500  3.095373  152.127  6.884983  0.381826
  7117.595  7117.600  0.500  3.100127  152.109  6.851532  0.363666
  7117.898  7117.900  0.500  3.105898  152.086  6.811055  0.341751
  7118.201  7118.200  0.500  3.113124  152.066  6.761124  0.316774
  7118.504  7118.500  0.500  3.121452  152.041  6.703971  0.291612
  7118.801  7118.800  0.500  3.131223  152.025  6.638086  0.267297
  7119.097  7119.100  0.500  3.142538  152.036  6.563868  0.244448
  7119.402  7119.400  0.500  3.155706  152.025  6.477512  0.222666
  7119.703  7119.700  0.500  3.171025  152.007  6.378318  0.202424
  7119.998  7120.000  0.500  3.188126  151.997  6.269760  0.183104
  7120.298  7120.300  0.500  3.208474  151.995  6.143367  0.164639
  7120.593  7120.600  0.500  3.231562  151.967  6.002048  0.147210
  7120.894  7120.900  0.500  3.257458  151.971  5.848765  0.131720
  7121.199  7121.200  0.500  3.285853  151.952  5.684318  0.117605
  7121.500  7121.500  0.500  3.315512  151.9  5.516330  0.106011
  7121.799  7121.800  0.500  3.347971  151.885  5.339620  0.095650
  7122.102  7122.100  0.500  3.384833  151.867  5.145770  0.086610
  7122.397  7122.400  0.500  3.425811  151.858  4.938866  0.078547
  7122.702  7122.700  0.500  3.475798  151.84  4.697504  0.070681
  7123.001  7123.000  0.500  3.531223  151.753  4.441687  0.063675
  7123.303  7123.300  0.500  3.593156  151.812  4.176546  0.057405
  7123.600  7123.600  0.500  3.656861  151.816  3.918892  0.051656
  7123.905  7123.900  0.500  3.718487  151.83  3.685022  0.046677
  7124.204  7124.200  0.500  3.775919  151.806  3.478793  0.042567
  7124.497  7124.500  0.500  3.825703  151.778  3.309236  0.039144
  7124.796  7124.800  0.500  3.870247  151.756  3.164593  0.036225
  7125.095  7125.100  0.500  3.908653  151.721  3.044655  0.033616
  7125.401  7125.400  0.500  3.943519  151.704  2.940003  0.031588
  7125.700  7125.700  0.500  3.976082  151.688  2.845506  0.029589
  7125.997  7126.000  0.500  4.009720  151.65  2.750696  0.027811
  7126.299  7126.300  0.500  4.048313  151.621  2.646059  0.025939
  7126.602  7126.600  0.500  4.095140  151.615  2.524903  0.023944
  7126.904  7126.900  0.500  4.149549  151.577  2.390608  0.021948
  7127.208  7127.200  0.500  4.211194  151.535  2.247058  0.020039
  7127.507  7127.500  0.500  4.274873  151.474  2.107583  0.018049
  7127.800  7127.800  0.500  4.334549  151.486  1.985646  0.016241
  7128.099  7128.100  0.500  4.388349  151.505  1.881874  0.014693
  7128.401  7128.400  0.500  4.434797  151.496  1.796356  0.013543
  7128.698  7128.700  0.500  4.475000  151.481  1.725403  0.012377
  7128.996  7129.000  0.500  4.508726  151.447  1.667806  0.011254
  7129.297  7129.300  0.500  4.537617  151.39  1.619705  0.010526
  7129.597  7129.600  0.500  4.561172  151.39  1.581995  0.009765
  7129.903  7129.900  0.500  4.580254  151.348  1.551663  0.009171
  7130.203  7130.200  0.500  4.595149  151.322  1.528457  0.008611
  7130.500  7130.500  0.500  4.608504  151.293  1.507890  0.008347
  7130.802  7130.800  0.500  4.621682  151.239  1.487619  0.008001
  7131.106  7131.100  0.500  4.636471  151.22  1.465597  0.007873
  7131.404  7131.400  0.500  4.652971  151.211  1.441528  0.007825
  7131.701  7131.700  0.500  4.669893  151.183  1.417080  0.007860
  7132.003  7132.000  0.500  4.684150  151.159  1.396802  0.007939
  7132.299  7132.300  0.500  4.693908  151.133  1.382998  0.008140
  7132.603  7132.600  0.500  4.698125  151.113  1.376991  0.008409
  7132.903  7132.900  0.500  4.696203  151.102  1.379543  0.008788
  7133.194  7133.200  0.500  4.690134  151.127  1.388173  0.009230
  7133.498  7133.500  0.500  4.682571  151.11  1.398549  0.009639
  7133.798  7133.800  0.500  4.674287  151.1  1.410096  0.010083
  7134.103  7134.100  0.500  4.664998  151.101  1.423259  0.010744
  7134.403  7134.400  0.500  4.655881  151.104  1.436327  0.011083
  7134.701  7134.700  0.500  4.646188  151.127  1.450537  0.011484
  7135.001  7135.000  0.500  4.635683  151.115  1.465733  0.011989
  7135.303  7135.300  0.500  4.624336  151.101  1.482325  0.012391
  7135.607  7135.600  0.500  4.611422  151.103  1.501610  0.012714
  7135.903  7135.900  0.500  4.597640  151.55  1.526954  0.013155
  7136.201  7136.200  0.500  4.582564  151.559  1.550238  0.013401
  7136.501  7136.500  0.500  4.567080  151.548  1.574314  0.013681
  7136.801  7136.800  0.500  4.552799  151.52  1.596671  0.014013
  7136.996  7137.000  0.500  4.543062  151.532  1.612416  0.014139
  7137.996  7137.990  0.500  4.496378  151.525  1.689397  0.014419
  7139.005  7138.990  0.500  4.447238  151.519  1.774421  0.014588
  7140.021  7140.010  0.500  4.400122  151.506  1.859864  0.014602
  7141.081  7141.060  0.500  4.363562  151.479  1.928768  0.014538
  7142.115  7142.120  0.500  4.332362  151.472  1.989811  0.014954
  7143.192  7143.200  0.500  4.300926  151.482  2.053488  0.015695
  7144.289  7144.300  0.500  4.277065  151.475  2.102980  0.016309
  7145.415  7145.420  0.500  4.263329  151.437  2.131532  0.016449
  7146.565  7146.560  0.500  4.254545  151.469  2.150798  0.015973
  7147.713  7147.710  0.500  4.237662  151.45  2.187140  0.015261
  7148.895  7148.890  0.500  4.205924  151.445  2.257585  0.014696
  7150.089  7150.080  0.500  4.165468  151.439  2.350708  0.014690
  7151.301  7151.300  0.500  4.121317  151.449  2.456976  0.014796
  7152.534  7152.530  0.500  4.079766  151.454  2.561308  0.015100
  7153.786  7153.780  0.500  4.046412  151.441  2.647944  0.015471
  7155.056  7155.050  0.500  4.022546  151.41  2.711343  0.015916
  7156.342  7156.340  0.500  4.004443  151.402  2.760724  0.016530
  7157.650  7157.650  0.500  3.990571  151.39  2.799078  0.017025
  7158.984  7158.980  0.500  3.981777  151.365  2.823338  0.017360
  7160.334  7160.330  0.500  3.977217  151.335  2.835668  0.017372
  7161.705  7161.700  0.500  3.978429  151.283  2.831271  0.017451
  7163.087  7163.080  0.500  3.989131  151.225  2.800059  0.017679
  7164.493  7164.490  0.500  4.009052  151.204  2.744442  0.017645
  7165.917  7165.910  0.500  4.034223  151.166  2.675557  0.017350
  7167.353  7167.350  0.500  4.060508  151.127  2.605467  0.017292
  7168.811  7168.810  0.500  4.086603  151.105  2.537995  0.016959
  7170.296  7170.290  0.500  4.112991  151.079  2.471462  0.016752
  7171.795  7171.790  0.500  4.137696  151.047  2.410642  0.016793
  7173.318  7173.310  0.500  4.157444  151.043  2.363437  0.017205
  7174.851  7174.850  0.500  4.174790  150.996  2.322076  0.018013
  7176.413  7176.410  0.500  4.189597  150.966  2.287488  0.018649
  7177.989  7177.980  0.500  4.195401  150.93  2.273718  0.019489
  7179.587  7179.580  0.500  4.198738  150.92  2.265997  0.020101
  7181.191  7181.190  0.500  4.195511  150.882  2.272736  0.020371
  7182.836  7182.830  0.500  4.188355  150.85  2.288578  0.020335
  7184.492  7184.480  0.500  4.180786  150.824  2.305564  0.020026
  7186.161  7186.150  0.500  4.176391  150.788  2.315174  0.019241
  7187.844  7187.840  0.500  4.175020  150.74  2.317606  0.018448
  7189.561  7189.550  0.500  4.174406  150.723  2.318776  0.017405
  7191.292  7191.280  0.500  4.172838  149.108  2.297522  0.016295
  7193.044  7193.030  0.500  4.168862  150.384  2.326420  0.015668
  7194.798  7194.790  0.500  4.162573  150.552  2.343720  0.015395
  7196.591  7196.580  0.500  4.154101  150.523  2.363190  0.015868
  7198.392  7198.380  0.500  4.145186  150.486  2.383774  0.016849
  7200.222  7200.210  0.500  4.134331  150.425  2.408814  0.018087
  7202.055  7202.050  0.500  4.122618  150.393  2.436675  0.019756
  7203.913  7203.910  0.500  4.110266  150.338  2.466062  0.021558
  7205.803  7205.790  0.500  4.097536  150.297  2.496965  0.023515
  7207.701  7207.690  0.500  4.088281  150.27  2.519731  0.024455
  7209.620  7209.610  0.500  4.081689  150.23  2.535715  0.023795
  7211.562  7211.550  0.500  4.075228  150.169  2.551126  0.021514
  7213.520  7213.510  0.500  4.067133  150.112  2.570880  0.018429
  7215.491  7215.480  0.500  4.058011  150.065  2.593621  0.015587
  7217.489  7217.480  0.500  4.049598  149.974  2.613949  0.013491
  7219.504  7219.490  0.500  4.041475  149.923  2.634377  0.012323
  7221.536  7221.520  0.500  4.034508  149.862  2.651714  0.012096
  7223.588  7223.580  0.500  4.027700  149.824  2.669157  0.013225
  7225.662  7225.650  0.500  4.021762  149.716  2.683120  0.014813
  7227.750  7227.740  0.500  4.017461  147.095  2.647501  0.016964
  7229.864  7229.850  0.500  4.016833  149.908  2.699825  0.019964
  7231.991  7231.980  0.500  4.016025  149.835  2.700692  0.022850
  7234.128  7234.120  0.500  4.014023  149.768  2.704894  0.025833
  7236.301  7236.290  0.500  4.011585  149.739  2.710972  0.027819
  7238.489  7238.480  0.500  4.009138  149.679  2.716526  0.028692
  7240.690  7240.680  0.500  4.006633  149.639  2.722608  0.028776
  7242.912  7242.900  0.500  4.005731  149.635  2.724998  0.027687
  7245.162  7245.150  0.500  4.007641  146.818  2.668595  0.025745
  7247.421  7247.410  0.500  4.011210  149.343  2.704823  0.025023
  7249.703  7249.690  0.500  4.015107  149.347  2.694373  0.024504
  7252.005  7251.990  0.500  4.018381  149.252  2.683862  0.024633
  7254.321  7254.310  0.500  4.020222  146.876  2.636271  0.024915
  7256.664  7256.650  0.500  4.020655  149.326  2.679093  0.025741
  7259.010  7259.000  0.500  4.018266  149.139  2.682129  0.025567
  7261.392  7261.380  0.500  4.013564  148.707  2.686968  0.024975
  7263.784  7263.770  0.500  4.008215  137.465  2.497159  0.022410
  7266.198  7266.190  0.500  4.000725  149.002  2.727092  0.024015
  7268.634  7268.620  0.500  3.994551  149.598  2.754958  0.023690
  7271.085  7271.070  0.500  3.989619  149.518  2.767087  0.022635
  7273.558  7273.550  0.500  3.985223  148.25  2.755705  0.021360
  7276.051  7276.040  0.500  3.980178  149.559  2.794113  0.021053
  7278.562  7278.550  0.500  3.975425  149.49  2.806118  0.020672
  7281.080  7281.070  0.500  3.969910  149.43  2.820509  0.020290
  7283.633  7283.620  0.500  3.964359  148.314  2.815027  0.019363
  7286.198  7286.190  0.500  3.958839  149.053  2.844712  0.018849
  7288.788  7288.770  0.500  3.953071  149.144  2.862917  0.018843
  7291.395  7291.380  0.500  3.946312  149.092  2.881321  0.019583
  7294.014  7294.000  0.500  3.939774  149.084  2.900070  0.021605
  7296.661  7296.650  0.500  3.932916  149.023  2.918832  0.023852
  7299.320  7299.310  0.500  3.926465  148.911  2.935525  0.026272
  7301.997  7301.990  0.500  3.920535  147.276  2.920552  0.027999
  7304.707  7304.690  0.500  3.914843  149.019  2.971981  0.030215
  7307.424  7307.410  0.500  3.908965  148.918  2.987475  0.031211
  7310.157  7310.150  0.500  3.903585  148.872  3.002664  0.032000
  7312.910  7312.900  0.500  3.897727  148.802  3.018892  0.031983
  7315.696  7315.680  0.500  3.891252  148.715  3.036725  0.032221
  7318.481  7318.470  0.500  3.884770  148.686  3.055872  0.032544
  7321.304  7321.290  0.500  3.878931  148.604  3.072072  0.032875
  7324.132  7324.120  0.500  3.874141  148.589  3.086523  0.033234
  7326.987  7326.970  0.500  3.869904  148.532  3.098431  0.033322
  7329.861  7329.850  0.500  3.865776  148.449  3.109503  0.033606
  7332.753  7332.740  0.500  3.861390  148.365  3.121420  0.034388
  7335.658  7335.650  0.500  3.856304  148.291  3.135759  0.035385
  7338.587  7338.570  0.500  3.851601  147.001  3.123136  0.035561
  7341.534  7341.520  0.500  3.845999  148.042  3.162923  0.035802
  7344.504  7344.490  0.500  3.841441  148.02  3.176893  0.034522
  7347.481  7347.470  0.500  3.837047  148.002  3.190500  0.032837
  7350.493  7350.480  0.500  3.831905  147.931  3.205423  0.031300
  7353.517  7353.500  0.500  3.827648  147.884  3.218054  0.030100
  7356.564  7356.550  0.500  3.822757  147.83  3.232659  0.028755
  7359.621  7359.610  0.500  3.817562  147.784  3.248478  0.027773
  7362.700  7362.690  0.500  3.812785  147.673  3.261587  0.027300
  7365.797  7365.790  0.500  3.808029  147.577  3.275000  0.027047
  7368.921  7368.910  0.500  3.803425  147.501  3.288436  0.027528
  7372.065  7372.050  0.500  3.799245  147.462  3.301337  0.028762
  7375.218  7375.200  0.500  3.794401  147.4  3.315957  0.031041
  7378.393  7378.380  0.500  3.789555  147.333  3.330553  0.034408
  7381.584  7381.570  0.500  3.784733  147.236  3.344450  0.038282
  7384.803  7384.790  0.500  3.779067  147.161  3.361754  0.041284
  7388.028  7388.020  0.500  3.773332  147.1  3.379674  0.042600
  7391.279  7391.270  0.500  3.767737  147.02  3.396797  0.042647
  7394.554  7394.550  0.500  3.762516  146.928  3.412439  0.042165
  7397.848  7397.840  0.500  3.756634  146.816  3.429951  0.041918
  7401.155  7401.150  0.500  3.750765  146.72  3.447874  0.042037
  7404.486  7404.470  0.500  3.743541  146.609  3.470248  0.042430
  7407.829  7407.820  0.500  3.735222  146.551  3.497848  0.042738
  7411.201  7411.190  0.500  3.727304  146.516  3.524815  0.042966
  7414.578  7414.570  0.500  3.719918  146.418  3.548583  0.043216
  7417.982  7417.980  0.500  3.713691  146.334  3.568707  0.043664
  7421.408  7421.400  0.500  3.709034  146.229  3.582772  0.044313
  7424.856  7424.850  0.500  3.704367  146.134  3.597211  0.045339
  7428.324  7428.310  0.500  3.699229  146.027  3.613079  0.046220
  7431.798  7431.790  0.500  3.694006  146.327  3.639460  0.046696
  7435.298  7435.290  0.500  3.688212  146.404  3.662540  0.046782
  7438.819  7438.810  0.500  3.682210  146.275  3.681337  0.046417
  7442.357  7442.350  0.500  3.676258  146.144  3.699995  0.045118
  7445.910  7445.900  0.500  3.670714  142.254  3.621539  0.042903
  7449.490  7449.480  0.500  3.665292  146.084  3.739261  0.043478
  7453.095  7453.080  0.500  3.659870  144.798  3.726505  0.042844
  7456.702  7456.690  0.500  3.654149  145.843  3.774941  0.043535
  7460.333  7460.320  0.500  3.648481  145.181  3.779168  0.043923
  7463.988  7463.980  0.500  3.642208  145.592  3.813710  0.045004
  7467.655  7467.650  0.500  3.635968  141.598  3.732288  0.045162
  7471.343  7471.340  0.500  3.629518  145.532  3.860820  0.048216
  7475.058  7475.050  0.500  3.623663  145.424  3.880608  0.050055
  7478.794  7478.780  0.500  3.617961  145.315  3.899881  0.051657
  7482.536  7482.520  0.500  3.612215  145.158  3.918110  0.052928
  7486.303  7486.290  0.500  3.606597  144.962  3.934861  0.054603
  7490.093  7490.080  0.500  3.600420  144.906  3.957710  0.056391
  7493.897  7493.880  0.500  3.594608  144.796  3.977766  0.057832
  7497.741  7497.710  0.500  3.588462  144.708  3.999843  0.058553
  7501.560  7501.550  0.500  3.582171  144.567  4.021158  0.058791
  7505.431  7505.410  0.500  3.576122  144.407  4.041075  0.058577
  7509.307  7509.290  0.500  3.570322  144.286  4.061178  0.058690
  7513.184  7513.190  0.500  3.564856  144.174  4.080276  0.059442
  7517.130  7517.110  0.500  3.558852  144.057  4.101516  0.060157
  7521.076  7521.050  0.500  3.553242  143.888  4.119748  0.060846
  7525.019  7525.010  0.500  3.547557  143.792  4.140481  0.061424
  7528.997  7528.980  0.500  3.542095  143.662  4.159384  0.061576
  7533.002  7532.980  0.500  3.536326  143.521  4.179350  0.061627
  7537.023  7536.990  0.500  3.530267  143.367  4.200246  0.062167
  7541.053  7541.030  0.500  3.523894  143.193  4.221964  0.062793
  7545.115  7545.080  0.500  3.517287  143.056  4.245892  0.063809
  7549.178  7549.150  0.500  3.511004  142.922  4.268641  0.064574
  7553.273  7553.240  0.500  3.504345  142.797  4.293387  0.064825
  7557.343  7557.350  0.500  3.497635  142.669  4.318422  0.064757
  7561.511  7561.480  0.500  3.491086  142.533  4.342664  0.064636
  7565.617  7565.630  0.500  3.484413  142.343  4.365913  0.064803
  7569.811  7569.790  0.500  3.477911  142.241  4.391224  0.065768
  7574.010  7573.980  0.500  3.471700  142.073  4.413372  0.067081
  7578.167  7578.180  0.500  3.465335  141.918  4.436711  0.068987
  7582.407  7582.410  0.500  3.458923  141.771  4.460623  0.071076
  7586.638  7586.650  0.500  3.452983  141.556  4.480409  0.072741
  7590.895  7590.910  0.500  3.446989  141.369  4.501374  0.073895
  7595.182  7595.190  0.500  3.441114  141.114  4.519744  0.074712
  7599.511  7599.490  0.500  3.434869  140.837  4.539113  0.075227
  7603.828  7603.810  0.500  3.428872  140.303  4.549125  0.075695
  7608.172  7608.150  0.500  3.422366  140.051  4.570577  0.076782
  7612.504  7612.510  0.500  3.416009  139.824  4.592287  0.078245
  7616.913  7616.890  0.500  3.409806  139.764  4.618865  0.079474
  7621.302  7621.280  0.500  3.403296  139.862  4.652292  0.080088
  7625.716  7625.700  0.500  3.397013  139.886  4.682414  0.080834
  7630.146  7630.130  0.500  3.390881  139.791  4.708010  0.081616
  7634.576  7634.580  0.500  3.384502  139.651  4.733386  0.082686
  7639.076  7639.050  0.500  3.377622  139.489  4.760564  0.084302
  7643.532  7643.540  0.500  3.371236  139.312  4.784986  0.085794
  7648.035  7648.050  0.500  3.364354  139.148  4.812349  0.087257
  7652.566  7652.580  0.500  3.358008  138.972  4.836859  0.088496
  7657.111  7657.130  0.500  3.351965  138.762  4.858834  0.089249
  7661.713  7661.700  0.500  3.345657  138.59  4.883499  0.090167
  7666.297  7666.280  0.500  3.338839  138.379  4.909441  0.090578
  7670.871  7670.890  0.500  3.332480  138.2  4.934355  0.090973
  7675.491  7675.510  0.500  3.325863  137.986  4.959418  0.091389
  7680.151  7680.160  0.500  3.319474  137.812  4.984918  0.092156
  7684.803  7684.820  0.500  3.313063  137.475  5.004721  0.092669
  7689.488  7689.500  0.500  3.306279  137.61  5.043710  0.093997
  7694.189  7694.200  0.500  3.299920  137.272  5.063418  0.095506
  7698.911  7698.920  0.500  3.293641  137.11  5.089304  0.096810
  7703.647  7703.660  0.500  3.287109  136.843  5.112673  0.098467
  7708.397  7708.410  0.500  3.280425  136.786  5.144826  0.099808
  7713.172  7713.190  0.500  3.274123  136.536  5.167903  0.101388
  7717.980  7717.990  0.500  3.267301  136.258  5.192685  0.103218
  7722.788  7722.800  0.500  3.260983  136.141  5.221089  0.104668
  7727.616  7727.630  0.500  3.254243  135.933  5.248392  0.106183
  7732.508  7732.490  0.500  3.247593  135.673  5.273296  0.107281
  7737.353  7737.360  0.500  3.240911  135.352  5.296079  0.108407
  7742.238  7742.250  0.500  3.234188  135.392  5.333389  0.109720
  7747.147  7747.160  0.500  3.227450  135.16  5.360230  0.111189
  7752.073  7752.090  0.500  3.220680  134.948  5.388170  0.112446
  7757.010  7757.030  0.500  3.214056  134.725  5.415043  0.113765
  7761.977  7762.000  0.500  3.207453  134.521  5.442660  0.115211
  7767.010  7766.990  0.500  3.200579  134.298  5.471108  0.117237
  7772.013  7771.990  0.500  3.193959  134.084  5.498676  0.118535
  7777.016  7777.020  0.500  3.187191  133.906  5.528687  0.120284
  7782.064  7782.060  0.500  3.180813  133.719  5.556263  0.122067
  7787.113  7787.120  0.500  3.174164  133.536  5.585667  0.123436
  7792.190  7792.200  0.500  3.167356  133.358  5.616355  0.125093
  7797.295  7797.300  0.500  3.160777  133.096  5.642297  0.126552
  7802.404  7802.420  0.500  3.154714  132.906  5.668533  0.127635
  7807.564  7807.560  0.500  3.147728  132.692  5.699062  0.128864
  7812.710  7812.720  0.500  3.141161  132.46  5.726604  0.130153
  7817.892  7817.900  0.500  3.134228  132.284  5.758782  0.131603
  7823.078  7823.090  0.500  3.127869  132.046  5.785074  0.133046
  7828.311  7828.310  0.500  3.121026  131.787  5.813394  0.134456
  7833.528  7833.540  0.500  3.114494  131.567  5.841698  0.136098
  7838.786  7838.790  0.500  3.107884  131.084  5.858848  0.137308
  7844.035  7844.060  0.500  3.100950  131.2  5.904829  0.139155
  7849.331  7849.350  0.500  3.094241  130.866  5.929435  0.140926
  7854.640  7854.660  0.500  3.087574  129.786  5.919881  0.141684
  7859.972  7859.990  0.500  3.080886  130.437  5.989496  0.144372
  7865.322  7865.340  0.500  3.074231  130.251  6.020863  0.146759
  7870.685  7870.710  0.500  3.067433  130.042  6.052195  0.148659
  7876.101  7876.090  0.500  3.060839  129.856  6.083551  0.150585
  7881.506  7881.500  0.500  3.054035  129.598  6.112896  0.152802
  7886.931  7886.920  0.500  3.047115  129.351  6.143637  0.154767
  7892.357  7892.370  0.500  3.040407  129.1  6.172961  0.156579
  7897.816  7897.830  0.500  3.033992  128.761  6.196385  0.158384
  7903.297  7903.310  0.500  3.026894  128.602  6.232804  0.160616
  7908.789  7908.810  0.500  3.020320  128.365  6.262353  0.162704
  7914.310  7914.330  0.500  3.013444  128.119  6.293501  0.164663
  7919.895  7919.870  0.500  3.006820  127.827  6.320865  0.166617
  7925.399  7925.420  0.500  3.000146  127.584  6.351109  0.168632
  7930.992  7931.000  0.500  2.993622  127.184  6.372608  0.170496
  7936.578  7936.600  0.500  2.986798  126.861  6.399975  0.172365
  7942.195  7942.210  0.500  2.980418  126.916  6.443717  0.174200
  7947.867  7947.850  0.500  2.973517  126.6  6.472196  0.176011
  7953.479  7953.500  0.500  2.966470  126.204  6.497572  0.177825
  7959.143  7959.170  0.500  2.959767  125.984  6.529870  0.179920
  7964.837  7964.860  0.500  2.952911  125.651  6.557406  0.181889