File: xdidata/Fe/Fe-Augite.xdi
# XDI/1.0 BlueSky/1.10.0 BMM/2023-1.0-py310-tiled
# Beamline.name: BMM (06BM) -- Beamline for Materials Measurement (NIST)
# Beamline.xray_source: NSLS-II three-pole wiggler
# Beamline.collimation: paraboloid mirror, 5 nm Rh on 30 nm Pt
# Beamline.focusing: not in use
# Beamline.harmonic_rejection: flat mirror, Si stripe, pitch = 7.0 mrad relative to beam
# Beamline.software: Bluesky 1.10.0, Ophyd 1.7.0, DataBroker 2.0.0b13, Python 3.10.8, 2023-1.0-py310-tiled
# Detector.I0: 10 cm N2
# Detector.I1: 25 cm N2
# Detector.I2: 25 cm N2
# Element.symbol: Fe
# Element.edge: K
# Element.reference: Fe
# Element.reference_material: Fe foil
# Facility.name: NSLS-II
# Facility.energy: 3.0
# Facility.current: 399.9
# Facility.mode: top-off
# Facility.GUP: 123456
# Facility.SAF: 301027
# Facility.cycle: 2023-2
# Mono.name: Si(111)
# Mono.d_spacing: 3.13519
# Mono.encoder_resolution: 0.0000050 deg/ct
# Mono.angle_offset: 16.0754 deg
# Mono.scan_mode: pseudo channel cut
# Mono.scan_type: step
# Mono.direction: forward in energy
# Sample.name: (Ca,Na)(Mg,Fe,Ti,Al)(Si,Al)2O6
# Sample.prep: PEG pellet
# Sample.x: 142.329 mm
# Sample.y: 114.126 mm
# Sample.SDD_position: 205.000 mm
# Scan.experimenters: Bruce Ravel
# Scan.edge_energy: 7112.0
# Scan.start_time: 2023-05-05T20:10:48
# Scan.end_time: 2023-05-05T20:19:04
# Scan.transient_id: 74611
# Scan.uid: 7f35bf42-07aa-467f-a489-86cedb7ed7b8
# Scan.plot_hint: ln(I0/It)  --  ln($5/$6)
# Column.1: energy eV
# Column.2: requested_energy eV
# Column.3: measurement_time seconds
# Column.4: xmu
# Column.5: I0 nA
# Column.6: It nA
# Column.7: Ir nA
# ///////////
# courtesy Martin Stennett, University of Sheffield
# -----------
# energy  requested_energy  measurement_time  xmu  I0  It  Ir
  6912.001  6912.000  0.500  1.874472  154.314  23.6773  4.443317
  6922.013  6922.000  0.500  1.864016  154.123  23.8966  4.516860
  6932.015  6932.000  0.500  1.853521  154.059  24.1387  4.595068
  6942.031  6942.000  0.500  1.843245  154.073  24.3903  4.675309
  6951.991  6952.000  0.500  1.833502  154.038  24.6234  4.754230
  6962.000  6962.000  0.500  1.823093  154.009  24.8763  4.835312
  6972.012  6972.000  0.500  1.812687  154.006  25.1361  4.918994
  6982.012  6982.000  0.500  1.802613  153.975  25.3854  5.002192
  6992.016  6992.000  0.500  1.792476  153.938  25.638  5.086529
  7002.013  7002.000  0.500  1.782404  153.828  25.879  5.168959
  7012.008  7012.000  0.500  1.772702  153.817  26.1293  5.252908
  7022.010  7022.000  0.500  1.762665  153.748  26.3812  5.339266
  7032.010  7032.000  0.500  1.752797  153.672  26.6295  5.423704
  7042.013  7042.000  0.500  1.743038  153.577  26.8742  5.507203
  7052.011  7052.000  0.500  1.733555  153.507  27.1178  5.590649
  7062.002  7062.000  0.500  1.723884  152.75  27.2464  5.648581
  7072.007  7072.000  0.500  1.714344  153.277  27.6023  5.749417
  7081.978  7082.000  0.500  1.705028  153.288  27.8627  5.824785
  7083.978  7084.000  0.500  1.703224  153.048  27.8693  5.828006
  7085.982  7086.000  0.500  1.701217  153.175  27.9485  5.847873
  7087.985  7088.000  0.500  1.699444  153.184  27.9998  5.858672
  7089.988  7090.000  0.500  1.697796  153.161  28.0417  5.866152
  7091.991  7092.000  0.500  1.695861  153.142  28.0925  5.875968
  7093.989  7094.000  0.500  1.694003  153.128  28.1423  5.881235
  7096.216  7096.000  0.500  1.692418  153.076  28.1773  5.881716
  7098.003  7098.000  0.500  1.690507  153.062  28.2286  5.882453
  7099.996  7100.000  0.500  1.689000  153.042  28.2675  5.874837
  7101.999  7102.000  0.500  1.687322  153.014  28.3097  5.858416
  7102.288  7102.300  0.500  1.687120  153.011  28.3149  5.855265
  7102.587  7102.600  0.500  1.686706  152.985  28.3219  5.852827
  7102.884  7102.900  0.500  1.686464  152.992  28.3299  5.849165
  7103.188  7103.200  0.500  1.686116  152.976  28.3369  5.843738
  7103.488  7103.500  0.500  1.685807  152.957  28.3421  5.839129
  7103.787  7103.800  0.500  1.685725  152.965  28.346  5.833680
  7104.087  7104.100  0.500  1.685362  152.951  28.3537  5.826430
  7104.384  7104.400  0.500  1.685151  152.97  28.3632  5.821446
  7104.683  7104.700  0.500  1.685317  153.205  28.4021  5.820652
  7104.985  7105.000  0.500  1.684759  153.183  28.4139  5.814378
  7105.289  7105.300  0.500  1.684748  153.213  28.4197  5.806031
  7105.582  7105.600  0.500  1.684850  153.204  28.4152  5.793507
  7105.890  7105.900  0.500  1.684230  153.202  28.4323  5.784985
  7106.192  7106.200  0.500  1.684091  153.195  28.435  5.771410
  7106.492  7106.500  0.500  1.683789  153.197  28.444  5.758886
  7106.792  7106.800  0.500  1.683721  153.194  28.4453  5.742744
  7107.089  7107.100  0.500  1.683683  153.196  28.4467  5.724300
  7107.387  7107.400  0.500  1.683401  153.198  28.4552  5.706712
  7107.689  7107.700  0.500  1.683161  153.181  28.4588  5.682616
  7107.989  7108.000  0.500  1.683309  153.155  28.4497  5.652671
  7108.287  7108.300  0.500  1.682946  153.161  28.4613  5.622371
  7108.586  7108.600  0.500  1.682666  153.162  28.4693  5.586285
  7108.891  7108.900  0.500  1.682395  153.154  28.4757  5.542429
  7109.191  7109.200  0.500  1.682302  153.161  28.4796  5.486826
  7109.493  7109.500  0.500  1.682130  153.142  28.481  5.415423
  7109.795  7109.800  0.500  1.682110  153.155  28.4838  5.320154
  7110.095  7110.100  0.500  1.682194  153.135  28.4779  5.189845
  7110.393  7110.400  0.500  1.682176  153.12  28.4756  5.006908
  7110.699  7110.700  0.500  1.682315  153.104  28.4686  4.743302
  7110.995  7111.000  0.500  1.682795  153.048  28.4446  4.402839
  7111.297  7111.300  0.500  1.683121  153.03  28.432  3.995021
  7111.591  7111.600  0.500  1.683486  153.005  28.4169  3.575611
  7111.889  7111.900  0.500  1.683963  152.979  28.3986  3.189334
  7112.191  7112.200  0.500  1.684609  152.967  28.378  2.882520
  7112.494  7112.500  0.500  1.685475  152.948  28.3498  2.651832
  7112.794  7112.800  0.500  1.686425  152.931  28.3198  2.477598
  7113.092  7113.100  0.500  1.687679  152.909  28.2802  2.338451
  7113.395  7113.400  0.500  1.688760  152.891  28.2465  2.214943
  7113.697  7113.700  0.500  1.689406  152.866  28.2235  2.105402
  7114.002  7114.000  0.500  1.689602  152.838  28.2128  2.005919
  7114.300  7114.300  0.500  1.689486  152.836  28.2157  1.921886
  7114.598  7114.600  0.500  1.689201  152.837  28.2239  1.851265
  7114.897  7114.900  0.500  1.688544  152.822  28.2398  1.797457
  7115.201  7115.200  0.500  1.687377  152.818  28.272  1.758750
  7115.500  7115.500  0.500  1.686077  152.811  28.3075  1.731764
  7115.798  7115.800  0.500  1.685454  152.807  28.3244  1.712631
  7116.092  7116.100  0.500  1.685157  152.795  28.3306  1.696791
  7116.393  7116.400  0.500  1.685405  152.792  28.3229  1.679342
  7116.693  7116.700  0.500  1.686206  152.783  28.2985  1.655144
  7116.998  7117.000  0.500  1.687374  152.769  28.2629  1.619143
  7117.297  7117.300  0.500  1.689044  152.747  28.2118  1.566617
  7117.598  7117.600  0.500  1.691271  152.744  28.1484  1.497201
  7117.894  7117.900  0.500  1.693682  152.725  28.0772  1.412804
  7118.199  7118.200  0.500  1.696425  152.705  27.9967  1.316708
  7118.502  7118.500  0.500  1.700133  152.721  27.896  1.217708
  7118.803  7118.800  0.500  1.704431  152.692  27.771  1.121568
  7119.097  7119.100  0.500  1.710066  152.69  27.6145  1.031181
  7119.396  7119.400  0.500  1.716755  152.671  27.427  0.946644
  7119.699  7119.700  0.500  1.724652  152.654  27.2083  0.866130
  7120.000  7120.000  0.500  1.733568  152.641  26.9645  0.789562
  7120.301  7120.300  0.500  1.742837  152.634  26.7145  0.717260
  7120.595  7120.600  0.500  1.752001  152.608  26.4663  0.651010
  7120.896  7120.900  0.500  1.761020  152.604  26.2279  0.590567
  7121.199  7121.200  0.500  1.769934  152.587  25.9923  0.538721
  7121.505  7121.500  0.500  1.778617  152.578  25.7661  0.494297
  7121.799  7121.800  0.500  1.787053  152.567  25.5479  0.457542
  7122.102  7122.100  0.500  1.796257  152.557  25.3121  0.425231
  7122.399  7122.400  0.500  1.805980  152.523  25.0616  0.397293
  7122.702  7122.700  0.500  1.817313  152.524  24.7794  0.372083
  7123.006  7123.000  0.500  1.829700  152.517  24.4731  0.349734
  7123.301  7123.300  0.500  1.842805  152.506  24.1528  0.329746
  7123.600  7123.600  0.500  1.855827  152.491  23.8379  0.311986
  7123.903  7123.900  0.500  1.868327  152.485  23.5409  0.296645
  7124.198  7124.200  0.500  1.880885  152.466  23.2442  0.282171
  7124.499  7124.500  0.500  1.893207  152.451  22.9573  0.269319
  7124.796  7124.800  0.500  1.905795  152.428  22.6667  0.257291
  7125.093  7125.100  0.500  1.917921  152.412  22.3911  0.246335
  7125.399  7125.400  0.500  1.929689  152.392  22.1263  0.235522
  7125.700  7125.700  0.500  1.939742  152.375  21.9025  0.226118
  7126.002  7126.000  0.500  1.947967  152.353  21.72  0.217377
  7126.301  7126.300  0.500  1.955097  152.329  21.5623  0.209348
  7126.602  7126.600  0.500  1.961842  152.315  21.4153  0.201213
  7126.904  7126.900  0.500  1.968873  152.28  21.2605  0.192929
  7127.203  7127.200  0.500  1.976902  152.26  21.0877  0.184226
  7127.505  7127.500  0.500  1.985909  152.241  20.896  0.175331
  7127.804  7127.800  0.500  1.995472  152.224  20.6948  0.166446
  7128.097  7128.100  0.500  2.004969  152.184  20.4938  0.157625
  7128.401  7128.400  0.500  2.014239  152.18  20.3041  0.148935
  7128.698  7128.700  0.500  2.022956  152.156  20.1248  0.140471
  7128.998  7129.000  0.500  2.030410  152.122  19.9708  0.132565
  7129.300  7129.300  0.500  2.037233  152.089  19.8308  0.124905
  7129.597  7129.600  0.500  2.042745  152.058  19.7177  0.118384
  7129.903  7129.900  0.500  2.047228  152.024  19.6251  0.112433
  7130.209  7130.200  0.500  2.050280  151.995  19.5616  0.108173
  7130.505  7130.500  0.500  2.051940  151.991  19.5286  0.104627
  7130.802  7130.800  0.500  2.052628  151.96  19.5113  0.102367
  7131.104  7131.100  0.500  2.052575  151.92  19.5071  0.101493
  7131.402  7131.400  0.500  2.052401  151.884  19.5058  0.101902
  7131.708  7131.700  0.500  2.052625  151.885  19.5017  0.103579
  7132.005  7132.000  0.500  2.053308  151.848  19.4836  0.106332
  7132.301  7132.300  0.500  2.053209  151.846  19.4852  0.110028
  7132.594  7132.600  0.500  2.052635  151.852  19.4972  0.114142
  7132.903  7132.900  0.500  2.051121  151.837  19.5248  0.119296
  7133.196  7133.200  0.500  2.048278  151.85  19.5821  0.124949
  7133.496  7133.500  0.500  2.043825  151.844  19.6687  0.131187
  7133.798  7133.800  0.500  2.038271  151.827  19.7761  0.137545
  7134.096  7134.100  0.500  2.032214  151.808  19.8937  0.143802
  7134.400  7134.400  0.500  2.025881  151.798  20.0188  0.149856
  7134.705  7134.700  0.500  2.019891  151.804  20.1398  0.155341
  7135.005  7135.000  0.500  2.014335  151.794  20.2507  0.160566
  7135.303  7135.300  0.500  2.008952  151.798  20.3605  0.165152
  7135.601  7135.600  0.500  2.003774  151.812  20.4681  0.169256
  7135.901  7135.900  0.500  1.999159  151.758  20.5554  0.172497
  7136.199  7136.200  0.500  1.995303  151.739  20.6323  0.175030
  7136.499  7136.500  0.500  1.991356  151.775  20.7188  0.177024
  7136.797  7136.800  0.500  1.987974  151.778  20.7894  0.178193
  7136.998  7137.000  0.500  1.985917  151.768  20.8309  0.178655
  7138.003  7137.990  0.500  1.975180  151.748  21.053  0.177570
  7139.007  7138.990  0.500  1.966858  151.731  21.2265  0.171323
  7140.019  7140.010  0.500  1.961410  151.728  21.3421  0.163939
  7141.083  7141.060  0.500  1.957695  151.737  21.4228  0.158889
  7142.143  7142.120  0.500  1.953195  151.737  21.5194  0.158430
  7143.188  7143.200  0.500  1.947963  151.695  21.6263  0.161839
  7144.285  7144.300  0.500  1.942810  151.672  21.7348  0.165196
  7145.409  7145.420  0.500  1.938246  151.648  21.8306  0.165347
  7146.552  7146.560  0.500  1.932992  151.648  21.9457  0.160320
  7147.705  7147.710  0.500  1.925254  151.664  22.1185  0.151600
  7148.888  7148.890  0.500  1.915077  151.639  22.341  0.143025
  7150.080  7150.080  0.500  1.904415  151.649  22.5821  0.137575
  7151.304  7151.300  0.500  1.894116  151.609  22.8098  0.134977
  7152.532  7152.530  0.500  1.885877  151.613  22.9991  0.133276
  7153.786  7153.780  0.500  1.878925  151.59  23.156  0.132809
  7155.052  7155.050  0.500  1.874015  151.555  23.2647  0.134436
  7156.342  7156.340  0.500  1.870301  151.556  23.3513  0.137367
  7157.654  7157.650  0.500  1.868048  151.53  23.4  0.139968
  7158.978  7158.980  0.500  1.866992  151.526  23.424  0.141023
  7160.332  7160.330  0.500  1.867415  151.494  23.4092  0.141245
  7161.703  7161.700  0.500  1.869530  151.45  23.3529  0.142038
  7163.080  7163.080  0.500  1.873299  151.419  23.2603  0.143764
  7164.493  7164.490  0.500  1.878273  151.392  23.1409  0.145924
  7165.911  7165.910  0.500  1.883735  151.33  23.0053  0.147746
  7167.351  7167.350  0.500  1.888913  151.27  22.8774  0.148575
  7168.814  7168.810  0.500  1.892927  151.878  22.8774  0.150444
  7170.283  7170.290  0.500  1.896051  151.882  22.8067  0.152572
  7171.793  7171.790  0.500  1.898751  151.866  22.7427  0.156708
  7173.318  7173.310  0.500  1.900721  151.815  22.6903  0.163101
  7174.856  7174.850  0.500  1.903274  151.778  22.627  0.171334
  7176.420  7176.410  0.500  1.905018  151.747  22.5829  0.181193
  7177.985  7177.980  0.500  1.904910  151.709  22.5798  0.190928
  7179.581  7179.580  0.500  1.904599  151.689  22.5838  0.197558
  7181.197  7181.190  0.500  1.903380  151.654  22.6061  0.199615
  7182.834  7182.830  0.500  1.901900  151.634  22.6366  0.198114
  7184.487  7184.480  0.500  1.900454  151.605  22.6651  0.194329
  7186.150  7186.150  0.500  1.898364  151.585  22.7095  0.187050
  7187.846  7187.840  0.500  1.895844  151.554  22.762  0.178110
  7189.555  7189.550  0.500  1.892589  151.536  22.8336  0.169148
  7191.290  7191.280  0.500  1.889208  149.988  22.6769  0.158095
  7193.039  7193.030  0.500  1.885840  151.149  22.9296  0.151090
  7194.796  7194.790  0.500  1.882405  151.326  23.0354  0.148769
  7196.593  7196.580  0.500  1.879368  151.31  23.103  0.152222
  7198.385  7198.380  0.500  1.876308  151.263  23.1666  0.160287
  7200.226  7200.210  0.500  1.873088  151.204  23.2323  0.171911
  7202.057  7202.050  0.500  1.869509  151.14  23.3057  0.185854
  7203.924  7203.910  0.500  1.865775  151.152  23.3947  0.202184
  7205.799  7205.790  0.500  1.862249  151.113  23.4713  0.217450
  7207.706  7207.690  0.500  1.859326  151.036  23.5281  0.225454
  7209.609  7209.610  0.500  1.856775  150.966  23.5771  0.218862
  7211.566  7211.550  0.500  1.853916  150.939  23.6405  0.197625
  7213.518  7213.510  0.500  1.851578  150.885  23.6873  0.168030
  7215.495  7215.480  0.500  1.849147  150.829  23.7361  0.140590
  7217.487  7217.480  0.500  1.847061  150.767  23.7759  0.120645
  7219.508  7219.490  0.500  1.845285  150.702  23.8079  0.109815
  7221.529  7221.520  0.500  1.843404  150.648  23.8442  0.107995
  7223.595  7223.580  0.500  1.841398  150.587  23.8825  0.114745
  7225.662  7225.650  0.500  1.839430  150.474  23.9115  0.129478
  7227.750  7227.740  0.500  1.837013  147.84  23.5498  0.147256
  7229.860  7229.850  0.500  1.834651  150.65  24.0542  0.174532
  7231.991  7231.980  0.500  1.832540  150.599  24.0969  0.201797
  7234.125  7234.120  0.500  1.830717  150.547  24.1324  0.227248
  7236.308  7236.290  0.500  1.828953  150.479  24.1641  0.245683
  7238.491  7238.480  0.500  1.827581  150.446  24.192  0.254348
  7240.697  7240.680  0.500  1.825973  150.389  24.2217  0.253578
  7242.917  7242.900  0.500  1.824824  150.357  24.2444  0.244881
  7245.162  7245.150  0.500  1.823956  147.54  23.8109  0.228407
  7247.421  7247.410  0.500  1.823210  150.068  24.237  0.222155
  7249.696  7249.690  0.500  1.822754  150.089  24.2515  0.217779
  7251.998  7251.990  0.500  1.821297  149.987  24.2702  0.220201
  7254.317  7254.310  0.500  1.819841  147.71  23.9366  0.223482
  7256.664  7256.650  0.500  1.818026  150.097  24.3677  0.232727
  7259.006  7259.000  0.500  1.815973  149.975  24.3978  0.231180
  7261.394  7261.380  0.500  1.813461  149.516  24.3844  0.224494
  7263.784  7263.770  0.500  1.809660  138.828  22.7275  0.203286
  7266.201  7266.190  0.500  1.808517  149.652  24.5275  0.214663
  7268.628  7268.620  0.500  1.805748  150.265  24.6962  0.210258
  7271.085  7271.070  0.500  1.802879  150.179  24.7531  0.200786
  7273.563  7273.550  0.500  1.799939  149.015  24.6336  0.189346
  7276.049  7276.040  0.500  1.797470  150.201  24.8909  0.185305
  7278.559  7278.550  0.500  1.794893  150.158  24.9481  0.182394
  7281.087  7281.070  0.500  1.792147  150.13  25.0119  0.177568
  7283.630  7283.620  0.500  1.789482  149.1  24.9067  0.170188
  7286.200  7286.190  0.500  1.786888  149.745  25.0794  0.165238
  7288.783  7288.770  0.500  1.783959  149.842  25.1693  0.163581
  7291.389  7291.380  0.500  1.780480  149.787  25.2477  0.169794
  7294.014  7294.000  0.500  1.777488  149.752  25.3174  0.185093
  7296.666  7296.650  0.500  1.774721  149.7  25.3788  0.204853
  7299.320  7299.310  0.500  1.771164  149.573  25.4476  0.225327
  7302.006  7301.990  0.500  1.768204  147.85  25.229  0.240380
  7304.709  7304.690  0.500  1.765266  149.703  25.6204  0.257710
  7307.424  7307.410  0.500  1.762461  149.608  25.6761  0.267275
  7310.159  7310.150  0.500  1.759778  149.555  25.7358  0.271449
  7312.910  7312.900  0.500  1.757284  149.472  25.7859  0.271929
  7315.694  7315.680  0.500  1.755187  149.409  25.8291  0.272255
  7318.481  7318.470  0.500  1.752804  149.377  25.8851  0.274280
  7321.304  7321.290  0.500  1.750306  149.281  25.9332  0.275749
  7324.137  7324.120  0.500  1.747949  149.241  25.9875  0.277381
  7326.985  7326.970  0.500  1.745677  149.186  26.037  0.278333
  7329.859  7329.850  0.500  1.742965  149.085  26.0899  0.280168
  7332.755  7332.740  0.500  1.740188  149.014  26.1501  0.286167
  7335.663  7335.650  0.500  1.737242  148.955  26.2169  0.293756
  7338.589  7338.570  0.500  1.733936  147.748  26.0905  0.295837
  7341.529  7341.520  0.500  1.731496  148.763  26.3339  0.295832
  7344.500  7344.490  0.500  1.728645  148.739  26.4049  0.285892
  7347.479  7347.470  0.500  1.725980  148.674  26.4638  0.271368
  7350.496  7350.480  0.500  1.723040  148.64  26.5355  0.257511
  7353.512  7353.500  0.500  1.720372  148.579  26.5956  0.245943
  7356.564  7356.550  0.500  1.717230  148.474  26.6604  0.236076
  7359.623  7359.610  0.500  1.714068  148.404  26.7323  0.228118
  7362.700  7362.690  0.500  1.711036  148.323  26.7988  0.222444
  7365.799  7365.790  0.500  1.708203  148.245  26.8606  0.220395
  7368.921  7368.910  0.500  1.705273  148.163  26.9246  0.223745
  7372.063  7372.050  0.500  1.702522  148.104  26.988  0.233720
  7375.216  7375.200  0.500  1.699702  148.028  27.0504  0.251682
  7378.395  7378.380  0.500  1.696926  147.942  27.1099  0.278357
  7381.586  7381.570  0.500  1.694083  147.876  27.1748  0.309154
  7384.796  7384.790  0.500  1.691204  147.818  27.2425  0.333269
  7388.033  7388.020  0.500  1.688221  147.741  27.3096  0.343442
  7391.282  7391.270  0.500  1.685147  147.667  27.38  0.342517
  7394.559  7394.550  0.500  1.681982  147.591  27.4527  0.337437
  7397.846  7397.840  0.500  1.678830  147.49  27.5205  0.333904
  7401.162  7401.150  0.500  1.675683  147.397  27.5899  0.334586
  7404.481  7404.470  0.500  1.672137  147.306  27.6707  0.336630
  7407.829  7407.820  0.500  1.668898  147.243  27.7486  0.337528
  7411.198  7411.190  0.500  1.665795  147.165  27.8201  0.337654
  7414.583  7414.570  0.500  1.662661  147.072  27.8899  0.337892
  7417.989  7417.980  0.500  1.659614  146.996  27.9605  0.340323
  7421.404  7421.400  0.500  1.656211  146.872  28.0322  0.345321
  7424.863  7424.850  0.500  1.653062  146.753  28.0978  0.352927
  7428.319  7428.310  0.500  1.650055  146.656  28.1638  0.359832
  7431.802  7431.790  0.500  1.647009  146.573  28.2337  0.360795
  7435.296  7435.290  0.500  1.643828  146.465  28.3027  0.360050
  7438.823  7438.810  0.500  1.640761  146.345  28.3664  0.355171
  7442.361  7442.350  0.500  1.637656  146.212  28.4288  0.346395
  7445.907  7445.900  0.500  1.634467  142.328  27.7619  0.328092
  7449.486  7449.480  0.500  1.631448  146.156  28.5949  0.330714
  7453.086  7453.080  0.500  1.628325  144.868  28.4316  0.326394
  7456.702  7456.690  0.500  1.625353  145.921  28.7233  0.330406
  7460.333  7460.320  0.500  1.622239  145.341  28.6984  0.332345
  7463.992  7463.980  0.500  1.618787  145.689  28.8667  0.339337
  7467.660  7467.650  0.500  1.615676  141.744  28.1725  0.339918
  7471.354  7471.340  0.500  1.612357  145.671  29.0493  0.362842
  7475.063  7475.050  0.500  1.608998  145.534  29.1195  0.374915
  7478.784  7478.780  0.500  1.605824  145.395  29.1843  0.384780
  7482.531  7482.520  0.500  1.602614  145.285  29.256  0.393969
  7486.303  7486.290  0.500  1.599434  145.139  29.3196  0.405779
  7490.088  7490.080  0.500  1.595760  145.003  29.4  0.418256
  7493.888  7493.880  0.500  1.592319  144.883  29.477  0.427787
  7497.727  7497.710  0.500  1.588899  144.795  29.56  0.431951
  7501.565  7501.550  0.500  1.585573  144.695  29.638  0.431428
  7505.429  7505.410  0.500  1.582205  144.538  29.7056  0.429675
  7509.321  7509.290  0.500  1.578959  144.417  29.7773  0.430345
  7513.213  7513.190  0.500  1.575648  144.311  29.8541  0.433625
  7517.130  7517.110  0.500  1.572254  144.189  29.9303  0.437565
  7521.071  7521.050  0.500  1.569071  144.045  29.9958  0.441493
  7525.021  7525.010  0.500  1.565947  143.908  30.061  0.443740
  7528.980  7528.980  0.500  1.562533  143.774  30.1356  0.444491
  7532.999  7532.980  0.500  1.559089  143.634  30.2102  0.444922
  7537.006  7536.990  0.500  1.556047  143.505  30.2749  0.447789
  7541.048  7541.030  0.500  1.552400  143.361  30.3552  0.452454
  7545.102  7545.080  0.500  1.548863  143.219  30.4325  0.456672
  7549.166  7549.150  0.500  1.545660  143.08  30.5006  0.460224
  7553.275  7553.240  0.500  1.542248  142.944  30.5756  0.460993
  7557.380  7557.350  0.500  1.538684  142.797  30.6532  0.458597
  7561.499  7561.480  0.500  1.535016  142.644  30.733  0.456501
  7565.622  7565.630  0.500  1.531472  142.637  30.8406  0.457122
  7569.818  7569.790  0.500  1.528053  142.933  31.0103  0.463177
  7573.973  7573.980  0.500  1.524511  142.804  31.0923  0.472157
  7578.182  7578.180  0.500  1.521164  142.655  31.1639  0.484429
  7582.410  7582.410  0.500  1.517759  142.498  31.2359  0.496855
  7586.672  7586.650  0.500  1.514115  142.33  31.3129  0.507074
  7590.902  7590.910  0.500  1.510615  142.131  31.3788  0.514329
  7595.212  7595.190  0.500  1.507044  141.884  31.4365  0.518682
  7599.514  7599.490  0.500  1.503538  141.64  31.4926  0.521209
  7603.816  7603.810  0.500  1.500116  141.08  31.4756  0.523394
  7608.157  7608.150  0.500  1.496527  140.86  31.5395  0.529677
  7612.496  7612.510  0.500  1.493137  140.654  31.6002  0.537510
  7616.905  7616.890  0.500  1.489622  140.636  31.7074  0.544607
  7621.302  7621.280  0.500  1.486043  140.709  31.8376  0.547827
  7625.721  7625.700  0.500  1.482566  140.727  31.9528  0.550124
  7630.153  7630.130  0.500  1.479235  140.645  32.0405  0.554092
  7634.558  7634.580  0.500  1.475462  140.485  32.1252  0.560777
  7639.041  7639.050  0.500  1.471872  140.316  32.2019  0.569692
  7643.556  7643.540  0.500  1.468230  140.127  32.2759  0.578604
  7648.067  7648.050  0.500  1.464616  139.955  32.353  0.586428
  7652.566  7652.580  0.500  1.461082  139.764  32.4231  0.592218
  7657.126  7657.130  0.500  1.457343  139.603  32.5072  0.597118
  7661.683  7661.700  0.500  1.453709  139.428  32.5845  0.600431
  7666.267  7666.280  0.500  1.450078  139.264  32.6645  0.602288
  7670.888  7670.890  0.500  1.446550  139.085  32.738  0.603122
  7675.528  7675.510  0.500  1.442817  138.898  32.8163  0.604506
  7680.156  7680.160  0.500  1.439209  138.686  32.8846  0.606027
  7684.841  7684.820  0.500  1.435657  138.391  32.9315  0.609102
  7689.488  7689.500  0.500  1.431873  138.553  33.095  0.617107
  7694.189  7694.200  0.500  1.428422  138.247  33.1361  0.623951
  7698.906  7698.920  0.500  1.424682  138.007  33.2025  0.632234
  7703.657  7703.660  0.500  1.421082  137.759  33.2622  0.639350
  7708.409  7708.410  0.500  1.417363  137.691  33.3697  0.647628
  7713.172  7713.190  0.500  1.413632  137.45  33.4359  0.656469
  7717.967  7717.990  0.500  1.410189  137.199  33.4899  0.664638
  7722.781  7722.800  0.500  1.406603  137.062  33.5765  0.673141
  7727.608  7727.630  0.500  1.402950  136.855  33.6487  0.679579
  7732.513  7732.490  0.500  1.399183  136.621  33.7179  0.685081
  7737.394  7737.360  0.500  1.395525  136.331  33.7696  0.690328
  7742.241  7742.250  0.500  1.391733  136.393  33.9134  0.697884
  7747.145  7747.160  0.500  1.388195  136.116  33.9644  0.704017
  7752.078  7752.090  0.500  1.384401  135.922  34.0448  0.709783
  7757.023  7757.030  0.500  1.380640  135.72  34.1225  0.716450
  7761.987  7762.000  0.500  1.376826  135.46  34.1871  0.723903
  7766.987  7766.990  0.500  1.373079  135.272  34.2678  0.732635
  7771.985  7771.990  0.500  1.369405  135.043  34.3357  0.741402
  7777.003  7777.020  0.500  1.365999  134.834  34.3996  0.749285
  7782.079  7782.060  0.500  1.362104  134.617  34.4782  0.756560
  7787.090  7787.120  0.500  1.358149  134.426  34.5657  0.764504
  7792.224  7792.200  0.500  1.354536  134.246  34.6445  0.771078
  7797.282  7797.300  0.500  1.350691  134.038  34.7239  0.777474
  7802.406  7802.420  0.500  1.346864  133.832  34.8036  0.783236
  7807.540  7807.560  0.500  1.343303  133.622  34.8729  0.788155
  7812.705  7812.720  0.500  1.339695  133.382  34.9362  0.793559
  7817.879  7817.900  0.500  1.336096  133.166  35.0053  0.799946
  7823.099  7823.090  0.500  1.332381  132.966  35.0829  0.806410
  7828.309  7828.310  0.500  1.328544  132.769  35.1656  0.813383
  7833.515  7833.540  0.500  1.324753  132.542  35.2387  0.820371
  7838.786  7838.790  0.500  1.320790  132.04  35.2446  0.825385
  7844.054  7844.060  0.500  1.316986  132.13  35.4031  0.834717
  7849.350  7849.350  0.500  1.313316  131.835  35.454  0.842056
  7854.648  7854.660  0.500  1.309722  130.772  35.2948  0.844687
  7859.975  7859.990  0.500  1.305835  131.429  35.6101  0.859127
  7865.328  7865.340  0.500  1.301799  131.212  35.6951  0.868724
  7870.688  7870.710  0.500  1.297842  130.97  35.7706  0.878045
  7876.069  7876.090  0.500  1.294081  130.743  35.843  0.887324
  7881.468  7881.500  0.500  1.290727  130.498  35.8961  0.895992
  7886.899  7886.920  0.500  1.286636  130.272  35.9808  0.905876
  7892.349  7892.370  0.500  1.282798  130.056  36.0594  0.914743
  7897.803  7897.830  0.500  1.279243  129.735  36.0985  0.922701
  7903.289  7903.310  0.500  1.275238  129.555  36.1931  0.932751
  7908.786  7908.810  0.500  1.271429  129.327  36.2673  0.941507
  7914.307  7914.330  0.500  1.267599  129.051  36.3286  0.949490
  7919.854  7919.870  0.500  1.263658  128.778  36.3951  0.958682
  7925.397  7925.420  0.500  1.259864  128.534  36.4642  0.967488
  7930.979  7931.000  0.500  1.256136  128.189  36.502  0.975747
  7936.583  7936.600  0.500  1.252346  127.815  36.5337  0.982089
  7942.187  7942.210  0.500  1.248355  127.834  36.6854  0.991282
  7947.837  7947.850  0.500  1.244514  127.516  36.7349  0.998755
  7953.482  7953.500  0.500  1.240659  127.136  36.767  1.005661
  7959.149  7959.170  0.500  1.236860  126.849  36.8234  1.013718
  7964.843  7964.860  0.500  1.233073  126.58  36.8847  1.022612