File: xdidata/Fe/Fe-Chondrodite.xdi
# XDI/1.0 BlueSky/1.10.0 BMM/2023-1.0-py310-tiled
# Beamline.name: BMM (06BM) -- Beamline for Materials Measurement (NIST)
# Beamline.xray_source: NSLS-II three-pole wiggler
# Beamline.collimation: paraboloid mirror, 5 nm Rh on 30 nm Pt
# Beamline.focusing: not in use
# Beamline.harmonic_rejection: flat mirror, Si stripe, pitch = 7.0 mrad relative to beam
# Beamline.software: Bluesky 1.10.0, Ophyd 1.7.0, DataBroker 2.0.0b13, Python 3.10.8, 2023-1.0-py310-tiled
# Detector.I0: 10 cm N2
# Detector.I1: 25 cm N2
# Detector.I2: 25 cm N2
# Element.symbol: Fe
# Element.edge: K
# Element.reference: Fe
# Element.reference_material: Fe foil
# Facility.name: NSLS-II
# Facility.energy: 3.0
# Facility.current: 399.8
# Facility.mode: top-off
# Facility.GUP: 123456
# Facility.SAF: 301027
# Facility.cycle: 2023-2
# Mono.name: Si(111)
# Mono.d_spacing: 3.13519
# Mono.encoder_resolution: 0.0000050 deg/ct
# Mono.angle_offset: 16.0754 deg
# Mono.scan_mode: pseudo channel cut
# Mono.scan_type: step
# Mono.direction: forward in energy
# Sample.name: (Mg,Fe)5(SiO)2(F,OH,O)2
# Sample.prep: PEG pellet
# Sample.x: 142.329 mm
# Sample.y: 114.126 mm
# Sample.SDD_position: 205.000 mm
# Scan.experimenters: Bruce Ravel
# Scan.edge_energy: 7112.0
# Scan.start_time: 2023-05-05T20:19:46
# Scan.end_time: 2023-05-05T20:28:06
# Scan.transient_id: 74616
# Scan.uid: ca4c7060-7cb4-4ca4-b453-f85e409dfc8f
# Scan.plot_hint: ln(I0/It)  --  ln($5/$6)
# Column.1: energy eV
# Column.2: requested_energy eV
# Column.3: measurement_time seconds
# Column.4: xmu
# Column.5: I0 nA
# Column.6: It nA
# Column.7: Ir nA
# ///////////
# courtesy Martin Stennett, University of Sheffield
# -----------
# energy  requested_energy  measurement_time  xmu  I0  It  Ir
  6912.005  6912.000  0.500  1.783946  154.416  25.9379  4.866984
  6922.007  6922.000  0.500  1.773841  154.26  26.1749  4.947491
  6932.017  6932.000  0.500  1.763402  154.205  26.4401  5.032678
  6942.031  6942.000  0.500  1.753034  154.219  26.7181  5.121063
  6952.002  6952.000  0.500  1.742935  154.198  26.9856  5.207858
  6962.006  6962.000  0.500  1.732634  154.189  27.2635  5.298103
  6972.012  6972.000  0.500  1.722590  154.17  27.5352  5.388093
  6982.017  6982.000  0.500  1.712601  154.564  27.8828  5.493697
  6992.010  6992.000  0.500  1.702527  154.607  28.1729  5.588859
  7002.011  7002.000  0.500  1.692516  154.565  28.4486  5.681004
  7012.010  7012.000  0.500  1.682758  154.508  28.717  5.772146
  7022.016  7022.000  0.500  1.672842  154.435  28.9894  5.864872
  7032.010  7032.000  0.500  1.663066  154.371  29.2621  5.958861
  7042.008  7042.000  0.500  1.653358  154.277  29.5296  6.050550
  7052.003  7052.000  0.500  1.643696  154.178  29.797  6.141118
  7062.008  7062.000  0.500  1.634085  153.455  29.9439  6.205416
  7072.007  7072.000  0.500  1.624807  153.958  30.322  6.315241
  7081.978  7082.000  0.500  1.615499  153.876  30.5892  6.393431
  7083.983  7084.000  0.500  1.613728  153.643  30.597  6.398246
  7085.982  7086.000  0.500  1.611858  153.76  30.6777  6.417965
  7087.983  7088.000  0.500  1.610181  153.752  30.7276  6.428353
  7089.985  7090.000  0.500  1.608432  153.748  30.7806  6.438595
  7091.993  7092.000  0.500  1.606524  153.713  30.8322  6.447573
  7093.989  7094.000  0.500  1.604682  153.684  30.8833  6.454165
  7096.528  7096.000  0.500  1.602717  153.647  30.9366  6.456099
  7097.980  7098.000  0.500  1.601233  153.667  30.9867  6.456021
  7100.105  7100.000  0.500  1.599596  153.598  31.0234  6.446344
  7101.986  7102.000  0.500  1.598251  153.579  31.0613  6.427080
  7102.288  7102.300  0.500  1.597900  153.586  31.0738  6.425519
  7102.587  7102.600  0.500  1.597663  153.568  31.0773  6.420636
  7102.884  7102.900  0.500  1.597423  153.561  31.0835  6.416085
  7103.199  7103.200  0.500  1.597239  153.547  31.0864  6.410915
  7103.496  7103.500  0.500  1.597341  153.523  31.0783  6.401673
  7103.793  7103.800  0.500  1.596860  153.518  31.0923  6.397377
  7104.093  7104.100  0.500  1.596572  153.483  31.094  6.389145
  7104.392  7104.400  0.500  1.596209  153.498  31.1084  6.384529
  7104.683  7104.700  0.500  1.596030  153.497  31.1137  6.375409
  7104.983  7105.000  0.500  1.595844  153.475  31.1151  6.366805
  7105.285  7105.300  0.500  1.595746  153.471  31.1173  6.355989
  7105.589  7105.600  0.500  1.595541  153.478  31.1251  6.344875
  7105.884  7105.900  0.500  1.595271  153.449  31.1276  6.331928
  7106.192  7106.200  0.500  1.595090  153.402  31.1237  6.316740
  7106.490  7106.500  0.500  1.594923  153.43  31.1346  6.302455
  7106.787  7106.800  0.500  1.594810  153.433  31.1387  6.285932
  7107.089  7107.100  0.500  1.594619  153.415  31.1411  6.265767
  7107.389  7107.400  0.500  1.594452  153.401  31.1435  6.244369
  7107.689  7107.700  0.500  1.594330  153.39  31.145  6.217958
  7107.987  7108.000  0.500  1.594279  153.372  31.1428  6.186883
  7108.284  7108.300  0.500  1.594019  153.365  31.1497  6.153317
  7108.582  7108.600  0.500  1.593868  153.358  31.1528  6.112870
  7108.893  7108.900  0.500  1.593767  153.357  31.1559  6.063608
  7109.191  7109.200  0.500  1.593707  153.336  31.1535  6.000837
  7109.486  7109.500  0.500  1.593789  153.308  31.1452  5.922327
  7109.793  7109.800  0.500  1.593754  153.31  31.1467  5.817644
  7110.088  7110.100  0.500  1.593846  153.282  31.1382  5.674826
  7110.393  7110.400  0.500  1.594328  153.268  31.1204  5.465693
  7110.701  7110.700  0.500  1.594721  153.255  31.1054  5.176694
  7110.995  7111.000  0.500  1.595455  153.229  31.0774  4.808032
  7111.293  7111.300  0.500  1.596533  153.215  31.041  4.361095
  7111.593  7111.600  0.500  1.597198  153.133  31.0037  3.898703
  7111.889  7111.900  0.500  1.597313  153.117  30.9971  3.479744
  7112.196  7112.200  0.500  1.597346  153.073  30.987  3.145229
  7112.492  7112.500  0.500  1.596959  153.046  30.9935  2.901095
  7112.786  7112.800  0.500  1.596713  153.056  31.0031  2.716590
  7113.092  7113.100  0.500  1.596472  153.039  31.0072  2.565049
  7113.397  7113.400  0.500  1.596449  153.006  31.0013  2.433562
  7113.697  7113.700  0.500  1.596610  153.013  30.9977  2.313697
  7113.998  7114.000  0.500  1.596221  152.996  31.0063  2.206935
  7114.296  7114.300  0.500  1.596016  152.989  31.0112  2.114120
  7114.598  7114.600  0.500  1.595685  152.968  31.0172  2.037247
  7114.897  7114.900  0.500  1.595472  152.954  31.021  1.976215
  7115.204  7115.200  0.500  1.595470  152.934  31.017  1.931311
  7115.500  7115.500  0.500  1.595911  152.918  31  1.899138
  7115.796  7115.800  0.500  1.596493  152.911  30.9806  1.875188
  7116.094  7116.100  0.500  1.597536  152.912  30.9485  1.856144
  7116.393  7116.400  0.500  1.598657  152.894  30.9103  1.835433
  7116.698  7116.700  0.500  1.600288  152.883  30.8577  1.806776
  7116.994  7117.000  0.500  1.602275  152.866  30.793  1.766397
  7117.293  7117.300  0.500  1.605073  152.845  30.7028  1.707856
  7117.600  7117.600  0.500  1.609188  152.845  30.5767  1.627958
  7117.900  7117.900  0.500  1.614480  152.811  30.4084  1.531246
  7118.203  7118.200  0.500  1.621946  152.797  30.1795  1.420079
  7118.504  7118.500  0.500  1.632550  152.785  29.8589  1.304902
  7118.801  7118.800  0.500  1.645831  152.759  29.4599  1.192982
  7119.097  7119.100  0.500  1.662766  152.752  28.9638  1.084976
  7119.402  7119.400  0.500  1.683224  152.734  28.374  0.982091
  7119.703  7119.700  0.500  1.705389  152.714  27.7484  0.886353
  7120.000  7120.000  0.500  1.728007  152.722  27.1293  0.797455
  7120.294  7120.300  0.500  1.749749  152.706  26.543  0.715657
  7120.595  7120.600  0.500  1.768781  152.706  26.0426  0.642276
  7120.896  7120.900  0.500  1.783315  152.673  25.6612  0.579539
  7121.206  7121.200  0.500  1.793310  152.651  25.4024  0.526821
  7121.498  7121.500  0.500  1.801592  152.643  25.1916  0.484804
  7121.795  7121.800  0.500  1.809775  152.617  24.982  0.449088
  7122.102  7122.100  0.500  1.818066  152.598  24.7727  0.417320
  7122.403  7122.400  0.500  1.825000  152.58  24.5986  0.390857
  7122.705  7122.700  0.500  1.831333  152.581  24.4435  0.367899
  7123.006  7123.000  0.500  1.838096  152.57  24.2769  0.347734
  7123.301  7123.300  0.500  1.847532  152.545  24.045  0.329342
  7123.600  7123.600  0.500  1.860398  152.532  23.7356  0.311784
  7123.903  7123.900  0.500  1.877850  152.549  23.3275  0.294956
  7124.204  7124.200  0.500  1.898224  152.522  22.8531  0.278982
  7124.499  7124.500  0.500  1.921228  152.496  22.3295  0.263130
  7124.796  7124.800  0.500  1.945236  152.484  21.7981  0.248504
  7125.095  7125.100  0.500  1.968200  152.46  21.3  0.235210
  7125.403  7125.400  0.500  1.988912  152.446  20.8614  0.222835
  7125.700  7125.700  0.500  2.006715  152.416  20.4892  0.212412
  7125.999  7126.000  0.500  2.022027  152.407  20.1766  0.202908
  7126.301  7126.300  0.500  2.035114  152.375  19.9102  0.194137
  7126.602  7126.600  0.500  2.044851  152.354  19.7145  0.185888
  7126.906  7126.900  0.500  2.048954  152.328  19.6305  0.178661
  7127.208  7127.200  0.500  2.046285  152.304  19.6798  0.172249
  7127.503  7127.500  0.500  2.037566  152.293  19.8508  0.167114
  7127.800  7127.800  0.500  2.025334  152.269  20.0919  0.162139
  7128.102  7128.100  0.500  2.011349  152.25  20.3722  0.157055
  7128.403  7128.400  0.500  1.998392  152.217  20.6335  0.151895
  7128.701  7128.700  0.500  1.987622  152.194  20.8537  0.145814
  7128.996  7129.000  0.500  1.980105  152.173  21.0082  0.139576
  7129.295  7129.300  0.500  1.976079  152.16  21.0912  0.133306
  7129.595  7129.600  0.500  1.975151  152.114  21.1043  0.127172
  7129.897  7129.900  0.500  1.976375  152.102  21.0769  0.121223
  7130.203  7130.200  0.500  1.977804  152.067  21.0419  0.116603
  7130.502  7130.500  0.500  1.977586  151.965  21.0324  0.113180
  7130.800  7130.800  0.500  1.973735  152.017  21.1207  0.111459
  7131.104  7131.100  0.500  1.965751  151.984  21.2854  0.111247
  7131.402  7131.400  0.500  1.953492  151.97  21.5461  0.113185
  7131.708  7131.700  0.500  1.937529  151.928  21.8867  0.117034
  7132.003  7132.000  0.500  1.921341  151.893  22.2387  0.121955
  7132.297  7132.300  0.500  1.905252  151.911  22.6021  0.128168
  7132.594  7132.600  0.500  1.890533  151.914  22.9376  0.135224
  7132.903  7132.900  0.500  1.876822  151.906  23.2531  0.143115
  7133.198  7133.200  0.500  1.865079  151.88  23.5238  0.151067
  7133.496  7133.500  0.500  1.855165  151.896  23.7607  0.159110
  7133.798  7133.800  0.500  1.847057  151.92  23.9578  0.167251
  7134.098  7134.100  0.500  1.840807  152.376  24.1805  0.175578
  7134.400  7134.400  0.500  1.835934  152.39  24.3008  0.182652
  7134.703  7134.700  0.500  1.832424  152.383  24.3851  0.189149
  7135.001  7135.000  0.500  1.829110  152.367  24.4634  0.194732
  7135.301  7135.300  0.500  1.826015  152.371  24.54  0.199765
  7135.603  7135.600  0.500  1.822879  152.349  24.6135  0.204409
  7135.905  7135.900  0.500  1.820092  152.323  24.678  0.207956
  7136.199  7136.200  0.500  1.817438  152.315  24.7422  0.210724
  7136.503  7136.500  0.500  1.814275  152.356  24.8274  0.212800
  7136.795  7136.800  0.500  1.811389  152.348  24.8977  0.214122
  7136.998  7137.000  0.500  1.809314  152.293  24.9404  0.214601
  7137.998  7137.990  0.500  1.802998  152.313  25.1018  0.212252
  7139.005  7138.990  0.500  1.807361  152.32  24.9936  0.202430
  7140.021  7140.010  0.500  1.814294  152.305  24.8186  0.191350
  7141.087  7141.060  0.500  1.811985  152.319  24.8782  0.185269
  7142.110  7142.120  0.500  1.804626  152.255  25.0515  0.185402
  7143.186  7143.200  0.500  1.797171  152.265  25.2406  0.189474
  7144.287  7144.300  0.500  1.793262  152.27  25.3402  0.193460
  7145.417  7145.420  0.500  1.790204  152.256  25.4155  0.193275
  7146.554  7146.560  0.500  1.784388  152.264  25.5651  0.187505
  7147.707  7147.710  0.500  1.776017  152.247  25.7771  0.177468
  7148.890  7148.890  0.500  1.767831  152.243  25.9883  0.167082
  7150.076  7150.080  0.500  1.762422  152.224  26.1259  0.160021
  7151.301  7151.300  0.500  1.760904  152.233  26.1673  0.155427
  7152.532  7152.530  0.500  1.763234  152.219  26.104  0.151960
  7153.782  7153.780  0.500  1.768216  152.196  25.9703  0.149620
  7155.054  7155.050  0.500  1.775990  152.193  25.7687  0.149498
  7156.337  7156.340  0.500  1.784602  152.171  25.5439  0.151043
  7157.654  7157.650  0.500  1.790920  152.158  25.3809  0.152570
  7158.982  7158.980  0.500  1.794299  152.136  25.2917  0.152970
  7160.332  7160.330  0.500  1.797584  152.114  25.2051  0.152759
  7161.703  7161.700  0.500  1.802062  152.068  25.0849  0.152989
  7163.080  7163.080  0.500  1.806090  152.055  24.9818  0.155149
  7164.497  7164.490  0.500  1.809197  151.998  24.895  0.157641
  7165.920  7165.910  0.500  1.812505  151.94  24.8034  0.159807
  7167.353  7167.350  0.500  1.816843  151.905  24.6904  0.161195
  7168.816  7168.810  0.500  1.820529  151.862  24.5926  0.162429
  7170.292  7170.290  0.500  1.821870  151.841  24.5562  0.165199
  7171.793  7171.790  0.500  1.822129  151.81  24.5448  0.169823
  7173.314  7173.310  0.500  1.820173  151.771  24.5865  0.177590
  7174.851  7174.850  0.500  1.817252  151.739  24.6532  0.187760
  7176.420  7176.410  0.500  1.814001  151.713  24.7293  0.199365
  7177.985  7177.980  0.500  1.810991  151.689  24.7999  0.210538
  7179.589  7179.580  0.500  1.809010  151.662  24.8446  0.218290
  7181.195  7181.190  0.500  1.806354  151.635  24.9063  0.220623
  7182.836  7182.830  0.500  1.802372  151.605  25.0008  0.219487
  7184.490  7184.480  0.500  1.797405  151.587  25.1223  0.215997
  7186.152  7186.150  0.500  1.791483  151.535  25.2629  0.208956
  7187.846  7187.840  0.500  1.785084  151.501  25.4193  0.199770
  7189.552  7189.550  0.500  1.778628  151.484  25.5811  0.190474
  7191.292  7191.280  0.500  1.772621  149.942  25.4732  0.178309
  7193.039  7193.030  0.500  1.767376  151.097  25.8044  0.170743
  7194.801  7194.790  0.500  1.763568  151.287  25.9355  0.168164
  7196.593  7196.580  0.500  1.761090  151.247  25.9929  0.172142
  7198.394  7198.380  0.500  1.759103  151.208  26.0379  0.180988
  7200.224  7200.210  0.500  1.757425  151.166  26.0743  0.193671
  7202.057  7202.050  0.500  1.755496  151.133  26.1191  0.209065
  7203.920  7203.910  0.500  1.752975  151.071  26.1743  0.226945
  7205.799  7205.790  0.500  1.750048  151.042  26.2459  0.244015
  7207.697  7207.690  0.500  1.747494  150.974  26.3011  0.252769
  7209.618  7209.610  0.500  1.746171  150.921  26.3267  0.245524
  7211.560  7211.550  0.500  1.746235  150.882  26.3183  0.220846
  7213.523  7213.510  0.500  1.747327  150.813  26.2776  0.187141
  7215.493  7215.480  0.500  1.748326  150.768  26.2435  0.156229
  7217.485  7217.480  0.500  1.748534  150.713  26.2284  0.133655
  7219.502  7219.490  0.500  1.748107  150.666  26.2313  0.121459
  7221.529  7221.520  0.500  1.747085  150.61  26.2484  0.119166
  7223.588  7223.580  0.500  1.746091  150.539  26.2621  0.126833
  7225.660  7225.650  0.500  1.744567  150.424  26.2822  0.142992
  7227.755  7227.740  0.500  1.742360  147.807  25.882  0.162733
  7229.858  7229.850  0.500  1.739751  150.609  26.4416  0.192927
  7231.995  7231.980  0.500  1.737211  150.531  26.495  0.222862
  7234.128  7234.120  0.500  1.734796  150.446  26.5441  0.250732
  7236.308  7236.290  0.500  1.732702  150.436  26.598  0.271602
  7238.485  7238.480  0.500  1.730816  150.389  26.6399  0.280896
  7240.692  7240.680  0.500  1.729675  150.365  26.666  0.280119
  7242.910  7242.900  0.500  1.729284  150.338  26.6716  0.270628
  7245.160  7245.150  0.500  1.729170  147.509  26.1727  0.252064
  7247.419  7247.410  0.500  1.728606  150.066  26.6414  0.245340
  7249.703  7249.690  0.500  1.727165  150.072  26.6809  0.240506
  7252.003  7251.990  0.500  1.724520  149.988  26.7367  0.243485
  7254.324  7254.310  0.500  1.720938  147.656  26.4154  0.247582
  7256.662  7256.650  0.500  1.717374  150.055  26.9405  0.257929
  7259.010  7259.000  0.500  1.713994  149.883  27.0007  0.256669
  7261.397  7261.380  0.500  1.710794  149.443  27.0077  0.249425
  7263.787  7263.770  0.500  1.707523  138.982  25.1993  0.226111
  7266.205  7266.190  0.500  1.704422  149.624  27.2133  0.239128
  7268.632  7268.620  0.500  1.701254  150.257  27.415  0.234306
  7271.079  7271.070  0.500  1.698618  150.183  27.4739  0.223817
  7273.565  7273.550  0.500  1.696301  149.048  27.3296  0.210891
  7276.049  7276.040  0.500  1.694319  150.226  27.6001  0.206380
  7278.557  7278.550  0.500  1.692029  150.159  27.6511  0.202836
  7281.085  7281.070  0.500  1.689441  150.126  27.7166  0.197322
  7283.633  7283.620  0.500  1.686615  149.104  27.6059  0.189518
  7286.200  7286.190  0.500  1.683824  149.743  27.8017  0.183892
  7288.790  7288.770  0.500  1.681251  149.824  27.8884  0.181736
  7291.391  7291.380  0.500  1.678748  149.797  27.9533  0.188907
  7294.012  7294.000  0.500  1.675510  149.755  28.0361  0.205551
  7296.666  7296.650  0.500  1.672586  149.686  28.1052  0.227839
  7299.316  7299.310  0.500  1.669274  149.562  28.175  0.250483
  7302.006  7301.990  0.500  1.666539  147.84  27.9269  0.267063
  7304.705  7304.690  0.500  1.663676  149.69  28.3575  0.286118
  7307.422  7307.410  0.500  1.660610  149.621  28.4314  0.297037
  7310.159  7310.150  0.500  1.658161  149.529  28.4835  0.301751
  7312.912  7312.900  0.500  1.655488  149.464  28.5474  0.302168
  7315.696  7315.680  0.500  1.652909  149.396  28.6081  0.302677
  7318.481  7318.470  0.500  1.650705  149.314  28.6555  0.304327
  7321.307  7321.290  0.500  1.648675  149.276  28.7065  0.306480
  7324.139  7324.120  0.500  1.647003  149.226  28.7449  0.307858
  7326.981  7326.970  0.500  1.644960  149.146  28.7881  0.308680
  7329.861  7329.850  0.500  1.642719  149.082  28.8403  0.311119
  7332.757  7332.740  0.500  1.640762  149.046  28.89  0.317129
  7335.665  7335.650  0.500  1.638598  149.023  28.9481  0.325273
  7338.585  7338.570  0.500  1.636571  147.739  28.7568  0.327280
  7341.529  7341.520  0.500  1.634061  148.759  29.0282  0.327412
  7344.497  7344.490  0.500  1.631200  148.739  29.1074  0.316390
  7347.488  7347.470  0.500  1.628016  148.707  29.194  0.300516
  7350.498  7350.480  0.500  1.624601  148.641  29.2809  0.285056
  7353.517  7353.500  0.500  1.621239  148.579  29.3671  0.272405
  7356.562  7356.550  0.500  1.618146  148.498  29.4421  0.261834
  7359.625  7359.610  0.500  1.614833  148.41  29.5224  0.252857
  7362.703  7362.690  0.500  1.611560  148.341  29.6054  0.246572
  7365.799  7365.790  0.500  1.608340  148.245  29.6816  0.244482
  7368.921  7368.910  0.500  1.604936  148.187  29.7711  0.248276
  7372.069  7372.050  0.500  1.601453  148.121  29.8617  0.259638
  7375.216  7375.200  0.500  1.598301  148.036  29.9387  0.279667
  7378.393  7378.380  0.500  1.595125  147.957  30.0179  0.309417
  7381.579  7381.570  0.500  1.592101  147.871  30.0914  0.343565
  7384.801  7384.790  0.500  1.588771  147.794  30.1761  0.370333
  7388.033  7388.020  0.500  1.585807  147.717  30.2498  0.381893
  7391.282  7391.270  0.500  1.582747  147.655  30.3298  0.380927
  7394.563  7394.550  0.500  1.579478  147.569  30.4115  0.375123
  7397.846  7397.840  0.500  1.576385  147.475  30.4861  0.371018
  7401.164  7401.150  0.500  1.573499  147.767  30.6348  0.372629
  7404.481  7404.470  0.500  1.570740  147.616  30.6881  0.374675
  7407.833  7407.820  0.500  1.567920  147.579  30.7671  0.375190
  7411.196  7411.190  0.500  1.565109  147.521  30.8415  0.375871
  7414.580  7414.570  0.500  1.562401  147.413  30.9025  0.375953
  7417.989  7417.980  0.500  1.559176  147.299  30.9784  0.378209
  7421.406  7421.400  0.500  1.556477  147.191  31.0393  0.383408
  7424.856  7424.850  0.500  1.553917  147.104  31.1006  0.392436
  7428.317  7428.310  0.500  1.550971  147.013  31.1729  0.399139
  7431.800  7431.790  0.500  1.547888  146.912  31.2477  0.400518
  7435.301  7435.290  0.500  1.544814  146.811  31.3223  0.399621
  7438.816  7438.810  0.500  1.541495  146.692  31.4009  0.394587
  7442.357  7442.350  0.500  1.538474  146.541  31.4637  0.384693
  7445.907  7445.900  0.500  1.535411  142.652  30.7226  0.364651
  7449.490  7449.480  0.500  1.532439  146.476  31.64  0.367238
  7453.093  7453.080  0.500  1.529309  145.144  31.4505  0.362263
  7456.704  7456.690  0.500  1.525896  146.237  31.7957  0.366934
  7460.333  7460.320  0.500  1.522511  145.621  31.7691  0.369191
  7463.992  7463.980  0.500  1.519037  145.994  31.9615  0.377097
  7467.660  7467.650  0.500  1.515742  142.014  31.1927  0.377735
  7471.350  7471.340  0.500  1.512412  145.938  32.1615  0.402745
  7475.058  7475.050  0.500  1.509040  145.813  32.2425  0.416502
  7478.789  7478.780  0.500  1.505573  145.689  32.327  0.427789
  7482.533  7482.520  0.500  1.502173  145.561  32.4085  0.438243
  7486.303  7486.290  0.500  1.498826  145.415  32.4846  0.451091
  7490.098  7490.080  0.500  1.495362  145.28  32.5669  0.465012
  7493.895  7493.880  0.500  1.492138  145.201  32.6545  0.475147
  7497.731  7497.710  0.500  1.488888  145.093  32.7364  0.479922
  7501.570  7501.550  0.500  1.485335  144.968  32.8245  0.478957
  7505.424  7505.410  0.500  1.482056  144.85  32.9055  0.477441
  7509.302  7509.290  0.500  1.478835  144.702  32.978  0.477815
  7513.206  7513.190  0.500  1.475583  144.591  33.06  0.481110
  7517.133  7517.110  0.500  1.472493  144.44  33.1277  0.485915
  7521.057  7521.050  0.500  1.469258  144.328  33.2094  0.490715
  7525.019  7525.010  0.500  1.466068  144.199  33.2857  0.493075
  7528.999  7528.980  0.500  1.462645  144.064  33.3685  0.493495
  7532.997  7532.980  0.500  1.459311  143.901  33.4421  0.494275
  7537.006  7536.990  0.500  1.456043  143.752  33.5168  0.497479
  7541.048  7541.030  0.500  1.452696  143.635  33.6018  0.502205
  7545.102  7545.080  0.500  1.449448  143.471  33.6727  0.507307
  7549.183  7549.150  0.500  1.445851  143.339  33.7628  0.511168
  7553.273  7553.240  0.500  1.442477  143.204  33.8451  0.512126
  7557.382  7557.350  0.500  1.439249  143.066  33.9217  0.509388
  7561.501  7561.480  0.500  1.435611  142.927  34.0124  0.506876
  7565.629  7565.630  0.500  1.432084  142.749  34.0901  0.507022
  7569.823  7569.790  0.500  1.428783  142.609  34.1691  0.511952
  7573.990  7573.980  0.500  1.425298  142.452  34.2507  0.521587
  7578.172  7578.180  0.500  1.421937  142.289  34.3267  0.534616
  7582.415  7582.410  0.500  1.418458  142.142  34.4106  0.549271
  7586.674  7586.650  0.500  1.415099  141.956  34.4813  0.560457
  7590.905  7590.910  0.500  1.411751  141.768  34.5511  0.567968
  7595.202  7595.190  0.500  1.408330  141.531  34.6116  0.572634
  7599.486  7599.490  0.500  1.404712  141.269  34.6727  0.575629
  7603.833  7603.810  0.500  1.401145  140.707  34.6582  0.578040
  7608.169  7608.150  0.500  1.397847  140.486  34.7181  0.584830
  7612.501  7612.510  0.500  1.394294  140.289  34.7928  0.593487
  7616.910  7616.890  0.500  1.390808  140.232  34.9002  0.601084
  7621.299  7621.280  0.500  1.387320  140.324  35.0451  0.604910
  7625.711  7625.700  0.500  1.383940  140.33  35.1652  0.607274
  7630.114  7630.130  0.500  1.380234  140.244  35.274  0.611743
  7634.561  7634.580  0.500  1.376721  140.078  35.3564  0.618945
  7639.071  7639.050  0.500  1.373288  139.895  35.4317  0.628356
  7643.532  7643.540  0.500  1.369809  139.725  35.5119  0.638442
  7648.072  7648.050  0.500  1.366198  139.546  35.5948  0.647151
  7652.561  7652.580  0.500  1.362551  139.384  35.6833  0.653685
  7657.143  7657.130  0.500  1.358970  139.235  35.773  0.658559
  7661.686  7661.700  0.500  1.355387  139.032  35.849  0.662390
  7666.264  7666.280  0.500  1.351771  138.859  35.934  0.664422
  7670.883  7670.890  0.500  1.348265  138.674  36.0123  0.665596
  7675.511  7675.510  0.500  1.344689  138.475  36.0894  0.666902
  7680.146  7680.160  0.500  1.341149  138.253  36.1595  0.668374
  7684.815  7684.820  0.500  1.337489  137.973  36.2184  0.671645
  7689.508  7689.500  0.500  1.334033  138.139  36.3876  0.680205
  7694.194  7694.200  0.500  1.330665  137.823  36.4268  0.688070
  7698.952  7698.920  0.500  1.326815  137.599  36.508  0.696834
  7703.647  7703.660  0.500  1.323330  137.367  36.5736  0.704765
  7708.394  7708.410  0.500  1.319710  137.257  36.6768  0.713800
  7713.175  7713.190  0.500  1.315988  136.999  36.7444  0.723497
  7717.982  7717.990  0.500  1.312383  136.737  36.8067  0.732479
  7722.776  7722.800  0.500  1.308903  136.637  36.9078  0.742293
  7727.608  7727.630  0.500  1.305286  136.421  36.983  0.748733
  7732.513  7732.490  0.500  1.301736  136.2  37.0545  0.755389
  7737.341  7737.360  0.500  1.297946  135.926  37.1204  0.760975
  7742.236  7742.250  0.500  1.294355  135.991  37.2716  0.769312
  7747.162  7747.160  0.500  1.290822  135.71  37.3262  0.775780
  7752.114  7752.090  0.500  1.286997  135.489  37.4083  0.782375
  7757.020  7757.030  0.500  1.283565  135.303  37.4855  0.789027
  7762.011  7762.000  0.500  1.279763  135.06  37.5605  0.797318
  7767.000  7766.990  0.500  1.276155  134.854  37.6387  0.806415
  7771.977  7771.990  0.500  1.272582  134.647  37.7156  0.816117
  7777.042  7777.020  0.500  1.268808  134.444  37.8013  0.825778
  7782.079  7782.060  0.500  1.265158  134.243  37.8826  0.833829
  7787.144  7787.120  0.500  1.261274  133.998  37.9605  0.841386
  7792.224  7792.200  0.500  1.257546  133.831  38.055  0.849163
  7797.323  7797.300  0.500  1.253890  133.649  38.1424  0.855852
  7802.430  7802.420  0.500  1.250317  133.447  38.2211  0.862236
  7807.584  7807.560  0.500  1.246634  133.249  38.3051  0.868232
  7812.692  7812.720  0.500  1.242853  133.004  38.3796  0.874301
  7817.892  7817.900  0.500  1.239260  132.778  38.4522  0.880736
  7823.071  7823.090  0.500  1.235669  132.592  38.5366  0.888012
  7828.293  7828.310  0.500  1.231894  132.384  38.6216  0.895697
  7833.546  7833.540  0.500  1.228077  132.163  38.7047  0.903003
  7838.775  7838.790  0.500  1.224296  131.659  38.7031  0.908242
  7844.040  7844.060  0.500  1.220588  131.697  38.858  0.918920
  7849.371  7849.350  0.500  1.216765  131.446  38.9324  0.927006
  7854.653  7854.660  0.500  1.213187  130.392  38.7587  0.929956
  7859.972  7859.990  0.500  1.209453  131.028  39.0935  0.945419
  7865.338  7865.340  0.500  1.205764  130.815  39.1742  0.955922
  7870.683  7870.710  0.500  1.202180  130.591  39.2477  0.966460
  7876.066  7876.090  0.500  1.198430  130.37  39.3284  0.976059
  7881.468  7881.500  0.500  1.194770  130.137  39.4021  0.986446
  7886.923  7886.920  0.500  1.190908  129.922  39.4891  0.996566
  7892.346  7892.370  0.500  1.186991  129.682  39.5709  1.006580
  7897.806  7897.830  0.500  1.183216  129.355  39.6205  1.015040
  7903.297  7903.310  0.500  1.179760  129.162  39.6984  1.024817
  7908.786  7908.810  0.500  1.175968  128.959  39.7865  1.035507
  7914.310  7914.330  0.500  1.172143  128.686  39.8544  1.044401
  7919.849  7919.870  0.500  1.168301  128.445  39.9327  1.054163
  7925.399  7925.420  0.500  1.164664  128.182  39.9962  1.063472
  7930.976  7931.000  0.500  1.160846  127.807  40.0318  1.072375
  7936.588  7936.600  0.500  1.157003  127.456  40.0755  1.079726
  7942.184  7942.210  0.500  1.153255  127.458  40.2269  1.089531
  7947.837  7947.850  0.500  1.149486  127.112  40.269  1.096888
  7953.474  7953.500  0.500  1.145697  126.746  40.3054  1.105070
  7959.152  7959.170  0.500  1.141960  126.492  40.3752  1.114510
  7964.837  7964.860  0.500  1.138176  126.159  40.4216  1.123016