File: xdidata/Fe/Fe-Cordierite.xdi
# XDI/1.0 BlueSky/1.10.0 BMM/2023-1.0-py310-tiled
# Beamline.name: BMM (06BM) -- Beamline for Materials Measurement (NIST)
# Beamline.xray_source: NSLS-II three-pole wiggler
# Beamline.collimation: paraboloid mirror, 5 nm Rh on 30 nm Pt
# Beamline.focusing: not in use
# Beamline.harmonic_rejection: flat mirror, Si stripe, pitch = 7.0 mrad relative to beam
# Beamline.software: Bluesky 1.10.0, Ophyd 1.7.0, DataBroker 2.0.0b13, Python 3.10.8, 2023-1.0-py310-tiled
# Detector.I0: 10 cm N2
# Detector.I1: 25 cm N2
# Detector.I2: 25 cm N2
# Element.symbol: Fe
# Element.edge: K
# Element.reference: Fe
# Element.reference_material: Fe foil
# Facility.name: NSLS-II
# Facility.energy: 3.0
# Facility.current: 400.6
# Facility.mode: top-off
# Facility.GUP: 123456
# Facility.SAF: 301027
# Facility.cycle: 2023-2
# Mono.name: Si(111)
# Mono.d_spacing: 3.13519
# Mono.encoder_resolution: 0.0000050 deg/ct
# Mono.angle_offset: 16.0754 deg
# Mono.scan_mode: pseudo channel cut
# Mono.scan_type: step
# Mono.direction: forward in energy
# Sample.name: (Mg,Fe)2Al3(Si5AlO18)
# Sample.prep: PEG pellet
# Sample.x: 142.329 mm
# Sample.y: 114.126 mm
# Sample.SDD_position: 205.000 mm
# Scan.experimenters: Bruce Ravel
# Scan.edge_energy: 7112.0
# Scan.start_time: 2023-05-05T20:28:51
# Scan.end_time: 2023-05-05T20:36:59
# Scan.transient_id: 74621
# Scan.uid: 04007833-a65d-45b8-aab0-d5fc016a674d
# Scan.plot_hint: ln(I0/It)  --  ln($5/$6)
# Column.1: energy eV
# Column.2: requested_energy eV
# Column.3: measurement_time seconds
# Column.4: xmu
# Column.5: I0 nA
# Column.6: It nA
# Column.7: Ir nA
# ///////////
# courtesy Martin Stennett, University of Sheffield
# -----------
# energy  requested_energy  measurement_time  xmu  I0  It  Ir
  6912.011  6912.000  0.500  1.629147  154.653  30.3269  5.692802
  6922.009  6922.000  0.500  1.619400  154.49  30.5918  5.783154
  6932.013  6932.000  0.500  1.609385  154.444  30.8905  5.880780
  6942.015  6942.000  0.500  1.599980  154.453  31.1842  5.978719
  6952.004  6952.000  0.500  1.590044  154.457  31.4963  6.081103
  6962.008  6962.000  0.500  1.580466  154.434  31.7948  6.180645
  6972.016  6972.000  0.500  1.571148  154.417  32.0889  6.282095
  6982.027  6982.000  0.500  1.561578  154.395  32.3928  6.383836
  6992.010  6992.000  0.500  1.552042  154.357  32.6951  6.488149
  7002.015  7002.000  0.500  1.542797  154.294  32.9853  6.588100
  7012.016  7012.000  0.500  1.533640  154.251  33.2795  6.692188
  7022.012  7022.000  0.500  1.524383  154.199  33.5777  6.796249
  7032.014  7032.000  0.500  1.515058  154.105  33.8716  6.899112
  7042.008  7042.000  0.500  1.505887  154.025  34.166  7.002705
  7052.009  7052.000  0.500  1.497052  153.94  34.45  7.102086
  7062.012  7062.000  0.500  1.487701  153.174  34.6007  7.173620
  7072.005  7072.000  0.500  1.478693  153.711  35.0362  7.299683
  7081.993  7082.000  0.500  1.469912  153.646  35.3303  7.386777
  7083.993  7084.000  0.500  1.468152  153.411  35.3384  7.391177
  7085.989  7086.000  0.500  1.466880  153.523  35.4091  7.409468
  7088.000  7088.000  0.500  1.465154  153.523  35.4702  7.422016
  7089.992  7090.000  0.500  1.462993  153.516  35.5455  7.437979
  7092.001  7092.000  0.500  1.461327  153.477  35.5956  7.445919
  7093.997  7094.000  0.500  1.459613  153.411  35.6415  7.450836
  7095.984  7096.000  0.500  1.458033  153.468  35.7109  7.456917
  7098.198  7098.000  0.500  1.456340  153.421  35.7606  7.452838
  7100.001  7100.000  0.500  1.454305  153.395  35.8273  7.446348
  7102.003  7102.000  0.500  1.452726  153.364  35.8766  7.427120
  7102.296  7102.300  0.500  1.452314  153.337  35.8852  7.421807
  7102.589  7102.600  0.500  1.452045  153.334  35.8942  7.417485
  7102.889  7102.900  0.500  1.451814  153.34  35.9039  7.413973
  7103.195  7103.200  0.500  1.451902  153.34  35.9008  7.405989
  7103.490  7103.500  0.500  1.451585  153.332  35.9102  7.398613
  7103.785  7103.800  0.500  1.451253  153.309  35.9166  7.392409
  7104.093  7104.100  0.500  1.451072  153.32  35.9258  7.385219
  7104.388  7104.400  0.500  1.450813  153.303  35.9311  7.375170
  7104.688  7104.700  0.500  1.450475  153.29  35.9401  7.367614
  7104.989  7105.000  0.500  1.450486  153.289  35.9396  7.354222
  7105.287  7105.300  0.500  1.450123  153.257  35.9451  7.343228
  7105.589  7105.600  0.500  1.450078  153.265  35.9487  7.330205
  7105.888  7105.900  0.500  1.449937  153.258  35.9521  7.313938
  7106.190  7106.200  0.500  1.449644  153.266  35.9644  7.300676
  7106.490  7106.500  0.500  1.449082  153.249  35.9807  7.285266
  7106.787  7106.800  0.500  1.448855  153.239  35.9865  7.265033
  7107.087  7107.100  0.500  1.448634  153.235  35.9936  7.244997
  7107.387  7107.400  0.500  1.448393  153.244  36.0044  7.219721
  7107.691  7107.700  0.500  1.448195  153.226  36.0073  7.189157
  7107.987  7108.000  0.500  1.448001  153.179  36.0032  7.153264
  7108.289  7108.300  0.500  1.447991  153.192  36.0067  7.112848
  7108.582  7108.600  0.500  1.447685  153.222  36.0247  7.069006
  7108.884  7108.900  0.500  1.447402  153.214  36.0329  7.013715
  7109.193  7109.200  0.500  1.447434  153.186  36.0252  6.938781
  7109.488  7109.500  0.500  1.447187  153.178  36.0321  6.850801
  7109.793  7109.800  0.500  1.446774  153.163  36.0435  6.732896
  7110.095  7110.100  0.500  1.446647  153.165  36.0485  6.570635
  7110.395  7110.400  0.500  1.446657  153.159  36.0469  6.332210
  7110.699  7110.700  0.500  1.446773  153.118  36.033  5.999975
  7110.997  7111.000  0.500  1.447021  153.092  36.0181  5.568796
  7111.295  7111.300  0.500  1.446935  153.067  36.0151  5.060571
  7111.593  7111.600  0.500  1.447004  153.041  36.0066  4.519913
  7111.891  7111.900  0.500  1.446960  153.02  36.0033  4.034520
  7112.198  7112.200  0.500  1.446868  152.987  35.9987  3.645581
  7112.494  7112.500  0.500  1.446628  152.954  35.9996  3.365427
  7112.786  7112.800  0.500  1.446251  152.93  36.0076  3.151005
  7113.094  7113.100  0.500  1.446071  152.926  36.013  2.976480
  7113.397  7113.400  0.500  1.446012  152.897  36.0085  2.822996
  7113.699  7113.700  0.500  1.445716  152.885  36.0164  2.684406
  7114.002  7114.000  0.500  1.445585  152.894  36.023  2.560749
  7114.296  7114.300  0.500  1.444961  152.865  36.0388  2.454970
  7114.598  7114.600  0.500  1.444673  152.874  36.0513  2.364219
  7114.899  7114.900  0.500  1.444477  152.851  36.0529  2.293812
  7115.204  7115.200  0.500  1.444223  152.847  36.0612  2.242303
  7115.498  7115.500  0.500  1.444141  152.842  36.0629  2.206611
  7115.800  7115.800  0.500  1.444192  152.832  36.0586  2.180278
  7116.097  7116.100  0.500  1.444208  152.844  36.0608  2.159421
  7116.393  7116.400  0.500  1.444380  152.812  36.0472  2.137584
  7116.696  7116.700  0.500  1.444804  152.788  36.0263  2.106366
  7116.996  7117.000  0.500  1.445243  152.787  36.0102  2.062006
  7117.295  7117.300  0.500  1.445959  152.773  35.9812  1.998557
  7117.598  7117.600  0.500  1.447390  152.762  35.927  1.910411
  7117.898  7117.900  0.500  1.448943  152.711  35.8594  1.802538
  7118.203  7118.200  0.500  1.450949  152.728  35.7914  1.680835
  7118.502  7118.500  0.500  1.453753  152.712  35.6876  1.556857
  7118.801  7118.800  0.500  1.457416  152.702  35.5548  1.435600
  7119.101  7119.100  0.500  1.462539  152.69  35.3703  1.319766
  7119.404  7119.400  0.500  1.468461  152.676  35.1582  1.211637
  7119.707  7119.700  0.500  1.474393  152.667  34.9481  1.111216
  7120.000  7120.000  0.500  1.480114  152.637  34.742  1.016928
  7120.294  7120.300  0.500  1.485071  152.626  34.5677  0.927952
  7120.593  7120.600  0.500  1.489194  152.626  34.4253  0.845643
  7120.894  7120.900  0.500  1.492598  152.591  34.3007  0.771588
  7121.199  7121.200  0.500  1.497093  152.596  34.1479  0.705458
  7121.498  7121.500  0.500  1.501937  152.573  33.9777  0.651479
  7121.797  7121.800  0.500  1.507225  153.058  33.906  0.607007
  7122.102  7122.100  0.500  1.512100  153.053  33.7401  0.566678
  7122.401  7122.400  0.500  1.516039  153.029  33.6021  0.531953
  7122.705  7122.700  0.500  1.518437  153.014  33.5183  0.502277
  7122.997  7123.000  0.500  1.519344  152.995  33.4838  0.478045
  7123.301  7123.300  0.500  1.520702  152.993  33.4379  0.455873
  7123.597  7123.600  0.500  1.523148  152.967  33.3506  0.436311
  7123.905  7123.900  0.500  1.526953  152.94  33.2181  0.418283
  7124.204  7124.200  0.500  1.532976  152.92  33.0142  0.400823
  7124.497  7124.500  0.500  1.541288  152.91  32.7389  0.384087
  7124.796  7124.800  0.500  1.552320  152.901  32.3778  0.367446
  7125.093  7125.100  0.500  1.566005  152.903  31.9382  0.350978
  7125.403  7125.400  0.500  1.582600  152.907  31.4133  0.334348
  7125.702  7125.700  0.500  1.599332  152.884  30.8874  0.318734
  7125.999  7126.000  0.500  1.614005  152.867  30.4342  0.304816
  7126.301  7126.300  0.500  1.624558  152.842  30.1096  0.292038
  7126.602  7126.600  0.500  1.627921  152.793  29.999  0.281539
  7126.904  7126.900  0.500  1.623274  152.762  30.1325  0.272719
  7127.208  7127.200  0.500  1.611690  152.739  30.4792  0.265493
  7127.503  7127.500  0.500  1.596458  152.723  30.9436  0.258981
  7127.800  7127.800  0.500  1.580957  152.715  31.4255  0.252069
  7128.102  7128.100  0.500  1.567302  152.688  31.8518  0.244344
  7128.401  7128.400  0.500  1.556334  152.665  32.1982  0.235651
  7128.705  7128.700  0.500  1.547218  152.658  32.4917  0.226182
  7128.994  7129.000  0.500  1.540021  152.625  32.7193  0.216591
  7129.297  7129.300  0.500  1.534879  152.6  32.8826  0.206759
  7129.597  7129.600  0.500  1.531826  152.578  32.9783  0.197482
  7129.901  7129.900  0.500  1.530035  152.555  33.0324  0.188911
  7130.205  7130.200  0.500  1.529063  152.53  33.0592  0.182236
  7130.505  7130.500  0.500  1.528522  152.495  33.0695  0.176840
  7130.802  7130.800  0.500  1.527797  152.458  33.0854  0.173604
  7131.104  7131.100  0.500  1.526966  152.447  33.1105  0.172232
  7131.399  7131.400  0.500  1.526191  152.426  33.1315  0.173088
  7131.708  7131.700  0.500  1.525034  152.408  33.166  0.176079
  7132.001  7132.000  0.500  1.524013  152.386  33.1952  0.181097
  7132.299  7132.300  0.500  1.523313  152.362  33.2132  0.187037
  7132.601  7132.600  0.500  1.522497  152.359  33.2396  0.194857
  7132.903  7132.900  0.500  1.521472  152.348  33.2713  0.203413
  7133.196  7133.200  0.500  1.520678  152.33  33.2939  0.212433
  7133.496  7133.500  0.500  1.519664  152.348  33.3316  0.222422
  7133.803  7133.800  0.500  1.518390  152.354  33.3753  0.232018
  7134.100  7134.100  0.500  1.518184  152.34  33.3791  0.241468
  7134.403  7134.400  0.500  1.518136  152.357  33.3844  0.250148
  7134.703  7134.700  0.500  1.519015  152.346  33.3527  0.257442
  7135.001  7135.000  0.500  1.520359  152.349  33.3087  0.263851
  7135.298  7135.300  0.500  1.521704  152.341  33.2621  0.269567
  7135.605  7135.600  0.500  1.523147  152.31  33.2073  0.274425
  7135.903  7135.900  0.500  1.524216  152.337  33.1778  0.278412
  7136.201  7136.200  0.500  1.524766  152.316  33.155  0.281117
  7136.499  7136.500  0.500  1.525032  152.309  33.1446  0.282917
  7136.797  7136.800  0.500  1.525282  152.305  33.1353  0.283944
  7136.996  7137.000  0.500  1.525309  152.303  33.134  0.284021
  7138.000  7137.990  0.500  1.522780  152.312  33.2199  0.279650
  7138.999  7138.990  0.500  1.517928  152.308  33.3807  0.269232
  7140.030  7140.010  0.500  1.511797  152.294  33.5829  0.257713
  7141.089  7141.060  0.500  1.505413  152.305  33.8003  0.250556
  7142.110  7142.120  0.500  1.500409  152.265  33.961  0.250442
  7143.186  7143.200  0.500  1.496876  152.283  34.0853  0.255098
  7144.292  7144.300  0.500  1.493439  152.277  34.2012  0.260112
  7145.420  7145.420  0.500  1.490033  152.222  34.3056  0.259803
  7146.563  7146.560  0.500  1.486032  152.267  34.4533  0.251446
  7147.707  7147.710  0.500  1.481792  152.257  34.5973  0.237252
  7148.892  7148.890  0.500  1.477783  152.228  34.7297  0.222176
  7150.085  7150.080  0.500  1.475130  152.231  34.8227  0.211868
  7151.306  7151.300  0.500  1.474030  152.233  34.8615  0.206171
  7152.532  7152.530  0.500  1.474566  152.223  34.8406  0.201745
  7153.782  7153.780  0.500  1.475467  152.201  34.804  0.199371
  7155.049  7155.050  0.500  1.476985  152.177  34.7459  0.200717
  7156.344  7156.340  0.500  1.479477  152.163  34.6561  0.203793
  7157.652  7157.650  0.500  1.483304  152.141  34.5188  0.206430
  7158.975  7158.980  0.500  1.487057  152.104  34.3812  0.206720
  7160.330  7160.330  0.500  1.489638  152.099  34.2914  0.206753
  7161.705  7161.700  0.500  1.491380  152.057  34.2223  0.207835
  7163.084  7163.080  0.500  1.492801  152.029  34.1674  0.211039
  7164.491  7164.490  0.500  1.493876  151.99  34.1218  0.215367
  7165.911  7165.910  0.500  1.493797  151.938  34.1129  0.218882
  7167.353  7167.350  0.500  1.492335  151.901  34.1546  0.221868
  7168.820  7168.810  0.500  1.490880  151.885  34.2006  0.224785
  7170.299  7170.290  0.500  1.489751  151.852  34.2319  0.228893
  7171.793  7171.790  0.500  1.488778  151.804  34.2543  0.236027
  7173.321  7173.310  0.500  1.485650  151.778  34.3557  0.247253
  7174.856  7174.850  0.500  1.481445  151.734  34.4906  0.261537
  7176.418  7176.410  0.500  1.477433  151.72  34.6259  0.277722
  7177.982  7177.980  0.500  1.474897  151.688  34.7065  0.293302
  7179.592  7179.580  0.500  1.473579  151.67  34.7482  0.303967
  7181.193  7181.190  0.500  1.472961  151.638  34.7624  0.306788
  7182.836  7182.830  0.500  1.472029  151.626  34.7921  0.304361
  7184.490  7184.480  0.500  1.470732  151.582  34.827  0.298399
  7186.159  7186.150  0.500  1.469148  151.549  34.8747  0.287380
  7187.851  7187.840  0.500  1.466837  151.498  34.9437  0.273298
  7189.559  7189.550  0.500  1.464189  151.51  35.0391  0.259378
  7191.288  7191.280  0.500  1.461494  149.949  34.7717  0.242237
  7193.037  7193.030  0.500  1.459226  151.121  35.1231  0.231555
  7194.801  7194.790  0.500  1.457161  151.303  35.2379  0.227290
  7196.593  7196.580  0.500  1.455294  151.294  35.3017  0.232427
  7198.387  7198.380  0.500  1.453712  151.262  35.3501  0.244772
  7200.219  7200.210  0.500  1.452315  151.201  35.3853  0.261554
  7202.053  7202.050  0.500  1.450989  151.163  35.4234  0.282151
  7203.922  7203.910  0.500  1.449319  151.124  35.4733  0.306219
  7205.801  7205.790  0.500  1.447849  151.086  35.5167  0.329165
  7207.708  7207.690  0.500  1.446455  151.03  35.5529  0.340221
  7209.618  7209.610  0.500  1.445309  150.958  35.5766  0.330369
  7211.564  7211.550  0.500  1.444214  150.906  35.6035  0.297498
  7213.518  7213.510  0.500  1.442596  150.865  35.6514  0.252520
  7215.498  7215.480  0.500  1.441005  150.807  35.6945  0.211102
  7217.491  7217.480  0.500  1.438761  150.74  35.7588  0.181284
  7219.508  7219.490  0.500  1.436018  150.705  35.8486  0.165064
  7221.536  7221.520  0.500  1.433561  150.668  35.9281  0.162551
  7223.588  7223.580  0.500  1.430867  150.587  36.0056  0.172901
  7225.660  7225.650  0.500  1.428676  150.458  36.0535  0.195072
  7227.750  7227.740  0.500  1.427077  147.815  35.477  0.221807
  7229.860  7229.850  0.500  1.426033  150.63  36.1903  0.262997
  7232.000  7231.980  0.500  1.425552  150.568  36.1928  0.303168
  7234.128  7234.120  0.500  1.424801  150.483  36.1996  0.340888
  7236.308  7236.290  0.500  1.423829  150.432  36.2227  0.368579
  7238.489  7238.480  0.500  1.422832  150.407  36.2526  0.381246
  7240.692  7240.680  0.500  1.421601  150.371  36.2886  0.379657
  7242.912  7242.900  0.500  1.420250  150.305  36.3217  0.366916
  7245.162  7245.150  0.500  1.418649  147.497  35.7003  0.342577
  7247.423  7247.410  0.500  1.416738  150.052  36.3883  0.333740
  7249.699  7249.690  0.500  1.414396  150.056  36.4744  0.327513
  7252.000  7251.990  0.500  1.411869  149.972  36.5463  0.331461
  7254.321  7254.310  0.500  1.410104  147.625  36.0378  0.336451
  7256.662  7256.650  0.500  1.408230  150.009  36.6887  0.349942
  7259.013  7259.000  0.500  1.406130  149.852  36.7272  0.347889
  7261.392  7261.380  0.500  1.404191  149.414  36.691  0.337672
  7263.787  7263.770  0.500  1.401644  138.908  34.1981  0.305939
  7266.203  7266.190  0.500  1.399675  149.624  36.9089  0.323102
  7268.632  7268.620  0.500  1.397145  150.144  37.131  0.315882
  7271.081  7271.070  0.500  1.394715  150.176  37.2291  0.301960
  7273.563  7273.550  0.500  1.391831  149.012  37.0473  0.284585
  7276.058  7276.040  0.500  1.389240  150.184  37.4355  0.278742
  7278.559  7278.550  0.500  1.386649  150.102  37.5123  0.273861
  7281.083  7281.070  0.500  1.384432  150.06  37.585  0.266921
  7283.628  7283.620  0.500  1.382238  149.035  37.4103  0.255768
  7286.205  7286.190  0.500  1.380313  149.679  37.6441  0.248086
  7288.783  7288.770  0.500  1.378000  150.224  37.8689  0.246058
  7291.389  7291.380  0.500  1.375821  150.195  37.9441  0.255272
  7294.014  7294.000  0.500  1.373786  150.152  38.0106  0.277933
  7296.664  7296.650  0.500  1.371587  150.081  38.076  0.307527
  7299.322  7299.310  0.500  1.369562  149.952  38.1206  0.337413
  7302.006  7301.990  0.500  1.367558  148.206  37.7523  0.360073
  7304.709  7304.690  0.500  1.365044  150.084  38.3269  0.385643
  7307.422  7307.410  0.500  1.362647  149.984  38.3932  0.399876
  7310.161  7310.150  0.500  1.360526  149.93  38.4609  0.406062
  7312.914  7312.900  0.500  1.358370  149.867  38.5277  0.406375
  7315.694  7315.680  0.500  1.356254  149.793  38.5904  0.406740
  7318.486  7318.470  0.500  1.354244  149.726  38.6505  0.409204
  7321.307  7321.290  0.500  1.352031  149.696  38.7286  0.412097
  7324.132  7324.120  0.500  1.349907  149.645  38.7976  0.413934
  7326.978  7326.970  0.500  1.347637  149.552  38.8615  0.415363
  7329.863  7329.850  0.500  1.345362  149.485  38.9326  0.418377
  7332.755  7332.740  0.500  1.343163  149.402  38.9966  0.426734
  7335.663  7335.650  0.500  1.341003  149.377  39.0746  0.437764
  7338.580  7338.570  0.500  1.338511  148.16  38.8528  0.440582
  7341.529  7341.520  0.500  1.336109  149.129  39.201  0.440382
  7344.500  7344.490  0.500  1.333561  149.121  39.2988  0.425677
  7347.481  7347.470  0.500  1.331131  149.063  39.3793  0.404015
  7350.496  7350.480  0.500  1.328667  148.997  39.459  0.382750
  7353.517  7353.500  0.500  1.326389  148.945  39.5352  0.365506
  7356.566  7356.550  0.500  1.324093  148.872  39.6065  0.350776
  7359.618  7359.610  0.500  1.321364  148.802  39.6959  0.338703
  7362.703  7362.690  0.500  1.318685  148.733  39.784  0.330168
  7365.806  7365.790  0.500  1.315672  148.659  39.8843  0.327501
  7368.924  7368.910  0.500  1.312725  148.599  39.9858  0.332564
  7372.065  7372.050  0.500  1.309873  148.516  40.0778  0.347242
  7375.218  7375.200  0.500  1.307340  148.442  40.1592  0.373848
  7378.399  7378.380  0.500  1.304906  148.349  40.232  0.413444
  7381.584  7381.570  0.500  1.302336  148.27  40.314  0.458881
  7384.799  7384.790  0.500  1.299757  148.184  40.3947  0.494052
  7388.028  7388.020  0.500  1.297398  148.127  40.4744  0.509221
  7391.284  7391.270  0.500  1.295029  148.056  40.5511  0.507731
  7394.563  7394.550  0.500  1.292516  147.961  40.6271  0.499664
  7397.846  7397.840  0.500  1.290043  147.914  40.7148  0.493830
  7401.164  7401.150  0.500  1.287491  147.814  40.7911  0.494609
  7404.479  7404.470  0.500  1.285124  147.716  40.8606  0.497012
  7407.829  7407.820  0.500  1.282412  147.627  40.9471  0.497939
  7411.201  7411.190  0.500  1.279735  147.558  41.0374  0.497880
  7414.578  7414.570  0.500  1.277205  147.458  41.1136  0.498250
  7417.992  7417.980  0.500  1.274722  147.356  41.1873  0.500872
  7421.406  7421.400  0.500  1.272130  147.256  41.2662  0.508366
  7424.863  7424.850  0.500  1.269317  147.172  41.3589  0.520194
  7428.317  7428.310  0.500  1.266627  147.076  41.4433  0.529080
  7431.798  7431.790  0.500  1.263841  146.986  41.5335  0.531117
  7435.301  7435.290  0.500  1.261149  146.87  41.6123  0.529155
  7438.816  7438.810  0.500  1.258449  146.745  41.6895  0.522185
  7442.354  7442.350  0.500  1.255625  146.595  41.7645  0.508918
  7445.907  7445.900  0.500  1.252906  142.694  40.7639  0.482070
  7449.483  7449.480  0.500  1.250180  146.497  41.9645  0.485240
  7453.088  7453.080  0.500  1.247189  145.174  41.7102  0.478927
  7456.704  7456.690  0.500  1.244643  146.287  42.1371  0.484856
  7460.331  7460.320  0.500  1.241998  145.717  42.0842  0.487207
  7463.990  7463.980  0.500  1.239165  146.123  42.321  0.497674
  7467.662  7467.650  0.500  1.236227  142.131  41.286  0.498349
  7471.352  7471.340  0.500  1.233402  146.062  42.548  0.531319
  7475.060  7475.050  0.500  1.230681  145.93  42.6251  0.548980
  7478.786  7478.780  0.500  1.228077  145.775  42.691  0.562946
  7482.533  7482.520  0.500  1.225104  145.653  42.7822  0.576675
  7486.300  7486.290  0.500  1.222343  145.513  42.8594  0.593582
  7490.096  7490.080  0.500  1.219542  145.4  42.9463  0.610882
  7493.897  7493.880  0.500  1.216861  145.287  43.0279  0.624514
  7497.727  7497.710  0.500  1.214032  145.195  43.1226  0.629990
  7501.565  7501.550  0.500  1.211209  145.036  43.1972  0.628741
  7505.424  7505.410  0.500  1.208363  144.913  43.2835  0.626303
  7509.302  7509.290  0.500  1.205168  144.795  43.3865  0.626833
  7513.206  7513.190  0.500  1.202401  144.677  43.4713  0.630883
  7517.130  7517.110  0.500  1.199736  144.584  43.5594  0.637338
  7521.071  7521.050  0.500  1.197035  144.428  43.63  0.642270
  7525.026  7525.010  0.500  1.193711  144.262  43.7251  0.645439
  7528.997  7528.980  0.500  1.190704  144.129  43.8164  0.646607
  7532.994  7532.980  0.500  1.187842  144.022  43.9091  0.646856
  7537.013  7536.990  0.500  1.184992  143.885  43.9925  0.650758
  7541.043  7541.030  0.500  1.182078  143.761  44.083  0.656853
  7545.100  7545.080  0.500  1.179231  143.582  44.1535  0.663013
  7549.168  7549.150  0.500  1.176240  143.458  44.2478  0.667993
  7553.271  7553.240  0.500  1.173404  143.3  44.3246  0.668641
  7557.368  7557.350  0.500  1.170629  143.147  44.4001  0.664969
  7561.518  7561.480  0.500  1.167734  143.01  44.4861  0.660516
  7565.666  7565.630  0.500  1.164711  142.866  44.5762  0.661006
  7569.823  7569.790  0.500  1.161774  142.74  44.6676  0.667422
  7574.000  7573.980  0.500  1.158800  142.575  44.7489  0.679847
  7578.204  7578.180  0.500  1.155617  142.406  44.8384  0.697082
  7582.417  7582.410  0.500  1.152676  142.268  44.9269  0.714987
  7586.677  7586.650  0.500  1.149593  142.068  45.0022  0.729417
  7590.930  7590.910  0.500  1.146596  141.877  45.0768  0.739034
  7595.209  7595.190  0.500  1.143510  141.656  45.1457  0.744495
  7599.511  7599.490  0.500  1.140621  141.387  45.1902  0.747517
  7603.833  7603.810  0.500  1.137549  140.829  45.1505  0.750881
  7608.162  7608.150  0.500  1.134488  140.625  45.223  0.759750
  7612.526  7612.510  0.500  1.131433  140.416  45.294  0.770334
  7616.913  7616.890  0.500  1.128522  140.367  45.4103  0.779606
  7621.299  7621.280  0.500  1.125434  140.46  45.5808  0.784910
  7625.716  7625.700  0.500  1.122375  140.453  45.7183  0.787251
  7630.153  7630.130  0.500  1.119162  140.354  45.8331  0.792746
  7634.603  7634.580  0.500  1.116007  140.219  45.9336  0.801940
  7639.034  7639.050  0.500  1.112787  140.024  46.0177  0.813478
  7643.522  7643.540  0.500  1.110001  139.856  46.0907  0.826627
  7648.035  7648.050  0.500  1.107100  139.71  46.1766  0.837005
  7652.596  7652.580  0.500  1.103956  139.536  46.2643  0.845286
  7657.138  7657.130  0.500  1.100551  139.351  46.3603  0.851803
  7661.688  7661.700  0.500  1.097471  139.162  46.4404  0.855712
  7666.284  7666.280  0.500  1.094397  138.947  46.5114  0.857617
  7670.903  7670.890  0.500  1.091198  138.813  46.6152  0.859290
  7675.498  7675.510  0.500  1.088045  138.617  46.6967  0.860364
  7680.169  7680.160  0.500  1.085016  138.421  46.7719  0.862250
  7684.803  7684.820  0.500  1.081977  138.13  46.8155  0.866185
  7689.523  7689.500  0.500  1.078702  138.281  47.0205  0.876613
  7694.189  7694.200  0.500  1.075793  137.964  47.0495  0.886222
  7698.904  7698.920  0.500  1.072684  137.741  47.1197  0.897250
  7703.652  7703.660  0.500  1.069558  137.482  47.1783  0.906959
  7708.386  7708.410  0.500  1.066411  137.433  47.31  0.918384
  7713.193  7713.190  0.500  1.062928  137.195  47.3932  0.930586
  7717.980  7717.990  0.500  1.059801  136.931  47.4501  0.942096
  7722.786  7722.800  0.500  1.056601  136.755  47.5408  0.953071
  7727.606  7727.630  0.500  1.053632  136.532  47.6045  0.961979
  7732.470  7732.490  0.500  1.050546  136.348  47.6871  0.969153
  7737.376  7737.360  0.500  1.047357  136.085  47.7474  0.976160
  7742.238  7742.250  0.500  1.043881  136.154  47.938  0.986820
  7747.178  7747.160  0.500  1.040658  135.882  47.9966  0.995587
  7752.088  7752.090  0.500  1.037481  135.66  48.0706  1.002976
  7757.051  7757.030  0.500  1.034282  135.448  48.1492  1.010844
  7762.016  7762.000  0.500  1.031465  135.226  48.2061  1.020685
  7767.010  7766.990  0.500  1.028303  135.014  48.2829  1.032064
  7772.006  7771.990  0.500  1.024902  134.785  48.3653  1.044144
  7777.047  7777.020  0.500  1.021457  134.574  48.456  1.055870
  7782.082  7782.060  0.500  1.018060  134.352  48.5407  1.065534
  7787.139  7787.120  0.500  1.015047  134.155  48.6158  1.075538
  7792.190  7792.200  0.500  1.011725  133.995  48.7194  1.084404
  7797.287  7797.300  0.500  1.008371  133.794  48.8097  1.093013
  7802.401  7802.420  0.500  1.005303  133.582  48.8821  1.099758
  7807.540  7807.560  0.500  1.002092  133.347  48.953  1.106911
  7812.702  7812.720  0.500  0.998973  133.138  49.0292  1.114346
  7817.931  7817.900  0.500  0.995598  132.945  49.1237  1.122577
  7823.073  7823.090  0.500  0.992367  132.697  49.1907  1.131365
  7828.298  7828.310  0.500  0.989175  132.468  49.2625  1.139555
  7833.520  7833.540  0.500  0.985914  132.597  49.4717  1.151110
  7838.775  7838.790  0.500  0.982508  132.078  49.446  1.158014
  7844.051  7844.060  0.500  0.979262  132.213  49.6578  1.171234
  7849.326  7849.350  0.500  0.976055  131.93  49.7106  1.180938
  7854.645  7854.660  0.500  0.972708  130.868  49.4758  1.184160
  7859.975  7859.990  0.500  0.969331  131.519  49.8899  1.203543
  7865.320  7865.340  0.500  0.966041  131.292  49.9678  1.216381
  7870.698  7870.710  0.500  0.962877  131.074  50.0431  1.228597
  7876.066  7876.090  0.500  0.959563  130.846  50.122  1.241455
  7881.474  7881.500  0.500  0.956247  130.614  50.1992  1.253550
  7886.891  7886.920  0.500  0.953010  130.361  50.2644  1.265604
  7892.343  7892.370  0.500  0.949720  130.133  50.3419  1.277350
  7897.806  7897.830  0.500  0.946417  129.798  50.3785  1.287524
  7903.284  7903.310  0.500  0.943194  129.605  50.466  1.300492
  7908.786  7908.810  0.500  0.939915  129.361  50.5363  1.312275
  7914.328  7914.330  0.500  0.936597  129.125  50.6116  1.323661
  7919.846  7919.870  0.500  0.933383  128.861  50.6708  1.334863
  7925.415  7925.420  0.500  0.930072  128.602  50.7369  1.346052
  7930.976  7931.000  0.500  0.926893  128.219  50.7469  1.356079
  7936.583  7936.600  0.500  0.923462  127.902  50.7952  1.365290
  7942.195  7942.210  0.500  0.920161  127.89  50.9584  1.377347
  7947.829  7947.850  0.500  0.916871  127.557  50.9933  1.386593
  7953.477  7953.500  0.500  0.913592  127.22  51.0253  1.395990
  7959.157  7959.170  0.500  0.910369  126.956  51.0842  1.406873
  7964.835  7964.860  0.500  0.907266  126.632  51.1122  1.416701