File: xdidata/Fe/Fe-Diadochite.xdi
# XDI/1.0 BlueSky/1.10.0 BMM/2023-1.0-py310-tiled
# Beamline.name: BMM (06BM) -- Beamline for Materials Measurement (NIST)
# Beamline.xray_source: NSLS-II three-pole wiggler
# Beamline.collimation: paraboloid mirror, 5 nm Rh on 30 nm Pt
# Beamline.focusing: not in use
# Beamline.harmonic_rejection: flat mirror, Si stripe, pitch = 7.0 mrad relative to beam
# Beamline.software: Bluesky 1.10.0, Ophyd 1.7.0, DataBroker 2.0.0b13, Python 3.10.8, 2023-1.0-py310-tiled
# Detector.I0: 10 cm N2
# Detector.I1: 25 cm N2
# Detector.I2: 25 cm N2
# Element.symbol: Fe
# Element.edge: K
# Element.reference: Fe
# Element.reference_material: Fe foil
# Facility.name: NSLS-II
# Facility.energy: 3.0
# Facility.current: 399.9
# Facility.mode: top-off
# Facility.GUP: 123456
# Facility.SAF: 301027
# Facility.cycle: 2023-2
# Mono.name: Si(111)
# Mono.d_spacing: 3.13519
# Mono.encoder_resolution: 0.0000050 deg/ct
# Mono.angle_offset: 16.0754 deg
# Mono.scan_mode: pseudo channel cut
# Mono.scan_type: step
# Mono.direction: forward in energy
# Sample.name: Fe2(PO4)(SO4)OH.5H2O
# Sample.prep: PEG pellet
# Sample.x: 142.329 mm
# Sample.y: 114.126 mm
# Sample.SDD_position: 205.000 mm
# Scan.experimenters: Bruce Ravel
# Scan.edge_energy: 7112.0
# Scan.start_time: 2023-05-05T20:37:42
# Scan.end_time: 2023-05-05T20:46:51
# Scan.transient_id: 74626
# Scan.uid: ee75aa70-2503-472a-94e1-c324288f7181
# Scan.plot_hint: ln(I0/It)  --  ln($5/$6)
# Column.1: energy eV
# Column.2: requested_energy eV
# Column.3: measurement_time seconds
# Column.4: xmu
# Column.5: I0 nA
# Column.6: It nA
# Column.7: Ir nA
# ///////////
# courtesy Martin Stennett, University of Sheffield
# -----------
# energy  requested_energy  measurement_time  xmu  I0  It  Ir
  6912.007  6912.000  0.500  1.398680  154.67  38.1915  7.167433
  6922.011  6922.000  0.500  1.389516  154.5  38.5007  7.278425
  6932.017  6932.000  0.500  1.380167  154.445  38.8485  7.395768
  6942.019  6942.000  0.500  1.371694  154.461  39.1832  7.511396
  6952.002  6952.000  0.500  1.362816  154.443  39.528  7.631116
  6962.014  6962.000  0.500  1.354141  154.442  39.8721  7.751326
  6972.012  6972.000  0.500  1.345506  154.418  40.2116  7.870317
  6982.023  6982.000  0.500  1.336989  154.39  40.5482  7.990511
  6992.018  6992.000  0.500  1.328502  154.383  40.8921  8.112798
  7002.013  7002.000  0.500  1.320144  154.316  41.2174  8.232344
  7012.014  7012.000  0.500  1.311421  154.26  41.5634  8.356204
  7022.014  7022.000  0.500  1.303128  154.185  41.889  8.477472
  7032.014  7032.000  0.500  1.294914  154.111  42.2142  8.597380
  7042.013  7042.000  0.500  1.286895  154.046  42.5362  8.716015
  7052.013  7052.000  0.500  1.278820  153.926  42.8478  8.834231
  7062.012  7062.000  0.500  1.270763  153.203  42.9915  8.913316
  7072.005  7072.000  0.500  1.262920  153.697  43.4695  9.055048
  7082.001  7082.000  0.500  1.255505  153.61  43.7684  9.150303
  7084.000  7084.000  0.500  1.254094  153.422  43.7766  9.155611
  7085.993  7086.000  0.500  1.252650  153.532  43.8712  9.177872
  7088.002  7088.000  0.500  1.251301  153.52  43.9272  9.191039
  7090.005  7090.000  0.500  1.249908  153.519  43.9881  9.203296
  7092.001  7092.000  0.500  1.248653  153.486  44.0339  9.210128
  7093.997  7094.000  0.500  1.247415  153.451  44.0781  9.212874
  7096.001  7096.000  0.500  1.246600  153.445  44.1124  9.210282
  7098.317  7098.000  0.500  1.244976  153.406  44.1729  9.202913
  7100.133  7100.000  0.500  1.244251  153.398  44.2028  9.184922
  7102.003  7102.000  0.500  1.243315  153.329  44.2243  9.152928
  7102.294  7102.300  0.500  1.243185  153.32  44.2272  9.145630
  7102.602  7102.600  0.500  1.242986  153.321  44.2364  9.141165
  7102.957  7102.900  0.500  1.242903  153.324  44.2411  9.132950
  7103.182  7103.200  0.500  1.242911  153.32  44.2395  9.124072
  7103.479  7103.500  0.500  1.242650  153.282  44.2399  9.114620
  7103.783  7103.800  0.500  1.242773  153.278  44.2333  9.103517
  7104.084  7104.100  0.500  1.242591  153.218  44.2242  9.089458
  7104.392  7104.400  0.500  1.242429  153.269  44.246  9.080904
  7104.690  7104.700  0.500  1.242468  153.263  44.2424  9.067935
  7104.992  7105.000  0.500  1.242336  153.262  44.2481  9.055224
  7105.298  7105.300  0.500  1.242379  153.255  44.2443  9.037615
  7105.617  7105.600  0.500  1.242321  153.258  44.2476  9.019929
  7105.933  7105.900  0.500  1.242246  153.239  44.2453  9.000046
  7106.207  7106.200  0.500  1.242270  153.748  44.3913  9.009549
  7106.490  7106.500  0.500  1.242165  153.75  44.3965  8.988917
  7106.798  7106.800  0.500  1.242351  153.731  44.383  8.959856
  7107.079  7107.100  0.500  1.242091  153.703  44.3862  8.932150
  7107.387  7107.400  0.500  1.242021  153.666  44.3787  8.899090
  7107.725  7107.700  0.500  1.242242  153.652  44.365  8.852339
  7107.995  7108.000  0.500  1.242237  153.613  44.3538  8.811513
  7108.284  7108.300  0.500  1.242251  153.604  44.3505  8.761579
  7108.593  7108.600  0.500  1.242390  153.596  44.3422  8.698516
  7108.888  7108.900  0.500  1.242475  153.607  44.3417  8.629357
  7109.186  7109.200  0.500  1.242705  153.603  44.3302  8.540634
  7109.491  7109.500  0.500  1.242842  153.579  44.3171  8.427062
  7109.793  7109.800  0.500  1.242874  153.565  44.3118  8.275577
  7110.097  7110.100  0.500  1.243288  153.55  44.2891  8.067254
  7110.397  7110.400  0.500  1.243751  153.5  44.2542  7.770014
  7110.701  7110.700  0.500  1.243956  153.492  44.2429  7.362200
  7110.993  7111.000  0.500  1.244477  153.472  44.2141  6.840055
  7111.293  7111.300  0.500  1.245258  153.435  44.1688  6.205769
  7111.600  7111.600  0.500  1.246370  153.412  44.1132  5.526137
  7111.893  7111.900  0.500  1.247883  153.389  44.0397  4.934970
  7112.196  7112.200  0.500  1.250430  153.358  43.9189  4.453367
  7112.492  7112.500  0.500  1.255015  153.33  43.7099  4.086792
  7112.790  7112.800  0.500  1.260340  153.307  43.4714  3.805411
  7113.094  7113.100  0.500  1.266084  153.294  43.2188  3.569148
  7113.395  7113.400  0.500  1.270286  153.276  43.0325  3.373103
  7113.697  7113.700  0.500  1.272374  153.261  42.9384  3.202055
  7113.998  7114.000  0.500  1.273791  153.239  42.8716  3.048962
  7114.298  7114.300  0.500  1.276821  153.229  42.739  2.909527
  7114.600  7114.600  0.500  1.279740  153.215  42.6106  2.793235
  7114.901  7114.900  0.500  1.279699  153.217  42.6129  2.709699
  7115.204  7115.200  0.500  1.275153  153.209  42.8049  2.660505
  7115.498  7115.500  0.500  1.268898  153.208  43.073  2.634796
  7115.796  7115.800  0.500  1.263251  153.193  43.3127  2.618367
  7116.099  7116.100  0.500  1.259700  153.167  43.4596  2.601669
  7116.395  7116.400  0.500  1.258191  153.177  43.5279  2.580481
  7116.693  7116.700  0.500  1.257609  153.155  43.547  2.546208
  7116.994  7117.000  0.500  1.257995  153.152  43.5293  2.492489
  7117.295  7117.300  0.500  1.258724  153.132  43.4919  2.415513
  7117.598  7117.600  0.500  1.259853  153.129  43.442  2.308070
  7117.900  7117.900  0.500  1.261234  153.099  43.3736  2.177972
  7118.203  7118.200  0.500  1.262973  153.094  43.2969  2.031451
  7118.498  7118.500  0.500  1.264825  153.086  43.2144  1.884703
  7118.798  7118.800  0.500  1.267229  153.055  43.1019  1.740033
  7119.104  7119.100  0.500  1.269613  153.044  42.9963  1.601968
  7119.400  7119.400  0.500  1.272390  153.021  42.8705  1.476178
  7119.703  7119.700  0.500  1.275402  153.006  42.7376  1.357083
  7119.998  7120.000  0.500  1.279138  153.003  42.5772  1.245910
  7120.294  7120.300  0.500  1.284348  152.99  42.3525  1.137255
  7120.602  7120.600  0.500  1.291028  152.969  42.0647  1.031071
  7120.896  7120.900  0.500  1.299566  152.961  41.7047  0.937824
  7121.199  7121.200  0.500  1.310557  152.939  41.2431  0.852990
  7121.496  7121.500  0.500  1.322975  152.922  40.7295  0.781488
  7121.797  7121.800  0.500  1.338279  152.916  40.1093  0.718041
  7122.102  7122.100  0.500  1.356824  152.903  39.369  0.661303
  7122.403  7122.400  0.500  1.378195  152.889  38.5331  0.610638
  7122.707  7122.700  0.500  1.404010  152.87  37.5464  0.563484
  7123.001  7123.000  0.500  1.433721  152.864  36.4458  0.520749
  7123.301  7123.300  0.500  1.467242  152.854  35.242  0.481650
  7123.604  7123.600  0.500  1.503822  152.84  33.9732  0.444827
  7123.903  7123.900  0.500  1.541404  152.819  32.7156  0.412122
  7124.202  7124.200  0.500  1.580238  152.811  31.4677  0.382430
  7124.495  7124.500  0.500  1.620434  152.769  30.2196  0.354977
  7124.794  7124.800  0.500  1.662952  152.774  28.9626  0.328783
  7125.095  7125.100  0.500  1.706976  152.76  27.7128  0.304453
  7125.399  7125.400  0.500  1.752806  152.739  26.4677  0.281715
  7125.694  7125.700  0.500  1.798744  152.718  25.2759  0.260898
  7125.999  7126.000  0.500  1.847621  152.697  24.0668  0.241417
  7126.297  7126.300  0.500  1.898674  152.678  22.8662  0.222099
  7126.607  7126.600  0.500  1.953977  152.656  21.6328  0.203266
  7126.906  7126.900  0.500  2.011140  152.636  20.4281  0.185652
  7127.203  7127.200  0.500  2.071110  152.594  19.2339  0.168185
  7127.501  7127.500  0.500  2.132549  152.603  18.0888  0.152179
  7127.800  7127.800  0.500  2.194342  152.577  17.0019  0.137374
  7128.104  7128.100  0.500  2.256947  152.563  15.9687  0.122947
  7128.401  7128.400  0.500  2.316687  152.533  15.0397  0.110683
  7128.701  7128.700  0.500  2.377031  152.518  14.1576  0.099258
  7128.994  7129.000  0.500  2.435894  152.509  13.3475  0.088906
  7129.293  7129.300  0.500  2.493763  152.483  12.5949  0.079802
  7129.599  7129.600  0.500  2.549723  152.446  11.9065  0.071566
  7129.901  7129.900  0.500  2.599300  152.442  11.3303  0.065209
  7130.201  7130.200  0.500  2.641032  152.39  10.8635  0.060258
  7130.502  7130.500  0.500  2.674931  152.378  10.5006  0.056382
  7130.800  7130.800  0.500  2.699256  152.357  10.2468  0.053952
  7131.102  7131.100  0.500  2.714496  152.32  10.0894  0.052620
  7131.406  7131.400  0.500  2.720302  152.316  10.0308  0.052659
  7131.704  7131.700  0.500  2.718484  152.297  10.0477  0.053596
  7132.001  7132.000  0.500  2.711374  152.281  10.1184  0.055365
  7132.297  7132.300  0.500  2.701031  152.266  10.2226  0.057793
  7132.599  7132.600  0.500  2.688802  152.264  10.3482  0.060979
  7132.899  7132.900  0.500  2.675715  152.257  10.4841  0.064251
  7133.196  7133.200  0.500  2.663618  152.252  10.6113  0.067747
  7133.496  7133.500  0.500  2.652418  152.26  10.7313  0.071687
  7133.796  7133.800  0.500  2.643144  152.24  10.83  0.075402
  7134.103  7134.100  0.500  2.635453  152.234  10.9131  0.079052
  7134.400  7134.400  0.500  2.629247  152.241  10.9816  0.082314
  7134.703  7134.700  0.500  2.624678  152.244  11.0321  0.085315
  7135.001  7135.000  0.500  2.620905  152.229  11.0727  0.087928
  7135.298  7135.300  0.500  2.617650  152.227  11.1087  0.090022
  7135.603  7135.600  0.500  2.614442  152.257  11.1465  0.092255
  7135.903  7135.900  0.500  2.611737  152.244  11.1758  0.093746
  7136.201  7136.200  0.500  2.609138  152.242  11.2047  0.095090
  7136.501  7136.500  0.500  2.606342  152.252  11.2368  0.095929
  7136.804  7136.800  0.500  2.603475  152.243  11.2684  0.096746
  7136.996  7137.000  0.500  2.601674  152.238  11.2883  0.096776
  7137.998  7137.990  0.500  2.585076  152.246  11.4779  0.096706
  7139.007  7138.990  0.500  2.556820  152.221  11.8049  0.095102
  7140.026  7140.010  0.500  2.514884  152.226  12.3108  0.094501
  7141.092  7141.060  0.500  2.463037  152.743  13.01  0.096505
  7142.106  7142.120  0.500  2.415134  152.735  13.6477  0.100725
  7143.186  7143.200  0.500  2.371291  152.736  14.2595  0.106910
  7144.287  7144.300  0.500  2.331973  152.74  14.8317  0.112726
  7145.415  7145.420  0.500  2.295588  152.728  15.38  0.116643
  7146.554  7146.560  0.500  2.262614  152.721  15.8949  0.116180
  7147.713  7147.710  0.500  2.234654  152.735  16.3471  0.112201
  7148.888  7148.890  0.500  2.211283  152.721  16.7321  0.107051
  7150.085  7150.080  0.500  2.190916  152.717  17.0759  0.104093
  7151.308  7151.300  0.500  2.168142  152.725  17.4702  0.103382
  7152.532  7152.530  0.500  2.143238  152.705  17.9083  0.103671
  7153.790  7153.780  0.500  2.113961  152.691  18.4388  0.105741
  7155.049  7155.050  0.500  2.083007  152.665  19.0153  0.109929
  7156.346  7156.340  0.500  2.051295  152.658  19.627  0.115491
  7157.650  7157.650  0.500  2.022415  152.642  20.1999  0.120847
  7158.980  7158.980  0.500  2.000206  152.619  20.6505  0.124352
  7160.334  7160.330  0.500  1.985608  152.597  20.9511  0.126292
  7161.707  7161.700  0.500  1.980072  152.569  21.0636  0.127970
  7163.080  7163.080  0.500  1.983611  152.534  20.9844  0.129612
  7164.493  7164.490  0.500  1.996050  152.49  20.719  0.130657
  7165.915  7165.910  0.500  2.015868  152.438  20.3054  0.130201
  7167.353  7167.350  0.500  2.040780  152.38  19.7983  0.128674
  7168.820  7168.810  0.500  2.068483  152.375  19.2567  0.126648
  7170.294  7170.290  0.500  2.096720  152.36  18.7187  0.125301
  7171.789  7171.790  0.500  2.123988  152.333  18.212  0.125548
  7173.318  7173.310  0.500  2.150563  152.267  17.7267  0.127607
  7174.851  7174.850  0.500  2.178192  152.247  17.2414  0.130683
  7176.420  7176.410  0.500  2.202405  152.213  16.8251  0.134978
  7177.982  7177.980  0.500  2.213294  152.189  16.6404  0.140592
  7179.587  7179.580  0.500  2.220050  152.153  16.5244  0.144621
  7181.202  7181.190  0.500  2.224833  152.127  16.4427  0.145022
  7182.834  7182.830  0.500  2.226626  152.096  16.41  0.143478
  7184.496  7184.480  0.500  2.225570  152.058  16.4231  0.140464
  7186.154  7186.150  0.500  2.223004  152.03  16.4623  0.135655
  7187.851  7187.840  0.500  2.220225  151.982  16.5029  0.129132
  7189.559  7189.550  0.500  2.217630  151.956  16.543  0.122446
  7191.292  7191.280  0.500  2.213351  150.387  16.4424  0.114689
  7193.037  7193.030  0.500  2.206985  151.573  16.6778  0.110012
  7194.805  7194.790  0.500  2.199698  151.766  16.8213  0.108661
  7196.589  7196.580  0.500  2.192805  151.744  16.9351  0.111607
  7198.390  7198.380  0.500  2.186324  151.716  17.0421  0.118054
  7200.219  7200.210  0.500  2.179675  151.656  17.149  0.126812
  7202.059  7202.050  0.500  2.171868  151.61  17.2782  0.137780
  7203.922  7203.910  0.500  2.164058  151.556  17.4074  0.150310
  7205.797  7205.790  0.500  2.156058  151.498  17.5405  0.162595
  7207.703  7207.690  0.500  2.147703  151.454  17.6826  0.169356
  7209.618  7209.610  0.500  2.139503  151.369  17.8182  0.165500
  7211.562  7211.550  0.500  2.132053  151.311  17.9445  0.150365
  7213.520  7213.510  0.500  2.124876  151.264  18.0682  0.128157
  7215.498  7215.480  0.500  2.117497  151.218  18.1964  0.107755
  7217.487  7217.480  0.500  2.110335  151.157  18.3199  0.092977
  7219.504  7219.490  0.500  2.103796  151.1  18.4331  0.085105
  7221.527  7221.520  0.500  2.097674  151.052  18.5404  0.083931
  7223.599  7223.580  0.500  2.091587  150.981  18.6448  0.089751
  7225.660  7225.650  0.500  2.086347  150.846  18.726  0.101471
  7227.757  7227.740  0.500  2.081998  148.205  18.4783  0.115619
  7229.856  7229.850  0.500  2.078621  151.026  18.8938  0.137260
  7231.989  7231.980  0.500  2.075355  150.948  18.9457  0.158665
  7234.130  7234.120  0.500  2.073348  150.884  18.9757  0.178691
  7236.308  7236.290  0.500  2.072182  150.843  18.9927  0.193277
  7238.487  7238.480  0.500  2.072068  150.798  18.9893  0.199540
  7240.697  7240.680  0.500  2.072183  150.75  18.981  0.198579
  7242.910  7242.900  0.500  2.072879  150.716  18.9636  0.191542
  7245.167  7245.150  0.500  2.073997  147.9  18.5884  0.178233
  7247.421  7247.410  0.500  2.075255  150.432  18.8829  0.173193
  7249.701  7249.690  0.500  2.076580  150.448  18.8598  0.169298
  7251.998  7251.990  0.500  2.078028  150.372  18.8231  0.170590
  7254.315  7254.310  0.500  2.079143  148.042  18.5108  0.172864
  7256.662  7256.650  0.500  2.080892  150.422  18.7755  0.179072
  7259.006  7259.000  0.500  2.082621  150.263  18.7233  0.177254
  7261.397  7261.380  0.500  2.083978  149.837  18.6449  0.171379
  7263.782  7263.770  0.500  2.084791  139.329  17.3232  0.154844
  7266.198  7266.190  0.500  2.086733  149.998  18.6136  0.162951
  7268.637  7268.620  0.500  2.086672  150.625  18.6925  0.159165
  7271.081  7271.070  0.500  2.085690  150.569  18.7039  0.151615
  7273.567  7273.550  0.500  2.083249  149.402  18.6042  0.142931
  7276.049  7276.040  0.500  2.079872  150.575  18.8137  0.140029
  7278.559  7278.550  0.500  2.075061  150.515  18.897  0.138085
  7281.083  7281.070  0.500  2.069352  150.478  19.0004  0.134870
  7283.630  7283.620  0.500  2.063101  149.461  18.9905  0.129844
  7286.202  7286.190  0.500  2.056892  150.095  19.1897  0.126501
  7288.781  7288.770  0.500  2.050790  150.187  19.319  0.125408
  7291.389  7291.380  0.500  2.045094  150.164  19.4264  0.130651
  7294.018  7294.000  0.500  2.039767  150.12  19.5245  0.142707
  7296.661  7296.650  0.500  2.034882  150.057  19.6118  0.158341
  7299.320  7299.310  0.500  2.030262  149.939  19.6872  0.174252
  7302.006  7301.990  0.500  2.026113  148.195  19.5391  0.186224
  7304.705  7304.690  0.500  2.022187  150.057  19.8624  0.199878
  7307.419  7307.410  0.500  2.018388  149.961  19.9252  0.207405
  7310.168  7310.150  0.500  2.014848  149.895  19.987  0.210771
  7312.919  7312.900  0.500  2.011307  149.838  20.0503  0.211323
  7315.692  7315.680  0.500  2.007948  149.768  20.1085  0.211945
  7318.481  7318.470  0.500  2.004042  149.694  20.1771  0.213354
  7321.307  7321.290  0.500  2.000547  149.655  20.2426  0.215113
  7324.134  7324.120  0.500  1.996271  149.587  20.32  0.216602
  7326.987  7326.970  0.500  1.992255  149.526  20.3935  0.217915
  7329.861  7329.850  0.500  1.988181  149.446  20.4658  0.219843
  7332.755  7332.740  0.500  1.984304  149.402  20.5393  0.224495
  7335.663  7335.650  0.500  1.980747  149.314  20.6003  0.230672
  7338.589  7338.570  0.500  1.976881  148.091  20.5107  0.232613
  7341.529  7341.520  0.500  1.974045  149.099  20.7089  0.232736
  7344.500  7344.490  0.500  1.970999  149.095  20.7716  0.224740
  7347.486  7347.470  0.500  1.968144  149.06  20.8261  0.213534
  7350.498  7350.480  0.500  1.965548  149.002  20.8721  0.202409
  7353.517  7353.500  0.500  1.963010  148.944  20.9169  0.193249
  7356.559  7356.550  0.500  1.960204  148.878  20.9664  0.185618
  7359.623  7359.610  0.500  1.957504  148.773  21.0083  0.179173
  7362.700  7362.690  0.500  1.954802  148.707  21.0558  0.174605
  7365.799  7365.790  0.500  1.952187  148.599  21.0955  0.173192
  7368.921  7368.910  0.500  1.949808  148.538  21.1372  0.175579
  7372.063  7372.050  0.500  1.947650  148.48  21.1746  0.183414
  7375.218  7375.200  0.500  1.944980  148.404  21.2204  0.197513
  7378.395  7378.380  0.500  1.942719  148.313  21.2552  0.218141
  7381.586  7381.570  0.500  1.939758  148.255  21.3099  0.242350
  7384.801  7384.790  0.500  1.936409  148.16  21.3678  0.261479
  7388.031  7388.020  0.500  1.932971  148.089  21.431  0.269487
  7391.279  7391.270  0.500  1.929137  147.997  21.5001  0.268956
  7394.559  7394.550  0.500  1.924762  147.939  21.5859  0.265309
  7397.846  7397.840  0.500  1.920183  147.845  21.6712  0.262976
  7401.160  7401.150  0.500  1.915782  147.754  21.7534  0.263493
  7404.479  7404.470  0.500  1.911206  147.668  21.8403  0.265790
  7407.833  7407.820  0.500  1.906865  147.586  21.9232  0.266724
  7411.205  7411.190  0.500  1.902399  147.512  22.0102  0.266877
  7414.580  7414.570  0.500  1.898345  147.42  22.0859  0.267571
  7417.992  7417.980  0.500  1.894232  147.324  22.1625  0.269419
  7421.404  7421.400  0.500  1.890318  147.218  22.2334  0.273427
  7424.854  7424.850  0.500  1.886309  147.121  22.308  0.280375
  7428.317  7428.310  0.500  1.882149  147.022  22.386  0.285567
  7431.802  7431.790  0.500  1.878289  146.93  22.4584  0.287053
  7435.303  7435.290  0.500  1.874486  146.851  22.5319  0.286278
  7438.821  7438.810  0.500  1.870615  146.726  22.6  0.282813
  7442.357  7442.350  0.500  1.866635  146.579  22.6675  0.276117
  7445.907  7445.900  0.500  1.862770  142.672  22.1487  0.261698
  7449.486  7449.480  0.500  1.858902  146.51  22.8327  0.264176
  7453.086  7453.080  0.500  1.855014  145.308  22.7335  0.260867
  7456.702  7456.690  0.500  1.851291  146.406  22.9907  0.264461
  7460.333  7460.320  0.500  1.848003  146.041  23.009  0.266508
  7463.990  7463.980  0.500  1.843915  146.441  23.1665  0.272197
  7467.662  7467.650  0.500  1.840114  142.458  22.6222  0.273097
  7471.354  7471.340  0.500  1.836394  146.385  23.3325  0.291115
  7475.060  7475.050  0.500  1.832665  146.224  23.394  0.301114
  7478.791  7478.780  0.500  1.829031  146.127  23.4635  0.309323
  7482.524  7482.520  0.500  1.825263  146.013  23.5337  0.317054
  7486.298  7486.290  0.500  1.821690  145.886  23.5974  0.326564
  7490.096  7490.080  0.500  1.818315  145.773  23.6588  0.336536
  7493.892  7493.880  0.500  1.815139  145.67  23.7173  0.343960
  7497.724  7497.710  0.500  1.811621  145.569  23.7844  0.347417
  7501.567  7501.550  0.500  1.807929  145.41  23.8463  0.346688
  7505.443  7505.410  0.500  1.804279  145.311  23.9171  0.345818
  7509.307  7509.290  0.500  1.800445  145.192  23.9893  0.346441
  7513.206  7513.190  0.500  1.796693  145.047  24.0555  0.348941
  7517.130  7517.110  0.500  1.792765  144.942  24.1327  0.352758
  7521.069  7521.050  0.500  1.788712  144.806  24.208  0.356272
  7525.026  7525.010  0.500  1.784660  144.664  24.2825  0.358366
  7528.999  7528.980  0.500  1.780688  144.536  24.3576  0.359068
  7532.994  7532.980  0.500  1.776672  144.396  24.4319  0.359917
  7537.011  7536.990  0.500  1.772802  144.263  24.504  0.362091
  7541.043  7541.030  0.500  1.769179  144.143  24.5725  0.365931
  7545.095  7545.080  0.500  1.765091  143.999  24.6484  0.369759
  7549.171  7549.150  0.500  1.761106  143.822  24.7166  0.372876
  7553.271  7553.240  0.500  1.757058  143.689  24.7938  0.373783
  7557.385  7557.350  0.500  1.753134  143.553  24.8676  0.371962
  7561.508  7561.480  0.500  1.749666  143.39  24.9257  0.370117
  7565.663  7565.630  0.500  1.745822  143.25  24.9974  0.370325
  7569.826  7569.790  0.500  1.741849  143.098  25.0702  0.374368
  7574.012  7573.980  0.500  1.737753  142.94  25.1454  0.381673
  7578.201  7578.180  0.500  1.733720  142.786  25.2197  0.391717
  7582.427  7582.410  0.500  1.729612  142.626  25.2952  0.402359
  7586.672  7586.650  0.500  1.725447  142.436  25.3669  0.411021
  7590.925  7590.910  0.500  1.721208  142.252  25.4418  0.416982
  7595.212  7595.190  0.500  1.716951  142.032  25.5108  0.420577
  7599.511  7599.490  0.500  1.712607  141.762  25.5731  0.423098
  7603.801  7603.810  0.500  1.708374  141.169  25.5743  0.425094
  7608.145  7608.150  0.500  1.704338  141.019  25.6504  0.430425
  7612.526  7612.510  0.500  1.700303  140.796  25.7134  0.436982
  7616.908  7616.890  0.500  1.696168  140.749  25.8113  0.442895
  7621.292  7621.280  0.500  1.692533  140.816  25.9176  0.445864
  7625.716  7625.700  0.500  1.688575  140.854  26.0273  0.448032
  7630.148  7630.130  0.500  1.684864  140.759  26.1065  0.450915
  7634.603  7634.580  0.500  1.681147  140.603  26.1747  0.456571
  7639.036  7639.050  0.500  1.677179  140.394  26.2397  0.463828
  7643.527  7643.540  0.500  1.673311  140.252  26.3148  0.471383
  7648.030  7648.050  0.500  1.669609  140.073  26.3787  0.477798
  7652.566  7652.580  0.500  1.665725  139.886  26.446  0.483165
  7657.151  7657.130  0.500  1.661629  139.706  26.5204  0.487016
  7661.703  7661.700  0.500  1.657618  139.517  26.5908  0.489778
  7666.277  7666.280  0.500  1.653627  139.348  26.6649  0.491358
  7670.891  7670.890  0.500  1.649714  139.157  26.7328  0.492496
  7675.496  7675.510  0.500  1.645508  138.961  26.8075  0.493816
  7680.181  7680.160  0.500  1.641451  138.771  26.8797  0.495339
  7684.808  7684.820  0.500  1.637082  138.49  26.9429  0.497997
  7689.485  7689.500  0.500  1.633124  138.528  27.057  0.504246
  7694.189  7694.200  0.500  1.628918  138.357  27.1376  0.510783
  7698.909  7698.920  0.500  1.624991  138.12  27.1977  0.517500
  7703.655  7703.660  0.500  1.621131  137.847  27.2489  0.523425
  7708.394  7708.410  0.500  1.617060  137.781  27.3469  0.530641
  7713.188  7713.190  0.500  1.613152  137.515  27.401  0.537463
  7717.985  7717.990  0.500  1.608979  137.29  27.4705  0.545230
  7722.781  7722.800  0.500  1.604721  137.168  27.5633  0.552492
  7727.611  7727.630  0.500  1.600545  136.954  27.6354  0.557951
  7732.467  7732.490  0.500  1.596422  136.731  27.7045  0.562791
  7737.341  7737.360  0.500  1.592319  136.446  27.7604  0.567378
  7742.271  7742.250  0.500  1.588406  136.498  27.8798  0.573496
  7747.183  7747.160  0.500  1.584491  136.166  27.9212  0.578560
  7752.111  7752.090  0.500  1.580452  136.015  28.003  0.583777
  7757.049  7757.030  0.500  1.576462  135.777  28.0657  0.588972
  7762.021  7762.000  0.500  1.572013  135.57  28.148  0.595716
  7767.005  7766.990  0.500  1.567634  135.364  28.2285  0.602744
  7772.011  7771.990  0.500  1.563355  135.176  28.3102  0.610642
  7777.047  7777.020  0.500  1.559117  134.939  28.3806  0.618024
  7782.079  7782.060  0.500  1.554962  134.72  28.4526  0.624365
  7787.142  7787.120  0.500  1.550823  134.488  28.5213  0.630151
  7792.224  7792.200  0.500  1.546561  134.272  28.5972  0.636111
  7797.323  7797.300  0.500  1.542543  134.113  28.6782  0.641791
  7802.401  7802.420  0.500  1.538343  133.915  28.7565  0.646437
  7807.540  7807.560  0.500  1.534270  133.691  28.8255  0.650962
  7812.699  7812.720  0.500  1.529930  133.455  28.8999  0.655826
  7817.881  7817.900  0.500  1.526025  133.249  28.968  0.661480
  7823.094  7823.090  0.500  1.521830  133.023  29.0404  0.667422
  7828.296  7828.310  0.500  1.517717  132.824  29.1165  0.673133
  7833.551  7833.540  0.500  1.513656  132.584  29.1823  0.678445
  7838.773  7838.790  0.500  1.509546  132.081  29.1913  0.683264
  7844.051  7844.060  0.500  1.505537  132.168  29.3278  0.691370
  7849.331  7849.350  0.500  1.501319  131.893  29.3905  0.698206
  7854.651  7854.660  0.500  1.497179  130.817  29.2716  0.700409
  7859.972  7859.990  0.500  1.493258  131.471  29.5337  0.711752
  7865.359  7865.340  0.500  1.489328  131.256  29.6013  0.720320
  7870.722  7870.710  0.500  1.485070  131.036  29.6779  0.728379
  7876.069  7876.090  0.500  1.480915  130.814  29.7509  0.736496
  7881.482  7881.500  0.500  1.476409  130.583  29.8326  0.744432
  7886.891  7886.920  0.500  1.472145  130.344  29.9053  0.752354
  7892.394  7892.370  0.500  1.468037  130.108  29.9739  0.760004
  7897.808  7897.830  0.500  1.463935  129.806  30.0272  0.767148
  7903.284  7903.310  0.500  1.459650  129.607  30.1099  0.775278
  7908.789  7908.810  0.500  1.455546  129.36  30.1763  0.782855
  7914.315  7914.330  0.500  1.451358  129.1  30.2419  0.790165
  7919.844  7919.870  0.500  1.447258  128.881  30.3146  0.797895
  7925.410  7925.420  0.500  1.443261  128.612  30.3725  0.805377
  7930.990  7931.000  0.500  1.439393  128.231  30.3999  0.811494
  7936.586  7936.600  0.500  1.435268  127.884  30.4429  0.818021
  7942.190  7942.210  0.500  1.431056  127.927  30.5817  0.825948
  7947.835  7947.850  0.500  1.426719  127.574  30.6299  0.832186
  7953.477  7953.500  0.500  1.422593  127.231  30.6738  0.838934
  7959.149  7959.170  0.500  1.418385  126.961  30.7379  0.845963
  7964.835  7964.860  0.500  1.414532  126.613  30.772  0.852528