File: xdidata/Fe/Fe-Epidote.xdi
# XDI/1.0 BlueSky/1.10.0 BMM/2023-1.0-py310-tiled
# Beamline.name: BMM (06BM) -- Beamline for Materials Measurement (NIST)
# Beamline.xray_source: NSLS-II three-pole wiggler
# Beamline.collimation: paraboloid mirror, 5 nm Rh on 30 nm Pt
# Beamline.focusing: not in use
# Beamline.harmonic_rejection: flat mirror, Si stripe, pitch = 7.0 mrad relative to beam
# Beamline.software: Bluesky 1.10.0, Ophyd 1.7.0, DataBroker 2.0.0b13, Python 3.10.8, 2023-1.0-py310-tiled
# Detector.I0: 10 cm N2
# Detector.I1: 25 cm N2
# Detector.I2: 25 cm N2
# Element.symbol: Fe
# Element.edge: K
# Element.reference: Fe
# Element.reference_material: Fe foil
# Facility.name: NSLS-II
# Facility.energy: 3.0
# Facility.current: 400.0
# Facility.mode: top-off
# Facility.GUP: 123456
# Facility.SAF: 301027
# Facility.cycle: 2023-2
# Mono.name: Si(111)
# Mono.d_spacing: 3.13519
# Mono.encoder_resolution: 0.0000050 deg/ct
# Mono.angle_offset: 16.0754 deg
# Mono.scan_mode: pseudo channel cut
# Mono.scan_type: step
# Mono.direction: forward in energy
# Sample.name: Ca2Al2Fe(SiO4)(Si2O7)OOH
# Sample.prep: PEG pellet
# Sample.x: 142.329 mm
# Sample.y: 114.126 mm
# Sample.SDD_position: 205.000 mm
# Scan.experimenters: Bruce Ravel
# Scan.edge_energy: 7112.0
# Scan.start_time: 2023-05-05T19:35:02
# Scan.end_time: 2023-05-05T19:43:18
# Scan.transient_id: 74591
# Scan.uid: 3e991538-8f09-40fc-ab4e-0427df98460a
# Scan.plot_hint: ln(I0/It)  --  ln($5/$6)
# Column.1: energy eV
# Column.2: requested_energy eV
# Column.3: measurement_time seconds
# Column.4: xmu
# Column.5: I0 nA
# Column.6: It nA
# Column.7: Ir nA
# ///////////
# courtesy Martin Stennett, University of Sheffield
# -----------
# energy  requested_energy  measurement_time  xmu  I0  It  Ir
  6912.005  6912.000  0.500  1.319997  154.337  41.2291  7.743522
  6922.009  6922.000  0.500  1.311794  154.156  41.5199  7.853366
  6932.036  6932.000  0.500  1.304101  154.122  41.8314  7.966454
  6942.017  6942.000  0.500  1.295456  154.133  42.1973  8.093904
  6952.002  6952.000  0.500  1.287212  154.089  42.5347  8.214488
  6962.014  6962.000  0.500  1.279038  154.055  42.8743  8.338419
  6972.018  6972.000  0.500  1.271142  154.057  43.2148  8.462398
  6982.008  6982.000  0.500  1.263057  154.002  43.5501  8.587720
  6992.018  6992.000  0.500  1.255061  153.979  43.893  8.712244
  7002.011  7002.000  0.500  1.247303  153.923  44.2189  8.835434
  7012.008  7012.000  0.500  1.239493  153.85  44.5444  8.959917
  7022.012  7022.000  0.500  1.231568  153.789  44.8809  9.087722
  7032.008  7032.000  0.500  1.223807  153.712  45.208  9.210226
  7042.006  7042.000  0.500  1.216668  153.632  45.5081  9.329681
  7052.007  7052.000  0.500  1.208801  153.524  45.8354  9.452710
  7062.008  7062.000  0.500  1.201503  152.781  45.9476  9.529232
  7072.009  7072.000  0.500  1.193924  153.275  46.4468  9.679331
  7081.984  7082.000  0.500  1.186132  153.228  46.7959  9.788213
  7083.987  7084.000  0.500  1.184571  153.008  46.8015  9.792834
  7085.985  7086.000  0.500  1.183061  153.128  46.9092  9.818184
  7087.992  7088.000  0.500  1.181849  153.13  46.9668  9.831524
  7089.990  7090.000  0.500  1.180290  153.096  47.0295  9.845229
  7091.997  7092.000  0.500  1.178832  153.069  47.0897  9.853620
  7093.978  7094.000  0.500  1.177277  152.992  47.1392  9.857566
  7096.187  7096.000  0.500  1.175803  152.987  47.2075  9.859956
  7098.240  7098.000  0.500  1.174573  152.98  47.2635  9.852450
  7099.984  7100.000  0.500  1.173383  152.981  47.32  9.839407
  7101.988  7102.000  0.500  1.171668  152.942  47.389  9.812478
  7102.288  7102.300  0.500  1.171734  152.895  47.3714  9.802172
  7102.585  7102.600  0.500  1.171359  152.878  47.3838  9.795683
  7102.884  7102.900  0.500  1.170993  152.888  47.4043  9.791062
  7103.190  7103.200  0.500  1.170965  152.865  47.3986  9.780606
  7103.483  7103.500  0.500  1.170788  152.832  47.3966  9.770178
  7103.781  7103.800  0.500  1.170903  152.821  47.3877  9.757614
  7104.087  7104.100  0.500  1.170282  152.801  47.4111  9.747525
  7104.386  7104.400  0.500  1.170184  152.815  47.4199  9.736688
  7104.688  7104.700  0.500  1.170017  152.802  47.4239  9.725412
  7104.985  7105.000  0.500  1.169676  152.769  47.4298  9.711114
  7105.285  7105.300  0.500  1.169557  152.76  47.4326  9.693359
  7105.584  7105.600  0.500  1.169436  152.731  47.4294  9.674566
  7105.888  7105.900  0.500  1.169656  152.719  47.4152  9.651137
  7106.188  7106.200  0.500  1.169261  152.742  47.441  9.633703
  7106.486  7106.500  0.500  1.168982  152.73  47.4505  9.611518
  7106.792  7106.800  0.500  1.168769  152.716  47.4564  9.585890
  7107.092  7107.100  0.500  1.168577  152.705  47.4621  9.555060
  7107.389  7107.400  0.500  1.168251  152.713  47.4799  9.524945
  7107.687  7107.700  0.500  1.168030  152.702  47.4873  9.485950
  7107.989  7108.000  0.500  1.168173  152.676  47.4721  9.436325
  7108.289  7108.300  0.500  1.167891  152.674  47.4851  9.383010
  7108.591  7108.600  0.500  1.167803  152.664  47.486  9.320770
  7108.888  7108.900  0.500  1.167730  152.653  47.4862  9.247151
  7109.191  7109.200  0.500  1.167448  152.611  47.4864  9.153312
  7109.495  7109.500  0.500  1.167181  152.618  47.5013  9.034907
  7109.793  7109.800  0.500  1.167034  152.614  47.507  8.879414
  7110.093  7110.100  0.500  1.166978  152.593  47.5031  8.661689
  7110.395  7110.400  0.500  1.166807  152.583  47.5081  8.355959
  7110.697  7110.700  0.500  1.166650  152.572  47.5122  7.918838
  7110.993  7111.000  0.500  1.166618  152.527  47.4996  7.356838
  7111.302  7111.300  0.500  1.166612  152.863  47.6046  6.678201
  7111.591  7111.600  0.500  1.166702  153.013  47.6471  5.995203
  7111.891  7111.900  0.500  1.166798  152.989  47.6351  5.349354
  7112.189  7112.200  0.500  1.167133  152.94  47.6039  4.832702
  7112.490  7112.500  0.500  1.167801  152.899  47.5592  4.447487
  7112.792  7112.800  0.500  1.168656  152.868  47.5091  4.158076
  7113.097  7113.100  0.500  1.169492  152.851  47.4641  3.922913
  7113.395  7113.400  0.500  1.170460  152.824  47.4097  3.718425
  7113.699  7113.700  0.500  1.171012  152.82  47.3824  3.534867
  7114.000  7114.000  0.500  1.170843  152.812  47.3878  3.370457
  7114.300  7114.300  0.500  1.170922  152.821  47.3867  3.227186
  7114.598  7114.600  0.500  1.170040  152.778  47.4153  3.111032
  7114.901  7114.900  0.500  1.169876  152.785  47.4253  3.019086
  7115.201  7115.200  0.500  1.169187  152.773  47.4542  2.953287
  7115.500  7115.500  0.500  1.168209  152.76  47.4966  2.907312
  7115.802  7115.800  0.500  1.167348  152.767  47.5398  2.873964
  7116.092  7116.100  0.500  1.166448  152.734  47.5722  2.849887
  7116.393  7116.400  0.500  1.165836  152.704  47.592  2.823482
  7116.698  7116.700  0.500  1.165675  152.691  47.5958  2.784511
  7116.998  7117.000  0.500  1.165710  152.669  47.5872  2.726385
  7117.295  7117.300  0.500  1.165689  152.677  47.5908  2.642974
  7117.598  7117.600  0.500  1.165863  152.664  47.5783  2.529942
  7117.896  7117.900  0.500  1.166008  152.627  47.5599  2.393021
  7118.199  7118.200  0.500  1.166136  152.581  47.5396  2.234963
  7118.506  7118.500  0.500  1.166592  152.601  47.5241  2.073423
  7118.805  7118.800  0.500  1.166828  152.576  47.5048  1.917353
  7119.099  7119.100  0.500  1.167678  152.559  47.4593  1.771236
  7119.398  7119.400  0.500  1.168473  152.527  47.4117  1.635735
  7119.701  7119.700  0.500  1.169688  152.538  47.3574  1.506946
  7119.998  7120.000  0.500  1.171541  152.469  47.2484  1.382882
  7120.298  7120.300  0.500  1.173481  152.483  47.1611  1.265679
  7120.593  7120.600  0.500  1.176013  152.497  47.0464  1.156198
  7120.894  7120.900  0.500  1.179084  152.442  46.8852  1.055502
  7121.199  7121.200  0.500  1.182966  152.429  46.6995  0.966294
  7121.498  7121.500  0.500  1.187129  152.384  46.4916  0.892088
  7121.799  7121.800  0.500  1.192436  152.384  46.2457  0.828551
  7122.105  7122.100  0.500  1.198889  152.349  45.9377  0.771508
  7122.397  7122.400  0.500  1.206222  152.369  45.6079  0.722927
  7122.702  7122.700  0.500  1.214388  152.356  45.2333  0.679270
  7123.008  7123.000  0.500  1.222236  152.335  44.8735  0.640821
  7123.301  7123.300  0.500  1.229346  152.33  44.5541  0.607738
  7123.602  7123.600  0.500  1.234902  152.31  44.3014  0.579835
  7123.899  7123.900  0.500  1.240181  152.303  44.066  0.555117
  7124.200  7124.200  0.500  1.245795  152.271  43.8103  0.532091
  7124.497  7124.500  0.500  1.251353  152.26  43.5641  0.511357
  7124.798  7124.800  0.500  1.258455  152.238  43.2497  0.490680
  7125.093  7125.100  0.500  1.266490  152.211  42.896  0.471724
  7125.397  7125.400  0.500  1.275586  152.173  42.497  0.452339
  7125.700  7125.700  0.500  1.285405  152.159  42.0779  0.434175
  7126.002  7126.000  0.500  1.295129  152.117  41.6592  0.417283
  7126.301  7126.300  0.500  1.305410  152.114  41.2321  0.400091
  7126.605  7126.600  0.500  1.316126  152.095  40.7877  0.382952
  7126.902  7126.900  0.500  1.326169  152.055  40.3693  0.366236
  7127.210  7127.200  0.500  1.335981  152.03  39.9687  0.348634
  7127.505  7127.500  0.500  1.344705  152.053  39.6276  0.332164
  7127.802  7127.800  0.500  1.351623  152.012  39.3438  0.316181
  7128.095  7128.100  0.500  1.357005  151.982  39.1248  0.300958
  7128.399  7128.400  0.500  1.361448  151.958  38.9452  0.285621
  7128.701  7128.700  0.500  1.364067  151.918  38.8331  0.270637
  7128.996  7129.000  0.500  1.365468  151.886  38.7706  0.256874
  7129.295  7129.300  0.500  1.365707  151.871  38.7576  0.243721
  7129.597  7129.600  0.500  1.365017  151.818  38.7706  0.232226
  7129.899  7129.900  0.500  1.363845  151.791  38.8094  0.222482
  7130.207  7130.200  0.500  1.363063  151.781  38.837  0.214216
  7130.502  7130.500  0.500  1.363008  151.777  38.8383  0.207865
  7130.798  7130.800  0.500  1.364046  151.739  38.7882  0.203554
  7131.102  7131.100  0.500  1.366739  151.711  38.6768  0.201037
  7131.402  7131.400  0.500  1.370867  151.701  38.5148  0.200963
  7131.704  7131.700  0.500  1.376414  151.658  38.2911  0.203169
  7132.003  7132.000  0.500  1.382650  151.638  38.048  0.207304
  7132.297  7132.300  0.500  1.389403  151.608  37.7843  0.212914
  7132.597  7132.600  0.500  1.396138  151.608  37.5307  0.219551
  7132.899  7132.900  0.500  1.402453  151.568  37.2847  0.227479
  7133.198  7133.200  0.500  1.407624  151.576  37.0942  0.236493
  7133.498  7133.500  0.500  1.411094  151.581  36.967  0.246181
  7133.798  7133.800  0.500  1.413236  151.55  36.8804  0.256217
  7134.098  7134.100  0.500  1.414442  151.604  36.8489  0.266107
  7134.398  7134.400  0.500  1.414733  151.604  36.8384  0.275577
  7134.705  7134.700  0.500  1.414117  151.608  36.862  0.284535
  7135.005  7135.000  0.500  1.411946  151.614  36.9436  0.292494
  7135.298  7135.300  0.500  1.408899  151.616  37.0567  0.300322
  7135.603  7135.600  0.500  1.404060  151.577  37.227  0.307714
  7135.899  7135.900  0.500  1.399130  151.553  37.405  0.313517
  7136.201  7136.200  0.500  1.393544  151.529  37.6085  0.318782
  7136.503  7136.500  0.500  1.388230  151.536  37.8108  0.322510
  7136.799  7136.800  0.500  1.383725  151.528  37.9795  0.325316
  7136.992  7137.000  0.500  1.380887  151.5  38.0803  0.326393
  7137.998  7137.990  0.500  1.369480  151.515  38.5211  0.324472
  7139.007  7138.990  0.500  1.362769  151.51  38.7792  0.312703
  7140.028  7140.010  0.500  1.358013  151.51  38.9642  0.298997
  7141.079  7141.060  0.500  1.350733  151.502  39.2467  0.290919
  7142.145  7142.120  0.500  1.341300  151.497  39.6174  0.291797
  7143.190  7143.200  0.500  1.332414  151.451  39.9587  0.298850
  7144.287  7144.300  0.500  1.324859  151.439  40.2585  0.306271
  7145.413  7145.420  0.500  1.320620  151.429  40.4271  0.306337
  7146.557  7146.560  0.500  1.319615  151.416  40.4641  0.295511
  7147.707  7147.710  0.500  1.319381  151.393  40.4674  0.277453
  7148.888  7148.890  0.500  1.317158  151.38  40.554  0.259457
  7150.083  7150.080  0.500  1.312512  151.395  40.747  0.248275
  7151.299  7151.300  0.500  1.306193  151.401  41.0068  0.242302
  7152.532  7152.530  0.500  1.299867  151.363  41.2568  0.238963
  7153.786  7153.780  0.500  1.294383  151.391  41.4913  0.237612
  7155.049  7155.050  0.500  1.290394  151.359  41.6483  0.240519
  7156.344  7156.340  0.500  1.287303  151.312  41.7644  0.245657
  7157.656  7157.650  0.500  1.285065  151.292  41.8523  0.250132
  7158.982  7158.980  0.500  1.283476  151.263  41.9109  0.252065
  7160.330  7160.330  0.500  1.282517  151.244  41.9457  0.252961
  7161.705  7161.700  0.500  1.282156  151.21  41.9516  0.254815
  7163.078  7163.080  0.500  1.282497  151.153  41.9213  0.258764
  7164.491  7164.490  0.500  1.282486  151.114  41.9111  0.264310
  7165.913  7165.910  0.500  1.282501  151.065  41.8968  0.268729
  7167.353  7167.350  0.500  1.283249  151.037  41.8577  0.271842
  7168.816  7168.810  0.500  1.284741  151.006  41.7866  0.274830
  7170.294  7170.290  0.500  1.287172  150.99  41.6808  0.278787
  7171.793  7171.790  0.500  1.290001  150.955  41.5534  0.286174
  7173.321  7173.310  0.500  1.293036  150.905  41.4139  0.297985
  7174.856  7174.850  0.500  1.295677  150.885  41.2992  0.312909
  7176.418  7176.410  0.500  1.296917  150.834  41.2338  0.330806
  7177.989  7177.980  0.500  1.296305  150.789  41.247  0.348495
  7179.587  7179.580  0.500  1.295627  150.763  41.2677  0.360913
  7181.202  7181.190  0.500  1.294945  150.74  41.2897  0.364225
  7182.830  7182.830  0.500  1.293785  150.72  41.3321  0.361248
  7184.490  7184.480  0.500  1.292413  150.687  41.3797  0.354745
  7186.157  7186.150  0.500  1.291113  150.635  41.4193  0.341458
  7187.846  7187.840  0.500  1.289449  150.602  41.4793  0.324542
  7189.555  7189.550  0.500  1.288083  150.6  41.5353  0.307482
  7191.290  7191.280  0.500  1.286318  149.052  41.181  0.287029
  7193.039  7193.030  0.500  1.284952  150.241  41.5662  0.274061
  7194.796  7194.790  0.500  1.283401  150.394  41.673  0.269031
  7196.589  7196.580  0.500  1.281861  150.374  41.7317  0.274929
  7198.390  7198.380  0.500  1.280122  150.3  41.784  0.289223
  7200.217  7200.210  0.500  1.278274  150.265  41.8515  0.309413
  7202.059  7202.050  0.500  1.276450  150.231  41.9185  0.333883
  7203.918  7203.910  0.500  1.274830  150.19  41.9749  0.362207
  7205.803  7205.790  0.500  1.273793  150.14  42.0046  0.389177
  7207.701  7207.690  0.500  1.272895  150.541  42.1545  0.403623
  7209.616  7209.610  0.500  1.271657  150.508  42.1975  0.392029
  7211.557  7211.550  0.500  1.270222  150.467  42.2466  0.353362
  7213.516  7213.510  0.500  1.268558  150.418  42.3031  0.300136
  7215.493  7215.480  0.500  1.265645  150.358  42.4097  0.251191
  7217.489  7217.480  0.500  1.262157  150.296  42.5403  0.215725
  7219.508  7219.490  0.500  1.259145  150.224  42.6482  0.196479
  7221.529  7221.520  0.500  1.256634  150.157  42.7362  0.192965
  7223.597  7223.580  0.500  1.254554  150.079  42.803  0.205815
  7225.655  7225.650  0.500  1.252643  149.977  42.8557  0.231869
  7227.750  7227.740  0.500  1.250792  147.34  42.1803  0.263911
  7229.864  7229.850  0.500  1.248776  150.145  43.0698  0.312733
  7231.991  7231.980  0.500  1.246745  150.07  43.136  0.361042
  7234.125  7234.120  0.500  1.244643  150.015  43.2108  0.406542
  7236.308  7236.290  0.500  1.242671  149.959  43.2799  0.440619
  7238.489  7238.480  0.500  1.240852  149.927  43.3495  0.455829
  7240.694  7240.680  0.500  1.239592  149.904  43.3977  0.454047
  7242.912  7242.900  0.500  1.238311  149.874  43.4445  0.438811
  7245.160  7245.150  0.500  1.236937  147.051  42.6847  0.409826
  7247.421  7247.410  0.500  1.236111  149.583  43.4555  0.398576
  7249.703  7249.690  0.500  1.235565  149.605  43.4856  0.390167
  7252.000  7251.990  0.500  1.235069  149.517  43.4818  0.394258
  7254.321  7254.310  0.500  1.234267  147.187  42.8384  0.399930
  7256.666  7256.650  0.500  1.234122  149.552  43.5331  0.415157
  7259.008  7259.000  0.500  1.233158  149.392  43.5284  0.412455
  7261.390  7261.380  0.500  1.231953  148.975  43.4594  0.400135
  7263.789  7263.770  0.500  1.229700  138.325  40.4435  0.361572
  7266.201  7266.190  0.500  1.228843  149.17  43.6516  0.381870
  7268.637  7268.620  0.500  1.226639  149.804  43.9339  0.374103
  7271.079  7271.070  0.500  1.224234  149.74  44.0211  0.357179
  7273.565  7273.550  0.500  1.221397  148.584  43.8054  0.336586
  7276.049  7276.040  0.500  1.218772  149.741  44.2622  0.329379
  7278.562  7278.550  0.500  1.216136  149.677  44.3602  0.324030
  7281.087  7281.070  0.500  1.213951  149.624  44.4415  0.315455
  7283.635  7283.620  0.500  1.212268  148.592  44.2093  0.302130
  7286.198  7286.190  0.500  1.210783  149.248  44.4706  0.293011
  7288.788  7288.770  0.500  1.209178  149.343  44.5704  0.289465
  7291.393  7291.380  0.500  1.207639  149.301  44.6263  0.300134
  7294.012  7294.000  0.500  1.206077  149.267  44.686  0.326630
  7296.664  7296.650  0.500  1.204295  149.221  44.7518  0.361852
  7299.322  7299.310  0.500  1.202485  149.09  44.7937  0.396550
  7302.008  7301.990  0.500  1.200468  147.36  44.3631  0.422955
  7304.707  7304.690  0.500  1.198019  149.201  45.0277  0.453044
  7307.424  7307.410  0.500  1.196077  149.1  45.0844  0.469704
  7310.161  7310.150  0.500  1.194072  148.946  45.1283  0.476484
  7312.919  7312.900  0.500  1.192418  148.974  45.2116  0.476971
  7315.696  7315.680  0.500  1.190047  148.915  45.3008  0.477655
  7318.483  7318.470  0.500  1.187860  148.875  45.3881  0.480635
  7321.309  7321.290  0.500  1.185570  148.803  45.4699  0.483768
  7324.132  7324.120  0.500  1.183394  148.768  45.5584  0.486240
  7326.981  7326.970  0.500  1.180738  148.705  45.6603  0.487926
  7329.863  7329.850  0.500  1.178171  148.635  45.756  0.491651
  7332.755  7332.740  0.500  1.175611  148.532  45.8416  0.501522
  7335.665  7335.650  0.500  1.173086  148.462  45.9358  0.514277
  7338.582  7338.570  0.500  1.170485  147.265  45.6839  0.518097
  7341.532  7341.520  0.500  1.168230  148.258  46.096  0.517932
  7344.504  7344.490  0.500  1.166104  148.259  46.1944  0.500363
  7347.484  7347.470  0.500  1.164062  148.193  46.268  0.474400
  7350.496  7350.480  0.500  1.162112  148.143  46.3429  0.449495
  7353.517  7353.500  0.500  1.160131  148.1  46.4211  0.429179
  7356.566  7356.550  0.500  1.158315  148.01  46.4772  0.411627
  7359.621  7359.610  0.500  1.156518  147.931  46.5361  0.397038
  7362.698  7362.690  0.500  1.154621  147.845  46.5974  0.386512
  7365.804  7365.790  0.500  1.152265  147.759  46.68  0.383361
  7368.926  7368.910  0.500  1.150290  147.691  46.7508  0.388426
  7372.067  7372.050  0.500  1.148026  147.616  46.8331  0.405625
  7375.218  7375.200  0.500  1.146014  147.564  46.9109  0.436558
  7378.399  7378.380  0.500  1.144132  147.482  46.9732  0.482332
  7381.584  7381.570  0.500  1.142307  147.415  47.0377  0.535469
  7384.803  7384.790  0.500  1.140250  147.346  47.1123  0.576359
  7388.035  7388.020  0.500  1.138446  147.283  47.1772  0.593402
  7391.282  7391.270  0.500  1.136025  147.201  47.2653  0.591333
  7394.561  7394.550  0.500  1.133638  147.093  47.3435  0.582101
  7397.848  7397.840  0.500  1.131202  147.042  47.4424  0.575910
  7401.157  7401.150  0.500  1.128631  146.953  47.5358  0.576160
  7404.483  7404.470  0.500  1.126014  146.864  47.6316  0.579371
  7407.829  7407.820  0.500  1.123523  146.776  47.7217  0.580487
  7411.205  7411.190  0.500  1.121082  146.695  47.812  0.580107
  7414.583  7414.570  0.500  1.118700  146.603  47.8957  0.580826
  7417.985  7417.980  0.500  1.116361  146.535  47.9858  0.583733
  7421.404  7421.400  0.500  1.113921  146.452  48.0757  0.591790
  7424.856  7424.850  0.500  1.111408  146.358  48.1658  0.605609
  7428.319  7428.310  0.500  1.109049  146.259  48.2469  0.615902
  7431.800  7431.790  0.500  1.106606  146.134  48.3234  0.618053
  7435.301  7435.290  0.500  1.104153  146.05  48.4142  0.615608
  7438.823  7438.810  0.500  1.101810  145.901  48.4784  0.607345
  7442.364  7442.350  0.500  1.099278  145.747  48.5501  0.591257
  7445.910  7445.900  0.500  1.096954  141.89  47.3752  0.560299
  7449.490  7449.480  0.500  1.094259  145.743  48.793  0.564670
  7453.095  7453.080  0.500  1.091933  144.499  48.489  0.556604
  7456.695  7456.690  0.500  1.089772  145.531  48.941  0.563080
  7460.336  7460.320  0.500  1.087685  144.931  48.841  0.565524
  7463.997  7463.980  0.500  1.085153  145.29  49.0862  0.576940
  7467.660  7467.650  0.500  1.082452  141.33  47.8776  0.577526
  7471.345  7471.340  0.500  1.079992  145.258  49.3292  0.615745
  7475.063  7475.050  0.500  1.077422  145.092  49.3999  0.636518
  7478.791  7478.780  0.500  1.075042  144.928  49.4617  0.652459
  7482.536  7482.520  0.500  1.072752  144.819  49.5376  0.667688
  7486.303  7486.290  0.500  1.070214  144.638  49.6014  0.686587
  7490.115  7490.080  0.500  1.067587  144.586  49.7139  0.707453
  7493.900  7493.880  0.500  1.065130  144.494  49.8046  0.722766
  7497.724  7497.710  0.500  1.062600  144.399  49.8981  0.729005
  7501.570  7501.550  0.500  1.060137  144.306  49.9887  0.727421
  7505.446  7505.410  0.500  1.057607  144.161  50.0651  0.724486
  7509.309  7509.290  0.500  1.055088  144.038  50.1484  0.724501
  7513.210  7513.190  0.500  1.052453  143.925  50.2414  0.729174
  7517.104  7517.110  0.500  1.050163  143.784  50.3074  0.736061
  7521.045  7521.050  0.500  1.047622  143.621  50.3779  0.741629
  7525.026  7525.010  0.500  1.044940  143.498  50.4702  0.745361
  7529.002  7528.980  0.500  1.042411  143.339  50.5419  0.745096
  7533.002  7532.980  0.500  1.040018  143.222  50.6216  0.746332
  7537.015  7536.990  0.500  1.037556  143.099  50.7027  0.749879
  7541.051  7541.030  0.500  1.034823  142.99  50.8028  0.757049
  7545.110  7545.080  0.500  1.032492  142.847  50.8706  0.763799
  7549.147  7549.150  0.500  1.030356  142.67  50.9161  0.768736
  7553.275  7553.240  0.500  1.027482  142.541  51.0163  0.769382
  7557.387  7557.350  0.500  1.024758  142.405  51.1068  0.765285
  7561.511  7561.480  0.500  1.022142  142.264  51.1898  0.759974
  7565.617  7565.630  0.500  1.019290  142.097  51.276  0.760106
  7569.821  7569.790  0.500  1.016569  141.94  51.3589  0.767139
  7573.988  7573.980  0.500  1.014013  141.791  51.4361  0.781115
  7578.167  7578.180  0.500  1.011280  141.636  51.5205  0.800654
  7582.400  7582.410  0.500  1.009024  141.487  51.5824  0.820734
  7586.643  7586.650  0.500  1.006128  141.338  51.6776  0.837433
  7590.893  7590.910  0.500  1.003419  141.13  51.7417  0.848160
  7595.207  7595.190  0.500  1.000764  140.905  51.7965  0.854228
  7599.474  7599.490  0.500  0.997788  140.631  51.8498  0.857393
  7603.828  7603.810  0.500  0.995235  140.066  51.7737  0.861213
  7608.132  7608.150  0.500  0.992402  139.866  51.8461  0.870821
  7612.531  7612.510  0.500  0.989959  139.654  51.8944  0.882724
  7616.905  7616.890  0.500  0.987454  139.604  52.0057  0.893174
  7621.297  7621.280  0.500  0.984809  139.668  52.1676  0.898163
  7625.696  7625.700  0.500  0.982334  139.643  52.2875  0.900318
  7630.121  7630.130  0.500  0.979663  139.543  52.3895  0.905531
  7634.576  7634.580  0.500  0.976787  139.357  52.4704  0.915795
  7639.031  7639.050  0.500  0.973941  139.203  52.5618  0.929361
  7643.519  7643.540  0.500  0.971304  139.043  52.6402  0.943326
  7648.035  7648.050  0.500  0.968738  138.874  52.7114  0.955458
  7652.571  7652.580  0.500  0.966067  138.705  52.788  0.964244
  7657.146  7657.130  0.500  0.963178  138.555  52.8835  0.970772
  7661.691  7661.700  0.500  0.960361  138.349  52.9537  0.975452
  7666.267  7666.280  0.500  0.958170  138.786  53.2374  0.981444
  7670.871  7670.890  0.500  0.955395  138.646  53.3316  0.982890
  7675.503  7675.510  0.500  0.952706  138.47  53.4072  0.984016
  7680.146  7680.160  0.500  0.949831  138.256  53.4785  0.985729
  7684.808  7684.820  0.500  0.947049  137.959  53.5122  0.989936
  7689.483  7689.500  0.500  0.944370  138.085  53.7045  1.001320
  7694.189  7694.200  0.500  0.941327  137.76  53.7415  1.012690
  7698.914  7698.920  0.500  0.938440  137.503  53.7965  1.023816
  7703.647  7703.660  0.500  0.935631  137.242  53.8452  1.034916
  7708.397  7708.410  0.500  0.932819  137.174  53.97  1.047536
  7713.193  7713.190  0.500  0.930249  136.9  54.0008  1.059781
  7717.977  7717.990  0.500  0.927328  136.672  54.0686  1.073180
  7722.781  7722.800  0.500  0.924711  136.571  54.1705  1.085921
  7727.606  7727.630  0.500  0.921690  136.353  54.2477  1.095422
  7732.467  7732.490  0.500  0.918929  136.17  54.3243  1.103597
  7737.338  7737.360  0.500  0.916332  135.858  54.341  1.110635
  7742.238  7742.250  0.500  0.913563  135.96  54.5326  1.122664
  7747.165  7747.160  0.500  0.910738  135.616  54.5486  1.130894
  7752.068  7752.090  0.500  0.907782  135.395  54.6207  1.138753
  7757.015  7757.030  0.500  0.904968  135.163  54.6808  1.147498
  7761.990  7762.000  0.500  0.902097  134.893  54.7286  1.158527
  7766.995  7766.990  0.500  0.899396  134.723  54.8073  1.171789
  7771.975  7771.990  0.500  0.896564  134.523  54.8812  1.184630
  7777.024  7777.020  0.500  0.893624  134.342  54.9687  1.196939
  7782.048  7782.060  0.500  0.890782  134.13  55.0383  1.207519
  7787.103  7787.120  0.500  0.887750  133.91  55.1149  1.218472
  7792.219  7792.200  0.500  0.884929  133.695  55.1816  1.228233
  7797.284  7797.300  0.500  0.882216  133.527  55.2619  1.236799
  7802.393  7802.420  0.500  0.879209  133.329  55.3465  1.245318
  7807.540  7807.560  0.500  0.876466  133.092  55.3997  1.252095
  7812.705  7812.720  0.500  0.873683  132.87  55.4613  1.259968
  7817.881  7817.900  0.500  0.870920  132.677  55.534  1.268261
  7823.078  7823.090  0.500  0.868003  132.453  55.6025  1.278329
  7828.314  7828.310  0.500  0.865299  132.215  55.6529  1.287137
  7833.523  7833.540  0.500  0.862380  131.995  55.7223  1.296651
  7838.770  7838.790  0.500  0.859385  131.464  55.665  1.303438
  7844.051  7844.060  0.500  0.856593  131.534  55.8502  1.316813
  7849.334  7849.350  0.500  0.853451  131.263  55.9104  1.328077
  7854.640  7854.660  0.500  0.850671  130.173  55.6004  1.330501
  7859.977  7859.990  0.500  0.847764  130.832  56.0449  1.352135
  7865.338  7865.340  0.500  0.844805  130.582  56.1033  1.365736
  7870.691  7870.710  0.500  0.841874  130.343  56.1652  1.378555
  7876.069  7876.090  0.500  0.839158  130.117  56.2203  1.392160
  7881.474  7881.500  0.500  0.836499  129.896  56.2741  1.404998
  7886.894  7886.920  0.500  0.833479  129.685  56.3527  1.418781
  7892.349  7892.370  0.500  0.830671  129.44  56.4042  1.430432
  7897.803  7897.830  0.500  0.827483  129.115  56.4422  1.442445
  7903.287  7903.310  0.500  0.824447  128.926  56.5309  1.456424
  7908.786  7908.810  0.500  0.821609  128.681  56.5839  1.469111
  7914.307  7914.330  0.500  0.818735  128.395  56.6209  1.480380
  7919.863  7919.870  0.500  0.815726  128.154  56.6847  1.492371
  7925.394  7925.420  0.500  0.812931  127.876  56.7199  1.504420
  7930.976  7931.000  0.500  0.810015  127.516  56.7255  1.515179
  7936.578  7936.600  0.500  0.807208  127.144  56.7191  1.524209
  7942.182  7942.210  0.500  0.804169  127.158  56.8982  1.537733
  7947.832  7947.850  0.500  0.801336  126.839  56.9165  1.546770
  7953.485  7953.500  0.500  0.798338  126.476  56.9239  1.556517
  7959.152  7959.170  0.500  0.795413  126.199  56.9657  1.568719
  7964.835  7964.860  0.500  0.792763  125.884  56.9743  1.579119