File: xdidata/Fe/Fe-Ferrihydrite.xdi
# XDI/1.0 BlueSky/1.10.0 BMM/2023-1.0-py310-tiled
# Beamline.name: BMM (06BM) -- Beamline for Materials Measurement (NIST)
# Beamline.xray_source: NSLS-II three-pole wiggler
# Beamline.collimation: paraboloid mirror, 5 nm Rh on 30 nm Pt
# Beamline.focusing: not in use
# Beamline.harmonic_rejection: flat mirror, Si stripe, pitch = 7.0 mrad relative to beam
# Beamline.software: Bluesky 1.10.0, Ophyd 1.7.0, DataBroker 2.0.0b13, Python 3.10.8, 2023-1.0-py310-tiled
# Detector.I0: 10 cm N2
# Detector.I1: 25 cm N2
# Detector.I2: 25 cm N2
# Element.symbol: Fe
# Element.edge: K
# Element.reference: Fe
# Element.reference_material: Fe foil
# Facility.name: NSLS-II
# Facility.energy: 3.0
# Facility.current: 400.2
# Facility.mode: top-off
# Facility.GUP: 123456
# Facility.SAF: 301027
# Facility.cycle: 2023-2
# Mono.name: Si(111)
# Mono.d_spacing: 3.13519
# Mono.encoder_resolution: 0.0000050 deg/ct
# Mono.angle_offset: 16.0754 deg
# Mono.scan_mode: pseudo channel cut
# Mono.scan_type: step
# Mono.direction: forward in energy
# Sample.name: FeOOH
# Sample.prep: powder on tape
# Sample.x: 116.329 mm
# Sample.y: 114.126 mm
# Sample.SDD_position: 205.000 mm
# Scan.experimenters: Bruce Ravel
# Scan.edge_energy: 7112.0
# Scan.start_time: 2023-05-05T17:21:47
# Scan.end_time: 2023-05-05T17:29:59
# Scan.transient_id: 74516
# Scan.uid: 4a6fd2b6-d1e0-421e-a7af-70e405e3d10c
# Scan.plot_hint: ln(I0/It)  --  ln($5/$6)
# Column.1: energy eV
# Column.2: requested_energy eV
# Column.3: measurement_time seconds
# Column.4: xmu
# Column.5: I0 nA
# Column.6: It nA
# Column.7: Ir nA
# ///////////
# Welcome to BMM
# -----------
# energy  requested_energy  measurement_time  xmu  I0  It  Ir
  6911.999  6912.000  0.500  1.761133  153.802  26.4309  4.961548
  6922.007  6922.000  0.500  1.750553  153.67  26.6891  5.045302
  6932.017  6932.000  0.500  1.740538  153.62  26.949  5.129586
  6942.023  6942.000  0.500  1.730263  153.641  27.231  5.220610
  6951.991  6952.000  0.500  1.720356  153.609  27.4964  5.308104
  6962.004  6962.000  0.500  1.710317  153.629  27.7773  5.400544
  6972.008  6972.000  0.500  1.699957  153.62  28.0651  5.493523
  6982.021  6982.000  0.500  1.689988  153.577  28.3383  5.585209
  6992.018  6992.000  0.500  1.679654  153.574  28.632  5.680821
  7002.013  7002.000  0.500  1.669762  153.514  28.9053  5.773206
  7012.016  7012.000  0.500  1.659940  153.449  29.1784  5.866830
  7022.014  7022.000  0.500  1.650341  153.387  29.4479  5.958671
  7032.012  7032.000  0.500  1.640695  153.319  29.7201  6.053258
  7042.017  7042.000  0.500  1.631018  153.239  29.9935  6.146034
  7052.011  7052.000  0.500  1.621470  153.159  30.2654  6.239519
  7062.006  7062.000  0.500  1.611436  152.409  30.4209  6.306187
  7072.009  7072.000  0.500  1.602059  152.966  30.8198  6.421239
  7083.600  7082.000  0.500  1.592186  152.048  30.9389  6.469861
  7083.978  7084.000  0.500  1.591362  152.818  31.1211  6.508796
  7085.980  7086.000  0.500  1.589263  152.939  31.2112  6.530187
  7087.985  7088.000  0.500  1.587424  152.943  31.2694  6.543215
  7089.983  7090.000  0.500  1.585686  152.929  31.3209  6.553673
  7091.982  7092.000  0.500  1.583813  152.905  31.3747  6.562589
  7094.366  7094.000  0.500  1.581681  152.867  31.4339  6.569902
  7096.323  7096.000  0.500  1.580382  152.829  31.4669  6.569537
  7097.997  7098.000  0.500  1.578591  152.848  31.5272  6.569643
  7099.992  7100.000  0.500  1.577061  152.806  31.5669  6.560824
  7101.995  7102.000  0.500  1.575225  152.777  31.619  6.543946
  7102.290  7102.300  0.500  1.575043  152.775  31.6243  6.540607
  7102.585  7102.600  0.500  1.574845  152.791  31.6338  6.536842
  7102.884  7102.900  0.500  1.574665  152.755  31.632  6.530399
  7103.188  7103.200  0.500  1.574632  152.743  31.6307  6.523437
  7103.485  7103.500  0.500  1.574195  152.731  31.6419  6.518357
  7103.781  7103.800  0.500  1.573925  152.719  31.6479  6.512597
  7104.087  7104.100  0.500  1.573755  152.709  31.6512  6.504384
  7104.384  7104.400  0.500  1.573604  152.694  31.653  6.496570
  7104.688  7104.700  0.500  1.573690  152.681  31.6476  6.486276
  7104.987  7105.000  0.500  1.573086  152.673  31.6651  6.478683
  7105.287  7105.300  0.500  1.573163  152.672  31.6625  6.466413
  7105.582  7105.600  0.500  1.572938  152.652  31.6654  6.455435
  7105.890  7105.900  0.500  1.572627  152.656  31.676  6.443464
  7106.190  7106.200  0.500  1.572704  152.649  31.672  6.428111
  7106.492  7106.500  0.500  1.572214  152.65  31.688  6.413843
  7106.792  7106.800  0.500  1.571876  152.645  31.6975  6.398052
  7107.089  7107.100  0.500  1.571760  152.632  31.6985  6.376372
  7107.385  7107.400  0.500  1.571500  152.619  31.704  6.353840
  7107.695  7107.700  0.500  1.571402  152.611  31.7054  6.327424
  7107.987  7108.000  0.500  1.571541  152.6  31.6988  6.295216
  7108.289  7108.300  0.500  1.571415  152.596  31.7019  6.258544
  7108.586  7108.600  0.500  1.571211  152.598  31.7088  6.216325
  7108.886  7108.900  0.500  1.570670  152.585  31.7233  6.168076
  7109.193  7109.200  0.500  1.570759  152.579  31.7192  6.102813
  7109.493  7109.500  0.500  1.570746  152.554  31.7144  6.017990
  7109.791  7109.800  0.500  1.570685  152.551  31.7158  5.909888
  7110.093  7110.100  0.500  1.570545  152.527  31.7153  5.757427
  7110.397  7110.400  0.500  1.570425  152.511  31.7158  5.540171
  7110.701  7110.700  0.500  1.570396  152.477  31.7095  5.237685
  7110.995  7111.000  0.500  1.570490  152.439  31.6986  4.848769
  7111.297  7111.300  0.500  1.570855  152.42  31.6831  4.388542
  7111.591  7111.600  0.500  1.571478  152.39  31.6571  3.919973
  7111.893  7111.900  0.500  1.572278  152.33  31.6194  3.497314
  7112.196  7112.200  0.500  1.573633  152.287  31.5677  3.163215
  7112.487  7112.500  0.500  1.575870  152.308  31.5015  2.918553
  7112.790  7112.800  0.500  1.578798  152.281  31.4039  2.727442
  7113.094  7113.100  0.500  1.581791  152.27  31.3076  2.568644
  7113.393  7113.400  0.500  1.584372  152.239  31.2207  2.432779
  7113.697  7113.700  0.500  1.586031  152.623  31.2476  2.316300
  7113.998  7114.000  0.500  1.586894  152.706  31.2376  2.208932
  7114.298  7114.300  0.500  1.586554  152.667  31.2402  2.117317
  7114.598  7114.600  0.500  1.585333  152.66  31.277  2.042246
  7114.899  7114.900  0.500  1.583252  152.642  31.3383  1.987520
  7115.201  7115.200  0.500  1.581394  152.646  31.3974  1.948102
  7115.500  7115.500  0.500  1.580163  152.633  31.4335  1.920318
  7115.798  7115.800  0.500  1.579534  152.617  31.4499  1.899752
  7116.097  7116.100  0.500  1.579530  152.619  31.4506  1.881451
  7116.395  7116.400  0.500  1.579627  152.603  31.4442  1.862393
  7116.698  7116.700  0.500  1.579963  152.583  31.4295  1.833972
  7116.994  7117.000  0.500  1.580401  152.583  31.4156  1.793311
  7117.295  7117.300  0.500  1.580452  152.564  31.4101  1.736017
  7117.598  7117.600  0.500  1.580843  152.554  31.3957  1.657452
  7117.903  7117.900  0.500  1.581237  152.529  31.3783  1.563538
  7118.201  7118.200  0.500  1.581747  152.519  31.3602  1.459496
  7118.502  7118.500  0.500  1.582154  152.488  31.3412  1.353392
  7118.796  7118.800  0.500  1.582891  152.462  31.3128  1.251166
  7119.101  7119.100  0.500  1.584228  152.464  31.2713  1.153383
  7119.402  7119.400  0.500  1.586003  152.441  31.2111  1.063001
  7119.703  7119.700  0.500  1.588294  152.461  31.1437  0.979453
  7119.995  7120.000  0.500  1.591424  152.438  31.0417  0.898205
  7120.298  7120.300  0.500  1.595067  152.416  30.9243  0.819947
  7120.595  7120.600  0.500  1.599744  152.402  30.7772  0.746338
  7120.898  7120.900  0.500  1.605507  152.369  30.5939  0.680223
  7121.197  7121.200  0.500  1.612685  152.368  30.3748  0.621622
  7121.498  7121.500  0.500  1.620942  152.343  30.1201  0.572165
  7121.797  7121.800  0.500  1.630422  152.319  29.8312  0.529547
  7122.102  7122.100  0.500  1.641669  152.311  29.4961  0.491090
  7122.403  7122.400  0.500  1.653659  152.29  29.1406  0.458345
  7122.705  7122.700  0.500  1.666530  152.285  28.7669  0.429195
  7123.004  7123.000  0.500  1.679467  152.272  28.3947  0.403168
  7123.301  7123.300  0.500  1.692113  152.239  28.0317  0.380298
  7123.602  7123.600  0.500  1.704389  152.215  27.6854  0.360374
  7123.905  7123.900  0.500  1.715397  152.218  27.3829  0.343300
  7124.200  7124.200  0.500  1.726477  152.213  27.0802  0.327520
  7124.495  7124.500  0.500  1.737558  152.193  26.7782  0.313146
  7124.794  7124.800  0.500  1.749639  152.18  26.4545  0.299004
  7125.100  7125.100  0.500  1.762232  152.149  26.118  0.285781
  7125.401  7125.400  0.500  1.775731  152.153  25.7685  0.273424
  7125.696  7125.700  0.500  1.790165  152.132  25.3957  0.261459
  7125.997  7126.000  0.500  1.805406  152.056  24.9992  0.249579
  7126.301  7126.300  0.500  1.822107  152.069  24.5872  0.237722
  7126.605  7126.600  0.500  1.839518  152.058  24.161  0.226076
  7126.904  7126.900  0.500  1.856771  152.028  23.7431  0.214587
  7127.199  7127.200  0.500  1.874459  152.013  23.3245  0.202954
  7127.505  7127.500  0.500  1.891610  151.976  22.9223  0.191231
  7127.804  7127.800  0.500  1.907987  151.953  22.5466  0.180342
  7128.106  7128.100  0.500  1.923381  151.941  22.2005  0.169466
  7128.403  7128.400  0.500  1.937531  151.918  21.8852  0.159718
  7128.698  7128.700  0.500  1.950883  151.887  21.5906  0.149744
  7128.994  7129.000  0.500  1.963357  151.877  21.3215  0.140426
  7129.297  7129.300  0.500  1.975032  151.855  21.0709  0.131863
  7129.601  7129.600  0.500  1.985732  151.816  20.8414  0.124304
  7129.899  7129.900  0.500  1.994877  151.797  20.6489  0.118003
  7130.203  7130.200  0.500  2.003091  151.765  20.4758  0.112608
  7130.502  7130.500  0.500  2.010151  151.728  20.3268  0.108564
  7130.800  7130.800  0.500  2.016135  151.695  20.2011  0.106043
  7131.106  7131.100  0.500  2.021479  151.667  20.0897  0.104809
  7131.404  7131.400  0.500  2.025762  151.654  20.0022  0.104978
  7131.706  7131.700  0.500  2.028463  151.633  19.9455  0.106627
  7132.005  7132.000  0.500  2.030132  151.625  19.9111  0.109290
  7132.301  7132.300  0.500  2.030955  151.624  19.8946  0.113215
  7132.599  7132.600  0.500  2.030668  151.621  19.9  0.117853
  7132.896  7132.900  0.500  2.029603  151.618  19.9207  0.123183
  7133.196  7133.200  0.500  2.027669  151.604  19.9574  0.128640
  7133.498  7133.500  0.500  2.024775  151.605  20.0155  0.134857
  7133.798  7133.800  0.500  2.021349  151.607  20.0844  0.141107
  7134.096  7134.100  0.500  2.017339  151.607  20.165  0.147228
  7134.398  7134.400  0.500  2.012896  151.585  20.2519  0.152843
  7134.701  7134.700  0.500  2.008310  151.584  20.3449  0.158042
  7135.005  7135.000  0.500  2.003702  151.589  20.4395  0.163084
  7135.303  7135.300  0.500  1.999182  151.576  20.5303  0.167333
  7135.603  7135.600  0.500  1.994601  151.563  20.6228  0.171459
  7135.899  7135.900  0.500  1.990604  151.573  20.7068  0.174436
  7136.201  7136.200  0.500  1.986580  151.574  20.7905  0.176955
  7136.506  7136.500  0.500  1.983103  151.575  20.863  0.178605
  7136.801  7136.800  0.500  1.979863  151.573  20.9305  0.179720
  7136.996  7137.000  0.500  1.977856  151.574  20.9727  0.180054
  7138.000  7137.990  0.500  1.966777  151.562  21.2046  0.178434
  7139.001  7138.990  0.500  1.954200  151.552  21.4716  0.173224
  7140.030  7140.010  0.500  1.940108  151.559  21.7773  0.167101
  7141.068  7141.060  0.500  1.926280  151.556  22.0801  0.163898
  7142.138  7142.120  0.500  1.914590  151.559  22.3402  0.165091
  7143.222  7143.200  0.500  1.904900  151.551  22.5565  0.169267
  7144.294  7144.300  0.500  1.898329  151.522  22.7008  0.173155
  7145.413  7145.420  0.500  1.894649  151.51  22.7828  0.172732
  7146.554  7146.560  0.500  1.891522  151.5  22.8526  0.167010
  7147.705  7147.710  0.500  1.886091  151.489  22.9753  0.157339
  7148.882  7148.890  0.500  1.876734  151.458  23.1866  0.148285
  7150.076  7150.080  0.500  1.864344  151.456  23.4753  0.143157
  7151.306  7151.300  0.500  1.850276  151.468  23.8098  0.140874
  7152.529  7152.530  0.500  1.838052  151.454  24.1005  0.139807
  7153.786  7153.780  0.500  1.827479  151.447  24.3555  0.140041
  7155.049  7155.050  0.500  1.819232  151.423  24.5533  0.142385
  7156.350  7156.340  0.500  1.812155  151.406  24.7248  0.145938
  7157.650  7157.650  0.500  1.805776  151.4  24.8822  0.149196
  7158.989  7158.980  0.500  1.800822  151.366  25.0001  0.150665
  7160.337  7160.330  0.500  1.797346  151.349  25.0844  0.151658
  7161.698  7161.700  0.500  1.795629  151.294  25.1184  0.153053
  7163.084  7163.080  0.500  1.795599  151.273  25.1156  0.155644
  7164.486  7164.490  0.500  1.797242  151.216  25.0648  0.158568
  7165.909  7165.910  0.500  1.800364  151.189  24.9823  0.160684
  7167.351  7167.350  0.500  1.804877  151.153  24.8638  0.161860
  7168.811  7168.810  0.500  1.810279  151.123  24.7251  0.162978
  7170.296  7170.290  0.500  1.816622  151.081  24.5618  0.164817
  7171.791  7171.790  0.500  1.822971  151.061  24.4031  0.168651
  7173.314  7173.310  0.500  1.829756  151.019  24.2314  0.175243
  7174.856  7174.850  0.500  1.837545  150.973  24.036  0.183026
  7176.413  7176.410  0.500  1.842304  150.971  23.9217  0.192723
  7177.989  7177.980  0.500  1.844234  150.937  23.8702  0.202672
  7179.592  7179.580  0.500  1.845419  150.914  23.8382  0.209010
  7181.195  7181.190  0.500  1.846003  150.884  23.8195  0.210519
  7182.836  7182.830  0.500  1.845698  150.854  23.8221  0.208687
  7184.487  7184.480  0.500  1.844455  150.778  23.8397  0.204380
  7186.154  7186.150  0.500  1.842922  150.785  23.8774  0.196779
  7187.846  7187.840  0.500  1.841055  150.746  23.9159  0.187212
  7189.566  7189.550  0.500  1.839113  150.725  23.959  0.177144
  7191.290  7191.280  0.500  1.836704  149.047  23.7495  0.165464
  7193.035  7193.030  0.500  1.833610  150.354  24.0319  0.158386
  7194.794  7194.790  0.500  1.830649  150.54  24.1331  0.156083
  7196.582  7196.580  0.500  1.827755  150.522  24.2001  0.160138
  7198.394  7198.380  0.500  1.824770  150.495  24.2681  0.168845
  7200.215  7200.210  0.500  1.821484  150.442  24.3393  0.180809
  7202.059  7202.050  0.500  1.818094  150.384  24.4126  0.195634
  7203.918  7203.910  0.500  1.814463  150.345  24.4951  0.212416
  7205.797  7205.790  0.500  1.810663  150.316  24.5835  0.228847
  7207.697  7207.690  0.500  1.806381  150.253  24.6786  0.236773
  7209.622  7209.610  0.500  1.802175  150.198  24.7735  0.229898
  7211.557  7211.550  0.500  1.798165  150.138  24.8632  0.207180
  7213.525  7213.510  0.500  1.794618  150.088  24.9432  0.175750
  7215.484  7215.480  0.500  1.791519  150.02  25.0094  0.147274
  7217.489  7217.480  0.500  1.788269  149.954  25.0797  0.126700
  7219.497  7219.490  0.500  1.785780  149.905  25.1339  0.115934
  7221.542  7221.520  0.500  1.783373  149.866  25.1881  0.114285
  7223.588  7223.580  0.500  1.781351  149.824  25.2319  0.122196
  7225.664  7225.650  0.500  1.779362  149.707  25.2624  0.137811
  7227.753  7227.740  0.500  1.777601  147.641  24.9577  0.157370
  7229.860  7229.850  0.500  1.775837  150.405  25.4699  0.186587
  7231.993  7231.980  0.500  1.773440  150.319  25.5164  0.215351
  7234.128  7234.120  0.500  1.770898  150.282  25.5751  0.242107
  7236.303  7236.290  0.500  1.768241  150.229  25.6341  0.261686
  7238.487  7238.480  0.500  1.765343  150.183  25.7006  0.270640
  7240.690  7240.680  0.500  1.762982  150.151  25.7559  0.269815
  7242.908  7242.900  0.500  1.760496  150.117  25.8141  0.260675
  7245.162  7245.150  0.500  1.758199  147.312  25.3899  0.243475
  7247.423  7247.410  0.500  1.756245  149.872  25.8817  0.237258
  7249.696  7249.690  0.500  1.754532  149.88  25.9275  0.233140
  7252.000  7251.990  0.500  1.753254  149.781  25.9436  0.235861
  7254.324  7254.310  0.500  1.751881  147.35  25.5574  0.239336
  7256.659  7256.650  0.500  1.751212  149.887  26.0149  0.248464
  7259.013  7259.000  0.500  1.750801  149.71  25.9949  0.246269
  7261.394  7261.380  0.500  1.749976  149.266  25.9393  0.238930
  7263.782  7263.770  0.500  1.749502  136.589  23.7475  0.212518
  7266.203  7266.190  0.500  1.747872  149.576  26.0478  0.228116
  7268.634  7268.620  0.500  1.746635  150.078  26.1676  0.222745
  7271.083  7271.070  0.500  1.745262  150.025  26.1942  0.212312
  7273.561  7273.550  0.500  1.743538  148.618  25.9934  0.199767
  7276.053  7276.040  0.500  1.741063  150.071  26.3126  0.195991
  7278.564  7278.550  0.500  1.738651  150.014  26.366  0.192883
  7281.083  7281.070  0.500  1.735898  149.982  26.4331  0.187800
  7283.630  7283.620  0.500  1.732702  148.701  26.2913  0.179703
  7286.202  7286.190  0.500  1.729391  149.595  26.5371  0.174825
  7288.783  7288.770  0.500  1.725757  149.705  26.6532  0.173557
  7291.398  7291.380  0.500  1.721914  149.681  26.7515  0.180607
  7294.016  7294.000  0.500  1.717914  149.648  26.8529  0.197167
  7296.661  7296.650  0.500  1.714225  149.578  26.9394  0.218793
  7299.325  7299.310  0.500  1.710627  149.459  27.015  0.240172
  7302.003  7301.990  0.500  1.706873  148.022  26.856  0.256889
  7304.702  7304.690  0.500  1.704037  149.589  27.2173  0.274650
  7307.422  7307.410  0.500  1.700832  149.489  27.2864  0.284773
  7310.168  7310.150  0.500  1.697760  149.437  27.3609  0.289247
  7312.912  7312.900  0.500  1.694740  149.387  27.4344  0.289795
  7315.690  7315.680  0.500  1.692157  149.321  27.4933  0.290256
  7318.483  7318.470  0.500  1.689727  149.254  27.5477  0.292264
  7321.307  7321.290  0.500  1.687082  149.204  27.6114  0.294237
  7324.130  7324.120  0.500  1.684514  149.15  27.6725  0.295873
  7326.981  7326.970  0.500  1.682189  149.099  27.7275  0.296839
  7329.863  7329.850  0.500  1.679743  149.037  27.7838  0.299179
  7332.750  7332.740  0.500  1.677145  148.973  27.8441  0.305130
  7335.665  7335.650  0.500  1.674386  148.912  27.9095  0.313286
  7338.578  7338.570  0.500  1.671747  147.495  27.7171  0.314685
  7341.534  7341.520  0.500  1.668666  148.669  28.0238  0.315159
  7344.506  7344.490  0.500  1.665561  148.67  28.1112  0.304528
  7347.481  7347.470  0.500  1.662366  148.633  28.1941  0.289396
  7350.493  7350.480  0.500  1.659036  148.57  28.2763  0.274649
  7353.510  7353.500  0.500  1.655810  148.454  28.3454  0.261911
  7356.564  7356.550  0.500  1.652306  148.448  28.4437  0.252256
  7359.625  7359.610  0.500  1.649182  148.373  28.5183  0.243706
  7362.707  7362.690  0.500  1.646410  148.305  28.5844  0.237606
  7365.804  7365.790  0.500  1.643739  148.233  28.6469  0.235481
  7368.921  7368.910  0.500  1.640962  148.181  28.7166  0.239188
  7372.056  7372.050  0.500  1.637989  148.101  28.7866  0.249638
  7375.213  7375.200  0.500  1.635128  148.047  28.8583  0.269257
  7378.395  7378.380  0.500  1.632551  147.947  28.9134  0.297697
  7381.586  7381.570  0.500  1.630073  147.896  28.975  0.330405
  7384.801  7384.790  0.500  1.627268  147.802  29.0381  0.355846
  7388.033  7388.020  0.500  1.624417  147.744  29.1096  0.366481
  7391.277  7391.270  0.500  1.621521  147.672  29.1796  0.365414
  7394.556  7394.550  0.500  1.618525  147.608  29.2545  0.360195
  7397.844  7397.840  0.500  1.615676  147.521  29.3208  0.355946
  7401.160  7401.150  0.500  1.612356  147.431  29.4003  0.356796
  7404.486  7404.470  0.500  1.609217  147.367  29.4798  0.359022
  7407.831  7407.820  0.500  1.606012  147.281  29.5573  0.359776
  7411.196  7411.190  0.500  1.602740  147.236  29.6452  0.360356
  7414.580  7414.570  0.500  1.599556  147.147  29.7216  0.360572
  7417.982  7417.980  0.500  1.596132  147.067  29.8073  0.363113
  7421.411  7421.400  0.500  1.592346  146.955  29.8976  0.368643
  7424.859  7424.850  0.500  1.588619  146.841  29.9861  0.377483
  7428.327  7428.310  0.500  1.585022  146.769  30.0793  0.384527
  7431.798  7431.790  0.500  1.581809  146.692  30.1602  0.385979
  7435.298  7435.290  0.500  1.578334  146.586  30.2434  0.385176
  7438.816  7438.810  0.500  1.575028  146.465  30.3185  0.380051
  7442.352  7442.350  0.500  1.571650  146.327  30.3924  0.370806
  7445.910  7445.900  0.500  1.568402  142.422  29.6777  0.351027
  7449.493  7449.480  0.500  1.565079  146.27  30.581  0.354071
  7453.095  7453.080  0.500  1.562037  144.885  30.3837  0.349042
  7456.697  7456.690  0.500  1.558791  146.066  30.7309  0.353708
  7460.329  7460.320  0.500  1.555541  145.482  30.7076  0.356196
  7463.990  7463.980  0.500  1.552267  145.865  30.8894  0.363705
  7467.664  7467.650  0.500  1.548924  141.885  30.1472  0.364331
  7471.350  7471.340  0.500  1.545578  145.81  31.0851  0.388203
  7475.060  7475.050  0.500  1.542316  145.663  31.1552  0.401571
  7478.796  7478.780  0.500  1.539091  145.52  31.2251  0.412183
  7482.533  7482.520  0.500  1.535712  145.431  31.3116  0.422395
  7486.312  7486.290  0.500  1.532536  145.3  31.3829  0.434821
  7490.098  7490.080  0.500  1.529172  145.185  31.4637  0.448322
  7493.890  7493.880  0.500  1.526083  145.066  31.5352  0.457933
  7497.724  7497.710  0.500  1.522429  144.959  31.6273  0.462434
  7501.565  7501.550  0.500  1.519047  144.854  31.7116  0.462048
  7505.422  7505.410  0.500  1.515539  144.722  31.7938  0.460378
  7509.309  7509.290  0.500  1.512152  144.586  31.8718  0.460697
  7513.203  7513.190  0.500  1.508762  144.478  31.9562  0.464150
  7517.123  7517.110  0.500  1.505262  144.375  32.0454  0.469423
  7521.069  7521.050  0.500  1.501881  144.231  32.1217  0.473365
  7525.019  7525.010  0.500  1.498587  144.09  32.1962  0.475684
  7529.002  7528.980  0.500  1.495458  143.963  32.2686  0.476533
  7533.004  7532.980  0.500  1.492007  143.848  32.3544  0.477268
  7537.020  7536.990  0.500  1.488505  143.713  32.4375  0.480256
  7541.051  7541.030  0.500  1.484837  143.594  32.5298  0.485195
  7545.105  7545.080  0.500  1.481534  143.45  32.6047  0.490032
  7549.159  7549.150  0.500  1.478101  143.305  32.6836  0.493678
  7553.256  7553.240  0.500  1.474581  143.183  32.771  0.494902
  7557.346  7557.350  0.500  1.470810  143.035  32.8608  0.492676
  7561.496  7561.480  0.500  1.467221  142.874  32.9417  0.489426
  7565.649  7565.630  0.500  1.463810  142.746  33.0246  0.489819
  7569.811  7569.790  0.500  1.460141  142.614  33.1155  0.495393
  7574.005  7573.980  0.500  1.456739  142.471  33.1949  0.504233
  7578.172  7578.180  0.500  1.453131  142.314  33.2782  0.517425
  7582.405  7582.410  0.500  1.449578  142.158  33.3602  0.531511
  7586.667  7586.650  0.500  1.445910  141.992  33.4437  0.542579
  7590.927  7590.910  0.500  1.442354  141.775  33.5114  0.549611
  7595.209  7595.190  0.500  1.438729  141.567  33.5838  0.554228
  7599.509  7599.490  0.500  1.435231  141.31  33.6402  0.557223
  7603.833  7603.810  0.500  1.431500  140.746  33.6313  0.559719
  7608.172  7608.150  0.500  1.428237  140.465  33.6738  0.565968
  7612.533  7612.510  0.500  1.424448  140.272  33.7553  0.574433
  7616.888  7616.890  0.500  1.420697  140.295  33.8876  0.582322
  7621.292  7621.280  0.500  1.417213  140.337  34.016  0.586316
  7625.716  7625.700  0.500  1.413578  140.329  34.1381  0.588268
  7630.153  7630.130  0.500  1.410074  140.208  34.2282  0.592312
  7634.596  7634.580  0.500  1.406602  140.086  34.3176  0.599486
  7639.076  7639.050  0.500  1.402758  139.896  34.4029  0.609342
  7643.534  7643.540  0.500  1.399377  139.742  34.4815  0.618567
  7648.037  7648.050  0.500  1.395795  139.56  34.56  0.626836
  7652.574  7652.580  0.500  1.392042  139.405  34.6515  0.633258
  7657.153  7657.130  0.500  1.388294  139.213  34.7338  0.638264
  7661.693  7661.700  0.500  1.384551  139.047  34.8223  0.642011
  7666.302  7666.280  0.500  1.380873  138.815  34.8924  0.643660
  7670.876  7670.890  0.500  1.377182  138.598  34.9666  0.644877
  7675.528  7675.510  0.500  1.373623  138.409  35.0435  0.646140
  7680.184  7680.160  0.500  1.369975  138.213  35.1218  0.647507
  7684.841  7684.820  0.500  1.366324  137.892  35.1683  0.650723
  7689.523  7689.500  0.500  1.362770  137.961  35.3112  0.658533
  7694.217  7694.200  0.500  1.359021  137.684  35.3726  0.666926
  7698.942  7698.920  0.500  1.355307  137.465  35.4479  0.674999
  7703.683  7703.660  0.500  1.351671  137.218  35.513  0.682746
  7708.427  7708.410  0.500  1.347981  137.414  35.6952  0.693619
  7713.208  7713.190  0.500  1.344276  137.379  35.8186  0.703680
  7718.010  7717.990  0.500  1.340536  137.124  35.8861  0.713091
  7722.824  7722.800  0.500  1.336804  137.003  35.9884  0.722551
  7727.639  7727.630  0.500  1.333136  136.773  36.06  0.729034
  7732.475  7732.490  0.500  1.329312  136.545  36.1378  0.734487
  7737.346  7737.360  0.500  1.325612  136.266  36.1978  0.740343
  7742.238  7742.250  0.500  1.321962  136.289  36.3361  0.748763
  7747.186  7747.160  0.500  1.318221  135.996  36.394  0.754987
  7752.078  7752.090  0.500  1.314271  135.769  36.477  0.760978
  7757.018  7757.030  0.500  1.310605  135.568  36.5569  0.767800
  7761.998  7762.000  0.500  1.306835  135.336  36.6321  0.776220
  7766.984  7766.990  0.500  1.303109  135.1  36.7049  0.784974
  7771.998  7771.990  0.500  1.299295  134.899  36.7903  0.794531
  7777.029  7777.020  0.500  1.295598  134.684  36.8677  0.803428
  7782.061  7782.060  0.500  1.292033  134.467  36.9397  0.811035
  7787.123  7787.120  0.500  1.288293  134.269  37.0236  0.818615
  7792.211  7792.200  0.500  1.284360  134.087  37.119  0.826760
  7797.305  7797.300  0.500  1.280509  133.827  37.1899  0.833047
  7802.435  7802.420  0.500  1.276912  133.642  37.2725  0.838758
  7807.577  7807.560  0.500  1.272912  133.393  37.3521  0.844904
  7812.736  7812.720  0.500  1.269251  133.176  37.4281  0.850764
  7817.915  7817.900  0.500  1.265412  132.999  37.522  0.857465
  7823.105  7823.090  0.500  1.261847  132.802  37.6004  0.864983
  7828.340  7828.310  0.500  1.258239  132.537  37.661  0.871483
  7833.551  7833.540  0.500  1.254306  132.333  37.7511  0.878861
  7838.804  7838.790  0.500  1.250245  131.832  37.7614  0.884578
  7844.067  7844.060  0.500  1.246307  131.916  37.9344  0.895145
  7849.371  7849.350  0.500  1.242598  131.609  37.9868  0.902837
  7854.693  7854.660  0.500  1.238739  130.543  37.8249  0.905944
  7860.009  7859.990  0.500  1.234941  131.188  38.1562  0.920647
  7865.362  7865.340  0.500  1.231082  130.961  38.2375  0.931015
  7870.728  7870.710  0.500  1.227306  130.753  38.3213  0.941511
  7876.109  7876.090  0.500  1.223473  130.515  38.3983  0.951437
  7881.479  7881.500  0.500  1.219805  130.289  38.4727  0.961458
  7886.945  7886.920  0.500  1.216017  130.079  38.5565  0.971186
  7892.394  7892.370  0.500  1.212217  129.81  38.6233  0.979929
  7897.814  7897.830  0.500  1.208341  129.475  38.6731  0.988798
  7903.287  7903.310  0.500  1.204552  129.301  38.7677  0.999270
  7908.794  7908.810  0.500  1.200696  129.055  38.8437  1.008612
  7914.307  7914.330  0.500  1.196900  128.834  38.9245  1.018279
  7919.854  7919.870  0.500  1.193196  128.585  38.9934  1.027609
  7925.437  7925.420  0.500  1.189310  128.338  39.0702  1.036979
  7930.987  7931.000  0.500  1.185457  127.94  39.0992  1.045255
  7936.580  7936.600  0.500  1.181644  127.542  39.1265  1.052240
  7942.201  7942.210  0.500  1.177839  127.604  39.2949  1.062718
  7947.837  7947.850  0.500  1.173996  127.281  39.3464  1.070138
  7953.525  7953.500  0.500  1.170201  126.905  39.3792  1.078102
  7959.146  7959.170  0.500  1.166363  126.65  39.4513  1.087018
  7964.846  7964.860  0.500  1.162591  126.343  39.5043  1.095326