File: xdidata/Fe/Fe-Fe3Oxalate.xdi
# XDI/1.0 BlueSky/1.10.0 BMM/2023-1.0-py310-tiled
# Beamline.name: BMM (06BM) -- Beamline for Materials Measurement (NIST)
# Beamline.xray_source: NSLS-II three-pole wiggler
# Beamline.collimation: paraboloid mirror, 5 nm Rh on 30 nm Pt
# Beamline.focusing: not in use
# Beamline.harmonic_rejection: flat mirror, Si stripe, pitch = 7.0 mrad relative to beam
# Beamline.software: Bluesky 1.10.0, Ophyd 1.7.0, DataBroker 2.0.0b13, Python 3.10.8, 2023-1.0-py310-tiled
# Detector.I0: 10 cm N2
# Detector.I1: 25 cm N2
# Detector.I2: 25 cm N2
# Element.symbol: Fe
# Element.edge: K
# Element.reference: Fe
# Element.reference_material: Fe foil
# Facility.name: NSLS-II
# Facility.energy: 3.0
# Facility.current: 400.3
# Facility.mode: top-off
# Facility.GUP: 123456
# Facility.SAF: 301027
# Facility.cycle: 2023-2
# Mono.name: Si(111)
# Mono.d_spacing: 3.13519
# Mono.encoder_resolution: 0.0000050 deg/ct
# Mono.angle_offset: 16.0754 deg
# Mono.scan_mode: pseudo channel cut
# Mono.scan_type: step
# Mono.direction: forward in energy
# Sample.name: Fe2(C2O4)3(H2O)6
# Sample.prep: PEG pellet
# Sample.x: 116.329 mm
# Sample.y: 114.126 mm
# Sample.SDD_position: 205.000 mm
# Scan.experimenters: Bruce Ravel
# Scan.edge_energy: 7112.0
# Scan.start_time: 2023-05-05T18:59:07
# Scan.end_time: 2023-05-05T19:07:20
# Scan.transient_id: 74571
# Scan.uid: 59b9a2a3-52cd-4206-91a3-442220bb8a6e
# Scan.plot_hint: ln(I0/It)  --  ln($5/$6)
# Column.1: energy eV
# Column.2: requested_energy eV
# Column.3: measurement_time seconds
# Column.4: xmu
# Column.5: I0 nA
# Column.6: It nA
# Column.7: Ir nA
# ///////////
# courtesy Martin Stennett, University of Sheffield
# -----------
# energy  requested_energy  measurement_time  xmu  I0  It  Ir
  6912.007  6912.000  0.500  1.758884  153.881  26.504  4.969621
  6922.009  6922.000  0.500  1.748579  153.684  26.7443  5.050698
  6932.017  6932.000  0.500  1.738051  153.651  27.0216  5.138827
  6942.015  6942.000  0.500  1.727948  153.649  27.2955  5.227750
  6952.010  6952.000  0.500  1.717736  153.606  27.568  5.316285
  6962.014  6962.000  0.500  1.707535  153.609  27.8512  5.408882
  6972.030  6972.000  0.500  1.697632  153.583  28.1237  5.499725
  6982.006  6982.000  0.500  1.687518  153.533  28.4002  5.592008
  6992.014  6992.000  0.500  1.677564  153.492  28.6766  5.684259
  7002.004  7002.000  0.500  1.667820  153.441  28.9479  5.776613
  7012.004  7012.000  0.500  1.657914  153.354  29.2195  5.869410
  7022.010  7022.000  0.500  1.648457  153.314  29.4893  5.962028
  7032.012  7032.000  0.500  1.638796  153.225  29.7585  6.055167
  7042.008  7042.000  0.500  1.629430  153.146  30.023  6.147963
  7052.009  7052.000  0.500  1.620248  153.061  30.2831  6.237294
  7062.008  7062.000  0.500  1.610620  152.336  30.4312  6.303092
  7072.009  7072.000  0.500  1.601649  152.863  30.8117  6.413648
  7081.978  7082.000  0.500  1.593390  152.964  31.0877  6.494048
  7083.976  7084.000  0.500  1.591729  152.701  31.0858  6.495438
  7085.978  7086.000  0.500  1.590164  152.848  31.1646  6.514010
  7087.983  7088.000  0.500  1.588680  152.845  31.2101  6.524501
  7089.983  7090.000  0.500  1.587293  152.824  31.2493  6.533317
  7091.987  7092.000  0.500  1.585876  152.766  31.2816  6.536760
  7093.978  7094.000  0.500  1.584670  152.762  31.3186  6.540385
  7095.984  7096.000  0.500  1.583488  152.779  31.3591  6.541814
  7098.001  7098.000  0.500  1.582456  152.717  31.3787  6.534154
  7099.994  7100.000  0.500  1.581528  152.694  31.4031  6.521233
  7101.999  7102.000  0.500  1.580978  152.667  31.4149  6.496415
  7102.288  7102.300  0.500  1.580915  152.678  31.4192  6.492563
  7102.585  7102.600  0.500  1.580982  152.672  31.4157  6.486196
  7102.882  7102.900  0.500  1.581425  152.676  31.4027  6.477766
  7103.186  7103.200  0.500  1.581273  152.671  31.4064  6.472546
  7103.479  7103.500  0.500  1.581087  152.662  31.4105  6.465711
  7103.783  7103.800  0.500  1.581015  152.646  31.4095  6.457893
  7104.084  7104.100  0.500  1.581099  152.636  31.4047  6.449679
  7104.384  7104.400  0.500  1.581252  152.642  31.4011  6.439417
  7104.683  7104.700  0.500  1.581349  152.635  31.3966  6.430014
  7104.987  7105.000  0.500  1.581386  152.614  31.3912  6.418289
  7105.287  7105.300  0.500  1.581650  152.626  31.3853  6.405709
  7105.589  7105.600  0.500  1.581821  152.65  31.3849  6.394152
  7105.886  7105.900  0.500  1.582203  152.63  31.3687  6.376812
  7106.186  7106.200  0.500  1.581844  152.607  31.3753  6.363226
  7106.488  7106.500  0.500  1.582305  152.58  31.3553  6.342295
  7106.792  7106.800  0.500  1.582407  152.556  31.3471  6.323511
  7107.089  7107.100  0.500  1.582443  152.583  31.3515  6.303537
  7107.387  7107.400  0.500  1.582679  152.567  31.341  6.279626
  7107.685  7107.700  0.500  1.582938  152.537  31.3267  6.248645
  7107.985  7108.000  0.500  1.583542  152.536  31.3076  6.215394
  7108.289  7108.300  0.500  1.584232  152.548  31.2883  6.175387
  7108.589  7108.600  0.500  1.584409  152.559  31.2852  6.132858
  7108.888  7108.900  0.500  1.584927  152.546  31.2663  6.078173
  7109.186  7109.200  0.500  1.585406  152.522  31.2463  6.014515
  7109.495  7109.500  0.500  1.586164  152.511  31.2205  5.928915
  7109.797  7109.800  0.500  1.587257  152.514  31.1869  5.816839
  7110.097  7110.100  0.500  1.588668  152.504  31.1408  5.663008
  7110.397  7110.400  0.500  1.590833  152.491  31.0709  5.447152
  7110.699  7110.700  0.500  1.593932  152.46  30.9684  5.146419
  7110.995  7111.000  0.500  1.598279  152.426  30.8272  4.757480
  7111.297  7111.300  0.500  1.603292  152.398  30.6674  4.289883
  7111.595  7111.600  0.500  1.607019  152.378  30.5494  3.820821
  7111.889  7111.900  0.500  1.609302  152.352  30.4745  3.406161
  7112.191  7112.200  0.500  1.609827  152.325  30.4532  3.080111
  7112.487  7112.500  0.500  1.609915  152.297  30.4449  2.837231
  7112.796  7112.800  0.500  1.609747  152.268  30.4443  2.654378
  7113.097  7113.100  0.500  1.609698  152.271  30.4462  2.508434
  7113.395  7113.400  0.500  1.610234  152.272  30.4301  2.380017
  7113.697  7113.700  0.500  1.611021  152.246  30.401  2.262650
  7113.995  7114.000  0.500  1.611748  152.196  30.3689  2.156066
  7114.300  7114.300  0.500  1.612567  152.175  30.3399  2.061256
  7114.600  7114.600  0.500  1.613046  152.172  30.3248  1.984562
  7114.897  7114.900  0.500  1.614212  152.187  30.2924  1.924824
  7115.197  7115.200  0.500  1.616573  152.186  30.2208  1.877806
  7115.498  7115.500  0.500  1.620176  152.197  30.1142  1.840799
  7115.802  7115.800  0.500  1.624799  152.187  29.9735  1.810536
  7116.097  7116.100  0.500  1.630019  152.174  29.8149  1.784331
  7116.395  7116.400  0.500  1.635921  152.155  29.6358  1.756120
  7116.691  7116.700  0.500  1.642486  152.146  29.4399  1.720566
  7116.996  7117.000  0.500  1.650665  152.134  29.1979  1.670626
  7117.303  7117.300  0.500  1.660407  152.083  28.9052  1.602034
  7117.598  7117.600  0.500  1.673183  152.088  28.5391  1.515725
  7117.898  7117.900  0.500  1.690299  152.097  28.0565  1.408364
  7118.199  7118.200  0.500  1.713438  152.082  27.4121  1.287570
  7118.502  7118.500  0.500  1.744165  152.059  26.5784  1.159885
  7118.805  7118.800  0.500  1.782941  152.044  25.565  1.032148
  7119.101  7119.100  0.500  1.828233  152.028  24.4304  0.912660
  7119.398  7119.400  0.500  1.877283  152.022  23.2602  0.803260
  7119.697  7119.700  0.500  1.927557  152.01  22.1179  0.705636
  7119.995  7120.000  0.500  1.980523  151.989  20.9741  0.615645
  7120.301  7120.300  0.500  2.036562  151.961  19.8274  0.533391
  7120.593  7120.600  0.500  2.096016  151.957  18.6824  0.460160
  7120.894  7120.900  0.500  2.158166  151.93  17.5536  0.396215
  7121.195  7121.200  0.500  2.220219  151.931  16.4975  0.342587
  7121.502  7121.500  0.500  2.278005  152.043  15.5826  0.299271
  7121.803  7121.800  0.500  2.328178  152.449  14.8597  0.266055
  7122.105  7122.100  0.500  2.371097  152.44  14.2346  0.239213
  7122.403  7122.400  0.500  2.408734  152.413  13.7063  0.217306
  7122.702  7122.700  0.500  2.444516  152.427  13.2258  0.198577
  7123.004  7123.000  0.500  2.479959  152.396  12.7626  0.182467
  7123.307  7123.300  0.500  2.517470  152.359  12.2898  0.167723
  7123.600  7123.600  0.500  2.556115  152.341  11.8225  0.154812
  7123.899  7123.900  0.500  2.598080  152.306  11.3341  0.142921
  7124.198  7124.200  0.500  2.643574  152.296  10.8293  0.131605
  7124.503  7124.500  0.500  2.691445  152.307  10.3238  0.121375
  7124.798  7124.800  0.500  2.738990  152.275  9.842407  0.111680
  7125.091  7125.100  0.500  2.784219  152.295  9.408387  0.103611
  7125.397  7125.400  0.500  2.825717  152.254  9.023483  0.095940
  7125.700  7125.700  0.500  2.860530  152.23  8.713387  0.089909
  7126.002  7126.000  0.500  2.886927  152.218  8.485728  0.084836
  7126.303  7126.300  0.500  2.903674  152.195  8.343538  0.080957
  7126.600  7126.600  0.500  2.908831  152.19  8.300375  0.078099
  7126.900  7126.900  0.500  2.901942  152.169  8.356598  0.075542
  7127.205  7127.200  0.500  2.885563  152.17  8.494628  0.074170
  7127.503  7127.500  0.500  2.863465  152.125  8.681892  0.072662
  7127.806  7127.800  0.500  2.839431  152.082  8.890582  0.071291
  7128.099  7128.100  0.500  2.816336  152.063  9.097138  0.069925
  7128.399  7128.400  0.500  2.794261  152.054  9.299637  0.068005
  7128.703  7128.700  0.500  2.773537  152.007  9.491434  0.065973
  7128.998  7129.000  0.500  2.754972  151.999  9.668763  0.063945
  7129.300  7129.300  0.500  2.738189  151.923  9.827514  0.061892
  7129.597  7129.600  0.500  2.723529  151.935  9.973409  0.059805
  7129.899  7129.900  0.500  2.710844  151.884  10.0974  0.057884
  7130.205  7130.200  0.500  2.698579  151.881  10.2218  0.056470
  7130.502  7130.500  0.500  2.687762  151.84  10.3302  0.055482
  7130.800  7130.800  0.500  2.676557  151.815  10.4448  0.054934
  7131.102  7131.100  0.500  2.665374  151.792  10.5607  0.055019
  7131.402  7131.400  0.500  2.653111  151.779  10.6901  0.055906
  7131.704  7131.700  0.500  2.639899  151.765  10.8313  0.057748
  7132.003  7132.000  0.500  2.626804  151.744  10.9725  0.060110
  7132.303  7132.300  0.500  2.613514  151.711  11.1169  0.063014
  7132.597  7132.600  0.500  2.599994  151.701  11.2675  0.066269
  7132.899  7132.900  0.500  2.585954  151.695  11.4263  0.070134
  7133.201  7133.200  0.500  2.570827  151.71  11.6016  0.074321
  7133.498  7133.500  0.500  2.555460  151.715  11.7817  0.078919
  7133.796  7133.800  0.500  2.540611  151.713  11.9578  0.083387
  7134.098  7134.100  0.500  2.526737  151.68  12.1222  0.087950
  7134.403  7134.400  0.500  2.514123  151.691  12.2769  0.092122
  7134.707  7134.700  0.500  2.502937  151.701  12.4159  0.096034
  7135.001  7135.000  0.500  2.493037  151.68  12.5377  0.099536
  7135.296  7135.300  0.500  2.484504  151.669  12.6442  0.102701
  7135.601  7135.600  0.500  2.476779  151.631  12.739  0.105351
  7135.901  7135.900  0.500  2.470670  151.641  12.8179  0.107581
  7136.203  7136.200  0.500  2.466409  151.63  12.8717  0.109428
  7136.501  7136.500  0.500  2.463566  151.617  12.9073  0.110362
  7136.797  7136.800  0.500  2.462168  151.634  12.9268  0.110654
  7136.998  7137.000  0.500  2.461700  151.631  12.9326  0.111108
  7137.996  7137.990  0.500  2.462505  151.643  12.9232  0.108864
  7138.997  7138.990  0.500  2.459930  151.651  12.9572  0.104418
  7140.023  7140.010  0.500  2.452880  151.614  13.0457  0.100173
  7141.083  7141.060  0.500  2.446173  151.603  13.1325  0.097447
  7142.110  7142.120  0.500  2.443337  151.576  13.1675  0.096960
  7143.190  7143.200  0.500  2.442366  151.551  13.1781  0.098549
  7144.294  7144.300  0.500  2.436245  151.552  13.2591  0.101004
  7145.420  7145.420  0.500  2.417420  151.538  13.5098  0.102254
  7146.559  7146.560  0.500  2.389194  151.533  13.8961  0.101654
  7147.707  7147.710  0.500  2.360321  151.523  14.3022  0.097999
  7148.892  7148.890  0.500  2.336212  151.527  14.6516  0.093699
  7150.087  7150.080  0.500  2.320827  151.537  14.8798  0.090695
  7151.301  7151.300  0.500  2.313058  151.523  14.9945  0.088774
  7152.527  7152.530  0.500  2.312720  151.506  14.9979  0.086967
  7153.786  7153.780  0.500  2.318187  151.478  14.9133  0.085572
  7155.049  7155.050  0.500  2.324784  151.452  14.8127  0.085582
  7156.337  7156.340  0.500  2.330530  151.441  14.7268  0.086730
  7157.650  7157.650  0.500  2.336810  151.434  14.6339  0.087634
  7158.978  7158.980  0.500  2.345488  151.421  14.5061  0.087292
  7160.330  7160.330  0.500  2.358163  151.409  14.3223  0.086442
  7161.707  7161.700  0.500  2.374516  151.347  14.0843  0.085627
  7163.084  7163.080  0.500  2.395122  151.317  13.7943  0.085299
  7164.491  7164.490  0.500  2.419437  151.251  13.4571  0.084910
  7165.913  7165.910  0.500  2.443583  151.221  13.1334  0.084295
  7167.353  7167.350  0.500  2.465400  151.169  12.8455  0.083578
  7168.816  7168.810  0.500  2.483158  151.132  12.6163  0.083158
  7170.296  7170.290  0.500  2.496675  151.117  12.4458  0.083301
  7171.793  7171.790  0.500  2.507572  151.07  12.307  0.084862
  7173.321  7173.310  0.500  2.509947  151.003  12.2724  0.088409
  7174.849  7174.850  0.500  2.505716  151.005  12.3246  0.093323
  7176.413  7176.410  0.500  2.496992  150.961  12.4289  0.099726
  7177.987  7177.980  0.500  2.485488  150.944  12.5714  0.106265
  7179.589  7179.580  0.500  2.473488  150.934  12.7223  0.111319
  7181.195  7181.190  0.500  2.463172  150.894  12.8508  0.113464
  7182.832  7182.830  0.500  2.455012  150.874  12.9544  0.113526
  7184.496  7184.480  0.500  2.448898  150.849  13.0317  0.111800
  7186.152  7186.150  0.500  2.442656  150.798  13.1088  0.108109
  7187.849  7187.840  0.500  2.435007  150.798  13.2095  0.103315
  7189.557  7189.550  0.500  2.427065  150.766  13.312  0.098620
  7191.292  7191.280  0.500  2.418597  149.163  13.2824  0.092540
  7193.044  7193.030  0.500  2.410004  150.374  13.5059  0.089022
  7194.798  7194.790  0.500  2.400788  150.538  13.6457  0.088117
  7196.593  7196.580  0.500  2.391051  150.53  13.7785  0.090788
  7198.390  7198.380  0.500  2.382052  150.495  13.8999  0.096214
  7200.222  7200.210  0.500  2.375095  150.443  13.9921  0.103719
  7202.055  7202.050  0.500  2.369611  150.399  14.0649  0.112247
  7203.924  7203.910  0.500  2.365438  150.343  14.1185  0.121934
  7205.795  7205.790  0.500  2.361527  150.303  14.17  0.131493
  7207.701  7207.690  0.500  2.357820  150.262  14.2187  0.136009
  7209.620  7209.610  0.500  2.353965  150.196  14.2674  0.132341
  7211.560  7211.550  0.500  2.350587  150.126  14.309  0.119464
  7213.523  7213.510  0.500  2.348262  150.082  14.3381  0.101652
  7215.493  7215.480  0.500  2.347079  150.062  14.3532  0.084841
  7217.494  7217.480  0.500  2.347458  149.994  14.3412  0.072824
  7219.502  7219.490  0.500  2.349661  149.931  14.3036  0.066074
  7221.533  7221.520  0.500  2.353081  149.882  14.2502  0.064530
  7223.595  7223.580  0.500  2.357662  149.816  14.1787  0.068239
  7225.660  7225.650  0.500  2.362394  149.685  14.0995  0.076417
  7227.753  7227.740  0.500  2.366404  147.069  13.7977  0.086336
  7229.860  7229.850  0.500  2.369853  149.862  14.0113  0.101845
  7231.993  7231.980  0.500  2.372215  149.795  13.9719  0.117253
  7234.128  7234.120  0.500  2.373793  149.739  13.9447  0.131198
  7236.303  7236.290  0.500  2.374221  149.704  13.9355  0.141873
  7238.489  7238.480  0.500  2.373589  149.67  13.9411  0.146668
  7240.694  7240.680  0.500  2.372388  149.634  13.9545  0.146056
  7242.908  7242.900  0.500  2.370556  149.61  13.9779  0.141130
  7245.158  7245.150  0.500  2.367091  146.816  13.7645  0.131963
  7247.421  7247.410  0.500  2.363322  149.347  14.0546  0.128872
  7249.701  7249.690  0.500  2.358993  149.352  14.116  0.126664
  7252.009  7251.990  0.500  2.354321  149.243  14.1718  0.128647
  7254.319  7254.310  0.500  2.349944  146.907  14.0111  0.130764
  7256.662  7256.650  0.500  2.345798  149.317  14.3002  0.136419
  7259.010  7259.000  0.500  2.341670  149.127  14.3411  0.135827
  7261.394  7261.380  0.500  2.338191  148.717  14.3515  0.131937
  7263.782  7263.770  0.500  2.334277  137.889  13.3588  0.119424
  7266.203  7266.190  0.500  2.331143  148.963  14.4769  0.126415
  7268.634  7268.620  0.500  2.327577  149.595  14.5902  0.124056
  7271.083  7271.070  0.500  2.323962  149.517  14.6355  0.118600
  7273.565  7273.550  0.500  2.320083  148.313  14.5741  0.111975
  7276.056  7276.040  0.500  2.316888  149.539  14.7415  0.109685
  7278.559  7278.550  0.500  2.313472  149.477  14.7859  0.107977
  7281.085  7281.070  0.500  2.309568  149.396  14.8356  0.105357
  7283.628  7283.620  0.500  2.305503  148.315  14.7883  0.100968
  7286.202  7286.190  0.500  2.301436  149.189  14.936  0.098387
  7288.788  7288.770  0.500  2.297344  149.644  15.0431  0.097824
  7291.393  7291.380  0.500  2.293124  149.609  15.1031  0.101811
  7294.009  7294.000  0.500  2.288722  149.618  15.1707  0.110916
  7296.670  7296.650  0.500  2.284216  149.548  15.232  0.123061
  7299.320  7299.310  0.500  2.280406  149.423  15.2774  0.135413
  7301.999  7301.990  0.500  2.277341  147.702  15.1478  0.144510
  7304.705  7304.690  0.500  2.274359  149.534  15.3815  0.154667
  7307.424  7307.410  0.500  2.272236  149.451  15.4056  0.160171
  7310.163  7310.150  0.500  2.270006  149.374  15.432  0.162823
  7312.916  7312.900  0.500  2.268395  149.309  15.4502  0.162846
  7315.701  7315.680  0.500  2.266892  149.24  15.4662  0.163062
  7318.483  7318.470  0.500  2.265078  149.173  15.4875  0.163947
  7321.300  7321.290  0.500  2.263491  149.137  15.5083  0.164837
  7324.137  7324.120  0.500  2.261351  149.071  15.5346  0.165654
  7326.983  7326.970  0.500  2.259286  149.007  15.5601  0.166123
  7329.859  7329.850  0.500  2.257052  148.952  15.5891  0.167397
  7332.755  7332.740  0.500  2.254492  148.902  15.6239  0.170779
  7335.665  7335.650  0.500  2.251904  148.855  15.6593  0.175118
  7338.582  7338.570  0.500  2.249265  147.617  15.5701  0.176245
  7341.534  7341.520  0.500  2.246296  148.616  15.7221  0.176570
  7344.502  7344.490  0.500  2.243135  148.585  15.7687  0.170767
  7347.486  7347.470  0.500  2.239966  148.52  15.8117  0.162092
  7350.493  7350.480  0.500  2.236567  148.445  15.8576  0.153820
  7353.515  7353.500  0.500  2.233152  148.411  15.9082  0.147133
  7356.559  7356.550  0.500  2.229698  148.34  15.9556  0.141249
  7359.625  7359.610  0.500  2.225637  148.271  16.0131  0.136651
  7362.698  7362.690  0.500  2.221834  148.197  16.066  0.133308
  7365.802  7365.790  0.500  2.217924  148.126  16.1213  0.132320
  7368.924  7368.910  0.500  2.213829  148.053  16.1795  0.134515
  7372.067  7372.050  0.500  2.209925  147.994  16.2362  0.140679
  7375.218  7375.200  0.500  2.205645  147.927  16.2986  0.151398
  7378.395  7378.380  0.500  2.201448  147.809  16.354  0.167705
  7381.584  7381.570  0.500  2.197207  147.738  16.4156  0.186631
  7384.801  7384.790  0.500  2.192799  147.675  16.4811  0.201698
  7388.033  7388.020  0.500  2.188063  147.598  16.5507  0.207999
  7391.279  7391.270  0.500  2.183742  147.511  16.6126  0.207599
  7394.559  7394.550  0.500  2.179407  147.437  16.6764  0.204734
  7397.851  7397.840  0.500  2.175379  147.364  16.7355  0.202729
  7401.162  7401.150  0.500  2.171545  147.293  16.7916  0.203327
  7404.481  7404.470  0.500  2.167813  147.208  16.8447  0.204745
  7407.831  7407.820  0.500  2.164371  147.119  16.8925  0.205296
  7411.203  7411.190  0.500  2.161436  147.046  16.9338  0.205428
  7414.580  7414.570  0.500  2.158277  146.94  16.9751  0.205505
  7417.987  7417.980  0.500  2.155350  146.846  17.014  0.206964
  7421.404  7421.400  0.500  2.152456  146.738  17.0508  0.209884
  7424.859  7424.850  0.500  2.149816  146.63  17.0832  0.214489
  7428.324  7428.310  0.500  2.146940  146.566  17.125  0.218761
  7431.802  7431.790  0.500  2.143994  146.474  17.1647  0.219282
  7435.301  7435.290  0.500  2.141057  146.375  17.2035  0.218534
  7438.823  7438.810  0.500  2.137893  146.246  17.2429  0.215833
  7442.364  7442.350  0.500  2.134568  146.077  17.2803  0.210429
  7445.905  7445.900  0.500  2.130823  142.241  16.8897  0.199520
  7449.490  7449.480  0.500  2.127310  146.062  17.4043  0.201053
  7453.093  7453.080  0.500  2.123159  144.764  17.3215  0.198511
  7456.709  7456.690  0.500  2.119286  145.861  17.5204  0.201417
  7460.336  7460.320  0.500  2.115281  145.234  17.5151  0.202679
  7463.988  7463.980  0.500  2.111387  145.652  17.634  0.207184
  7467.664  7467.650  0.500  2.107646  141.658  17.2148  0.207671
  7471.350  7471.340  0.500  2.103628  145.528  17.7563  0.221480
  7475.060  7475.050  0.500  2.099495  145.35  17.808  0.229054
  7478.798  7478.780  0.500  2.095407  145.238  17.8672  0.235487
  7482.536  7482.520  0.500  2.091844  145.13  17.9176  0.241021
  7486.305  7486.290  0.500  2.088184  145.035  17.9716  0.248724
  7490.098  7490.080  0.500  2.084060  144.894  18.0284  0.256156
  7493.902  7493.880  0.500  2.080164  144.816  18.0889  0.262217
  7497.731  7497.710  0.500  2.076085  144.694  18.1476  0.264784
  7501.567  7501.550  0.500  2.071905  144.568  18.2077  0.264960
  7505.443  7505.410  0.500  2.067685  144.435  18.2678  0.263866
  7509.321  7509.290  0.500  2.063863  144.287  18.3191  0.264520
  7513.206  7513.190  0.500  2.059599  144.156  18.3806  0.266528
  7517.101  7517.110  0.500  2.055485  144.051  18.4429  0.269576
  7521.040  7521.050  0.500  2.051429  143.891  18.4973  0.272121
  7525.002  7525.010  0.500  2.047639  143.739  18.5479  0.273566
  7528.985  7528.980  0.500  2.043529  143.623  18.6093  0.274085
  7532.982  7532.980  0.500  2.039890  143.506  18.6619  0.274835
  7537.013  7536.990  0.500  2.035964  143.365  18.7169  0.276495
  7541.058  7541.030  0.500  2.032106  143.239  18.7729  0.279502
  7545.083  7545.080  0.500  2.028306  143.1  18.8259  0.282196
  7549.168  7549.150  0.500  2.024356  142.95  18.8807  0.284723
  7553.273  7553.240  0.500  2.020576  142.793  18.9313  0.285085
  7557.373  7557.350  0.500  2.016909  142.667  18.9842  0.283790
  7561.469  7561.480  0.500  2.012831  142.499  19.0392  0.282507
  7565.620  7565.630  0.500  2.009016  142.279  19.0826  0.282414
  7569.779  7569.790  0.500  2.005109  142.23  19.1506  0.285544
  7573.966  7573.980  0.500  2.001213  142.092  19.2067  0.291569
  7578.169  7578.180  0.500  1.997252  141.934  19.2616  0.299075
  7582.432  7582.410  0.500  1.993268  141.746  19.3127  0.306820
  7586.640  7586.650  0.500  1.989248  141.583  19.3683  0.313494
  7590.893  7590.910  0.500  1.985027  141.339  19.4167  0.318012
  7595.175  7595.190  0.500  1.981091  141.121  19.4632  0.320795
  7599.472  7599.490  0.500  1.977043  140.847  19.5042  0.322409
  7603.833  7603.810  0.500  1.972788  140.285  19.5093  0.324294
  7608.172  7608.150  0.500  1.968755  140.069  19.5579  0.328377
  7612.499  7612.510  0.500  1.964657  139.828  19.6045  0.333213
  7616.913  7616.890  0.500  1.960405  139.807  19.6851  0.337897
  7621.262  7621.280  0.500  1.956384  139.88  19.7746  0.340105
  7625.714  7625.700  0.500  1.952313  139.908  19.8593  0.341477
  7630.151  7630.130  0.500  1.948315  139.803  19.924  0.344036
  7634.603  7634.580  0.500  1.944095  139.652  19.9866  0.348656
  7639.068  7639.050  0.500  1.939859  139.503  20.0499  0.354489
  7643.564  7643.540  0.500  1.935328  139.321  20.1148  0.359974
  7648.057  7648.050  0.500  1.931096  139.095  20.1672  0.365155
  7652.601  7652.580  0.500  1.926724  138.935  20.2324  0.369098
  7657.116  7657.130  0.500  1.922546  138.741  20.2887  0.372234
  7661.683  7661.700  0.500  1.918206  138.566  20.3512  0.374763
  7666.302  7666.280  0.500  1.913856  138.352  20.4083  0.375884
  7670.883  7670.890  0.500  1.909747  138.164  20.4646  0.377100
  7675.503  7675.510  0.500  1.905432  137.961  20.5228  0.377937
  7680.141  7680.160  0.500  1.901190  137.812  20.5879  0.379131
  7684.810  7684.820  0.500  1.897517  137.521  20.62  0.380867
  7689.526  7689.500  0.500  1.893113  137.652  20.7307  0.386029
  7694.192  7694.200  0.500  1.889144  137.33  20.7644  0.390752
  7698.954  7698.920  0.500  1.884906  137.107  20.8188  0.395925
  7703.695  7703.660  0.500  1.880751  136.744  20.8501  0.400572
  7708.399  7708.410  0.500  1.876788  136.82  20.9445  0.406016
  7713.188  7713.190  0.500  1.872701  136.536  20.9867  0.411470
  7718.010  7717.990  0.500  1.868584  136.308  21.038  0.417218
  7722.801  7722.800  0.500  1.864761  136.172  21.0975  0.422666
  7727.613  7727.630  0.500  1.860628  135.955  21.1511  0.426951
  7732.488  7732.490  0.500  1.856439  135.707  21.2012  0.430488
  7737.356  7737.360  0.500  1.851868  135.388  21.2483  0.433897
  7742.274  7742.250  0.500  1.847363  135.461  21.3558  0.439211
  7747.152  7747.160  0.500  1.843297  135.164  21.3958  0.443511
  7752.073  7752.090  0.500  1.838985  134.98  21.459  0.447438
  7757.015  7757.030  0.500  1.834785  134.766  21.5151  0.451249
  7761.993  7762.000  0.500  1.830623  134.566  21.5727  0.456492
  7767.007  7766.990  0.500  1.826245  134.369  21.6358  0.462612
  7772.011  7771.990  0.500  1.821898  134.122  21.6901  0.467966
  7777.013  7777.020  0.500  1.817728  133.988  21.7589  0.473755
  7782.051  7782.060  0.500  1.813351  133.753  21.816  0.478701
  7787.108  7787.120  0.500  1.809126  133.547  21.8747  0.483383
  7792.187  7792.200  0.500  1.804792  133.336  21.935  0.487602
  7797.287  7797.300  0.500  1.800128  133.111  22.0003  0.492264
  7802.406  7802.420  0.500  1.796131  132.938  22.0596  0.495777
  7807.553  7807.560  0.500  1.791715  132.75  22.126  0.499607
  7812.694  7812.720  0.500  1.787315  132.541  22.1885  0.503693
  7817.892  7817.900  0.500  1.782971  132.34  22.2514  0.507933
  7823.063  7823.090  0.500  1.778773  132.117  22.3073  0.512185
  7828.288  7828.310  0.500  1.774626  132.371  22.4431  0.518485
  7833.567  7833.540  0.500  1.770218  132.147  22.5041  0.522846
  7838.770  7838.790  0.500  1.765684  131.643  22.5201  0.527048
  7844.043  7844.060  0.500  1.761781  131.754  22.6273  0.533435
  7849.337  7849.350  0.500  1.757522  131.489  22.6781  0.538377
  7854.651  7854.660  0.500  1.753026  130.398  22.5913  0.540117
  7860.004  7859.990  0.500  1.748784  131.072  22.8046  0.549886
  7865.330  7865.340  0.500  1.744438  130.842  22.8637  0.555985
  7870.688  7870.710  0.500  1.740313  130.6  22.9158  0.562138
  7876.080  7876.090  0.500  1.735986  130.357  22.9723  0.568289
  7881.484  7881.500  0.500  1.731499  130.1  23.0302  0.575197
  7886.913  7886.920  0.500  1.727537  129.856  23.0783  0.580560
  7892.346  7892.370  0.500  1.723178  129.648  23.142  0.586656
  7897.822  7897.830  0.500  1.718736  129.351  23.1916  0.592382
  7903.287  7903.310  0.500  1.714545  129.154  23.2536  0.598767
  7908.786  7908.810  0.500  1.710109  128.95  23.3201  0.605019
  7914.307  7914.330  0.500  1.705640  128.706  23.3802  0.610763
  7919.846  7919.870  0.500  1.701331  128.406  23.4265  0.616473
  7925.397  7925.420  0.500  1.697013  128.146  23.4802  0.622340
  7930.974  7931.000  0.500  1.692805  127.762  23.5085  0.627474
  7936.570  7936.600  0.500  1.688465  127.418  23.5473  0.632618
  7942.187  7942.210  0.500  1.684125  127.432  23.6523  0.638870
  7947.826  7947.850  0.500  1.679775  127.047  23.6836  0.643722
  7953.474  7953.500  0.500  1.675286  126.675  23.7204  0.648398
  7959.146  7959.170  0.500  1.670976  126.425  23.7759  0.654374
  7964.835  7964.860  0.500  1.666534  126.12  23.8242  0.659902