File: xdidata/Fe/Fe-Fayalite.xdi
# XDI/1.0 BlueSky/1.10.0 BMM/2023-1.0-py310-tiled
# Beamline.name: BMM (06BM) -- Beamline for Materials Measurement (NIST)
# Beamline.xray_source: NSLS-II three-pole wiggler
# Beamline.collimation: paraboloid mirror, 5 nm Rh on 30 nm Pt
# Beamline.focusing: not in use
# Beamline.harmonic_rejection: flat mirror, Si stripe, pitch = 7.0 mrad relative to beam
# Beamline.software: Bluesky 1.10.0, Ophyd 1.7.0, DataBroker 2.0.0b13, Python 3.10.8, 2023-1.0-py310-tiled
# Detector.I0: 10 cm N2
# Detector.I1: 25 cm N2
# Detector.I2: 25 cm N2
# Element.symbol: Fe
# Element.edge: K
# Element.reference: Fe
# Element.reference_material: Fe foil
# Facility.name: NSLS-II
# Facility.energy: 3.0
# Facility.current: 399.8
# Facility.mode: top-off
# Facility.GUP: 123456
# Facility.SAF: 301027
# Facility.cycle: 2023-2
# Mono.name: Si(111)
# Mono.d_spacing: 3.13519
# Mono.encoder_resolution: 0.0000050 deg/ct
# Mono.angle_offset: 16.0754 deg
# Mono.scan_mode: pseudo channel cut
# Mono.scan_type: step
# Mono.direction: forward in energy
# Sample.name: Fe2SiO4
# Sample.prep: PEG pellet
# Sample.x: 116.329 mm
# Sample.y: 114.126 mm
# Sample.SDD_position: 205.000 mm
# Scan.experimenters: Bruce Ravel
# Scan.edge_energy: 7112.0
# Scan.start_time: 2023-05-05T18:05:59
# Scan.end_time: 2023-05-05T18:14:10
# Scan.transient_id: 74541
# Scan.uid: 8827c70c-3070-4774-8ee3-07582819dfd9
# Scan.plot_hint: ln(I0/It)  --  ln($5/$6)
# Column.1: energy eV
# Column.2: requested_energy eV
# Column.3: measurement_time seconds
# Column.4: xmu
# Column.5: I0 nA
# Column.6: It nA
# Column.7: Ir nA
# ///////////
# courtesy Martin Stennett, University of Sheffield
# -----------
# energy  requested_energy  measurement_time  xmu  I0  It  Ir
  6912.003  6912.000  0.500  2.138412  153.825  18.127  3.402569
  6921.841  6922.000  0.500  2.126761  153.669  18.3209  3.462876
  6932.017  6932.000  0.500  2.115069  153.649  18.5339  3.528160
  6942.007  6942.000  0.500  2.103341  153.652  18.753  3.595425
  6952.004  6952.000  0.500  2.091778  153.654  18.9712  3.662872
  6962.010  6962.000  0.500  2.080165  153.647  19.192  3.731439
  6972.020  6972.000  0.500  2.068652  153.631  19.4122  3.799667
  6982.025  6982.000  0.500  2.057284  153.599  19.6301  3.868892
  6992.016  6992.000  0.500  2.045962  153.588  19.8522  3.939369
  7002.013  7002.000  0.500  2.034666  153.525  20.0694  4.008953
  7012.014  7012.000  0.500  2.023681  153.467  20.2834  4.077728
  7022.016  7022.000  0.500  2.012466  153.35  20.4966  4.146527
  7032.014  7032.000  0.500  2.001685  153.327  20.7156  4.219274
  7042.013  7042.000  0.500  1.991109  153.25  20.9253  4.288995
  7052.016  7052.000  0.500  1.980623  153.134  21.1299  4.356527
  7062.008  7062.000  0.500  1.970489  152.437  21.248  4.404911
  7072.015  7072.000  0.500  1.960861  152.941  21.5245  4.485039
  7081.980  7082.000  0.500  1.952187  152.941  21.7121  4.539708
  7083.985  7084.000  0.500  1.950662  152.683  21.7084  4.541124
  7085.980  7086.000  0.500  1.949182  152.854  21.765  4.554794
  7087.988  7088.000  0.500  1.947863  152.848  21.7928  4.560384
  7089.988  7090.000  0.500  1.946480  152.824  21.8195  4.566116
  7091.989  7092.000  0.500  1.945307  152.792  21.8406  4.568848
  7093.982  7094.000  0.500  1.944564  152.799  21.8579  4.567817
  7096.105  7096.000  0.500  1.943998  152.731  21.8605  4.563931
  7098.003  7098.000  0.500  1.943617  152.686  21.8623  4.556286
  7099.992  7100.000  0.500  1.944005  152.663  21.8505  4.542424
  7101.995  7102.000  0.500  1.944650  152.64  21.8332  4.519087
  7102.288  7102.300  0.500  1.944802  152.593  21.8232  4.512767
  7102.587  7102.600  0.500  1.944857  152.579  21.82  4.508711
  7102.887  7102.900  0.500  1.945198  152.574  21.8118  4.503293
  7103.186  7103.200  0.500  1.945437  152.559  21.8044  4.497432
  7103.485  7103.500  0.500  1.945703  152.552  21.7977  4.490251
  7103.787  7103.800  0.500  1.945963  152.547  21.7912  4.484496
  7104.087  7104.100  0.500  1.946374  152.777  21.8152  4.483569
  7104.384  7104.400  0.500  1.946835  153.194  21.8646  4.487812
  7104.688  7104.700  0.500  1.947033  153.2  21.8612  4.481008
  7104.987  7105.000  0.500  1.947651  153.204  21.8481  4.470979
  7105.287  7105.300  0.500  1.948364  153.203  21.8326  4.460334
  7105.589  7105.600  0.500  1.948767  153.175  21.8197  4.448702
  7105.886  7105.900  0.500  1.949438  153.171  21.8046  4.435967
  7106.188  7106.200  0.500  1.949894  153.169  21.7943  4.423970
  7106.490  7106.500  0.500  1.950670  153.153  21.7751  4.408233
  7106.790  7106.800  0.500  1.951372  153.151  21.7596  4.393110
  7107.087  7107.100  0.500  1.952145  153.141  21.7412  4.376191
  7107.385  7107.400  0.500  1.952947  153.117  21.7204  4.355732
  7107.687  7107.700  0.500  1.954130  153.079  21.6895  4.330281
  7107.989  7108.000  0.500  1.954937  153.098  21.6747  4.305655
  7108.287  7108.300  0.500  1.956178  153.095  21.6473  4.275284
  7108.589  7108.600  0.500  1.957563  153.082  21.6155  4.239709
  7108.886  7108.900  0.500  1.959188  153.053  21.5763  4.198034
  7109.191  7109.200  0.500  1.961289  153.059  21.5319  4.146149
  7109.495  7109.500  0.500  1.963545  153.039  21.4805  4.080925
  7109.795  7109.800  0.500  1.966199  153.024  21.4215  3.997259
  7110.091  7110.100  0.500  1.969697  153.001  21.3434  3.884989
  7110.395  7110.400  0.500  1.974924  152.972  21.2281  3.722969
  7110.699  7110.700  0.500  1.982536  152.946  21.0637  3.501054
  7110.997  7111.000  0.500  1.992969  152.933  20.8432  3.213885
  7111.299  7111.300  0.500  2.005458  152.904  20.5806  2.880620
  7111.591  7111.600  0.500  2.017772  152.86  20.323  2.546052
  7111.889  7111.900  0.500  2.026770  152.851  20.1396  2.251925
  7112.194  7112.200  0.500  2.030151  152.817  20.0672  2.026531
  7112.492  7112.500  0.500  2.028706  152.792  20.093  1.870450
  7112.792  7112.800  0.500  2.025471  152.772  20.1554  1.757137
  7113.094  7113.100  0.500  2.023541  152.737  20.1898  1.663419
  7113.395  7113.400  0.500  2.024142  152.715  20.1747  1.577512
  7113.701  7113.700  0.500  2.025956  152.707  20.1371  1.497660
  7114.000  7114.000  0.500  2.026936  152.698  20.1162  1.427039
  7114.298  7114.300  0.500  2.026647  152.674  20.1189  1.366857
  7114.598  7114.600  0.500  2.027193  152.674  20.1079  1.316232
  7114.897  7114.900  0.500  2.030206  152.631  20.0418  1.273834
  7115.201  7115.200  0.500  2.036769  152.661  19.9145  1.237369
  7115.498  7115.500  0.500  2.045537  152.634  19.7373  1.207133
  7115.800  7115.800  0.500  2.057733  152.621  19.4963  1.178186
  7116.092  7116.100  0.500  2.073736  152.613  19.1858  1.148831
  7116.395  7116.400  0.500  2.095628  152.591  18.7677  1.112722
  7116.700  7116.700  0.500  2.125471  152.583  18.2149  1.064814
  7116.998  7117.000  0.500  2.162366  152.578  17.5545  1.005171
  7117.295  7117.300  0.500  2.206427  152.553  16.7951  0.933313
  7117.598  7117.600  0.500  2.260159  152.568  15.918  0.847321
  7117.898  7117.900  0.500  2.323437  152.536  14.9389  0.752628
  7118.201  7118.200  0.500  2.397164  152.534  13.8769  0.654476
  7118.506  7118.500  0.500  2.480994  152.522  12.76  0.558692
  7118.803  7118.800  0.500  2.572761  152.504  11.6398  0.472251
  7119.101  7119.100  0.500  2.672101  152.515  10.5399  0.395510
  7119.402  7119.400  0.500  2.775685  152.482  9.500691  0.329361
  7119.701  7119.700  0.500  2.877332  152.48  8.582278  0.274385
  7119.998  7120.000  0.500  2.974882  152.447  7.782939  0.228998
  7120.296  7120.300  0.500  3.066937  152.435  7.097934  0.191381
  7120.595  7120.600  0.500  3.153647  152.411  6.507360  0.160512
  7120.894  7120.900  0.500  3.235372  152.399  5.996238  0.135539
  7121.199  7121.200  0.500  3.314867  152.374  5.537095  0.114868
  7121.496  7121.500  0.500  3.384982  152.35  5.161351  0.099198
  7121.799  7121.800  0.500  3.453054  152.343  4.821469  0.086657
  7122.102  7122.100  0.500  3.522074  152.319  4.499217  0.075650
  7122.399  7122.400  0.500  3.596168  152.328  4.178156  0.066642
  7122.702  7122.700  0.500  3.682881  152.319  3.830880  0.057739
  7123.004  7123.000  0.500  3.780196  152.286  3.474897  0.049974
  7123.298  7123.300  0.500  3.889782  152.274  3.113969  0.042766
  7123.597  7123.600  0.500  4.001936  152.252  2.783199  0.036664
  7123.899  7123.900  0.500  4.110969  152.247  2.495621  0.031706
  7124.204  7124.200  0.500  4.211485  152.211  2.256425  0.027650
  7124.499  7124.500  0.500  4.295250  152.189  2.074821  0.024547
  7124.798  7124.800  0.500  4.361708  152.184  1.941352  0.022257
  7125.095  7125.100  0.500  4.410305  152.169  1.849073  0.020581
  7125.397  7125.400  0.500  4.447102  152.143  1.781970  0.019112
  7125.702  7125.700  0.500  4.475280  152.111  1.732094  0.018067
  7126.002  7126.000  0.500  4.499554  152.096  1.690391  0.017177
  7126.299  7126.300  0.500  4.520428  152.062  1.655098  0.016166
  7126.605  7126.600  0.500  4.535417  152.057  1.630422  0.015386
  7126.906  7126.900  0.500  4.538647  152.007  1.624630  0.014975
  7127.205  7127.200  0.500  4.527742  151.986  1.642213  0.014410
  7127.503  7127.500  0.500  4.504417  151.963  1.680717  0.014320
  7127.802  7127.800  0.500  4.471686  151.941  1.736389  0.014086
  7128.102  7128.100  0.500  4.433914  151.926  1.803050  0.013982
  7128.399  7128.400  0.500  4.392061  151.893  1.879703  0.013947
  7128.707  7128.700  0.500  4.346844  151.885  1.966547  0.013795
  7128.996  7129.000  0.500  4.300785  151.859  2.058895  0.013905
  7129.297  7129.300  0.500  4.251991  151.833  2.161476  0.013752
  7129.599  7129.600  0.500  4.203264  151.791  2.268774  0.013719
  7129.901  7129.900  0.500  4.157884  151.768  2.373739  0.013876
  7130.203  7130.200  0.500  4.114688  151.743  2.478115  0.013814
  7130.502  7130.500  0.500  4.075366  151.691  2.576619  0.013953
  7130.800  7130.800  0.500  4.037029  151.677  2.677070  0.014376
  7131.106  7131.100  0.500  3.999183  151.663  2.780067  0.014738
  7131.406  7131.400  0.500  3.963139  151.632  2.881527  0.015346
  7131.704  7131.700  0.500  3.928335  151.615  2.983241  0.016151
  7132.005  7132.000  0.500  3.896455  151.604  3.079642  0.017188
  7132.295  7132.300  0.500  3.868693  151.598  3.166227  0.018262
  7132.605  7132.600  0.500  3.842492  151.586  3.250011  0.019377
  7132.896  7132.900  0.500  3.818738  151.593  3.328297  0.020701
  7133.194  7133.200  0.500  3.795637  151.577  3.405716  0.022169
  7133.494  7133.500  0.500  3.773140  151.577  3.483207  0.023504
  7133.798  7133.800  0.500  3.752485  151.577  3.555912  0.024905
  7134.103  7134.100  0.500  3.734204  151.571  3.621366  0.026434
  7134.398  7134.400  0.500  3.719724  151.581  3.674424  0.027715
  7134.698  7134.700  0.500  3.708607  151.572  3.715285  0.028850
  7134.998  7135.000  0.500  3.701259  151.55  3.742126  0.029892
  7135.305  7135.300  0.500  3.696582  151.56  3.759940  0.030747
  7135.607  7135.600  0.500  3.692644  151.544  3.774365  0.031356
  7135.901  7135.900  0.500  3.688967  151.552  3.788472  0.032022
  7136.199  7136.200  0.500  3.684820  151.545  3.804026  0.032415
  7136.499  7136.500  0.500  3.680129  151.527  3.821482  0.032838
  7136.799  7136.800  0.500  3.674920  151.533  3.841585  0.033086
  7136.996  7137.000  0.500  3.671642  151.517  3.853795  0.033124
  7137.994  7137.990  0.500  3.659948  151.53  3.899439  0.033033
  7138.999  7138.990  0.500  3.658240  151.5  3.905335  0.031691
  7140.023  7140.010  0.500  3.651111  151.51  3.933539  0.030379
  7141.070  7141.060  0.500  3.636125  151.511  3.992959  0.029799
  7142.145  7142.120  0.500  3.621315  151.516  4.052673  0.030007
  7143.190  7143.200  0.500  3.602253  151.5  4.130228  0.030951
  7144.287  7144.300  0.500  3.575208  151.503  4.243534  0.032389
  7145.411  7145.420  0.500  3.546259  151.488  4.367757  0.033395
  7146.557  7146.560  0.500  3.518619  151.502  4.490584  0.032790
  7147.703  7147.710  0.500  3.493080  151.51  4.606976  0.031717
  7148.888  7148.890  0.500  3.472933  151.492  4.700176  0.030335
  7150.085  7150.080  0.500  3.463216  151.475  4.745538  0.029028
  7151.304  7151.300  0.500  3.462889  151.48  4.747243  0.028150
  7152.525  7152.530  0.500  3.469656  151.451  4.714327  0.027485
  7153.784  7153.780  0.500  3.484884  151.451  4.643069  0.026780
  7155.056  7155.050  0.500  3.504917  151.424  4.550172  0.026483
  7156.348  7156.340  0.500  3.526126  151.392  4.453738  0.026469
  7157.656  7157.650  0.500  3.545936  151.387  4.366250  0.026492
  7158.980  7158.980  0.500  3.567144  151.367  4.274060  0.025836
  7160.326  7160.330  0.500  3.594364  151.325  4.158134  0.025334
  7161.698  7161.700  0.500  3.627316  151.283  4.022238  0.024642
  7163.080  7163.080  0.500  3.666026  151.774  3.882076  0.024136
  7164.486  7164.490  0.500  3.705236  151.688  3.730668  0.023729
  7165.909  7165.910  0.500  3.737188  151.628  3.611928  0.023281
  7167.355  7167.350  0.500  3.759781  151.589  3.530325  0.023104
  7168.814  7168.810  0.500  3.773784  151.52  3.479652  0.023090
  7170.294  7170.290  0.500  3.784215  151.499  3.443062  0.023240
  7171.791  7171.790  0.500  3.795950  151.469  3.402219  0.023677
  7173.314  7173.310  0.500  3.795044  151.399  3.403734  0.024676
  7174.860  7174.850  0.500  3.785823  151.368  3.434558  0.026110
  7176.411  7176.410  0.500  3.772413  151.309  3.479588  0.028088
  7177.989  7177.980  0.500  3.755374  151.264  3.538315  0.030082
  7179.578  7179.580  0.500  3.735259  151.238  3.609596  0.031711
  7181.199  7181.190  0.500  3.714606  151.202  3.684039  0.032711
  7182.830  7182.830  0.500  3.694629  151.141  3.756852  0.033089
  7184.485  7184.480  0.500  3.674495  151.109  3.832452  0.033027
  7186.154  7186.150  0.500  3.653695  151.05  3.911466  0.032328
  7187.846  7187.840  0.500  3.633416  151.006  3.990454  0.031232
  7189.557  7189.550  0.500  3.614636  150.956  4.064742  0.030254
  7191.286  7191.280  0.500  3.596939  149.311  4.092245  0.028560
  7193.046  7193.030  0.500  3.582286  150.58  4.187949  0.027796
  7194.798  7194.790  0.500  3.572517  150.723  4.233076  0.027560
  7196.591  7196.580  0.500  3.567262  150.707  4.254931  0.028191
  7198.390  7198.380  0.500  3.565584  150.647  4.260362  0.029652
  7200.222  7200.210  0.500  3.568439  150.584  4.246446  0.031522
  7202.064  7202.050  0.500  3.573092  150.543  4.225571  0.033857
  7203.915  7203.910  0.500  3.576280  150.473  4.210183  0.036431
  7205.799  7205.790  0.500  3.577448  150.425  4.203928  0.039303
  7207.699  7207.690  0.500  3.577687  150.373  4.201465  0.040378
  7209.618  7209.610  0.500  3.579749  150.294  4.190608  0.038893
  7211.560  7211.550  0.500  3.584469  150.224  4.168922  0.034878
  7213.523  7213.510  0.500  3.592679  150.163  4.133157  0.029565
  7215.489  7215.480  0.500  3.600570  150.089  4.098656  0.024384
  7217.491  7217.480  0.500  3.606383  150.03  4.073301  0.020861
  7219.506  7219.490  0.500  3.608653  149.988  4.062929  0.019007
  7221.529  7221.520  0.500  3.607788  149.903  4.064128  0.018517
  7223.595  7223.580  0.500  3.601857  149.838  4.086549  0.019846
  7225.667  7225.650  0.500  3.592419  149.721  4.122062  0.022510
  7227.750  7227.740  0.500  3.579122  147.118  4.104611  0.025788
  7229.862  7229.850  0.500  3.563614  149.893  4.247403  0.031075
  7231.986  7231.980  0.500  3.546833  149.824  4.317294  0.036175
  7234.130  7234.120  0.500  3.533925  149.718  4.370274  0.041247
  7236.301  7236.290  0.500  3.527740  149.689  4.396537  0.044948
  7238.485  7238.480  0.500  3.529757  149.659  4.386796  0.046152
  7240.694  7240.680  0.500  3.540356  149.592  4.338612  0.045494
  7242.910  7242.900  0.500  3.556503  149.563  4.268286  0.043186
  7245.165  7245.150  0.500  3.573974  146.752  4.115534  0.039429
  7247.423  7247.410  0.500  3.587056  149.311  4.132878  0.038098
  7249.696  7249.690  0.500  3.593586  149.281  4.105146  0.036899
  7252.007  7251.990  0.500  3.593470  149.203  4.103485  0.037109
  7254.315  7254.310  0.500  3.587584  146.825  4.061933  0.038021
  7256.671  7256.650  0.500  3.577560  149.286  4.171604  0.039841
  7259.006  7259.000  0.500  3.565339  149.113  4.218018  0.040061
  7261.394  7261.380  0.500  3.553332  148.664  4.256102  0.039148
  7263.782  7263.770  0.500  3.542997  137.249  3.970133  0.035479
  7266.201  7266.190  0.500  3.537630  148.909  4.330604  0.037889
  7268.634  7268.620  0.500  3.531075  149.448  4.374870  0.037338
  7271.085  7271.070  0.500  3.524279  149.393  4.403066  0.035741
  7273.565  7273.550  0.500  3.518018  148.127  4.393162  0.033935
  7276.060  7276.040  0.500  3.513167  149.433  4.453454  0.033146
  7278.564  7278.550  0.500  3.509252  149.349  4.468426  0.032824
  7281.080  7281.070  0.500  3.504745  149.302  4.487196  0.031893
  7283.635  7283.620  0.500  3.498255  148.175  4.482305  0.030744
  7286.198  7286.190  0.500  3.489709  148.923  4.543602  0.030040
  7288.783  7288.770  0.500  3.479700  149.036  4.592788  0.029881
  7291.395  7291.380  0.500  3.469566  148.966  4.637406  0.031403
  7294.012  7294.000  0.500  3.461476  148.963  4.674950  0.034296
  7296.661  7296.650  0.500  3.456094  148.897  4.698107  0.038065
  7299.322  7299.310  0.500  3.453711  148.775  4.705448  0.041901
  7302.001  7301.990  0.500  3.453884  147.153  4.653354  0.044508
  7304.700  7304.690  0.500  3.454939  148.89  4.703325  0.047412
  7307.426  7307.410  0.500  3.456393  148.794  4.693448  0.048962
  7310.163  7310.150  0.500  3.456255  148.74  4.692402  0.049569
  7312.914  7312.900  0.500  3.453848  148.652  4.700935  0.049520
  7315.694  7315.680  0.500  3.449586  148.583  4.718825  0.049794
  7318.486  7318.470  0.500  3.445128  148.523  4.737985  0.050231
  7321.300  7321.290  0.500  3.441068  148.459  4.755212  0.050599
  7324.130  7324.120  0.500  3.437513  148.424  4.771037  0.050789
  7326.985  7326.970  0.500  3.433609  148.324  4.786445  0.051213
  7329.863  7329.850  0.500  3.430090  148.276  4.801758  0.051617
  7332.748  7332.740  0.500  3.426876  148.223  4.815500  0.052723
  7335.665  7335.650  0.500  3.424828  148.146  4.822882  0.054171
  7338.582  7338.570  0.500  3.423387  146.878  4.788489  0.054294
  7341.539  7341.520  0.500  3.420967  147.93  4.834466  0.054433
  7344.506  7344.490  0.500  3.417222  147.903  4.851723  0.052555
  7347.477  7347.470  0.500  3.412233  147.838  4.873836  0.049989
  7350.491  7350.480  0.500  3.405870  147.784  4.903181  0.047580
  7353.517  7353.500  0.500  3.398605  147.715  4.936598  0.045522
  7356.566  7356.550  0.500  3.390656  147.664  4.974292  0.043965
  7359.621  7359.610  0.500  3.383208  147.578  5.008552  0.042859
  7362.700  7362.690  0.500  3.376655  147.499  5.038799  0.041818
  7365.795  7365.790  0.500  3.371338  147.43  5.063302  0.041674
  7368.919  7368.910  0.500  3.366321  147.36  5.086346  0.042323
  7372.063  7372.050  0.500  3.362092  147.298  5.105754  0.044162
  7375.213  7375.200  0.500  3.357657  147.226  5.125921  0.047703
  7378.393  7378.380  0.500  3.352595  147.093  5.147299  0.052812
  7381.579  7381.570  0.500  3.347000  147.021  5.173632  0.058987
  7384.799  7384.790  0.500  3.341473  147.006  5.201762  0.063614
  7388.031  7388.020  0.500  3.335416  146.939  5.230989  0.065653
  7391.282  7391.270  0.500  3.329611  146.845  5.258077  0.065820
  7394.559  7394.550  0.500  3.323985  146.776  5.285278  0.064899
  7397.851  7397.840  0.500  3.318946  146.687  5.308758  0.064443
  7401.160  7401.150  0.500  3.315079  146.603  5.326254  0.064540
  7404.479  7404.470  0.500  3.311495  146.52  5.342358  0.064964
  7407.836  7407.820  0.500  3.308750  146.425  5.353581  0.065229
  7411.201  7411.190  0.500  3.305998  146.347  5.365460  0.065151
  7414.576  7414.570  0.500  3.303069  146.22  5.376525  0.065079
  7417.985  7417.980  0.500  3.299033  146.182  5.396882  0.065505
  7421.406  7421.400  0.500  3.293846  146.047  5.419921  0.066629
  7424.856  7424.850  0.500  3.288207  145.928  5.446142  0.068569
  7428.324  7428.310  0.500  3.282271  145.849  5.475607  0.069871
  7431.805  7431.790  0.500  3.276148  145.756  5.505730  0.070307
  7435.301  7435.290  0.500  3.270210  145.637  5.533990  0.070275
  7438.823  7438.810  0.500  3.264727  145.535  5.560497  0.069527
  7442.354  7442.350  0.500  3.258998  145.385  5.586678  0.067998
  7445.912  7445.900  0.500  3.252980  141.522  5.471091  0.064657
  7449.493  7449.480  0.500  3.248419  145.301  5.642841  0.065235
  7453.095  7453.080  0.500  3.244712  144.037  5.614539  0.064274
  7456.707  7456.690  0.500  3.241465  145.073  5.673311  0.065132
  7460.333  7460.320  0.500  3.237278  144.452  5.672724  0.065760
  7463.990  7463.980  0.500  3.232018  144.831  5.717588  0.067150
  7467.660  7467.650  0.500  3.226113  140.879  5.594540  0.067477
  7471.343  7471.340  0.500  3.219887  144.765  5.784754  0.072115
  7475.058  7475.050  0.500  3.215238  144.624  5.806028  0.074776
  7478.794  7478.780  0.500  3.210446  144.487  5.828414  0.076736
  7482.531  7482.520  0.500  3.206177  144.367  5.848472  0.078733
  7486.300  7486.290  0.500  3.201870  144.242  5.868652  0.081249
  7490.093  7490.080  0.500  3.197195  144.106  5.890579  0.083756
  7493.892  7493.880  0.500  3.192525  143.965  5.912342  0.085648
  7497.720  7497.710  0.500  3.187449  143.872  5.938628  0.086534
  7501.560  7501.550  0.500  3.182340  143.747  5.963847  0.086691
  7505.427  7505.410  0.500  3.176813  143.623  5.991723  0.086350
  7509.297  7509.290  0.500  3.170716  143.47  6.021959  0.086857
  7513.206  7513.190  0.500  3.163868  143.344  6.058011  0.087674
  7517.120  7517.110  0.500  3.157408  143.214  6.091712  0.089062
  7521.066  7521.050  0.500  3.151594  143.09  6.121937  0.089983
  7525.031  7525.010  0.500  3.146049  142.965  6.150604  0.090656
  7529.002  7528.980  0.500  3.140649  142.813  6.177349  0.090985
  7532.982  7532.980  0.500  3.135334  142.686  6.204713  0.091175
  7537.020  7536.990  0.500  3.130353  142.54  6.229341  0.092037
  7541.058  7541.030  0.500  3.125520  142.405  6.253606  0.092883
  7545.112  7545.080  0.500  3.121144  142.245  6.273947  0.094021
  7549.181  7549.150  0.500  3.116238  142.147  6.300483  0.094933
  7553.234  7553.240  0.500  3.111413  142.166  6.331779  0.095460
  7557.346  7557.350  0.500  3.106561  141.994  6.354861  0.094929
  7561.511  7561.480  0.500  3.101889  141.843  6.377880  0.094530
  7565.620  7565.630  0.500  3.096689  141.691  6.404221  0.094594
  7569.794  7569.790  0.500  3.091281  141.544  6.432300  0.095773
  7573.976  7573.980  0.500  3.085925  141.393  6.459928  0.098041
  7578.174  7578.180  0.500  3.080572  141.218  6.486562  0.100514
  7582.393  7582.410  0.500  3.075286  141.055  6.513434  0.103514
  7586.640  7586.650  0.500  3.069883  140.886  6.540874  0.105852
  7590.932  7590.910  0.500  3.064356  140.676  6.567323  0.107377
  7595.175  7595.190  0.500  3.059004  140.462  6.592491  0.108536
  7599.486  7599.490  0.500  3.053856  140.207  6.614507  0.109212
  7603.811  7603.810  0.500  3.048415  139.644  6.623903  0.109847
  7608.145  7608.150  0.500  3.043471  139.411  6.645583  0.111528
  7612.506  7612.510  0.500  3.038393  139.195  6.669074  0.113280
  7616.910  7616.890  0.500  3.033258  139.129  6.700239  0.114789
  7621.275  7621.280  0.500  3.027758  139.195  6.740408  0.115841
  7625.724  7625.700  0.500  3.022227  139.195  6.777771  0.116403
  7630.124  7630.130  0.500  3.016576  139.079  6.810491  0.117433
  7634.603  7634.580  0.500  3.011237  138.923  6.839277  0.119052
  7639.073  7639.050  0.500  3.005452  138.776  6.871674  0.121400
  7643.536  7643.540  0.500  2.999827  138.598  6.901592  0.123419
  7648.042  7648.050  0.500  2.994823  138.434  6.927985  0.125327
  7652.599  7652.580  0.500  2.989209  138.285  6.959526  0.126880
  7657.118  7657.130  0.500  2.983931  138.106  6.987279  0.127978
  7661.688  7661.700  0.500  2.978576  137.93  7.015849  0.129020
  7666.264  7666.280  0.500  2.972849  137.762  7.047528  0.129607
  7670.891  7670.890  0.500  2.967082  137.554  7.077605  0.130392
  7675.493  7675.510  0.500  2.961573  137.352  7.106254  0.130722
  7680.154  7680.160  0.500  2.955816  137.127  7.135560  0.131173
  7684.795  7684.820  0.500  2.950613  136.851  7.158337  0.132056
  7689.495  7689.500  0.500  2.944885  136.962  7.205337  0.133769
  7694.187  7694.200  0.500  2.939374  136.675  7.229927  0.135887
  7698.899  7698.920  0.500  2.933904  136.433  7.256736  0.137887
  7703.683  7703.660  0.500  2.928866  136.194  7.280614  0.139557
  7708.422  7708.410  0.500  2.923658  136.098  7.313456  0.141583
  7713.185  7713.190  0.500  2.918035  135.859  7.341763  0.143779
  7717.977  7717.990  0.500  2.912526  135.609  7.368778  0.145924
  7722.793  7722.800  0.500  2.907128  135.486  7.401939  0.148030
  7727.613  7727.630  0.500  2.901654  135.238  7.428947  0.149809
  7732.475  7732.490  0.500  2.896054  135.046  7.460058  0.151201
  7737.364  7737.360  0.500  2.890398  134.723  7.484422  0.152728
  7742.233  7742.250  0.500  2.884961  134.838  7.531657  0.154762
  7747.139  7747.160  0.500  2.879476  134.556  7.557205  0.156289
  7752.078  7752.090  0.500  2.873916  134.336  7.586942  0.157817
  7757.018  7757.030  0.500  2.868533  134.137  7.616564  0.159403
  7761.982  7762.000  0.500  2.863069  133.932  7.646624  0.161494
  7767.005  7766.990  0.500  2.858114  133.71  7.671842  0.163457
  7772.011  7771.990  0.500  2.852224  133.514  7.705855  0.166289
  7777.042  7777.020  0.500  2.846478  133.311  7.738518  0.168430
  7782.084  7782.060  0.500  2.840672  133.107  7.771658  0.170209
  7787.118  7787.120  0.500  2.835079  132.895  7.802764  0.172020
  7792.216  7792.200  0.500  2.829065  132.687  7.837558  0.174045
  7797.287  7797.300  0.500  2.823555  132.476  7.868333  0.175893
  7802.401  7802.420  0.500  2.818049  132.288  7.900529  0.177341
  7807.590  7807.560  0.500  2.812219  132.081  7.934307  0.178930
  7812.741  7812.720  0.500  2.806593  131.849  7.965079  0.180594
  7817.908  7817.900  0.500  2.801198  131.652  7.996160  0.182361
  7823.078  7823.090  0.500  2.795440  131.436  8.029190  0.183990
  7828.319  7828.310  0.500  2.789625  131.197  8.061292  0.185996
  7833.525  7833.540  0.500  2.783840  130.995  8.095598  0.187838
  7838.783  7838.790  0.500  2.778073  130.486  8.110796  0.189478
  7844.038  7844.060  0.500  2.772438  130.52  8.158759  0.191963
  7849.352  7849.350  0.500  2.766824  130.277  8.189373  0.194221
  7854.682  7854.660  0.500  2.761133  129.176  8.166510  0.194802
  7860.014  7859.990  0.500  2.755551  129.848  8.254943  0.198722
  7865.367  7865.340  0.500  2.750059  129.645  8.287420  0.201254
  7870.696  7870.710  0.500  2.744407  129.414  8.319563  0.203913
  7876.080  7876.090  0.500  2.738684  129.159  8.350843  0.206284
  7881.492  7881.500  0.500  2.733098  128.925  8.382401  0.208953
  7886.902  7886.920  0.500  2.727687  128.692  8.412667  0.211251
  7892.357  7892.370  0.500  2.721844  128.468  8.447222  0.213740
  7897.814  7897.830  0.500  2.716131  128.134  8.473499  0.216182
  7903.289  7903.310  0.500  2.710320  127.953  8.510889  0.218737
  7908.824  7908.810  0.500  2.704614  127.706  8.543037  0.221262
  7914.312  7914.330  0.500  2.698979  127.482  8.576226  0.223641
  7919.860  7919.870  0.500  2.693331  127.245  8.608785  0.226063
  7925.405  7925.420  0.500  2.687705  127.005  8.641013  0.228825
  7930.990  7931.000  0.500  2.682016  126.62  8.663971  0.230985
  7936.572  7936.600  0.500  2.676234  126.244  8.688330  0.232965
  7942.201  7942.210  0.500  2.670545  126.26  8.738994  0.235671
  7947.816  7947.850  0.500  2.665013  125.947  8.765696  0.237746
  7953.477  7953.500  0.500  2.659186  125.572  8.790697  0.239755
  7959.141  7959.170  0.500  2.653641  125.326  8.822262  0.242531
  7964.827  7964.860  0.500  2.647954  125.006  8.849920  0.244629