File: xdidata/Fe/Fe-ferro-Axinite.xdi
# XDI/1.0 BlueSky/1.10.0 BMM/2023-1.0-py310-tiled
# Beamline.name: BMM (06BM) -- Beamline for Materials Measurement (NIST)
# Beamline.xray_source: NSLS-II three-pole wiggler
# Beamline.collimation: paraboloid mirror, 5 nm Rh on 30 nm Pt
# Beamline.focusing: not in use
# Beamline.harmonic_rejection: flat mirror, Si stripe, pitch = 7.0 mrad relative to beam
# Beamline.software: Bluesky 1.10.0, Ophyd 1.7.0, DataBroker 2.0.0b13, Python 3.10.8, 2023-1.0-py310-tiled
# Detector.I0: 10 cm N2
# Detector.I1: 25 cm N2
# Detector.I2: 25 cm N2
# Element.symbol: Fe
# Element.edge: K
# Element.reference: Fe
# Element.reference_material: Fe foil
# Facility.name: NSLS-II
# Facility.energy: 3.0
# Facility.current: 400.1
# Facility.mode: top-off
# Facility.GUP: 123456
# Facility.SAF: 301027
# Facility.cycle: 2023-2
# Mono.name: Si(111)
# Mono.d_spacing: 3.13519
# Mono.encoder_resolution: 0.0000050 deg/ct
# Mono.angle_offset: 16.0754 deg
# Mono.scan_mode: pseudo channel cut
# Mono.scan_type: step
# Mono.direction: forward in energy
# Sample.name: Ca2FeAl2BSi4O15OH
# Sample.prep: PEG pellet
# Sample.x: 142.329 mm
# Sample.y: 114.126 mm
# Sample.SDD_position: 205.000 mm
# Scan.experimenters: Bruce Ravel
# Scan.edge_energy: 7112.0
# Scan.start_time: 2023-05-05T20:01:53
# Scan.end_time: 2023-05-05T20:10:03
# Scan.transient_id: 74606
# Scan.uid: 7e2abe51-0ab5-4919-80b5-979d99742378
# Scan.plot_hint: ln(I0/It)  --  ln($5/$6)
# Column.1: energy eV
# Column.2: requested_energy eV
# Column.3: measurement_time seconds
# Column.4: xmu
# Column.5: I0 nA
# Column.6: It nA
# Column.7: Ir nA
# ///////////
# courtesy Martin Stennett, University of Sheffield
# -----------
# energy  requested_energy  measurement_time  xmu  I0  It  Ir
  6912.005  6912.000  0.500  1.608787  154.363  30.8926  5.799903
  6922.009  6922.000  0.500  1.599937  154.195  31.1333  5.886199
  6932.017  6932.000  0.500  1.591359  154.148  31.3921  5.977111
  6942.033  6942.000  0.500  1.582492  154.181  31.6784  6.074116
  6951.997  6952.000  0.500  1.573817  154.151  31.9483  6.168275
  6962.002  6962.000  0.500  1.565193  154.143  32.2233  6.264158
  6972.003  6972.000  0.500  1.556612  154.118  32.4958  6.361653
  6982.019  6982.000  0.500  1.548166  154.075  32.7622  6.456866
  6992.012  6992.000  0.500  1.539627  154.056  33.039  6.556591
  7002.013  7002.000  0.500  1.531281  153.989  33.3015  6.653356
  7012.008  7012.000  0.500  1.523366  153.942  33.5558  6.747684
  7022.014  7022.000  0.500  1.514799  153.877  33.8303  6.846931
  7032.008  7032.000  0.500  1.506337  153.82  34.1052  6.945773
  7042.011  7042.000  0.500  1.498374  153.726  34.3568  7.041981
  7052.007  7052.000  0.500  1.490223  153.623  34.6148  7.136183
  7062.006  7062.000  0.500  1.482182  152.895  34.7288  7.199916
  7072.009  7072.000  0.500  1.474175  153.385  35.1202  7.318528
  7081.984  7082.000  0.500  1.466188  153.332  35.3895  7.399215
  7083.989  7084.000  0.500  1.464699  153.084  35.385  7.400994
  7085.982  7086.000  0.500  1.463016  153.224  35.477  7.423645
  7087.990  7088.000  0.500  1.461348  153.23  35.5377  7.437346
  7089.992  7090.000  0.500  1.459690  153.202  35.5902  7.448038
  7091.995  7092.000  0.500  1.458211  153.18  35.6377  7.454467
  7093.991  7094.000  0.500  1.456731  153.164  35.6868  7.459853
  7095.988  7096.000  0.500  1.455381  153.153  35.7324  7.461889
  7097.982  7098.000  0.500  1.453858  153.135  35.7826  7.459428
  7099.996  7100.000  0.500  1.452306  153.086  35.8266  7.447460
  7102.003  7102.000  0.500  1.450707  153.059  35.8777  7.426945
  7102.292  7102.300  0.500  1.450486  153.049  35.8833  7.421956
  7102.585  7102.600  0.500  1.450162  153.038  35.8924  7.417413
  7102.887  7102.900  0.500  1.450049  153.041  35.897  7.412012
  7103.195  7103.200  0.500  1.449877  153.034  35.9016  7.405512
  7103.485  7103.500  0.500  1.449668  153.034  35.9092  7.398935
  7103.785  7103.800  0.500  1.449590  153.042  35.9138  7.391743
  7104.091  7104.100  0.500  1.449003  153.024  35.9307  7.386306
  7104.386  7104.400  0.500  1.448993  153.013  35.9286  7.376339
  7104.690  7104.700  0.500  1.448924  152.994  35.9264  7.365260
  7104.992  7105.000  0.500  1.448385  152.972  35.9406  7.354897
  7105.289  7105.300  0.500  1.448633  152.957  35.9283  7.340965
  7105.584  7105.600  0.500  1.448313  152.977  35.9444  7.329768
  7105.890  7105.900  0.500  1.447946  152.972  35.9565  7.316070
  7106.190  7106.200  0.500  1.447759  152.968  35.9621  7.301241
  7106.488  7106.500  0.500  1.447474  152.991  35.9778  7.285254
  7106.792  7106.800  0.500  1.447232  152.967  35.9809  7.265679
  7107.089  7107.100  0.500  1.447159  152.953  35.9804  7.242336
  7107.385  7107.400  0.500  1.446922  152.929  35.9832  7.217305
  7107.689  7107.700  0.500  1.446709  152.915  35.9874  7.187069
  7107.989  7108.000  0.500  1.446493  152.904  35.9928  7.152166
  7108.289  7108.300  0.500  1.446314  152.894  35.9967  7.112546
  7108.589  7108.600  0.500  1.446226  152.901  36.0017  7.064201
  7108.886  7108.900  0.500  1.446187  152.9  36.0029  7.009799
  7109.188  7109.200  0.500  1.445998  152.897  36.009  6.939413
  7109.499  7109.500  0.500  1.445810  152.88  36.0118  6.846780
  7109.793  7109.800  0.500  1.445790  152.86  36.0076  6.727703
  7110.095  7110.100  0.500  1.445957  152.828  35.9941  6.560746
  7110.397  7110.400  0.500  1.445964  152.799  35.987  6.324392
  7110.697  7110.700  0.500  1.446002  152.781  35.9814  5.998059
  7110.995  7111.000  0.500  1.446481  152.768  35.9612  5.565708
  7111.297  7111.300  0.500  1.447137  152.757  35.9351  5.048200
  7111.591  7111.600  0.500  1.447696  152.722  35.9068  4.520487
  7111.891  7111.900  0.500  1.448150  152.686  35.882  4.028344
  7112.196  7112.200  0.500  1.448331  152.669  35.8715  3.640098
  7112.492  7112.500  0.500  1.448169  152.63  35.868  3.353042
  7112.792  7112.800  0.500  1.447848  152.619  35.877  3.139006
  7113.094  7113.100  0.500  1.447407  152.602  35.8889  2.965532
  7113.397  7113.400  0.500  1.446995  152.586  35.8999  2.814773
  7113.701  7113.700  0.500  1.446823  152.565  35.9011  2.676142
  7114.000  7114.000  0.500  1.446471  152.541  35.9082  2.552366
  7114.300  7114.300  0.500  1.446275  152.536  35.9139  2.444352
  7114.598  7114.600  0.500  1.445709  152.536  35.9343  2.356100
  7114.899  7114.900  0.500  1.445444  152.507  35.9369  2.286074
  7115.201  7115.200  0.500  1.445186  152.505  35.9457  2.234379
  7115.500  7115.500  0.500  1.445353  152.503  35.9392  2.198639
  7115.805  7115.800  0.500  1.445536  152.503  35.9327  2.171045
  7116.092  7116.100  0.500  1.445461  152.489  35.9322  2.150178
  7116.397  7116.400  0.500  1.445850  152.477  35.9153  2.128388
  7116.693  7116.700  0.500  1.446563  152.467  35.8874  2.097590
  7116.998  7117.000  0.500  1.447346  152.471  35.8602  2.051834
  7117.295  7117.300  0.500  1.448656  152.457  35.81  1.987230
  7117.598  7117.600  0.500  1.450296  152.51  35.7638  1.900938
  7117.898  7117.900  0.500  1.452886  152.954  35.7751  1.798229
  7118.199  7118.200  0.500  1.456536  152.94  35.6414  1.675550
  7118.506  7118.500  0.500  1.461203  152.932  35.4736  1.546345
  7118.801  7118.800  0.500  1.467494  152.89  35.2416  1.422237
  7119.099  7119.100  0.500  1.475506  152.884  34.959  1.304722
  7119.398  7119.400  0.500  1.484636  152.875  34.6391  1.194633
  7119.701  7119.700  0.500  1.494041  152.856  34.3107  1.092130
  7120.000  7120.000  0.500  1.503863  152.856  33.9753  0.994204
  7120.296  7120.300  0.500  1.513203  152.836  33.6551  0.902670
  7120.595  7120.600  0.500  1.521565  152.822  33.3718  0.819994
  7120.894  7120.900  0.500  1.528247  152.82  33.1492  0.745309
  7121.201  7121.200  0.500  1.533483  152.801  32.9719  0.681925
  7121.498  7121.500  0.500  1.537365  152.779  32.8394  0.628900
  7121.801  7121.800  0.500  1.540759  152.763  32.7246  0.584962
  7122.100  7122.100  0.500  1.544065  152.738  32.6112  0.546735
  7122.399  7122.400  0.500  1.547275  152.718  32.5026  0.514311
  7122.702  7122.700  0.500  1.550805  152.685  32.3811  0.485336
  7123.006  7123.000  0.500  1.554902  152.673  32.2461  0.459411
  7123.303  7123.300  0.500  1.559051  152.66  32.1097  0.437150
  7123.600  7123.600  0.500  1.563586  152.667  31.966  0.417791
  7123.899  7123.900  0.500  1.568606  152.657  31.8038  0.399978
  7124.204  7124.200  0.500  1.573712  152.645  31.6394  0.383535
  7124.497  7124.500  0.500  1.578707  152.596  31.4717  0.368375
  7124.800  7124.800  0.500  1.583178  152.579  31.3278  0.354794
  7125.093  7125.100  0.500  1.586908  152.541  31.2034  0.342089
  7125.394  7125.400  0.500  1.589744  152.527  31.1122  0.330464
  7125.702  7125.700  0.500  1.591907  152.496  31.0385  0.319581
  7126.002  7126.000  0.500  1.593207  152.472  30.9935  0.309792
  7126.303  7126.300  0.500  1.593751  152.46  30.9741  0.299928
  7126.602  7126.600  0.500  1.593193  152.45  30.9893  0.290406
  7126.900  7126.900  0.500  1.591853  152.432  31.0272  0.280428
  7127.205  7127.200  0.500  1.589484  152.393  31.093  0.270883
  7127.503  7127.500  0.500  1.586607  152.356  31.175  0.260810
  7127.800  7127.800  0.500  1.582920  152.335  31.2858  0.250816
  7128.097  7128.100  0.500  1.580141  152.303  31.3662  0.240598
  7128.397  7128.400  0.500  1.578062  152.293  31.4294  0.229826
  7128.701  7128.700  0.500  1.576855  152.28  31.4648  0.218857
  7128.996  7129.000  0.500  1.576758  152.247  31.461  0.208106
  7129.297  7129.300  0.500  1.577160  152.235  31.4458  0.197340
  7129.595  7129.600  0.500  1.577600  152.2  31.4247  0.187742
  7129.901  7129.900  0.500  1.578040  152.154  31.4014  0.179456
  7130.205  7130.200  0.500  1.578185  152.113  31.3885  0.172544
  7130.502  7130.500  0.500  1.577392  152.082  31.407  0.167805
  7130.804  7130.800  0.500  1.575852  152.03  31.4445  0.164669
  7131.102  7131.100  0.500  1.573639  152.004  31.5088  0.163404
  7131.402  7131.400  0.500  1.570967  151.999  31.5922  0.164666
  7131.706  7131.700  0.500  1.567864  151.968  31.6839  0.167625
  7132.005  7132.000  0.500  1.564720  151.974  31.7847  0.172901
  7132.299  7132.300  0.500  1.561663  151.96  31.8791  0.179265
  7132.601  7132.600  0.500  1.558483  151.961  31.9811  0.186753
  7132.896  7132.900  0.500  1.555323  151.961  32.0821  0.195483
  7133.198  7133.200  0.500  1.552188  151.943  32.179  0.205038
  7133.501  7133.500  0.500  1.549042  151.953  32.2827  0.214705
  7133.803  7133.800  0.500  1.546464  151.922  32.3593  0.224414
  7134.100  7134.100  0.500  1.544240  151.917  32.4303  0.233705
  7134.400  7134.400  0.500  1.542331  151.924  32.4937  0.242513
  7134.705  7134.700  0.500  1.540988  151.924  32.5375  0.250507
  7135.005  7135.000  0.500  1.539731  151.928  32.5793  0.257604
  7135.303  7135.300  0.500  1.539293  151.914  32.5906  0.263622
  7135.603  7135.600  0.500  1.538493  151.905  32.6148  0.268713
  7135.901  7135.900  0.500  1.537504  151.893  32.6444  0.272888
  7136.205  7136.200  0.500  1.536972  151.892  32.6614  0.276320
  7136.499  7136.500  0.500  1.536291  151.873  32.6796  0.278229
  7136.797  7136.800  0.500  1.536012  151.858  32.6855  0.279260
  7136.996  7137.000  0.500  1.535828  151.865  32.6931  0.279462
  7138.000  7137.990  0.500  1.534795  151.861  32.726  0.275071
  7139.005  7138.990  0.500  1.534254  151.846  32.7405  0.263393
  7140.026  7140.010  0.500  1.534025  151.856  32.7501  0.250721
  7141.081  7141.060  0.500  1.534438  151.848  32.735  0.242289
  7142.108  7142.120  0.500  1.534248  151.822  32.7355  0.240732
  7143.186  7143.200  0.500  1.532781  151.809  32.7807  0.244430
  7144.287  7144.300  0.500  1.529997  151.811  32.8726  0.249326
  7145.420  7145.420  0.500  1.526048  151.801  33.0006  0.249317
  7146.561  7146.560  0.500  1.522124  151.785  33.1267  0.241387
  7147.705  7147.710  0.500  1.518160  151.773  33.2556  0.227477
  7148.897  7148.890  0.500  1.515152  151.74  33.3487  0.212926
  7150.089  7150.080  0.500  1.513752  151.738  33.395  0.202974
  7151.301  7151.300  0.500  1.513349  151.745  33.4098  0.196975
  7152.529  7152.530  0.500  1.513665  151.718  33.3935  0.192927
  7153.784  7153.780  0.500  1.514118  151.724  33.3797  0.190755
  7155.056  7155.050  0.500  1.514446  151.69  33.3611  0.192040
  7156.337  7156.340  0.500  1.514115  151.694  33.3731  0.195867
  7157.652  7157.650  0.500  1.513490  151.683  33.3915  0.199230
  7158.982  7158.980  0.500  1.512789  151.654  33.4086  0.200494
  7160.330  7160.330  0.500  1.511931  151.626  33.4311  0.200879
  7161.698  7161.700  0.500  1.510937  151.587  33.4557  0.202791
  7163.080  7163.080  0.500  1.510334  151.549  33.4675  0.206051
  7164.486  7164.490  0.500  1.509629  151.493  33.4787  0.210547
  7165.915  7165.910  0.500  1.509120  151.446  33.4854  0.214199
  7167.351  7167.350  0.500  1.508524  151.405  33.4963  0.217177
  7168.818  7168.810  0.500  1.508547  151.376  33.4891  0.219711
  7170.294  7170.290  0.500  1.508258  151.352  33.4936  0.223579
  7171.793  7171.790  0.500  1.508636  151.349  33.4802  0.230163
  7173.321  7173.310  0.500  1.508832  151.321  33.4674  0.240180
  7174.849  7174.850  0.500  1.509030  151.28  33.4516  0.252792
  7176.422  7176.410  0.500  1.509175  151.256  33.4415  0.267882
  7177.985  7177.980  0.500  1.508899  151.217  33.4421  0.282214
  7179.587  7179.580  0.500  1.508627  151.186  33.4444  0.291880
  7181.202  7181.190  0.500  1.508202  151.146  33.4498  0.294709
  7182.839  7182.830  0.500  1.507952  151.117  33.4518  0.291947
  7184.485  7184.480  0.500  1.507393  151.098  33.4661  0.285991
  7186.154  7186.150  0.500  1.506473  151.057  33.4879  0.275428
  7187.846  7187.840  0.500  1.504548  151.008  33.5416  0.261685
  7189.566  7189.550  0.500  1.502068  151.025  33.6286  0.248532
  7191.294  7191.280  0.500  1.499071  149.464  33.381  0.231945
  7193.041  7193.030  0.500  1.495729  150.636  33.7552  0.222070
  7194.803  7194.790  0.500  1.492284  150.825  33.9142  0.218311
  7196.591  7196.580  0.500  1.489202  150.813  34.0162  0.223547
  7198.385  7198.380  0.500  1.486893  150.768  34.0847  0.235340
  7200.217  7200.210  0.500  1.485219  150.732  34.1336  0.251744
  7202.057  7202.050  0.500  1.483650  150.686  34.1768  0.271806
  7203.920  7203.910  0.500  1.481971  150.658  34.2279  0.294639
  7205.806  7205.790  0.500  1.480185  150.616  34.2795  0.316872
  7207.699  7207.690  0.500  1.478244  150.541  34.3291  0.327843
  7209.613  7209.610  0.500  1.476109  150.475  34.3874  0.318830
  7211.564  7211.550  0.500  1.474507  150.425  34.431  0.287221
  7213.514  7213.510  0.500  1.473086  150.374  34.4684  0.244044
  7215.495  7215.480  0.500  1.472054  150.358  34.5002  0.203661
  7217.485  7217.480  0.500  1.470783  150.286  34.5274  0.174718
  7219.511  7219.490  0.500  1.470093  150.237  34.5401  0.158683
  7221.529  7221.520  0.500  1.469331  150.157  34.5481  0.155613
  7223.593  7223.580  0.500  1.468455  150.098  34.5648  0.165678
  7225.655  7225.650  0.500  1.467527  149.963  34.5657  0.186483
  7227.757  7227.740  0.500  1.465865  147.343  34.0184  0.212431
  7229.856  7229.850  0.500  1.464302  150.149  34.7204  0.251632
  7231.993  7231.980  0.500  1.462481  150.099  34.7721  0.290526
  7234.130  7234.120  0.500  1.460506  150.022  34.823  0.327382
  7236.308  7236.290  0.500  1.458830  149.989  34.8736  0.354070
  7238.485  7238.480  0.500  1.457174  149.935  34.919  0.366504
  7240.699  7240.680  0.500  1.455493  149.922  34.9745  0.365095
  7242.912  7242.900  0.500  1.453793  149.895  35.0278  0.353204
  7245.162  7245.150  0.500  1.451917  147.083  34.4353  0.329730
  7247.421  7247.410  0.500  1.450798  149.632  35.0711  0.320904
  7249.703  7249.690  0.500  1.449043  149.647  35.1364  0.314552
  7251.998  7251.990  0.500  1.447644  149.565  35.1664  0.318072
  7254.321  7254.310  0.500  1.446149  147.674  34.7735  0.324085
  7256.664  7256.650  0.500  1.444654  150.068  35.3902  0.336990
  7259.004  7259.000  0.500  1.443041  149.914  35.411  0.334723
  7261.397  7261.380  0.500  1.441338  149.428  35.3562  0.324748
  7263.784  7263.770  0.500  1.438598  138.917  32.9596  0.294057
  7266.203  7266.190  0.500  1.437928  149.639  35.5273  0.310295
  7268.632  7268.620  0.500  1.435913  150.269  35.7486  0.303506
  7271.079  7271.070  0.500  1.434177  150.207  35.7961  0.289809
  7273.563  7273.550  0.500  1.432126  149.046  35.5923  0.272919
  7276.049  7276.040  0.500  1.430248  150.243  35.9457  0.266807
  7278.564  7278.550  0.500  1.427896  150.204  36.0209  0.262391
  7281.085  7281.070  0.500  1.425729  150.168  36.0904  0.255448
  7283.633  7283.620  0.500  1.423378  149.136  35.9266  0.244892
  7286.202  7286.190  0.500  1.421066  149.77  36.1629  0.237713
  7288.779  7288.770  0.500  1.418897  149.859  36.263  0.235021
  7291.391  7291.380  0.500  1.416698  149.822  36.3338  0.243824
  7294.012  7294.000  0.500  1.414708  149.781  36.3963  0.265447
  7296.668  7296.650  0.500  1.412585  149.732  36.4617  0.293654
  7299.322  7299.310  0.500  1.410725  149.622  36.5028  0.322619
  7302.006  7301.990  0.500  1.408526  147.9  36.1621  0.343813
  7304.707  7304.690  0.500  1.406004  149.78  36.7143  0.368326
  7307.426  7307.410  0.500  1.403834  149.677  36.7688  0.382239
  7310.163  7310.150  0.500  1.401624  149.631  36.8386  0.388166
  7312.910  7312.900  0.500  1.399648  149.564  36.8951  0.388096
  7315.692  7315.680  0.500  1.397739  149.497  36.9489  0.388970
  7318.483  7318.470  0.500  1.395939  149.432  36.9993  0.390880
  7321.304  7321.290  0.500  1.394155  149.377  37.0518  0.393500
  7324.134  7324.120  0.500  1.391901  149.332  37.1242  0.395449
  7326.983  7326.970  0.500  1.389950  149.275  37.1826  0.396605
  7329.861  7329.850  0.500  1.387880  149.18  37.236  0.399306
  7332.760  7332.740  0.500  1.385796  149.137  37.3028  0.407437
  7335.665  7335.650  0.500  1.383503  149.074  37.3726  0.417842
  7338.582  7338.570  0.500  1.381469  147.854  37.1422  0.420374
  7341.532  7341.520  0.500  1.379675  148.853  37.4603  0.420273
  7344.497  7344.490  0.500  1.377615  148.856  37.5384  0.406077
  7347.488  7347.470  0.500  1.375509  148.799  37.6031  0.384865
  7350.498  7350.480  0.500  1.373334  148.717  37.6643  0.364570
  7353.517  7353.500  0.500  1.371061  148.655  37.7342  0.347909
  7356.562  7356.550  0.500  1.368816  148.578  37.7994  0.334096
  7359.621  7359.610  0.500  1.366711  148.478  37.8536  0.322326
  7362.703  7362.690  0.500  1.364108  148.409  37.9345  0.314102
  7365.802  7365.790  0.500  1.361953  148.358  38.0035  0.311271
  7368.924  7368.910  0.500  1.359705  148.268  38.0659  0.315943
  7372.069  7372.050  0.500  1.357176  148.215  38.1486  0.329852
  7375.213  7375.200  0.500  1.354949  148.198  38.2293  0.355128
  7378.393  7378.380  0.500  1.352711  148.075  38.2831  0.392355
  7381.584  7381.570  0.500  1.350132  147.992  38.3605  0.435917
  7384.806  7384.790  0.500  1.347739  147.919  38.4335  0.469366
  7388.031  7388.020  0.500  1.345332  147.873  38.5141  0.483516
  7391.284  7391.270  0.500  1.343015  147.796  38.5832  0.481998
  7394.563  7394.550  0.500  1.340523  147.716  38.6585  0.474225
  7397.848  7397.840  0.500  1.338124  147.611  38.7239  0.468962
  7401.160  7401.150  0.500  1.335727  147.51  38.7903  0.469288
  7404.479  7404.470  0.500  1.333235  147.441  38.8688  0.472297
  7407.833  7407.820  0.500  1.330810  147.377  38.9463  0.472607
  7411.203  7411.190  0.500  1.328390  147.294  39.0187  0.472771
  7414.583  7414.570  0.500  1.326031  147.172  39.0785  0.472862
  7417.987  7417.980  0.500  1.323625  147.049  39.1399  0.475429
  7421.404  7421.400  0.500  1.321355  146.884  39.1847  0.481527
  7424.854  7424.850  0.500  1.318812  146.882  39.284  0.493186
  7428.322  7428.310  0.500  1.316359  146.797  39.3576  0.501308
  7431.807  7431.790  0.500  1.313791  146.703  39.4336  0.503344
  7435.305  7435.290  0.500  1.311115  146.599  39.5114  0.501431
  7438.819  7438.810  0.500  1.308662  146.475  39.5749  0.494779
  7442.354  7442.350  0.500  1.306202  146.323  39.631  0.481992
  7445.903  7445.900  0.500  1.303577  142.425  38.6767  0.456425
  7449.493  7449.480  0.500  1.301289  146.227  39.8002  0.459622
  7453.091  7453.080  0.500  1.298780  144.931  39.5466  0.453185
  7456.700  7456.690  0.500  1.296201  146.023  39.9475  0.458650
  7460.336  7460.320  0.500  1.293944  145.429  39.8748  0.461004
  7463.992  7463.980  0.500  1.291133  145.839  40.0997  0.470608
  7467.664  7467.650  0.500  1.288469  141.845  39.1056  0.471104
  7471.347  7471.340  0.500  1.285994  145.764  40.2857  0.502011
  7475.063  7475.050  0.500  1.283518  145.599  40.3399  0.518430
  7478.789  7478.780  0.500  1.281084  145.472  40.4027  0.531872
  7482.533  7482.520  0.500  1.278511  145.319  40.4644  0.544531
  7486.303  7486.290  0.500  1.275777  145.175  40.5349  0.560217
  7490.098  7490.080  0.500  1.273273  145.07  40.6072  0.577026
  7493.897  7493.880  0.500  1.270600  144.98  40.6905  0.589513
  7497.731  7497.710  0.500  1.267999  144.876  40.7671  0.594403
  7501.565  7501.550  0.500  1.265351  144.753  40.8406  0.593423
  7505.439  7505.410  0.500  1.262757  144.598  40.903  0.590852
  7509.309  7509.290  0.500  1.259937  144.449  40.9761  0.591093
  7513.194  7513.190  0.500  1.257289  144.306  41.044  0.594729
  7517.125  7517.110  0.500  1.254816  144.189  41.1123  0.600660
  7521.047  7521.050  0.500  1.252129  144.064  41.1871  0.605385
  7525.019  7525.010  0.500  1.249313  143.951  41.2711  0.608282
  7528.997  7528.980  0.500  1.246657  143.825  41.3445  0.608658
  7532.999  7532.980  0.500  1.244129  143.685  41.4089  0.609282
  7537.011  7536.990  0.500  1.241427  143.528  41.4755  0.612753
  7541.051  7541.030  0.500  1.238977  143.392  41.5378  0.618199
  7545.115  7545.080  0.500  1.236206  143.22  41.6032  0.623529
  7549.178  7549.150  0.500  1.233337  143.085  41.6835  0.628628
  7553.261  7553.240  0.500  1.230734  142.933  41.7476  0.628571
  7557.387  7557.350  0.500  1.228061  142.765  41.81  0.624837
  7561.508  7561.480  0.500  1.225245  142.657  41.8962  0.621210
  7565.627  7565.630  0.500  1.222549  142.504  41.9644  0.621184
  7569.809  7569.790  0.500  1.219860  142.387  42.0429  0.626927
  7573.973  7573.980  0.500  1.217120  142.198  42.1021  0.638408
  7578.196  7578.180  0.500  1.214343  142.038  42.1717  0.654110
  7582.400  7582.410  0.500  1.211654  141.871  42.2357  0.670873
  7586.670  7586.650  0.500  1.209179  141.675  42.2819  0.684039
  7590.902  7590.910  0.500  1.206515  141.493  42.3402  0.693229
  7595.177  7595.190  0.500  1.203693  141.27  42.393  0.697938
  7599.477  7599.490  0.500  1.200939  141.015  42.4331  0.700779
  7603.796  7603.810  0.500  1.198107  140.496  42.3968  0.703737
  7608.137  7608.150  0.500  1.195222  140.256  42.4465  0.711447
  7612.501  7612.510  0.500  1.192546  140.018  42.488  0.721799
  7616.913  7616.890  0.500  1.189706  139.98  42.5973  0.730221
  7621.297  7621.280  0.500  1.186856  140.064  42.7446  0.734703
  7625.721  7625.700  0.500  1.183742  140.028  42.867  0.737252
  7630.151  7630.130  0.500  1.180901  139.926  42.9574  0.741826
  7634.566  7634.580  0.500  1.178128  139.787  43.034  0.749956
  7639.073  7639.050  0.500  1.175332  139.584  43.0919  0.760874
  7643.524  7643.540  0.500  1.172402  139.434  43.1719  0.772851
  7648.030  7648.050  0.500  1.169608  139.253  43.2365  0.782494
  7652.601  7652.580  0.500  1.167153  139.123  43.3024  0.789757
  7657.116  7657.130  0.500  1.164195  138.958  43.379  0.795619
  7661.676  7661.700  0.500  1.161172  138.765  43.4501  0.799232
  7666.272  7666.280  0.500  1.158573  138.55  43.4956  0.800515
  7670.883  7670.890  0.500  1.155789  138.351  43.5543  0.801719
  7675.508  7675.510  0.500  1.152649  138.129  43.6211  0.802762
  7680.156  7680.160  0.500  1.149799  137.966  43.6939  0.804048
  7684.813  7684.820  0.500  1.147040  137.669  43.7201  0.807455
  7689.483  7689.500  0.500  1.144286  137.814  43.887  0.817108
  7694.189  7694.200  0.500  1.141423  137.5  43.9125  0.825989
  7698.914  7698.920  0.500  1.138528  137.282  43.97  0.835666
  7703.662  7703.660  0.500  1.135659  137.067  44.0273  0.845130
  7708.394  7708.410  0.500  1.132654  137.009  44.1413  0.855689
  7713.190  7713.190  0.500  1.130002  136.727  44.1674  0.865689
  7717.967  7717.990  0.500  1.126981  136.478  44.2203  0.876505
  7722.776  7722.800  0.500  1.123760  136.335  44.3163  0.887717
  7727.608  7727.630  0.500  1.120912  136.105  44.3677  0.894850
  7732.465  7732.490  0.500  1.117824  135.892  44.4355  0.901820
  7737.341  7737.360  0.500  1.114923  135.49  44.4327  0.907283
  7742.241  7742.250  0.500  1.111925  135.646  44.6172  0.917054
  7747.191  7747.160  0.500  1.109122  135.383  44.6558  0.924536
  7752.088  7752.090  0.500  1.105948  135.174  44.7285  0.931446
  7757.018  7757.030  0.500  1.102986  134.987  44.7994  0.939119
  7761.985  7762.000  0.500  1.100089  134.776  44.8591  0.948749
  7766.987  7766.990  0.500  1.097031  135.033  45.0823  0.962422
  7771.970  7771.990  0.500  1.094123  134.795  45.134  0.972989
  7777.003  7777.020  0.500  1.090986  134.569  45.1996  0.983012
  7782.079  7782.060  0.500  1.088007  134.378  45.2704  0.992457
  7787.103  7787.120  0.500  1.085289  134.137  45.3122  1.000562
  7792.203  7792.200  0.500  1.082171  133.94  45.3869  1.009018
  7797.287  7797.300  0.500  1.079442  133.749  45.4459  1.015904
  7802.393  7802.420  0.500  1.076454  133.575  45.5226  1.022720
  7807.556  7807.560  0.500  1.073379  133.327  45.5781  1.028918
  7812.697  7812.720  0.500  1.070116  133.124  45.6574  1.035757
  7817.892  7817.900  0.500  1.067140  132.916  45.7219  1.043018
  7823.076  7823.090  0.500  1.064216  132.704  45.7828  1.051339
  7828.290  7828.310  0.500  1.061641  132.492  45.8272  1.058325
  7833.517  7833.540  0.500  1.058673  132.275  45.8883  1.066435
  7838.778  7838.790  0.500  1.055368  131.69  45.8367  1.071711
  7844.056  7844.060  0.500  1.052287  131.851  46.0342  1.083967
  7849.334  7849.350  0.500  1.049200  131.569  46.0777  1.093185
  7854.643  7854.660  0.500  1.046256  130.486  45.8334  1.095447
  7859.972  7859.990  0.500  1.043125  131.12  46.2005  1.113133
  7865.330  7865.340  0.500  1.040051  130.944  46.2804  1.125080
  7870.685  7870.710  0.500  1.037060  130.682  46.3262  1.135977
  7876.072  7876.090  0.500  1.033778  130.448  46.3953  1.148074
  7881.476  7881.500  0.500  1.030722  130.161  46.4348  1.158076
  7886.902  7886.920  0.500  1.027876  129.977  46.5012  1.169184
  7892.343  7892.370  0.500  1.024789  129.763  46.5684  1.179905
  7897.800  7897.830  0.500  1.021870  129.457  46.5944  1.189366
  7903.273  7903.310  0.500  1.018602  129.25  46.6721  1.201024
  7908.789  7908.810  0.500  1.015536  129.012  46.7291  1.211572
  7914.304  7914.330  0.500  1.012697  128.659  46.7339  1.220364
  7919.846  7919.870  0.500  1.009623  128.461  46.8057  1.231256
  7925.399  7925.420  0.500  1.006227  128.226  46.8791  1.242003
  7930.979  7931.000  0.500  1.003218  127.849  46.882  1.251209
  7936.588  7936.600  0.500  1.000377  127.506  46.8893  1.258954
  7942.184  7942.210  0.500  0.997356  127.534  47.0415  1.269528
  7947.832  7947.850  0.500  0.994214  127.183  47.0594  1.277660
  7953.474  7953.500  0.500  0.991285  126.841  47.0706  1.285822
  7959.149  7959.170  0.500  0.988257  126.614  47.1287  1.296883
  7964.837  7964.860  0.500  0.984912  126.275  47.1602  1.305506