File: xdidata/Fe/Fe-Fe2Oxalate.xdi
# XDI/1.0 BlueSky/1.10.0 BMM/2023-1.0-py310-tiled
# Beamline.name: BMM (06BM) -- Beamline for Materials Measurement (NIST)
# Beamline.xray_source: NSLS-II three-pole wiggler
# Beamline.collimation: paraboloid mirror, 5 nm Rh on 30 nm Pt
# Beamline.focusing: not in use
# Beamline.harmonic_rejection: flat mirror, Si stripe, pitch = 7.0 mrad relative to beam
# Beamline.software: Bluesky 1.10.0, Ophyd 1.7.0, DataBroker 2.0.0b13, Python 3.10.8, 2023-1.0-py310-tiled
# Detector.I0: 10 cm N2
# Detector.I1: 25 cm N2
# Detector.I2: 25 cm N2
# Element.symbol: Fe
# Element.edge: K
# Element.reference: Fe
# Element.reference_material: Fe foil
# Facility.name: NSLS-II
# Facility.energy: 3.0
# Facility.current: 399.3
# Facility.mode: top-off
# Facility.GUP: 123456
# Facility.SAF: 301027
# Facility.cycle: 2023-2
# Mono.name: Si(111)
# Mono.d_spacing: 3.13519
# Mono.encoder_resolution: 0.0000050 deg/ct
# Mono.angle_offset: 16.0754 deg
# Mono.scan_mode: pseudo channel cut
# Mono.scan_type: step
# Mono.direction: forward in energy
# Sample.name: FeC2O4(H2O)2
# Sample.prep: PEG pellet
# Sample.x: 116.329 mm
# Sample.y: 114.126 mm
# Sample.SDD_position: 205.000 mm
# Scan.experimenters: Bruce Ravel
# Scan.edge_energy: 7112.0
# Scan.start_time: 2023-05-05T18:50:13
# Scan.end_time: 2023-05-05T18:58:23
# Scan.transient_id: 74566
# Scan.uid: 8826fc18-d0a2-4e26-83ae-67cfdac7097e
# Scan.plot_hint: ln(I0/It)  --  ln($5/$6)
# Column.1: energy eV
# Column.2: requested_energy eV
# Column.3: measurement_time seconds
# Column.4: xmu
# Column.5: I0 nA
# Column.6: It nA
# Column.7: Ir nA
# ///////////
# courtesy Martin Stennett, University of Sheffield
# -----------
# energy  requested_energy  measurement_time  xmu  I0  It  Ir
  6912.001  6912.000  0.500  1.768845  154.084  26.2759  4.932860
  6922.009  6922.000  0.500  1.757845  153.897  26.5342  5.016819
  6932.017  6932.000  0.500  1.747321  153.862  26.809  5.104562
  6942.011  6942.000  0.500  1.736819  153.888  27.0965  5.195417
  6952.006  6952.000  0.500  1.726633  153.852  27.3676  5.285189
  6962.014  6962.000  0.500  1.716239  153.85  27.6531  5.377228
  6972.016  6972.000  0.500  1.706163  154.343  28.0227  5.486091
  6982.021  6982.000  0.500  1.696179  154.277  28.2918  5.575810
  6992.014  6992.000  0.500  1.686500  154.299  28.571  5.670468
  7002.013  7002.000  0.500  1.676452  154.247  28.8498  5.763539
  7012.016  7012.000  0.500  1.666677  154.203  29.1248  5.856519
  7022.014  7022.000  0.500  1.657015  154.12  29.3919  5.949881
  7032.012  7032.000  0.500  1.647177  154.034  29.6658  6.043003
  7042.013  7042.000  0.500  1.637312  153.93  29.9396  6.137130
  7052.009  7052.000  0.500  1.627884  153.828  30.2034  6.227928
  7062.012  7062.000  0.500  1.618514  153.098  30.3429  6.290899
  7072.013  7072.000  0.500  1.609800  153.623  30.7134  6.399340
  7081.984  7082.000  0.500  1.600967  153.589  30.9791  6.477108
  7083.981  7084.000  0.500  1.599683  153.369  30.9745  6.479805
  7085.980  7086.000  0.500  1.597849  153.454  31.0486  6.496641
  7087.985  7088.000  0.500  1.596119  153.459  31.1034  6.509014
  7089.988  7090.000  0.500  1.594904  153.446  31.1384  6.516411
  7091.989  7092.000  0.500  1.593522  153.433  31.1789  6.522052
  7093.985  7094.000  0.500  1.592161  153.424  31.2194  6.527188
  7095.984  7096.000  0.500  1.591602  153.415  31.2352  6.522203
  7098.296  7098.000  0.500  1.590124  153.346  31.2673  6.516921
  7099.999  7100.000  0.500  1.589400  153.313  31.2832  6.502602
  7101.997  7102.000  0.500  1.588896  153.3  31.2964  6.478677
  7102.288  7102.300  0.500  1.588851  153.274  31.2924  6.472958
  7102.585  7102.600  0.500  1.588819  153.286  31.296  6.468316
  7102.887  7102.900  0.500  1.588612  153.273  31.2997  6.462344
  7103.192  7103.200  0.500  1.588723  153.225  31.2864  6.453568
  7103.485  7103.500  0.500  1.588676  153.215  31.2859  6.447258
  7103.787  7103.800  0.500  1.588740  153.204  31.2817  6.438527
  7104.089  7104.100  0.500  1.588926  153.23  31.2811  6.430241
  7104.384  7104.400  0.500  1.588983  153.201  31.2733  6.419926
  7104.688  7104.700  0.500  1.588857  153.212  31.2795  6.412260
  7104.983  7105.000  0.500  1.589083  153.176  31.2653  6.400284
  7105.285  7105.300  0.500  1.589205  153.176  31.2614  6.387600
  7105.591  7105.600  0.500  1.589118  153.139  31.2565  6.375818
  7105.886  7105.900  0.500  1.589343  153.147  31.2512  6.358775
  7106.186  7106.200  0.500  1.589475  153.147  31.2471  6.343365
  7106.490  7106.500  0.500  1.589709  153.12  31.2341  6.325307
  7106.794  7106.800  0.500  1.589909  153.099  31.2237  6.304241
  7107.087  7107.100  0.500  1.590304  153.099  31.2114  6.282253
  7107.383  7107.400  0.500  1.590698  153.078  31.1948  6.255406
  7107.685  7107.700  0.500  1.590952  153.067  31.1846  6.226688
  7107.985  7108.000  0.500  1.591138  153.046  31.1744  6.194448
  7108.291  7108.300  0.500  1.591513  153.032  31.1599  6.156193
  7108.591  7108.600  0.500  1.591977  153  31.1391  6.109024
  7108.891  7108.900  0.500  1.592461  152.981  31.12  6.056747
  7109.188  7109.200  0.500  1.593150  152.953  31.0929  5.989424
  7109.495  7109.500  0.500  1.593915  152.953  31.0692  5.906055
  7109.795  7109.800  0.500  1.595082  152.946  31.0315  5.793148
  7110.095  7110.100  0.500  1.596458  152.921  30.9837  5.640777
  7110.395  7110.400  0.500  1.598575  152.909  30.9158  5.427178
  7110.697  7110.700  0.500  1.601750  152.897  30.8155  5.124825
  7110.995  7111.000  0.500  1.606047  152.873  30.6785  4.736174
  7111.299  7111.300  0.500  1.611120  152.804  30.5095  4.269060
  7111.593  7111.600  0.500  1.615347  152.772  30.3743  3.805631
  7111.889  7111.900  0.500  1.617724  152.739  30.2957  3.389246
  7112.194  7112.200  0.500  1.618383  152.714  30.2708  3.060877
  7112.490  7112.500  0.500  1.617898  152.703  30.2833  2.824909
  7112.796  7112.800  0.500  1.617237  152.672  30.2971  2.643354
  7113.097  7113.100  0.500  1.616551  152.64  30.3116  2.499386
  7113.395  7113.400  0.500  1.616792  152.632  30.3028  2.373040
  7113.699  7113.700  0.500  1.617761  152.609  30.2689  2.254394
  7114.002  7114.000  0.500  1.618508  152.585  30.2415  2.146999
  7114.298  7114.300  0.500  1.618912  152.542  30.2207  2.055275
  7114.603  7114.600  0.500  1.619496  152.536  30.2018  1.977917
  7114.897  7114.900  0.500  1.620967  152.522  30.1548  1.918060
  7115.199  7115.200  0.500  1.624148  152.503  30.0552  1.868989
  7115.498  7115.500  0.500  1.628555  152.484  29.9194  1.830126
  7115.802  7115.800  0.500  1.633907  152.484  29.7596  1.798714
  7116.094  7116.100  0.500  1.640258  152.47  29.5685  1.770345
  7116.393  7116.400  0.500  1.646871  152.45  29.3698  1.741460
  7116.696  7116.700  0.500  1.654028  152.433  29.1571  1.704967
  7116.998  7117.000  0.500  1.662567  152.441  28.9107  1.654732
  7117.299  7117.300  0.500  1.672744  152.42  28.614  1.587948
  7117.598  7117.600  0.500  1.686221  152.4  28.2272  1.499849
  7117.898  7117.900  0.500  1.704375  152.378  27.7153  1.392833
  7118.201  7118.200  0.500  1.728866  152.401  27.0489  1.271691
  7118.506  7118.500  0.500  1.762266  152.354  26.1523  1.141390
  7118.801  7118.800  0.500  1.804400  152.353  25.0732  1.013754
  7119.099  7119.100  0.500  1.854857  152.338  23.8371  0.891616
  7119.400  7119.400  0.500  1.910794  152.295  22.534  0.779355
  7119.699  7119.700  0.500  1.969808  152.274  21.2397  0.678040
  7120.000  7120.000  0.500  2.031477  152.258  19.9674  0.586691
  7120.298  7120.300  0.500  2.095850  152.25  18.7215  0.504628
  7120.595  7120.600  0.500  2.164857  152.22  17.4697  0.431197
  7120.892  7120.900  0.500  2.237807  152.221  16.2408  0.367367
  7121.199  7121.200  0.500  2.312192  152.193  15.0738  0.313247
  7121.500  7121.500  0.500  2.381701  152.18  14.0604  0.270728
  7121.803  7121.800  0.500  2.444469  152.164  13.2036  0.236987
  7122.100  7122.100  0.500  2.500383  152.14  12.4836  0.210073
  7122.399  7122.400  0.500  2.549042  152.112  11.8886  0.188755
  7122.705  7122.700  0.500  2.595063  152.1  11.3529  0.170645
  7123.008  7123.000  0.500  2.638098  152.098  10.8746  0.155630
  7123.301  7123.300  0.500  2.683086  152.074  10.3945  0.141916
  7123.600  7123.600  0.500  2.731429  152.066  9.903494  0.129868
  7123.899  7123.900  0.500  2.785142  152.04  9.383939  0.118576
  7124.200  7124.200  0.500  2.846990  152.02  8.819982  0.107464
  7124.499  7124.500  0.500  2.913701  152.011  8.250311  0.097134
  7124.798  7124.800  0.500  2.983929  151.991  7.689790  0.087841
  7125.095  7125.100  0.500  3.053225  151.994  7.175090  0.079228
  7125.401  7125.400  0.500  3.118729  151.955  6.718448  0.071794
  7125.704  7125.700  0.500  3.175147  151.949  6.349649  0.065748
  7125.999  7126.000  0.500  3.217848  151.931  6.083506  0.061156
  7126.301  7126.300  0.500  3.244798  151.909  5.920880  0.057647
  7126.602  7126.600  0.500  3.252068  151.877  5.876753  0.055521
  7126.900  7126.900  0.500  3.238507  151.87  5.956709  0.054169
  7127.203  7127.200  0.500  3.207959  151.848  6.140573  0.053718
  7127.503  7127.500  0.500  3.167363  151.817  6.393681  0.053691
  7127.802  7127.800  0.500  3.124634  151.788  6.671551  0.053701
  7128.097  7128.100  0.500  3.084371  151.766  6.944637  0.053502
  7128.399  7128.400  0.500  3.047583  151.748  7.204023  0.052725
  7128.698  7128.700  0.500  3.013767  151.739  7.451336  0.052033
  7128.994  7129.000  0.500  2.984353  151.722  7.672931  0.050966
  7129.297  7129.300  0.500  2.958323  151.697  7.873981  0.049734
  7129.597  7129.600  0.500  2.935810  151.694  8.053091  0.048298
  7129.897  7129.900  0.500  2.916561  151.628  8.206020  0.047200
  7130.209  7130.200  0.500  2.898077  151.602  8.357699  0.046248
  7130.500  7130.500  0.500  2.881225  151.583  8.498652  0.045830
  7130.800  7130.800  0.500  2.864072  151.551  8.643863  0.045605
  7131.104  7131.100  0.500  2.846359  151.521  8.796597  0.046102
  7131.397  7131.400  0.500  2.827922  151.434  8.955129  0.047144
  7131.704  7131.700  0.500  2.808527  151.478  9.133203  0.048888
  7132.003  7132.000  0.500  2.789589  151.461  9.306730  0.051201
  7132.299  7132.300  0.500  2.770631  151.453  9.484364  0.053949
  7132.597  7132.600  0.500  2.751245  151.431  9.668620  0.057222
  7132.899  7132.900  0.500  2.730361  151.455  9.874212  0.060832
  7133.201  7133.200  0.500  2.709033  151.454  10.087  0.064852
  7133.498  7133.500  0.500  2.687548  151.664  10.3204  0.069403
  7133.794  7133.800  0.500  2.666740  151.967  10.5584  0.073960
  7134.100  7134.100  0.500  2.646555  151.969  10.7739  0.078371
  7134.398  7134.400  0.500  2.628888  151.961  10.9653  0.082409
  7134.703  7134.700  0.500  2.612710  151.962  11.1442  0.086506
  7135.001  7135.000  0.500  2.598577  151.951  11.302  0.090038
  7135.301  7135.300  0.500  2.585921  151.955  11.4463  0.093342
  7135.607  7135.600  0.500  2.575268  151.95  11.5685  0.096052
  7135.903  7135.900  0.500  2.566351  151.932  11.6707  0.098103
  7136.201  7136.200  0.500  2.559581  151.93  11.7499  0.099884
  7136.497  7136.500  0.500  2.555389  151.94  11.8  0.101040
  7136.797  7136.800  0.500  2.552807  151.936  11.8301  0.101668
  7136.996  7137.000  0.500  2.551868  151.934  11.8411  0.101775
  7137.998  7137.990  0.500  2.553471  151.93  11.8218  0.099790
  7139.003  7138.990  0.500  2.552944  151.91  11.8265  0.095630
  7140.023  7140.010  0.500  2.547240  151.935  11.8961  0.091502
  7141.083  7141.060  0.500  2.543637  151.93  11.9386  0.088886
  7142.117  7142.120  0.500  2.544422  151.925  11.9289  0.088372
  7143.194  7143.200  0.500  2.547785  151.919  11.8884  0.089223
  7144.298  7144.300  0.500  2.543651  151.912  11.9371  0.091010
  7145.426  7145.420  0.500  2.520311  151.922  12.2198  0.092854
  7146.563  7146.560  0.500  2.480647  151.923  12.7143  0.092960
  7147.713  7147.710  0.500  2.440062  151.915  13.2402  0.090996
  7148.895  7148.890  0.500  2.407725  151.903  13.6742  0.087722
  7150.083  7150.080  0.500  2.387930  151.88  13.9455  0.085170
  7151.301  7151.300  0.500  2.379310  151.915  14.0695  0.083584
  7152.529  7152.530  0.500  2.380842  151.893  14.046  0.081423
  7153.782  7153.780  0.500  2.390969  151.88  13.9033  0.080028
  7155.054  7155.050  0.500  2.403456  151.867  13.7295  0.079635
  7156.340  7156.340  0.500  2.415473  151.864  13.5653  0.080016
  7157.654  7157.650  0.500  2.426533  151.844  13.4143  0.080527
  7158.986  7158.980  0.500  2.439797  151.829  13.2363  0.080023
  7160.337  7160.330  0.500  2.457030  151.799  13.0075  0.078682
  7161.707  7161.700  0.500  2.477775  151.773  12.7383  0.077658
  7163.080  7163.080  0.500  2.503531  151.741  12.4118  0.076882
  7164.493  7164.490  0.500  2.535498  151.708  12.0187  0.076094
  7165.913  7165.910  0.500  2.568835  151.659  11.6208  0.074901
  7167.349  7167.350  0.500  2.599731  151.628  11.265  0.073475
  7168.818  7168.810  0.500  2.624329  151.594  10.9888  0.072558
  7170.294  7170.290  0.500  2.642107  151.563  10.793  0.072625
  7171.795  7171.790  0.500  2.656245  151.526  10.6389  0.073632
  7173.323  7173.310  0.500  2.658204  151.51  10.6169  0.076749
  7174.853  7174.850  0.500  2.650160  151.486  10.701  0.081481
  7176.418  7176.410  0.500  2.635504  151.443  10.8558  0.087364
  7177.989  7177.980  0.500  2.617757  151.435  11.0497  0.093723
  7179.583  7179.580  0.500  2.599925  151.412  11.2468  0.098661
  7181.193  7181.190  0.500  2.585079  151.39  11.4133  0.100999
  7182.834  7182.830  0.500  2.573712  151.365  11.5419  0.101255
  7184.487  7184.480  0.500  2.565163  151.257  11.6327  0.099854
  7186.159  7186.150  0.500  2.557482  151.288  11.7248  0.096806
  7187.849  7187.840  0.500  2.548392  151.269  11.8303  0.092843
  7189.559  7189.550  0.500  2.538884  151.23  11.9403  0.088663
  7191.290  7191.280  0.500  2.529657  149.649  11.925  0.083230
  7193.044  7193.030  0.500  2.519326  150.878  12.1477  0.080196
  7194.796  7194.790  0.500  2.508360  151.052  12.2959  0.079649
  7196.593  7196.580  0.500  2.496499  151.054  12.4428  0.082317
  7198.392  7198.380  0.500  2.485142  151.004  12.5807  0.087424
  7200.217  7200.210  0.500  2.475541  150.946  12.6972  0.094231
  7202.055  7202.050  0.500  2.468725  150.918  12.7817  0.102139
  7203.918  7203.910  0.500  2.463611  150.865  12.8427  0.111166
  7205.806  7205.790  0.500  2.458912  150.835  12.9006  0.119920
  7207.701  7207.690  0.500  2.454249  150.782  12.9563  0.124129
  7209.616  7209.610  0.500  2.450312  150.723  13.0023  0.121041
  7211.562  7211.550  0.500  2.446849  150.67  13.0429  0.109055
  7213.523  7213.510  0.500  2.443751  150.648  13.0814  0.092781
  7215.493  7215.480  0.500  2.443097  150.574  13.0836  0.077459
  7217.489  7217.480  0.500  2.445357  150.516  13.049  0.066302
  7219.502  7219.490  0.500  2.449835  150.461  12.986  0.060019
  7221.533  7221.520  0.500  2.455823  150.41  12.904  0.058579
  7223.595  7223.580  0.500  2.462660  150.342  12.8104  0.061903
  7225.660  7225.650  0.500  2.469320  150.226  12.7155  0.069421
  7227.755  7227.740  0.500  2.474993  147.597  12.4223  0.078261
  7229.860  7229.850  0.500  2.479677  150.412  12.6001  0.091784
  7231.989  7231.980  0.500  2.483042  150.348  12.5524  0.105479
  7234.130  7234.120  0.500  2.484930  150.292  12.524  0.118376
  7236.299  7236.290  0.500  2.485575  150.247  12.5122  0.127621
  7238.491  7238.480  0.500  2.484978  150.219  12.5173  0.131899
  7240.692  7240.680  0.500  2.483538  150.169  12.5312  0.131390
  7242.910  7242.900  0.500  2.481618  150.137  12.5527  0.127088
  7245.162  7245.150  0.500  2.478121  147.318  12.3601  0.118848
  7247.419  7247.410  0.500  2.473269  149.873  12.6356  0.116176
  7249.701  7249.690  0.500  2.467991  149.871  12.7023  0.114161
  7252.000  7251.990  0.500  2.462145  149.771  12.7683  0.116009
  7254.324  7254.310  0.500  2.456765  147.391  12.6332  0.118361
  7256.664  7256.650  0.500  2.451367  149.85  12.9134  0.123660
  7259.008  7259.000  0.500  2.446240  149.713  12.9679  0.122904
  7261.397  7261.380  0.500  2.442099  149.261  12.9824  0.119720
  7263.782  7263.770  0.500  2.438613  138.353  12.0757  0.108304
  7266.201  7266.190  0.500  2.433936  149.468  13.107  0.114933
  7268.637  7268.620  0.500  2.429491  150.065  13.218  0.112803
  7271.081  7271.070  0.500  2.425070  149.992  13.2701  0.107810
  7273.563  7273.550  0.500  2.420921  148.769  13.2166  0.101700
  7276.053  7276.040  0.500  2.416517  150.009  13.3855  0.099885
  7278.555  7278.550  0.500  2.412281  149.932  13.4355  0.098341
  7281.089  7281.070  0.500  2.408047  149.896  13.4893  0.096160
  7283.630  7283.620  0.500  2.403755  148.839  13.4518  0.092093
  7286.200  7286.190  0.500  2.398770  149.542  13.5829  0.089714
  7288.783  7288.770  0.500  2.393920  149.651  13.6588  0.089046
  7291.398  7291.380  0.500  2.388808  149.611  13.7251  0.092557
  7294.007  7294.000  0.500  2.383579  149.574  13.7937  0.101202
  7296.664  7296.650  0.500  2.378387  149.486  13.8574  0.112251
  7299.327  7299.310  0.500  2.374128  149.377  13.9063  0.123491
  7302.003  7301.990  0.500  2.370716  147.704  13.7976  0.131817
  7304.709  7304.690  0.500  2.368265  149.502  13.9999  0.141179
  7307.424  7307.410  0.500  2.366205  149.415  14.0206  0.146255
  7310.157  7310.150  0.500  2.364301  149.362  14.0423  0.148428
  7312.914  7312.900  0.500  2.363172  149.308  14.053  0.148356
  7315.694  7315.680  0.500  2.361809  149.214  14.0633  0.148511
  7318.486  7318.470  0.500  2.360217  149.161  14.0807  0.149251
  7321.302  7321.290  0.500  2.358679  149.112  14.0978  0.150073
  7324.132  7324.120  0.500  2.356568  149.028  14.1196  0.151034
  7326.981  7326.970  0.500  2.354240  148.972  14.1473  0.151476
  7329.863  7329.850  0.500  2.351561  148.905  14.1788  0.152746
  7332.750  7332.740  0.500  2.348794  148.837  14.2116  0.155752
  7335.663  7335.650  0.500  2.346068  148.769  14.2438  0.159818
  7338.587  7338.570  0.500  2.342951  147.526  14.1689  0.160824
  7341.532  7341.520  0.500  2.339712  148.531  14.3117  0.160983
  7344.497  7344.490  0.500  2.336545  148.528  14.3568  0.155805
  7347.484  7347.470  0.500  2.332875  148.472  14.4042  0.147999
  7350.493  7350.480  0.500  2.329045  148.413  14.4537  0.140338
  7353.515  7353.500  0.500  2.325309  148.348  14.5015  0.134386
  7356.562  7356.550  0.500  2.320967  148.278  14.5577  0.129262
  7359.621  7359.610  0.500  2.316255  148.187  14.6175  0.124911
  7362.696  7362.690  0.500  2.311988  148.126  14.674  0.122042
  7365.799  7365.790  0.500  2.307290  148.049  14.7354  0.121329
  7368.921  7368.910  0.500  2.302863  147.992  14.7951  0.123183
  7372.063  7372.050  0.500  2.298033  147.921  14.8596  0.129042
  7375.216  7375.200  0.500  2.293134  147.849  14.9253  0.139178
  7378.397  7378.380  0.500  2.288022  147.752  14.9919  0.154478
  7381.584  7381.570  0.500  2.282985  147.68  15.0603  0.171677
  7384.799  7384.790  0.500  2.277963  147.591  15.1271  0.185424
  7388.028  7388.020  0.500  2.273089  147.538  15.1955  0.191408
  7391.282  7391.270  0.500  2.268351  147.434  15.2569  0.191089
  7394.561  7394.550  0.500  2.263689  147.384  15.3229  0.188569
  7397.844  7397.840  0.500  2.259068  147.277  15.3828  0.186811
  7401.155  7401.150  0.500  2.254838  147.195  15.4394  0.187360
  7404.483  7404.470  0.500  2.250929  147.124  15.4924  0.188711
  7407.831  7407.820  0.500  2.247211  147.547  15.5947  0.189839
  7411.201  7411.190  0.500  2.243826  147.496  15.6422  0.190083
  7414.578  7414.570  0.500  2.240708  147.391  15.6799  0.190251
  7417.992  7417.980  0.500  2.237677  147.291  15.7169  0.191654
  7421.404  7421.400  0.500  2.235185  147.179  15.7441  0.194208
  7424.861  7424.850  0.500  2.232280  147.078  15.7791  0.198664
  7428.322  7428.310  0.500  2.229367  146.979  15.8144  0.202111
  7431.800  7431.790  0.500  2.226483  146.893  15.8508  0.202720
  7435.301  7435.290  0.500  2.223012  146.792  15.895  0.202275
  7438.816  7438.810  0.500  2.219351  146.671  15.9401  0.199690
  7442.354  7442.350  0.500  2.215987  146.521  15.9775  0.194829
  7445.910  7445.900  0.500  2.212112  142.617  15.6121  0.184786
  7449.488  7449.480  0.500  2.207873  146.457  16.1006  0.186544
  7453.098  7453.080  0.500  2.203591  145.187  16.0295  0.184317
  7456.707  7456.690  0.500  2.199250  146.227  16.2145  0.186683
  7460.336  7460.320  0.500  2.194500  145.63  16.2253  0.188119
  7463.995  7463.980  0.500  2.190222  146.019  16.3383  0.192178
  7467.662  7467.650  0.500  2.185911  142.012  15.9587  0.192653
  7471.347  7471.340  0.500  2.181559  145.975  16.4755  0.205823
  7475.063  7475.050  0.500  2.177110  145.797  16.5289  0.213187
  7478.794  7478.780  0.500  2.172706  145.667  16.5869  0.219071
  7482.528  7482.520  0.500  2.168457  145.565  16.6459  0.224333
  7486.322  7486.290  0.500  2.164242  145.416  16.6991  0.231646
  7490.093  7490.080  0.500  2.160013  145.3  16.7565  0.238506
  7493.897  7493.880  0.500  2.155603  145.116  16.8093  0.244104
  7497.729  7497.710  0.500  2.151192  145.071  16.8784  0.246724
  7501.570  7501.550  0.500  2.146832  144.966  16.9399  0.246726
  7505.422  7505.410  0.500  2.142226  144.843  17.0035  0.246305
  7509.309  7509.290  0.500  2.137743  144.707  17.064  0.246669
  7513.177  7513.190  0.500  2.133311  144.585  17.1253  0.248814
  7517.106  7517.110  0.500  2.128860  144.439  17.1843  0.251747
  7521.047  7521.050  0.500  2.124535  144.325  17.2452  0.254098
  7525.009  7525.010  0.500  2.120416  144.165  17.2972  0.255556
  7528.978  7528.980  0.500  2.116261  144.046  17.3548  0.256267
  7532.989  7532.980  0.500  2.112017  143.927  17.4143  0.256870
  7537.025  7536.990  0.500  2.108033  143.779  17.4658  0.258579
  7541.034  7541.030  0.500  2.104023  143.664  17.522  0.261263
  7545.115  7545.080  0.500  2.099975  143.491  17.5718  0.264155
  7549.144  7549.150  0.500  2.095921  143.31  17.621  0.266038
  7553.268  7553.240  0.500  2.091882  143.197  17.6783  0.266931
  7557.351  7557.350  0.500  2.087841  143.071  17.7343  0.265701
  7561.477  7561.480  0.500  2.083736  142.888  17.7845  0.264340
  7565.615  7565.630  0.500  2.079595  142.756  17.8418  0.264875
  7569.779  7569.790  0.500  2.075651  142.578  17.8899  0.267394
  7573.978  7573.980  0.500  2.071404  142.45  17.95  0.273022
  7578.194  7578.180  0.500  2.066959  142.339  18.0158  0.280099
  7582.427  7582.410  0.500  2.062711  142.166  18.0706  0.287701
  7586.635  7586.650  0.500  2.058443  141.959  18.1215  0.293884
  7590.898  7590.910  0.500  2.054286  141.738  18.1685  0.298111
  7595.177  7595.190  0.500  2.049937  141.526  18.2205  0.300672
  7599.472  7599.490  0.500  2.045638  141.265  18.2652  0.302427
  7603.816  7603.810  0.500  2.041628  140.67  18.2614  0.303648
  7608.169  7608.150  0.500  2.037328  140.478  18.315  0.307889
  7612.494  7612.510  0.500  2.032805  140.293  18.3738  0.312682
  7616.915  7616.890  0.500  2.028368  140.23  18.4472  0.317044
  7621.272  7621.280  0.500  2.023960  140.286  18.5362  0.319119
  7625.719  7625.700  0.500  2.019365  140.294  18.6226  0.320907
  7630.151  7630.130  0.500  2.015050  140.186  18.6887  0.323138
  7634.576  7634.580  0.500  2.010628  140.011  18.7481  0.327406
  7639.041  7639.050  0.500  2.005893  139.859  18.8166  0.333094
  7643.561  7643.540  0.500  2.001370  139.684  18.8783  0.338524
  7648.067  7648.050  0.500  1.996768  139.526  18.9439  0.343840
  7652.591  7652.580  0.500  1.992272  139.391  19.0109  0.347422
  7657.113  7657.130  0.500  1.987621  139.238  19.0785  0.350618
  7661.678  7661.700  0.500  1.982879  139.064  19.1452  0.352736
  7666.302  7666.280  0.500  1.978339  138.857  19.2038  0.354134
  7670.873  7670.890  0.500  1.973867  138.643  19.2601  0.354987
  7675.506  7675.510  0.500  1.969403  138.404  19.3129  0.356187
  7680.146  7680.160  0.500  1.964999  138.213  19.3715  0.357441
  7684.795  7684.820  0.500  1.960755  137.918  19.4122  0.359367
  7689.488  7689.500  0.500  1.956322  138.071  19.5202  0.363937
  7694.197  7694.200  0.500  1.952129  137.788  19.5619  0.368599
  7698.909  7698.920  0.500  1.947430  137.58  19.6245  0.373909
  7703.685  7703.660  0.500  1.943389  137.324  19.6673  0.378048
  7708.394  7708.410  0.500  1.938917  137.228  19.7416  0.383287
  7713.183  7713.190  0.500  1.934591  136.992  19.7931  0.388650
  7717.998  7717.990  0.500  1.930347  136.738  19.8404  0.394052
  7722.791  7722.800  0.500  1.926128  136.588  19.9025  0.399544
  7727.618  7727.630  0.500  1.921399  136.353  19.9624  0.403337
  7732.485  7732.490  0.500  1.916818  136.19  20.03  0.407328
  7737.351  7737.360  0.500  1.912356  135.852  20.0697  0.410564
  7742.266  7742.250  0.500  1.907906  135.926  20.1701  0.415468
  7747.134  7747.160  0.500  1.903486  135.633  20.2159  0.419370
  7752.070  7752.090  0.500  1.898667  135.437  20.2842  0.423228
  7757.046  7757.030  0.500  1.894359  135.223  20.3396  0.427033
  7761.987  7762.000  0.500  1.889854  135.004  20.3982  0.431888
  7767.013  7766.990  0.500  1.885200  134.817  20.4651  0.437653
  7771.972  7771.990  0.500  1.880484  134.62  20.5317  0.443001
  7777.013  7777.020  0.500  1.875839  134.441  20.6  0.448807
  7782.084  7782.060  0.500  1.871326  134.206  20.6569  0.453791
  7787.113  7787.120  0.500  1.866673  133.969  20.7166  0.458208
  7792.195  7792.200  0.500  1.862221  133.785  20.7805  0.462523
  7797.292  7797.300  0.500  1.857919  133.533  20.8307  0.466407
  7802.409  7802.420  0.500  1.853124  133.365  20.9045  0.470712
  7807.579  7807.560  0.500  1.848358  133.163  20.9726  0.474057
  7812.702  7812.720  0.500  1.843831  132.968  21.037  0.478352
  7817.918  7817.900  0.500  1.839011  132.763  21.1059  0.482435
  7823.112  7823.090  0.500  1.834407  132.569  21.1724  0.487038
  7828.335  7828.310  0.500  1.829811  132.355  21.2355  0.491448
  7833.525  7833.540  0.500  1.825124  132.138  21.3003  0.496200
  7838.767  7838.790  0.500  1.820817  131.641  21.3118  0.499140
  7844.048  7844.060  0.500  1.816076  131.743  21.4296  0.505485
  7849.331  7849.350  0.500  1.811665  131.436  21.4743  0.510486
  7854.653  7854.660  0.500  1.807255  130.347  21.3905  0.511973
  7860.004  7859.990  0.500  1.802605  130.992  21.5966  0.521267
  7865.341  7865.340  0.500  1.797923  130.729  21.6543  0.527075
  7870.693  7870.710  0.500  1.793520  130.52  21.7151  0.533641
  7876.074  7876.090  0.500  1.788966  130.3  21.7775  0.539450
  7881.487  7881.500  0.500  1.784395  130.061  21.8371  0.545262
  7886.902  7886.920  0.500  1.779900  129.817  21.8943  0.551359
  7892.346  7892.370  0.500  1.775382  129.481  21.9365  0.556554
  7897.811  7897.830  0.500  1.770913  129.214  21.9894  0.562119
  7903.287  7903.310  0.500  1.766339  129.013  22.0558  0.568474
  7908.789  7908.810  0.500  1.761712  128.812  22.1234  0.574500
  7914.307  7914.330  0.500  1.757286  128.51  22.1696  0.579858
  7919.846  7919.870  0.500  1.752856  128.301  22.2318  0.585631
  7925.423  7925.420  0.500  1.748249  128.026  22.2867  0.591281
  7930.974  7931.000  0.500  1.743507  127.624  22.3222  0.596355
  7936.575  7936.600  0.500  1.738829  127.206  22.3535  0.600728
  7942.190  7942.210  0.500  1.734250  127.195  22.454  0.607007
  7947.818  7947.850  0.500  1.729734  126.855  22.4955  0.611699
  7953.474  7953.500  0.500  1.725051  126.507  22.539  0.616889
  7959.143  7959.170  0.500  1.720484  126.257  22.5973  0.622518
  7964.840  7964.860  0.500  1.715858  125.895  22.6371  0.627402