File: xdidata/Fe/Fe-Goethite.xdi
# XDI/1.0 BlueSky/1.10.0 BMM/2023-1.0-py310-tiled
# Beamline.name: BMM (06BM) -- Beamline for Materials Measurement (NIST)
# Beamline.xray_source: NSLS-II three-pole wiggler
# Beamline.collimation: paraboloid mirror, 5 nm Rh on 30 nm Pt
# Beamline.focusing: not in use
# Beamline.harmonic_rejection: flat mirror, Si stripe, pitch = 7.0 mrad relative to beam
# Beamline.software: Bluesky 1.10.0, Ophyd 1.7.0, DataBroker 2.0.0b13, Python 3.10.8, 2023-1.0-py310-tiled
# Detector.I0: 10 cm N2
# Detector.I1: 25 cm N2
# Detector.I2: 25 cm N2
# Element.symbol: Fe
# Element.edge: K
# Element.reference: Fe
# Element.reference_material: Fe foil
# Facility.name: NSLS-II
# Facility.energy: 3.0
# Facility.current: 399.8
# Facility.mode: top-off
# Facility.GUP: 123456
# Facility.SAF: 301027
# Facility.cycle: 2023-2
# Mono.name: Si(111)
# Mono.d_spacing: 3.13519
# Mono.encoder_resolution: 0.0000050 deg/ct
# Mono.angle_offset: 16.0754 deg
# Mono.scan_mode: pseudo channel cut
# Mono.scan_type: step
# Mono.direction: forward in energy
# Sample.name: alpha-FeOOH
# Sample.prep: powder on tape
# Sample.x: 116.329 mm
# Sample.y: 114.126 mm
# Sample.SDD_position: 205.000 mm
# Scan.experimenters: Bruce Ravel
# Scan.edge_energy: 7112.0
# Scan.start_time: 2023-05-05T16:55:27
# Scan.end_time: 2023-05-05T17:03:29
# Scan.transient_id: 74501
# Scan.uid: d1d36b6e-e2c4-453a-b150-3f4e26ce3441
# Scan.plot_hint: ln(I0/It)  --  ln($5/$6)
# Column.1: energy eV
# Column.2: requested_energy eV
# Column.3: measurement_time seconds
# Column.4: xmu
# Column.5: I0 nA
# Column.6: It nA
# Column.7: Ir nA
# ///////////
# Welcome to BMM
# -----------
# energy  requested_energy  measurement_time  xmu  I0  It  Ir
  6911.997  6912.000  0.500  1.578682  153.815  31.7239  5.955437
  6922.011  6922.000  0.500  1.569183  153.669  31.9963  6.049411
  6932.015  6932.000  0.500  1.559538  153.648  32.3019  6.149982
  6942.007  6942.000  0.500  1.550088  153.681  32.6157  6.253968
  6952.061  6952.000  0.500  1.540529  153.684  32.9296  6.356852
  6962.008  6962.000  0.500  1.531045  153.706  33.248  6.464407
  6972.008  6972.000  0.500  1.521845  153.715  33.5573  6.570793
  6982.021  6982.000  0.500  1.512468  153.689  33.8678  6.674718
  6992.020  6992.000  0.500  1.503175  153.688  34.1837  6.784498
  7002.017  7002.000  0.500  1.494125  153.647  34.4853  6.889594
  7012.016  7012.000  0.500  1.484895  153.606  34.7958  6.998569
  7022.014  7022.000  0.500  1.475865  153.567  35.1024  7.104746
  7032.018  7032.000  0.500  1.466894  153.531  35.4105  7.212765
  7042.017  7042.000  0.500  1.458033  153.46  35.7091  7.319276
  7052.013  7052.000  0.500  1.449037  153.386  36.0145  7.426122
  7062.008  7062.000  0.500  1.440091  152.594  36.1505  7.495295
  7072.013  7072.000  0.500  1.431282  153.194  36.6137  7.628703
  7083.313  7082.000  0.500  1.422271  152.263  36.7207  7.680371
  7083.976  7084.000  0.500  1.421070  153.098  36.9664  7.733483
  7085.985  7086.000  0.500  1.419300  153.222  37.0618  7.754885
  7087.988  7088.000  0.500  1.417764  153.227  37.1201  7.769081
  7089.983  7090.000  0.500  1.415979  153.225  37.1859  7.781556
  7091.984  7092.000  0.500  1.414252  153.237  37.2529  7.793481
  7094.407  7094.000  0.500  1.412328  153.177  37.3103  7.798259
  7096.016  7096.000  0.500  1.410758  153.14  37.3597  7.800620
  7097.997  7098.000  0.500  1.409179  153.134  37.4174  7.798619
  7099.992  7100.000  0.500  1.407598  153.137  37.4774  7.790314
  7101.997  7102.000  0.500  1.406013  153.099  37.5274  7.766511
  7102.288  7102.300  0.500  1.405782  153.075  37.5303  7.762094
  7102.585  7102.600  0.500  1.405535  153.095  37.5444  7.758177
  7102.884  7102.900  0.500  1.405223  153.085  37.5536  7.753295
  7103.186  7103.200  0.500  1.404977  153.067  37.5585  7.746805
  7103.481  7103.500  0.500  1.404761  153.548  37.6847  7.763225
  7103.785  7103.800  0.500  1.404402  153.578  37.7055  7.758720
  7104.089  7104.100  0.500  1.404117  153.557  37.7111  7.750497
  7104.384  7104.400  0.500  1.403970  153.562  37.718  7.741064
  7104.681  7104.700  0.500  1.403716  153.557  37.7263  7.731778
  7104.987  7105.000  0.500  1.403594  153.537  37.7258  7.718783
  7105.283  7105.300  0.500  1.403534  153.533  37.7272  7.706397
  7105.589  7105.600  0.500  1.403489  153.531  37.7283  7.690815
  7105.886  7105.900  0.500  1.402961  153.516  37.7446  7.677048
  7106.188  7106.200  0.500  1.402590  153.516  37.7587  7.661953
  7106.492  7106.500  0.500  1.402400  153.52  37.7668  7.644518
  7106.796  7106.800  0.500  1.402188  153.506  37.7714  7.623230
  7107.092  7107.100  0.500  1.402132  153.489  37.7694  7.598144
  7107.387  7107.400  0.500  1.402028  153.48  37.771  7.569462
  7107.689  7107.700  0.500  1.401848  153.47  37.7754  7.537584
  7107.989  7108.000  0.500  1.401578  153.477  37.7872  7.502876
  7108.289  7108.300  0.500  1.401235  153.464  37.797  7.459411
  7108.586  7108.600  0.500  1.400966  153.447  37.803  7.408254
  7108.888  7108.900  0.500  1.400600  153.449  37.8175  7.348330
  7109.184  7109.200  0.500  1.400559  153.449  37.819  7.272622
  7109.495  7109.500  0.500  1.400433  153.426  37.818  7.169717
  7109.793  7109.800  0.500  1.400277  153.427  37.824  7.038093
  7110.095  7110.100  0.500  1.400058  153.401  37.826  6.850138
  7110.395  7110.400  0.500  1.399898  153.385  37.8282  6.587401
  7110.697  7110.700  0.500  1.399757  153.349  37.8245  6.220705
  7110.995  7111.000  0.500  1.399703  153.321  37.8196  5.743167
  7111.299  7111.300  0.500  1.399502  153.292  37.8203  5.191937
  7111.595  7111.600  0.500  1.399613  153.271  37.8108  4.642286
  7111.889  7111.900  0.500  1.399660  153.235  37.8002  4.156213
  7112.191  7112.200  0.500  1.400047  153.197  37.7762  3.770091
  7112.494  7112.500  0.500  1.400725  153.173  37.7447  3.480412
  7112.790  7112.800  0.500  1.401441  153.146  37.7109  3.262322
  7113.092  7113.100  0.500  1.401972  153.118  37.6839  3.082307
  7113.393  7113.400  0.500  1.402253  153.095  37.6678  2.925683
  7113.691  7113.700  0.500  1.402498  153.085  37.6562  2.782691
  7114.002  7114.000  0.500  1.403017  153.069  37.6326  2.650937
  7114.298  7114.300  0.500  1.403505  153.05  37.6095  2.540047
  7114.596  7114.600  0.500  1.403437  153.037  37.6091  2.449486
  7114.899  7114.900  0.500  1.402650  153.011  37.6321  2.381866
  7115.199  7115.200  0.500  1.402048  153.002  37.6526  2.332653
  7115.504  7115.500  0.500  1.401234  152.984  37.6788  2.298388
  7115.802  7115.800  0.500  1.400745  152.962  37.6919  2.274144
  7116.094  7116.100  0.500  1.400726  152.936  37.6862  2.252276
  7116.391  7116.400  0.500  1.400682  152.914  37.6825  2.229359
  7116.696  7116.700  0.500  1.400573  152.893  37.6813  2.196694
  7116.996  7117.000  0.500  1.400474  152.848  37.674  2.146475
  7117.295  7117.300  0.500  1.400397  152.826  37.6716  2.075904
  7117.595  7117.600  0.500  1.400454  152.789  37.6603  1.982649
  7117.894  7117.900  0.500  1.400515  152.765  37.6519  1.868925
  7118.201  7118.200  0.500  1.400531  152.739  37.6451  1.742691
  7118.504  7118.500  0.500  1.400597  152.713  37.6361  1.614397
  7118.801  7118.800  0.500  1.400791  152.677  37.6199  1.492673
  7119.099  7119.100  0.500  1.401006  152.645  37.6039  1.378917
  7119.402  7119.400  0.500  1.401413  152.622  37.5831  1.271605
  7119.703  7119.700  0.500  1.402106  152.583  37.5474  1.172246
  7120.002  7120.000  0.500  1.402991  152.557  37.5079  1.076551
  7120.298  7120.300  0.500  1.404387  152.518  37.4457  0.985006
  7120.597  7120.600  0.500  1.405977  152.507  37.3836  0.901145
  7120.896  7120.900  0.500  1.408308  152.455  37.284  0.824450
  7121.199  7121.200  0.500  1.410892  152.442  37.1845  0.757054
  7121.502  7121.500  0.500  1.414030  152.408  37.0597  0.699542
  7121.797  7121.800  0.500  1.417454  152.384  36.9272  0.652937
  7122.098  7122.100  0.500  1.421879  152.345  36.7549  0.609366
  7122.399  7122.400  0.500  1.427073  152.331  36.5609  0.572297
  7122.705  7122.700  0.500  1.432669  152.279  36.3447  0.539299
  7123.004  7123.000  0.500  1.438499  152.267  36.1305  0.510478
  7123.303  7123.300  0.500  1.444520  152.249  35.9094  0.484849
  7123.602  7123.600  0.500  1.450370  152.215  35.6919  0.462937
  7123.905  7123.900  0.500  1.455755  152.188  35.4938  0.443022
  7124.200  7124.200  0.500  1.461408  152.135  35.2816  0.425150
  7124.499  7124.500  0.500  1.466970  152.13  35.0846  0.408498
  7124.800  7124.800  0.500  1.472960  152.118  34.8725  0.392570
  7125.095  7125.100  0.500  1.479265  152.084  34.6454  0.377895
  7125.397  7125.400  0.500  1.486540  152.039  34.3842  0.363387
  7125.698  7125.700  0.500  1.494230  151.996  34.1111  0.349489
  7125.997  7126.000  0.500  1.502253  151.975  33.834  0.336361
  7126.299  7126.300  0.500  1.510631  151.953  33.5468  0.323108
  7126.600  7126.600  0.500  1.519712  151.925  33.2375  0.309704
  7126.904  7126.900  0.500  1.528892  151.89  32.9261  0.295745
  7127.203  7127.200  0.500  1.537990  151.868  32.6231  0.282388
  7127.503  7127.500  0.500  1.547429  151.836  32.3099  0.268320
  7127.802  7127.800  0.500  1.556373  151.799  32.0143  0.254497
  7128.099  7128.100  0.500  1.565471  151.78  31.7203  0.241032
  7128.407  7128.400  0.500  1.575212  151.745  31.4058  0.227315
  7128.701  7128.700  0.500  1.584911  151.714  31.0963  0.214103
  7128.994  7129.000  0.500  1.593542  151.7  30.8261  0.201704
  7129.295  7129.300  0.500  1.601310  151.663  30.5802  0.190318
  7129.597  7129.600  0.500  1.607375  151.638  30.3901  0.180192
  7129.901  7129.900  0.500  1.611561  151.595  30.2548  0.171607
  7130.203  7130.200  0.500  1.613700  151.565  30.1841  0.165158
  7130.500  7130.500  0.500  1.614611  151.533  30.1502  0.160479
  7130.802  7130.800  0.500  1.614143  151.497  30.1571  0.157651
  7131.104  7131.100  0.500  1.612932  151.464  30.1871  0.156891
  7131.408  7131.400  0.500  1.611055  151.435  30.2381  0.158317
  7131.701  7131.700  0.500  1.609034  151.412  30.2946  0.161543
  7132.005  7132.000  0.500  1.606920  151.405  30.3573  0.166626
  7132.303  7132.300  0.500  1.605164  151.398  30.4092  0.172760
  7132.603  7132.600  0.500  1.603613  151.378  30.4525  0.180169
  7132.899  7132.900  0.500  1.602468  151.385  30.4887  0.187921
  7133.201  7133.200  0.500  1.601529  151.369  30.5142  0.196630
  7133.494  7133.500  0.500  1.600502  151.373  30.5464  0.205617
  7133.800  7133.800  0.500  1.599300  151.375  30.5834  0.214320
  7134.100  7134.100  0.500  1.597810  151.351  30.6243  0.223340
  7134.396  7134.400  0.500  1.596137  151.351  30.6755  0.231200
  7134.701  7134.700  0.500  1.594531  151.351  30.7247  0.238704
  7135.003  7135.000  0.500  1.592403  151.358  30.7917  0.245314
  7135.305  7135.300  0.500  1.590135  151.349  30.8598  0.251422
  7135.605  7135.600  0.500  1.588194  151.34  30.918  0.256481
  7135.903  7135.900  0.500  1.586418  151.319  30.9686  0.260428
  7136.201  7136.200  0.500  1.585161  151.318  31.0072  0.263201
  7136.503  7136.500  0.500  1.583525  151.314  31.0573  0.265184
  7136.804  7136.800  0.500  1.582676  151.294  31.0795  0.266128
  7136.996  7137.000  0.500  1.581616  151.295  31.1128  0.266572
  7137.992  7137.990  0.500  1.576286  151.296  31.2791  0.262564
  7139.007  7138.990  0.500  1.568628  151.304  31.5213  0.253221
  7140.023  7140.010  0.500  1.560035  151.287  31.7897  0.242920
  7141.074  7141.060  0.500  1.552917  151.292  32.0179  0.236964
  7142.138  7142.120  0.500  1.547670  151.28  32.1837  0.237250
  7143.227  7143.200  0.500  1.543018  151.288  32.3356  0.242162
  7144.296  7144.300  0.500  1.539278  151.259  32.4504  0.246912
  7145.411  7145.420  0.500  1.536572  151.27  32.5408  0.246143
  7146.557  7146.560  0.500  1.533727  151.264  32.6321  0.237323
  7147.709  7147.710  0.500  1.530208  151.255  32.7454  0.223387
  7148.888  7148.890  0.500  1.524574  151.252  32.9297  0.209718
  7150.080  7150.080  0.500  1.517316  151.252  33.1696  0.201617
  7151.308  7151.300  0.500  1.509118  151.25  33.4421  0.197418
  7152.532  7152.530  0.500  1.502298  151.246  33.67  0.194566
  7153.779  7153.780  0.500  1.497085  151.234  33.8435  0.193939
  7155.056  7155.050  0.500  1.492768  151.212  33.9848  0.196447
  7156.346  7156.340  0.500  1.488852  151.207  34.117  0.201068
  7157.650  7157.650  0.500  1.485224  151.187  34.2365  0.204805
  7158.982  7158.980  0.500  1.482420  151.154  34.3251  0.206357
  7160.337  7160.330  0.500  1.480821  151.13  34.3747  0.207344
  7161.705  7161.700  0.500  1.480252  151.1  34.3873  0.209127
  7163.082  7163.080  0.500  1.481211  151.533  34.4529  0.212872
  7164.493  7164.490  0.500  1.482642  151.581  34.4144  0.217081
  7165.909  7165.910  0.500  1.484409  151.546  34.3459  0.220549
  7167.355  7167.350  0.500  1.486852  151.506  34.253  0.222729
  7168.820  7168.810  0.500  1.489677  151.475  34.1494  0.224717
  7170.294  7170.290  0.500  1.492663  151.457  34.0435  0.228043
  7171.795  7171.790  0.500  1.495711  151.423  33.9323  0.234208
  7173.312  7173.310  0.500  1.499073  151.399  33.813  0.243853
  7174.858  7174.850  0.500  1.502540  151.348  33.6847  0.255878
  7176.409  7176.410  0.500  1.504755  151.317  33.6033  0.270196
  7177.985  7177.980  0.500  1.504896  151.319  33.599  0.284677
  7179.594  7179.580  0.500  1.503455  151.297  33.6425  0.294583
  7181.193  7181.190  0.500  1.501091  151.275  33.7171  0.297371
  7182.839  7182.830  0.500  1.498799  151.24  33.7867  0.294978
  7184.487  7184.480  0.500  1.496736  151.223  33.8527  0.289368
  7186.152  7186.150  0.500  1.495522  151.197  33.888  0.278349
  7187.849  7187.840  0.500  1.493584  151.186  33.9513  0.264369
  7189.559  7189.550  0.500  1.492183  151.161  33.9934  0.250720
  7191.290  7191.280  0.500  1.490708  149.439  33.6556  0.233449
  7193.035  7193.030  0.500  1.488964  150.803  34.022  0.223776
  7194.803  7194.790  0.500  1.487405  150.959  34.1105  0.220262
  7196.587  7196.580  0.500  1.485775  150.952  34.1646  0.225494
  7198.394  7198.380  0.500  1.483851  150.927  34.2245  0.237547
  7200.215  7200.210  0.500  1.481788  150.886  34.2861  0.254512
  7202.057  7202.050  0.500  1.478894  150.856  34.3785  0.275143
  7203.920  7203.910  0.500  1.475942  150.808  34.4693  0.298794
  7205.801  7205.790  0.500  1.472677  150.77  34.5732  0.321119
  7207.699  7207.690  0.500  1.469292  150.721  34.6792  0.331725
  7209.627  7209.610  0.500  1.465991  150.688  34.7862  0.321607
  7211.551  7211.550  0.500  1.462959  150.635  34.8795  0.289565
  7213.518  7213.510  0.500  1.459995  150.581  34.9706  0.245539
  7215.491  7215.480  0.500  1.457262  150.484  35.0437  0.205547
  7217.496  7217.480  0.500  1.454909  150.502  35.1304  0.176882
  7219.493  7219.490  0.500  1.452647  150.442  35.1959  0.161569
  7221.538  7221.520  0.500  1.450705  150.39  35.2522  0.159422
  7223.582  7223.580  0.500  1.449057  150.338  35.2982  0.170454
  7225.662  7225.650  0.500  1.447769  150.224  35.3167  0.192562
  7227.750  7227.740  0.500  1.446607  147.611  34.7428  0.218955
  7229.860  7229.850  0.500  1.445483  150.41  35.4415  0.259274
  7231.989  7231.980  0.500  1.444046  150.346  35.4772  0.299000
  7234.134  7234.120  0.500  1.442684  150.302  35.5154  0.336191
  7236.303  7236.290  0.500  1.441348  150.262  35.5533  0.362600
  7238.489  7238.480  0.500  1.440091  150.22  35.5881  0.374457
  7240.701  7240.680  0.500  1.438676  150.173  35.6273  0.372115
  7242.908  7242.900  0.500  1.436912  150.153  35.6854  0.359461
  7245.162  7245.150  0.500  1.434576  147.386  35.1097  0.336008
  7247.421  7247.410  0.500  1.432308  149.92  35.7944  0.327527
  7249.699  7249.690  0.500  1.429995  149.935  35.8809  0.322080
  7252.003  7251.990  0.500  1.427680  149.821  35.9367  0.326306
  7254.319  7254.310  0.500  1.425641  147.34  35.4138  0.330853
  7256.664  7256.650  0.500  1.423691  149.937  36.1083  0.344468
  7259.017  7259.000  0.500  1.422296  149.782  36.1213  0.341639
  7261.394  7261.380  0.500  1.421171  149.316  36.0496  0.331230
  7263.780  7263.770  0.500  1.420677  135.824  32.8083  0.292803
  7266.203  7266.190  0.500  1.418821  149.64  36.2127  0.316333
  7268.630  7268.620  0.500  1.417448  150.162  36.389  0.309275
  7271.085  7271.070  0.500  1.416019  150.112  36.4289  0.294628
  7273.561  7273.550  0.500  1.414764  148.58  36.1025  0.276793
  7276.058  7276.040  0.500  1.413447  150.144  36.5304  0.271331
  7278.564  7278.550  0.500  1.411562  150.092  36.5867  0.266533
  7281.083  7281.070  0.500  1.409122  150.056  36.6673  0.259559
  7283.635  7283.620  0.500  1.406625  148.717  36.431  0.248453
  7286.200  7286.190  0.500  1.403732  149.7  36.7781  0.242137
  7288.783  7288.770  0.500  1.400586  149.786  36.9152  0.239922
  7291.395  7291.380  0.500  1.397363  149.773  37.031  0.249622
  7294.009  7294.000  0.500  1.394091  149.75  37.1466  0.272354
  7296.661  7296.650  0.500  1.391109  149.68  37.2403  0.302074
  7299.322  7299.310  0.500  1.388410  149.565  37.3121  0.331394
  7302.008  7301.990  0.500  1.385691  148.269  37.0896  0.354352
  7304.702  7304.690  0.500  1.382911  149.697  37.551  0.378160
  7307.419  7307.410  0.500  1.380341  149.612  37.6264  0.391882
  7310.163  7310.150  0.500  1.377757  149.534  37.704  0.398169
  7312.914  7312.900  0.500  1.375385  149.478  37.7794  0.398309
  7315.692  7315.680  0.500  1.372817  149.405  37.8582  0.398821
  7318.481  7318.470  0.500  1.370155  149.378  37.9521  0.401653
  7321.307  7321.290  0.500  1.367805  149.322  38.0272  0.404523
  7324.132  7324.120  0.500  1.366087  149.245  38.0729  0.406470
  7326.976  7326.970  0.500  1.364487  149.194  38.1208  0.407526
  7329.859  7329.850  0.500  1.362636  149.126  38.1741  0.410225
  7332.757  7332.740  0.500  1.360853  149.079  38.2301  0.418438
  7335.663  7335.650  0.500  1.358806  148.996  38.2871  0.428853
  7338.582  7338.570  0.500  1.356855  147.53  37.9843  0.430574
  7341.525  7341.520  0.500  1.354593  148.778  38.3925  0.430826
  7344.502  7344.490  0.500  1.351939  148.779  38.4947  0.416446
  7347.488  7347.470  0.500  1.349361  148.746  38.5857  0.394905
  7350.496  7350.480  0.500  1.346354  148.662  38.6799  0.374789
  7353.506  7353.500  0.500  1.343425  148.612  38.7803  0.357874
  7356.557  7356.550  0.500  1.340471  148.553  38.8798  0.343941
  7359.623  7359.610  0.500  1.337507  148.458  38.9701  0.332252
  7362.705  7362.690  0.500  1.334567  148.397  39.0688  0.323955
  7365.806  7365.790  0.500  1.331827  148.324  39.1568  0.321146
  7368.926  7368.910  0.500  1.329228  148.256  39.2407  0.326133
  7372.058  7372.050  0.500  1.326795  148.197  39.3205  0.340660
  7375.216  7375.200  0.500  1.324641  148.131  39.3877  0.367019
  7378.393  7378.380  0.500  1.322560  148.061  39.4513  0.405717
  7381.584  7381.570  0.500  1.320319  147.99  39.5208  0.450071
  7384.801  7384.790  0.500  1.318079  147.918  39.5902  0.484852
  7388.028  7388.020  0.500  1.315625  147.868  39.674  0.498862
  7391.277  7391.270  0.500  1.313029  147.806  39.7605  0.497172
  7394.559  7394.550  0.500  1.310392  147.727  39.8439  0.489550
  7397.848  7397.840  0.500  1.307766  147.639  39.925  0.484141
  7401.157  7401.150  0.500  1.304975  147.56  40.0153  0.484970
  7404.483  7404.470  0.500  1.302393  147.449  40.0886  0.487268
  7407.829  7407.820  0.500  1.299713  147.413  40.1863  0.488726
  7411.196  7411.190  0.500  1.297104  147.322  40.2663  0.488576
  7414.576  7414.570  0.500  1.294356  147.239  40.3544  0.488958
  7417.989  7417.980  0.500  1.291427  147.145  40.447  0.491864
  7421.413  7421.400  0.500  1.288450  147.061  40.5443  0.499112
  7424.861  7424.850  0.500  1.285399  146.973  40.6438  0.511088
  7428.322  7428.310  0.500  1.282328  146.882  40.7437  0.519896
  7431.800  7431.790  0.500  1.279229  146.791  40.845  0.522083
  7435.294  7435.290  0.500  1.276114  146.689  40.9438  0.520257
  7438.821  7438.810  0.500  1.273244  146.581  41.0311  0.513437
  7442.354  7442.350  0.500  1.270463  146.431  41.1034  0.500522
  7445.912  7445.900  0.500  1.267775  142.48  40.102  0.474128
  7449.486  7449.480  0.500  1.264867  146.351  41.3116  0.477810
  7453.093  7453.080  0.500  1.262360  144.901  41.005  0.470675
  7456.697  7456.690  0.500  1.259666  146.176  41.4772  0.476955
  7460.329  7460.320  0.500  1.256782  145.64  41.4446  0.479874
  7463.990  7463.980  0.500  1.254260  145.952  41.6381  0.489383
  7467.655  7467.650  0.500  1.251609  141.953  40.6047  0.489936
  7471.347  7471.340  0.500  1.248916  145.881  41.8408  0.522041
  7475.055  7475.050  0.500  1.246121  145.754  41.9215  0.539584
  7478.794  7478.780  0.500  1.243160  145.638  42.0125  0.553869
  7482.528  7482.520  0.500  1.240361  145.509  42.0929  0.567104
  7486.305  7486.290  0.500  1.237775  145.404  42.1714  0.583792
  7490.096  7490.080  0.500  1.234875  145.295  42.262  0.601040
  7493.888  7493.880  0.500  1.231857  145.176  42.3551  0.614366
  7497.722  7497.710  0.500  1.229126  145.098  42.4481  0.619876
  7501.565  7501.550  0.500  1.225970  144.967  42.5439  0.618753
  7505.417  7505.410  0.500  1.222686  144.829  42.6433  0.616966
  7509.304  7509.290  0.500  1.219753  144.683  42.7252  0.617258
  7513.201  7513.190  0.500  1.217008  144.555  42.8049  0.620987
  7517.123  7517.110  0.500  1.213982  144.449  42.903  0.627276
  7521.061  7521.050  0.500  1.210964  144.366  43.0082  0.632841
  7525.043  7525.010  0.500  1.207808  144.239  43.106  0.636305
  7529.007  7528.980  0.500  1.204835  144.112  43.1964  0.636925
  7532.999  7532.980  0.500  1.201818  143.989  43.29  0.637687
  7537.008  7536.990  0.500  1.199147  143.848  43.3631  0.641039
  7541.046  7541.030  0.500  1.196334  143.728  43.4492  0.647211
  7545.102  7545.080  0.500  1.193438  143.581  43.5305  0.653221
  7549.176  7549.150  0.500  1.190447  143.46  43.6242  0.658063
  7553.261  7553.240  0.500  1.187597  143.347  43.7143  0.659626
  7557.368  7557.350  0.500  1.184547  143.753  43.9718  0.658067
  7561.469  7561.480  0.500  1.181415  143.625  44.0704  0.654190
  7565.644  7565.630  0.500  1.178359  143.478  44.1601  0.654381
  7569.804  7569.790  0.500  1.175033  143.349  44.2675  0.661184
  7574.003  7573.980  0.500  1.171955  143.217  44.3631  0.673597
  7578.209  7578.180  0.500  1.168910  143.081  44.456  0.690320
  7582.429  7582.410  0.500  1.165984  142.934  44.5403  0.708777
  7586.662  7586.650  0.500  1.163015  142.723  44.607  0.722658
  7590.922  7590.910  0.500  1.160037  142.54  44.6827  0.732252
  7595.202  7595.190  0.500  1.156878  142.357  44.7664  0.737988
  7599.506  7599.490  0.500  1.153390  142.11  44.8451  0.741648
  7603.820  7603.810  0.500  1.150229  141.557  44.8118  0.745222
  7608.167  7608.150  0.500  1.147333  141.358  44.8788  0.753445
  7612.526  7612.510  0.500  1.143991  141.134  44.9575  0.764436
  7616.905  7616.890  0.500  1.140844  141.08  45.082  0.773969
  7621.297  7621.280  0.500  1.137774  141.168  45.2489  0.778762
  7625.711  7625.700  0.500  1.134681  141.193  45.3971  0.781926
  7630.141  7630.130  0.500  1.131459  141.085  45.5088  0.786741
  7634.596  7634.580  0.500  1.128283  140.917  45.599  0.795616
  7639.071  7639.050  0.500  1.125092  140.723  45.6819  0.807910
  7643.556  7643.540  0.500  1.122059  140.664  45.8014  0.821043
  7648.062  7648.050  0.500  1.119073  140.52  45.8913  0.831713
  7652.596  7652.580  0.500  1.116044  140.363  45.9793  0.839831
  7657.146  7657.130  0.500  1.112705  140.178  46.0721  0.846001
  7661.713  7661.700  0.500  1.109550  139.941  46.1397  0.850278
  7666.294  7666.280  0.500  1.106383  139.822  46.2467  0.852358
  7670.901  7670.890  0.500  1.103406  139.618  46.3167  0.853501
  7675.523  7675.510  0.500  1.100305  139.41  46.3913  0.854283
  7680.171  7680.160  0.500  1.097075  139.217  46.4771  0.856412
  7684.831  7684.820  0.500  1.093770  138.953  46.5425  0.860410
  7689.516  7689.500  0.500  1.090539  139.103  46.7434  0.871043
  7694.207  7694.200  0.500  1.087307  138.812  46.7967  0.880978
  7698.932  7698.920  0.500  1.084166  138.628  46.8817  0.891777
  7703.670  7703.660  0.500  1.081017  138.388  46.948  0.901883
  7708.417  7708.410  0.500  1.078025  138.259  47.0451  0.912732
  7713.193  7713.190  0.500  1.074690  137.987  47.1092  0.924481
  7717.995  7717.990  0.500  1.071439  137.754  47.1829  0.936207
  7722.811  7722.800  0.500  1.068093  137.623  47.2961  0.948172
  7727.639  7727.630  0.500  1.065089  137.399  47.3609  0.956363
  7732.506  7732.490  0.500  1.061671  137.195  47.4525  0.963998
  7737.374  7737.360  0.500  1.058366  136.967  47.5307  0.971530
  7742.261  7742.250  0.500  1.055204  137.03  47.7031  0.981935
  7747.173  7747.160  0.500  1.051739  136.741  47.7678  0.990041
  7752.106  7752.090  0.500  1.048566  136.489  47.8313  0.997296
  7757.046  7757.030  0.500  1.045287  136.298  47.9211  1.005600
  7762.023  7762.000  0.500  1.042005  136.092  48.0059  1.015894
  7767.000  7766.990  0.500  1.038803  135.903  48.0932  1.027713
  7772.008  7771.990  0.500  1.035691  135.698  48.1701  1.039352
  7777.036  7777.020  0.500  1.032416  135.501  48.258  1.050703
  7782.071  7782.060  0.500  1.028976  135.312  48.3568  1.060688
  7787.123  7787.120  0.500  1.025916  135.148  48.4462  1.070801
  7792.203  7792.200  0.500  1.022609  134.938  48.531  1.080123
  7797.302  7797.300  0.500  1.019244  134.731  48.62  1.088167
  7802.422  7802.420  0.500  1.015905  134.449  48.6805  1.094918
  7807.564  7807.560  0.500  1.012742  134.265  48.7681  1.101945
  7812.720  7812.720  0.500  1.009449  134.075  48.8594  1.109913
  7817.897  7817.900  0.500  1.006047  133.873  48.9521  1.117641
  7823.094  7823.090  0.500  1.002749  133.651  49.0324  1.127052
  7828.311  7828.310  0.500  0.999547  133.462  49.1203  1.135583
  7833.546  7833.540  0.500  0.996240  133.26  49.2082  1.144147
  7838.794  7838.790  0.500  0.992908  132.713  49.17  1.151524
  7844.064  7844.060  0.500  0.989788  132.813  49.3606  1.163628
  7849.358  7849.350  0.500  0.986362  132.53  49.4246  1.174010
  7854.666  7854.660  0.500  0.983027  131.416  49.1726  1.176321
  7860.001  7859.990  0.500  0.979676  132.096  49.5933  1.196282
  7865.351  7865.340  0.500  0.976339  131.915  49.6909  1.208993
  7870.725  7870.710  0.500  0.973021  131.724  49.7838  1.221821
  7876.098  7876.090  0.500  0.969727  131.494  49.8608  1.234536
  7881.516  7881.500  0.500  0.966362  131.219  49.9241  1.246631
  7886.929  7886.920  0.500  0.963087  131.017  50.0108  1.258691
  7892.386  7892.370  0.500  0.959768  130.76  50.0789  1.270178
  7897.843  7897.830  0.500  0.956697  130.45  50.1136  1.280495
  7903.324  7903.310  0.500  0.953310  130.269  50.2137  1.293515
  7908.829  7908.810  0.500  0.950221  130.056  50.2868  1.305247
  7914.347  7914.330  0.500  0.946860  129.784  50.3507  1.316313
  7919.884  7919.870  0.500  0.943241  129.544  50.4395  1.328306
  7925.432  7925.420  0.500  0.939837  129.284  50.5101  1.339364
  7931.014  7931.000  0.500  0.936731  128.922  50.5252  1.349874
  7936.618  7936.600  0.500  0.933300  128.566  50.559  1.358202
  7942.228  7942.210  0.500  0.929864  128.611  50.7507  1.371306
  7947.862  7947.850  0.500  0.926508  128.292  50.7953  1.380355
  7953.517  7953.500  0.500  0.923068  127.967  50.841  1.389802
  7959.189  7959.170  0.500  0.919814  127.671  50.8888  1.401089
  7964.897  7964.860  0.500  0.916432  127.36  50.9367  1.411249