File: xdidata/Fe/Fe-Hornblende.xdi
# XDI/1.0 BlueSky/1.10.0 BMM/2023-1.0-py310-tiled
# Beamline.name: BMM (06BM) -- Beamline for Materials Measurement (NIST)
# Beamline.xray_source: NSLS-II three-pole wiggler
# Beamline.collimation: paraboloid mirror, 5 nm Rh on 30 nm Pt
# Beamline.focusing: not in use
# Beamline.harmonic_rejection: flat mirror, Si stripe, pitch = 7.0 mrad relative to beam
# Beamline.software: Bluesky 1.10.0, Ophyd 1.7.0, DataBroker 2.0.0b13, Python 3.10.8, 2023-1.0-py310-tiled
# Detector.I0: 10 cm N2
# Detector.I1: 25 cm N2
# Detector.I2: 25 cm N2
# Element.symbol: Fe
# Element.edge: K
# Element.reference: Fe
# Element.reference_material: Fe foil
# Facility.name: NSLS-II
# Facility.energy: 3.0
# Facility.current: 400.2
# Facility.mode: top-off
# Facility.GUP: 123456
# Facility.SAF: 301027
# Facility.cycle: 2023-2
# Mono.name: Si(111)
# Mono.d_spacing: 3.13519
# Mono.encoder_resolution: 0.0000050 deg/ct
# Mono.angle_offset: 16.0754 deg
# Mono.scan_mode: pseudo channel cut
# Mono.scan_type: step
# Mono.direction: forward in energy
# Sample.name: Ca2Fe4Al0.75(Si7AlO22)OH
# Sample.prep: PEG pellet
# Sample.x: 142.329 mm
# Sample.y: 114.126 mm
# Sample.SDD_position: 205.000 mm
# Scan.experimenters: Bruce Ravel
# Scan.edge_energy: 7112.0
# Scan.start_time: 2023-05-05T19:44:00
# Scan.end_time: 2023-05-05T19:52:16
# Scan.transient_id: 74596
# Scan.uid: d0565109-e969-418c-aca0-5e111c3b5b9f
# Scan.plot_hint: ln(I0/It)  --  ln($5/$6)
# Column.1: energy eV
# Column.2: requested_energy eV
# Column.3: measurement_time seconds
# Column.4: xmu
# Column.5: I0 nA
# Column.6: It nA
# Column.7: Ir nA
# ///////////
# courtesy Martin Stennett, University of Sheffield
# -----------
# energy  requested_energy  measurement_time  xmu  I0  It  Ir
  6912.003  6912.000  0.500  2.586037  154.408  11.6297  2.184183
  6921.823  6922.000  0.500  2.573513  154.345  11.7714  2.226634
  6932.015  6932.000  0.500  2.560387  154.398  11.9311  2.271846
  6942.011  6942.000  0.500  2.547555  154.408  12.0859  2.317960
  6951.995  6952.000  0.500  2.534791  154.423  12.2424  2.364797
  6962.010  6962.000  0.500  2.522316  154.45  12.3983  2.410676
  6972.034  6972.000  0.500  2.509974  154.454  12.5525  2.458247
  6982.010  6982.000  0.500  2.497454  154.461  12.7113  2.505938
  6992.012  6992.000  0.500  2.484899  154.399  12.8667  2.554330
  7002.013  7002.000  0.500  2.472952  154.397  13.0212  2.602097
  7012.008  7012.000  0.500  2.460323  154.366  13.184  2.651942
  7022.008  7022.000  0.500  2.448404  154.307  13.337  2.700618
  7032.012  7032.000  0.500  2.436167  154.251  13.4963  2.750688
  7042.011  7042.000  0.500  2.424198  154.178  13.6523  2.798715
  7052.009  7052.000  0.500  2.412444  154.1  13.8067  2.847379
  7062.004  7062.000  0.500  2.400657  153.356  13.903  2.883268
  7072.011  7072.000  0.500  2.388976  153.884  14.1148  2.941860
  7081.782  7082.000  0.500  2.377980  153.963  14.2782  2.985616
  7083.981  7084.000  0.500  2.375236  153.7  14.293  2.991357
  7085.987  7086.000  0.500  2.373324  153.839  14.3332  3.000215
  7087.990  7088.000  0.500  2.371420  153.861  14.3626  3.006876
  7089.983  7090.000  0.500  2.369077  153.843  14.3947  3.012945
  7091.989  7092.000  0.500  2.367497  153.804  14.4137  3.016094
  7093.982  7094.000  0.500  2.364844  153.815  14.4531  3.022269
  7095.984  7096.000  0.500  2.363205  154.142  14.5076  3.030283
  7097.999  7098.000  0.500  2.361276  154.092  14.5309  3.029459
  7099.990  7100.000  0.500  2.359476  154.064  14.5544  3.026455
  7101.999  7102.000  0.500  2.357672  154.04  14.5784  3.018751
  7102.290  7102.300  0.500  2.357481  154.016  14.5789  3.016404
  7102.585  7102.600  0.500  2.357026  154.005  14.5845  3.014415
  7102.884  7102.900  0.500  2.356952  153.997  14.5848  3.012150
  7103.186  7103.200  0.500  2.356781  154.011  14.5886  3.010486
  7103.485  7103.500  0.500  2.356622  153.994  14.5893  3.007674
  7103.781  7103.800  0.500  2.356568  153.988  14.5896  3.003070
  7104.084  7104.100  0.500  2.356488  153.982  14.5901  3.000537
  7104.386  7104.400  0.500  2.356126  153.987  14.5959  2.997802
  7104.681  7104.700  0.500  2.355865  153.957  14.5969  2.993565
  7104.985  7105.000  0.500  2.355736  153.939  14.5971  2.988574
  7105.285  7105.300  0.500  2.355572  153.927  14.5983  2.983780
  7105.589  7105.600  0.500  2.355343  153.934  14.6024  2.978687
  7105.888  7105.900  0.500  2.355239  153.916  14.6022  2.971946
  7106.188  7106.200  0.500  2.355081  153.909  14.6038  2.965297
  7106.490  7106.500  0.500  2.355016  153.901  14.604  2.957968
  7106.794  7106.800  0.500  2.355161  153.883  14.6002  2.949489
  7107.089  7107.100  0.500  2.354836  153.818  14.5987  2.939048
  7107.387  7107.400  0.500  2.354855  153.891  14.6054  2.929780
  7107.685  7107.700  0.500  2.354804  153.873  14.6044  2.917301
  7107.985  7108.000  0.500  2.354770  153.863  14.604  2.903309
  7108.291  7108.300  0.500  2.354757  153.842  14.6022  2.885818
  7108.586  7108.600  0.500  2.354761  153.792  14.5973  2.864868
  7108.891  7108.900  0.500  2.354868  153.814  14.5979  2.841861
  7109.191  7109.200  0.500  2.354970  153.82  14.597  2.812173
  7109.491  7109.500  0.500  2.355141  153.817  14.5942  2.775325
  7109.797  7109.800  0.500  2.355577  153.813  14.5874  2.724390
  7110.097  7110.100  0.500  2.356135  153.788  14.5769  2.655385
  7110.395  7110.400  0.500  2.356585  153.753  14.5671  2.557482
  7110.695  7110.700  0.500  2.357917  153.705  14.5431  2.420797
  7110.999  7111.000  0.500  2.359949  153.695  14.5126  2.240251
  7111.297  7111.300  0.500  2.361728  153.637  14.4814  2.026539
  7111.593  7111.600  0.500  2.363503  153.623  14.4544  1.811279
  7111.893  7111.900  0.500  2.364868  153.577  14.4304  1.613283
  7112.187  7112.200  0.500  2.366001  153.56  14.4124  1.461306
  7112.492  7112.500  0.500  2.366902  153.544  14.3979  1.345290
  7112.794  7112.800  0.500  2.368035  153.525  14.3799  1.255766
  7113.094  7113.100  0.500  2.369026  153.501  14.3633  1.185997
  7113.397  7113.400  0.500  2.369781  153.472  14.3498  1.124512
  7113.697  7113.700  0.500  2.370155  153.452  14.3425  1.069582
  7113.998  7114.000  0.500  2.370274  153.418  14.3377  1.020144
  7114.304  7114.300  0.500  2.370269  153.405  14.3366  0.976534
  7114.600  7114.600  0.500  2.370587  153.394  14.331  0.940216
  7114.899  7114.900  0.500  2.370568  153.382  14.3301  0.912872
  7115.199  7115.200  0.500  2.370749  153.367  14.3262  0.892240
  7115.500  7115.500  0.500  2.370799  153.368  14.3255  0.877820
  7115.802  7115.800  0.500  2.371325  153.361  14.3174  0.867092
  7116.092  7116.100  0.500  2.373033  153.358  14.2926  0.857451
  7116.395  7116.400  0.500  2.375452  153.326  14.2551  0.846707
  7116.689  7116.700  0.500  2.379166  153.326  14.2023  0.832020
  7116.996  7117.000  0.500  2.384708  153.299  14.1212  0.809953
  7117.303  7117.300  0.500  2.391056  153.273  14.0295  0.779170
  7117.598  7117.600  0.500  2.399797  153.276  13.9077  0.740031
  7117.898  7117.900  0.500  2.410920  153.252  13.7517  0.691694
  7118.197  7118.200  0.500  2.425008  153.219  13.5564  0.638493
  7118.502  7118.500  0.500  2.443268  153.227  13.3118  0.581594
  7118.803  7118.800  0.500  2.464537  153.22  13.0311  0.526580
  7119.101  7119.100  0.500  2.488866  153.194  12.7157  0.475544
  7119.400  7119.400  0.500  2.517159  153.175  12.3595  0.427378
  7119.697  7119.700  0.500  2.549505  153.168  11.9656  0.381936
  7119.998  7120.000  0.500  2.586301  153.144  11.5315  0.339189
  7120.301  7120.300  0.500  2.626409  153.133  11.0773  0.298268
  7120.595  7120.600  0.500  2.665623  153.127  10.6509  0.262730
  7120.894  7120.900  0.500  2.701877  153.114  10.2708  0.232031
  7121.195  7121.200  0.500  2.732935  153.115  9.956777  0.206809
  7121.498  7121.500  0.500  2.757512  153.078  9.712703  0.186876
  7121.803  7121.800  0.500  2.777449  153.06  9.519850  0.170640
  7122.105  7122.100  0.500  2.795726  153.035  9.345912  0.157381
  7122.399  7122.400  0.500  2.815493  153.008  9.161371  0.145676
  7122.700  7122.700  0.500  2.840764  152.993  8.931889  0.134838
  7122.999  7123.000  0.500  2.872912  152.967  8.647858  0.124059
  7123.307  7123.300  0.500  2.912194  152.954  8.314011  0.113899
  7123.600  7123.600  0.500  2.954658  152.953  7.968302  0.105000
  7123.903  7123.900  0.500  3.000169  152.958  7.614027  0.096460
  7124.200  7124.200  0.500  3.045908  152.924  7.272022  0.088986
  7124.499  7124.500  0.500  3.090295  152.888  6.954630  0.082116
  7124.800  7124.800  0.500  3.128605  152.878  6.692797  0.076441
  7125.097  7125.100  0.500  3.158478  152.855  6.494870  0.071889
  7125.399  7125.400  0.500  3.178971  152.835  6.362287  0.068330
  7125.702  7125.700  0.500  3.190630  152.808  6.287441  0.065351
  7126.002  7126.000  0.500  3.196260  152.8  6.251818  0.062935
  7126.303  7126.300  0.500  3.198754  152.773  6.235109  0.060860
  7126.605  7126.600  0.500  3.200794  152.769  6.222266  0.058839
  7126.900  7126.900  0.500  3.203956  152.754  6.202004  0.056666
  7127.203  7127.200  0.500  3.209775  152.735  6.165242  0.054158
  7127.505  7127.500  0.500  3.218446  152.703  6.110743  0.051667
  7127.802  7127.800  0.500  3.230159  152.673  6.038386  0.048869
  7128.097  7128.100  0.500  3.245903  152.633  5.942521  0.046144
  7128.397  7128.400  0.500  3.265399  152.604  5.826687  0.043101
  7128.698  7128.700  0.500  3.290588  152.593  5.681331  0.039937
  7128.998  7129.000  0.500  3.319453  152.576  5.519074  0.037015
  7129.302  7129.300  0.500  3.350671  152.54  5.348178  0.034106
  7129.601  7129.600  0.500  3.378918  152.533  5.198984  0.031571
  7129.901  7129.900  0.500  3.399699  152.498  5.090900  0.029655
  7130.203  7130.200  0.500  3.410356  152.479  5.036300  0.028197
  7130.505  7130.500  0.500  3.409414  152.455  5.040262  0.027468
  7130.804  7130.800  0.500  3.399041  152.422  5.091716  0.027119
  7131.106  7131.100  0.500  3.381097  152.374  5.182249  0.027383
  7131.402  7131.400  0.500  3.358976  152.334  5.296777  0.028079
  7131.701  7131.700  0.500  3.334529  152.318  5.427301  0.029193
  7132.003  7132.000  0.500  3.311709  152.308  5.552227  0.030774
  7132.303  7132.300  0.500  3.290997  152.281  5.667397  0.032396
  7132.597  7132.600  0.500  3.273026  152.254  5.769160  0.034349
  7132.896  7132.900  0.500  3.255986  152.253  5.868257  0.036353
  7133.196  7133.200  0.500  3.239350  152.257  5.966841  0.038800
  7133.498  7133.500  0.500  3.223168  152.268  6.064624  0.041003
  7133.798  7133.800  0.500  3.206398  152.253  6.166587  0.043592
  7134.098  7134.100  0.500  3.189123  152.261  6.274359  0.045878
  7134.400  7134.400  0.500  3.171582  152.258  6.385260  0.048225
  7134.703  7134.700  0.500  3.154390  152.261  6.496139  0.050761
  7135.003  7135.000  0.500  3.138068  152.271  6.603461  0.052962
  7135.305  7135.300  0.500  3.123002  152.233  6.702033  0.054940
  7135.603  7135.600  0.500  3.110016  152.219  6.789024  0.056709
  7135.903  7135.900  0.500  3.098637  152.217  6.866606  0.058226
  7136.199  7136.200  0.500  3.089038  152.214  6.932698  0.059275
  7136.501  7136.500  0.500  3.081124  152.198  6.987053  0.060103
  7136.795  7136.800  0.500  3.074385  152.191  7.033988  0.060823
  7137.000  7137.000  0.500  3.069909  152.182  7.065119  0.061058
  7138.000  7137.990  0.500  3.049980  152.176  7.207023  0.061131
  7139.003  7138.990  0.500  3.037050  152.182  7.301138  0.059423
  7140.026  7140.010  0.500  3.035812  152.188  7.310448  0.056473
  7141.087  7141.060  0.500  3.040704  152.169  7.273878  0.054382
  7142.108  7142.120  0.500  3.043941  152.087  7.246441  0.053983
  7143.188  7143.200  0.500  3.041434  152.1  7.265280  0.054907
  7144.292  7144.300  0.500  3.031084  152.665  7.368118  0.056577
  7145.417  7145.420  0.500  3.013634  152.635  7.496343  0.057317
  7146.557  7146.560  0.500  2.992631  152.663  7.656872  0.056379
  7147.709  7147.710  0.500  2.968791  152.65  7.840932  0.054116
  7148.892  7148.890  0.500  2.944388  152.616  8.032844  0.051739
  7150.080  7150.080  0.500  2.924505  152.604  8.193501  0.050349
  7151.301  7151.300  0.500  2.909126  152.563  8.318257  0.049650
  7152.532  7152.530  0.500  2.899837  152.573  8.396414  0.049109
  7153.784  7153.780  0.500  2.895544  152.566  8.432162  0.048834
  7155.045  7155.050  0.500  2.894852  152.547  8.436962  0.049224
  7156.344  7156.340  0.500  2.896173  152.517  8.424151  0.050099
  7157.658  7157.650  0.500  2.900988  152.495  8.382477  0.050525
  7158.980  7158.980  0.500  2.908004  152.469  8.322480  0.050632
  7160.328  7160.330  0.500  2.918360  152.45  8.235675  0.050187
  7161.707  7161.700  0.500  2.930628  152.403  8.132777  0.050053
  7163.082  7163.080  0.500  2.944524  152.361  8.018325  0.050057
  7164.500  7164.490  0.500  2.958503  152.32  7.904891  0.050328
  7165.911  7165.910  0.500  2.970344  152.277  7.809621  0.050594
  7167.353  7167.350  0.500  2.979006  152.236  7.740213  0.050701
  7168.816  7168.810  0.500  2.984367  152.161  7.695024  0.050972
  7170.294  7170.290  0.500  2.988171  152.102  7.662798  0.051695
  7171.795  7171.790  0.500  2.993672  152.078  7.619560  0.053007
  7173.314  7173.310  0.500  2.998410  152.045  7.581938  0.055117
  7174.860  7174.850  0.500  3.003058  151.995  7.544285  0.057810
  7176.415  7176.410  0.500  3.008363  151.981  7.503682  0.060729
  7177.985  7177.980  0.500  3.010624  151.947  7.485045  0.063777
  7179.585  7179.580  0.500  3.012066  151.91  7.472431  0.065865
  7181.197  7181.190  0.500  3.012293  151.864  7.468476  0.066349
  7182.836  7182.830  0.500  3.010911  151.8  7.475688  0.065873
  7184.492  7184.480  0.500  3.007103  151.787  7.503547  0.064831
  7186.150  7186.150  0.500  3.001440  151.736  7.543644  0.062661
  7187.851  7187.840  0.500  2.994831  151.71  7.592348  0.059828
  7189.552  7189.550  0.500  2.987666  151.67  7.644904  0.057156
  7191.288  7191.280  0.500  2.980073  150.091  7.622982  0.053632
  7193.039  7193.030  0.500  2.970967  151.289  7.754135  0.051646
  7194.801  7194.790  0.500  2.961965  151.437  7.831878  0.050905
  7196.591  7196.580  0.500  2.952580  151.429  7.905331  0.052569
  7198.390  7198.380  0.500  2.943376  151.346  7.974048  0.055634
  7200.217  7200.210  0.500  2.934730  151.33  8.042417  0.059925
  7202.055  7202.050  0.500  2.927162  151.288  8.101270  0.065157
  7203.924  7203.910  0.500  2.920099  151.228  8.155474  0.070996
  7205.797  7205.790  0.500  2.915116  151.182  8.193712  0.076512
  7207.706  7207.690  0.500  2.911456  151.121  8.220468  0.079224
  7209.616  7209.610  0.500  2.909759  151.081  8.232234  0.077035
  7211.560  7211.550  0.500  2.908959  151.01  8.234925  0.069278
  7213.525  7213.510  0.500  2.908276  150.944  8.236986  0.058603
  7215.489  7215.480  0.500  2.907654  150.874  8.238300  0.049212
  7217.494  7217.480  0.500  2.906670  150.83  8.243995  0.042253
  7219.504  7219.490  0.500  2.905126  150.756  8.252650  0.038345
  7221.536  7221.520  0.500  2.902393  150.69  8.271635  0.037781
  7223.593  7223.580  0.500  2.898292  150.637  8.302707  0.040250
  7225.662  7225.650  0.500  2.893593  150.515  8.335061  0.045711
  7227.753  7227.740  0.500  2.888846  147.869  8.227510  0.052013
  7229.860  7229.850  0.500  2.885108  150.696  8.416207  0.061736
  7231.995  7231.980  0.500  2.882788  150.628  8.431946  0.071198
  7234.130  7234.120  0.500  2.882237  150.575  8.433619  0.079932
  7236.303  7236.290  0.500  2.882822  150.53  8.426149  0.086303
  7238.489  7238.480  0.500  2.884287  150.47  8.410476  0.089159
  7240.694  7240.680  0.500  2.885901  150.417  8.393929  0.088307
  7242.914  7242.900  0.500  2.887124  150.388  8.382090  0.085123
  7245.162  7245.150  0.500  2.888307  147.578  8.215732  0.079353
  7247.425  7247.410  0.500  2.889221  150.122  8.349738  0.077044
  7249.701  7249.690  0.500  2.888783  150.144  8.354587  0.075517
  7252.003  7251.990  0.500  2.887164  150.065  8.363727  0.076384
  7254.315  7254.310  0.500  2.884255  147.731  8.257607  0.077704
  7256.668  7256.650  0.500  2.880577  150.123  8.422289  0.080906
  7259.004  7259.000  0.500  2.876588  149.953  8.446357  0.080399
  7261.394  7261.380  0.500  2.872399  149.502  8.456284  0.078396
  7263.782  7263.770  0.500  2.868584  138.852  7.883920  0.070881
  7266.205  7266.190  0.500  2.863330  149.684  8.543742  0.075277
  7268.630  7268.620  0.500  2.859308  150.3  8.613439  0.073841
  7271.081  7271.070  0.500  2.854967  150.245  8.647755  0.070636
  7273.567  7273.550  0.500  2.850155  149.05  8.620379  0.066767
  7276.058  7276.040  0.500  2.845419  150.262  8.731715  0.065441
  7278.559  7278.550  0.500  2.841128  150.218  8.766694  0.064465
  7281.080  7281.070  0.500  2.836555  150.174  8.804292  0.063083
  7283.630  7283.620  0.500  2.831955  149.128  8.783308  0.060392
  7286.202  7286.190  0.500  2.827306  149.781  8.862877  0.058806
  7288.786  7288.770  0.500  2.822922  149.873  8.907271  0.058215
  7291.389  7291.380  0.500  2.818988  149.866  8.941943  0.060611
  7294.016  7294.000  0.500  2.814998  149.834  8.975766  0.066085
  7296.661  7296.650  0.500  2.810744  149.77  9.010181  0.073324
  7299.322  7299.310  0.500  2.806251  149.641  9.042971  0.080583
  7302.003  7301.990  0.500  2.801700  147.913  8.979300  0.086171
  7304.705  7304.690  0.500  2.797216  149.767  9.132749  0.092512
  7307.424  7307.410  0.500  2.793272  149.683  9.163702  0.095881
  7310.163  7310.150  0.500  2.789585  149.618  9.193528  0.097550
  7312.916  7312.900  0.500  2.786736  149.548  9.215454  0.097850
  7315.692  7315.680  0.500  2.784148  149.473  9.234710  0.097794
  7318.483  7318.470  0.500  2.781526  149.44  9.256891  0.098627
  7321.302  7321.290  0.500  2.778903  149.367  9.276668  0.099134
  7324.137  7324.120  0.500  2.776135  149.318  9.299372  0.099619
  7326.987  7326.970  0.500  2.773238  149.183  9.317876  0.100165
  7329.859  7329.850  0.500  2.770046  149.169  9.346783  0.100984
  7332.760  7332.740  0.500  2.766338  149.121  9.378524  0.103171
  7335.663  7335.650  0.500  2.762485  149.026  9.408741  0.106049
  7338.585  7338.570  0.500  2.758116  147.8  9.372147  0.106796
  7341.536  7341.520  0.500  2.753726  148.816  9.478126  0.106994
  7344.500  7344.490  0.500  2.749436  148.836  9.520106  0.103634
  7347.488  7347.470  0.500  2.745810  148.761  9.549899  0.098495
  7350.496  7350.480  0.500  2.741918  148.699  9.583149  0.093575
  7353.515  7353.500  0.500  2.738259  148.634  9.614076  0.089383
  7356.569  7356.550  0.500  2.734391  148.572  9.647303  0.086055
  7359.621  7359.610  0.500  2.730578  148.513  9.680303  0.083092
  7362.703  7362.690  0.500  2.726233  148.429  9.716977  0.081093
  7365.799  7365.790  0.500  2.722010  148.338  9.752134  0.080525
  7368.924  7368.910  0.500  2.717954  148.289  9.788503  0.081870
  7372.067  7372.050  0.500  2.714250  148.222  9.820422  0.085480
  7375.218  7375.200  0.500  2.710666  148.136  9.849918  0.092356
  7378.395  7378.380  0.500  2.707032  148.068  9.881228  0.102065
  7381.588  7381.570  0.500  2.703419  147.979  9.911066  0.113436
  7384.803  7384.790  0.500  2.699271  147.885  9.945954  0.122364
  7388.033  7388.020  0.500  2.694899  147.811  9.984505  0.126174
  7391.277  7391.270  0.500  2.690522  147.739  10.0234  0.125899
  7394.559  7394.550  0.500  2.685767  147.669  10.0664  0.124218
  7397.846  7397.840  0.500  2.680797  147.594  10.1115  0.123342
  7401.155  7401.150  0.500  2.675863  147.518  10.1562  0.123728
  7404.481  7404.470  0.500  2.670594  147.425  10.2034  0.124624
  7407.831  7407.820  0.500  2.665593  147.362  10.2502  0.125310
  7411.203  7411.190  0.500  2.660627  147.286  10.2959  0.125506
  7414.578  7414.570  0.500  2.656163  147.158  10.333  0.125726
  7417.987  7417.980  0.500  2.651687  147.053  10.372  0.126765
  7421.413  7421.400  0.500  2.647471  146.972  10.41  0.128791
  7424.859  7424.850  0.500  2.643420  146.854  10.4439  0.131849
  7428.319  7428.310  0.500  2.639551  146.764  10.478  0.134551
  7431.805  7431.790  0.500  2.635637  146.665  10.512  0.134897
  7435.305  7435.290  0.500  2.631506  146.577  10.5492  0.134811
  7438.823  7438.810  0.500  2.627257  146.474  10.5866  0.133157
  7442.364  7442.350  0.500  2.622907  146.33  10.6223  0.129947
  7445.915  7445.900  0.500  2.618799  142.439  10.3824  0.123295
  7449.488  7449.480  0.500  2.614837  146.263  10.7035  0.124285
  7453.088  7453.080  0.500  2.610944  144.946  10.6485  0.122882
  7456.700  7456.690  0.500  2.606833  146.018  10.7715  0.124495
  7460.333  7460.320  0.500  2.602432  145.404  10.7735  0.125404
  7463.995  7463.980  0.500  2.598050  145.81  10.851  0.128170
  7467.664  7467.650  0.500  2.593613  141.824  10.6013  0.128563
  7471.350  7471.340  0.500  2.589234  145.759  10.9432  0.137094
  7475.065  7475.050  0.500  2.584824  145.616  10.9808  0.141952
  7478.789  7478.780  0.500  2.580219  145.464  11.02  0.145857
  7482.533  7482.520  0.500  2.575265  145.358  11.0666  0.149932
  7486.310  7486.290  0.500  2.570548  145.198  11.1067  0.154414
  7490.093  7490.080  0.500  2.565400  145.134  11.1591  0.159567
  7493.897  7493.880  0.500  2.560693  145.381  11.2309  0.163583
  7497.727  7497.710  0.500  2.556270  145.288  11.2734  0.165323
  7501.567  7501.550  0.500  2.551738  145.175  11.3158  0.165324
  7505.429  7505.410  0.500  2.547000  145.042  11.3591  0.164841
  7509.309  7509.290  0.500  2.542141  144.901  11.4034  0.165405
  7513.210  7513.190  0.500  2.537734  144.778  11.444  0.166744
  7517.145  7517.110  0.500  2.533266  144.656  11.4856  0.168664
  7521.061  7521.050  0.500  2.529137  144.536  11.5235  0.170499
  7525.021  7525.010  0.500  2.524660  144.4  11.5643  0.171279
  7528.970  7528.980  0.500  2.520212  144.25  11.6038  0.171851
  7533.002  7532.980  0.500  2.515521  144.106  11.6467  0.172347
  7537.015  7536.990  0.500  2.511031  143.965  11.6877  0.173589
  7541.051  7541.030  0.500  2.506477  143.82  11.7293  0.175333
  7545.110  7545.080  0.500  2.501821  143.672  11.7719  0.177286
  7549.181  7549.150  0.500  2.496993  143.563  11.8199  0.178877
  7553.275  7553.240  0.500  2.492201  143.431  11.8657  0.179619
  7557.385  7557.350  0.500  2.487582  143.305  11.9102  0.178962
  7561.508  7561.480  0.500  2.482787  143.153  11.9548  0.178412
  7565.673  7565.630  0.500  2.477484  143.008  12.0061  0.178488
  7569.794  7569.790  0.500  2.472668  142.854  12.0511  0.180725
  7573.978  7573.980  0.500  2.468126  142.673  12.0906  0.184134
  7578.172  7578.180  0.500  2.463076  142.519  12.1387  0.189421
  7582.407  7582.410  0.500  2.458511  142.339  12.1788  0.194481
  7586.652  7586.650  0.500  2.453595  142.145  12.2222  0.198906
  7590.905  7590.910  0.500  2.449196  141.965  12.2606  0.201632
  7595.175  7595.190  0.500  2.444531  141.764  12.3004  0.203502
  7599.479  7599.490  0.500  2.439599  141.508  12.3389  0.204956
  7603.798  7603.810  0.500  2.434751  140.946  12.3496  0.205928
  7608.137  7608.150  0.500  2.430389  140.73  12.3846  0.208652
  7612.494  7612.510  0.500  2.425666  140.514  12.4241  0.212042
  7616.913  7616.890  0.500  2.420762  140.449  12.4794  0.214841
  7621.302  7621.280  0.500  2.416053  140.554  12.5477  0.216608
  7625.706  7625.700  0.500  2.411085  140.567  12.6114  0.218069
  7630.153  7630.130  0.500  2.406244  140.46  12.6629  0.219612
  7634.566  7634.580  0.500  2.401492  140.3  12.7088  0.222500
  7639.044  7639.050  0.500  2.396506  140.138  12.7576  0.226409
  7643.524  7643.540  0.500  2.391691  139.954  12.8023  0.230107
  7648.030  7648.050  0.500  2.386687  139.794  12.8518  0.233667
  7652.556  7652.580  0.500  2.381744  139.635  12.9008  0.236339
  7657.118  7657.130  0.500  2.377067  139.456  12.9446  0.238387
  7661.691  7661.700  0.500  2.371938  139.257  12.9926  0.240226
  7666.284  7666.280  0.500  2.367071  139.071  13.0385  0.241087
  7670.893  7670.890  0.500  2.362197  138.878  13.0841  0.241982
  7675.516  7675.510  0.500  2.356999  138.684  13.1339  0.242705
  7680.141  7680.160  0.500  2.352010  138.518  13.1838  0.243812
  7684.833  7684.820  0.500  2.346795  138.232  13.2254  0.245500
  7689.485  7689.500  0.500  2.342244  138.368  13.2988  0.248751
  7694.192  7694.200  0.500  2.337104  138.085  13.34  0.252088
  7698.921  7698.920  0.500  2.332177  137.846  13.3827  0.255781
  7703.652  7703.660  0.500  2.327394  137.617  13.4245  0.258779
  7708.397  7708.410  0.500  2.322441  137.529  13.4825  0.262647
  7713.175  7713.190  0.500  2.317476  137.287  13.5258  0.266251
  7717.972  7717.990  0.500  2.312565  137.026  13.5666  0.270005
  7722.778  7722.800  0.500  2.307841  136.911  13.6193  0.273830
  7727.608  7727.630  0.500  2.303023  136.699  13.6639  0.276765
  7732.467  7732.490  0.500  2.297969  136.475  13.7107  0.279342
  7737.336  7737.360  0.500  2.292860  136.21  13.7541  0.281951
  7742.246  7742.250  0.500  2.287925  136.262  13.8275  0.285411
  7747.150  7747.160  0.500  2.282878  135.95  13.8656  0.288370
  7752.075  7752.090  0.500  2.277967  135.777  13.9161  0.291103
  7757.015  7757.030  0.500  2.272911  135.563  13.9646  0.294039
  7761.993  7762.000  0.500  2.267793  135.322  14.0113  0.297585
  7766.982  7766.990  0.500  2.262667  135.111  14.0613  0.301574
  7771.975  7771.990  0.500  2.258076  134.938  14.1079  0.305434
  7777.026  7777.020  0.500  2.252836  134.714  14.1585  0.309077
  7782.051  7782.060  0.500  2.247591  134.493  14.2097  0.312809
  7787.136  7787.120  0.500  2.242693  134.271  14.2558  0.316068
  7792.221  7792.200  0.500  2.237679  134.082  14.3073  0.319495
  7797.276  7797.300  0.500  2.232693  133.882  14.3574  0.322262
  7802.398  7802.420  0.500  2.227534  133.683  14.4102  0.325079
  7807.566  7807.560  0.500  2.222125  133.455  14.4637  0.328027
  7812.707  7812.720  0.500  2.217021  133.236  14.5138  0.330558
  7817.879  7817.900  0.500  2.212043  133.034  14.5642  0.333710
  7823.076  7823.090  0.500  2.206895  132.805  14.6141  0.336793
  7828.330  7828.310  0.500  2.201695  132.63  14.6709  0.340229
  7833.530  7833.540  0.500  2.196962  132.412  14.7163  0.343159
  7838.780  7838.790  0.500  2.191576  131.878  14.7361  0.345963
  7844.051  7844.060  0.500  2.186403  131.955  14.8212  0.350314
  7849.334  7849.350  0.500  2.181296  131.65  14.8626  0.353968
  7854.645  7854.660  0.500  2.176110  130.563  14.8166  0.355526
  7860.001  7859.990  0.500  2.170844  131.204  14.9679  0.361872
  7865.330  7865.340  0.500  2.165733  130.98  15.0189  0.366175
  7870.698  7870.710  0.500  2.160555  130.777  15.0735  0.371009
  7876.072  7876.090  0.500  2.155278  130.535  15.1253  0.375455
  7881.479  7881.500  0.500  2.150218  130.299  15.1744  0.379880
  7886.899  7886.920  0.500  2.144812  130.06  15.2287  0.384448
  7892.341  7892.370  0.500  2.139782  129.809  15.2759  0.388407
  7897.808  7897.830  0.500  2.134789  129.512  15.3173  0.392255
  7903.279  7903.310  0.500  2.129804  129.3  15.3686  0.397092
  7908.781  7908.810  0.500  2.124316  129.059  15.4244  0.401579
  7914.310  7914.330  0.500  2.119302  128.802  15.4712  0.405788
  7919.844  7919.870  0.500  2.114352  128.553  15.5178  0.409672
  7925.405  7925.420  0.500  2.109000  128.301  15.5705  0.413860
  7930.976  7931.000  0.500  2.103776  127.922  15.6058  0.417865
  7936.578  7936.600  0.500  2.098524  127.582  15.6463  0.421200
  7942.193  7942.210  0.500  2.093220  127.573  15.7284  0.425878
  7947.826  7947.850  0.500  2.088034  127.246  15.7697  0.429665
  7953.479  7953.500  0.500  2.082903  126.905  15.8083  0.433661
  7959.162  7959.170  0.500  2.077710  126.589  15.851  0.437518
  7964.832  7964.860  0.500  2.072600  126.24  15.8883  0.441395