File: xdidata/Fe/Fe-Hematite.xdi
# XDI/1.0 BlueSky/1.10.0 BMM/2023-1.0-py310-tiled
# Beamline.name: BMM (06BM) -- Beamline for Materials Measurement (NIST)
# Beamline.xray_source: NSLS-II three-pole wiggler
# Beamline.collimation: paraboloid mirror, 5 nm Rh on 30 nm Pt
# Beamline.focusing: not in use
# Beamline.harmonic_rejection: flat mirror, Si stripe, pitch = 7.0 mrad relative to beam
# Beamline.software: Bluesky 1.10.0, Ophyd 1.7.0, DataBroker 2.0.0b13, Python 3.10.8, 2023-1.0-py310-tiled
# Detector.I0: 10 cm N2
# Detector.I1: 25 cm N2
# Detector.I2: 25 cm N2
# Element.symbol: Fe
# Element.edge: K
# Element.reference: Fe
# Element.reference_material: Fe foil
# Facility.name: NSLS-II
# Facility.energy: 3.0
# Facility.current: 399.9
# Facility.mode: top-off
# Facility.GUP: 123456
# Facility.SAF: 301027
# Facility.cycle: 2023-2
# Mono.name: Si(111)
# Mono.d_spacing: 3.13519
# Mono.encoder_resolution: 0.0000050 deg/ct
# Mono.angle_offset: 16.0754 deg
# Mono.scan_mode: pseudo channel cut
# Mono.scan_type: step
# Mono.direction: forward in energy
# Sample.name: alpha-Fe2O3
# Sample.prep: powder on tape
# Sample.x: 116.329 mm
# Sample.y: 114.126 mm
# Sample.SDD_position: 205.000 mm
# Scan.experimenters: Bruce Ravel
# Scan.edge_energy: 7112.0
# Scan.start_time: 2023-05-05T16:46:36
# Scan.end_time: 2023-05-05T16:54:47
# Scan.transient_id: 74496
# Scan.uid: 130682c6-150e-4d2a-af8b-67bdc718fbff
# Scan.plot_hint: ln(I0/It)  --  ln($5/$6)
# Column.1: energy eV
# Column.2: requested_energy eV
# Column.3: measurement_time seconds
# Column.4: xmu
# Column.5: I0 nA
# Column.6: It nA
# Column.7: Ir nA
# ///////////
# Welcome to BMM
# -----------
# energy  requested_energy  measurement_time  xmu  I0  It  Ir
  6911.995  6912.000  0.500  1.756907  153.765  26.5364  4.981625
  6922.011  6922.000  0.500  1.746415  153.616  26.7902  5.064952
  6932.017  6932.000  0.500  1.736384  153.592  27.0562  5.151360
  6942.011  6942.000  0.500  1.725915  153.625  27.3468  5.244414
  6951.999  6952.000  0.500  1.715885  153.626  27.6226  5.333947
  6962.004  6962.000  0.500  1.705798  153.636  27.9045  5.424649
  6972.014  6972.000  0.500  1.695789  153.648  28.1873  5.517986
  6982.027  6982.000  0.500  1.685461  153.625  28.4757  5.611992
  6992.012  6992.000  0.500  1.675632  153.623  28.7567  5.706691
  7002.011  7002.000  0.500  1.665712  153.608  29.0405  5.802352
  7012.016  7012.000  0.500  1.655837  153.56  29.3195  5.896068
  7022.016  7022.000  0.500  1.646007  153.509  29.5994  5.991909
  7032.008  7032.000  0.500  1.636362  153.456  29.876  6.085854
  7042.008  7042.000  0.500  1.626748  153.382  30.1501  6.179597
  7052.009  7052.000  0.500  1.617315  153.313  30.422  6.272803
  7062.012  7062.000  0.500  1.607723  152.53  30.5583  6.335446
  7072.007  7072.000  0.500  1.598469  153.124  30.9627  6.450519
  7082.643  7082.000  0.500  1.589235  152.8  31.1838  6.520655
  7083.978  7084.000  0.500  1.587784  152.918  31.253  6.537738
  7085.982  7086.000  0.500  1.585865  153.062  31.3427  6.558702
  7087.981  7088.000  0.500  1.584204  153.025  31.3871  6.568927
  7090.313  7090.000  0.500  1.582263  153.055  31.4543  6.581711
  7091.965  7092.000  0.500  1.580933  153.068  31.4988  6.589324
  7093.995  7094.000  0.500  1.579029  152.996  31.544  6.594166
  7095.984  7096.000  0.500  1.577688  152.987  31.5844  6.595829
  7097.991  7098.000  0.500  1.576314  152.971  31.6246  6.592766
  7099.992  7100.000  0.500  1.574969  152.974  31.6677  6.583205
  7101.995  7102.000  0.500  1.573148  152.921  31.7144  6.563974
  7102.284  7102.300  0.500  1.572975  152.927  31.7212  6.559995
  7102.583  7102.600  0.500  1.572736  152.911  31.7254  6.555887
  7102.882  7102.900  0.500  1.572376  152.921  31.7389  6.553699
  7103.184  7103.200  0.500  1.572206  152.904  31.7407  6.546237
  7103.479  7103.500  0.500  1.572114  152.899  31.7427  6.539471
  7103.781  7103.800  0.500  1.571897  152.884  31.7465  6.532596
  7104.084  7104.100  0.500  1.571724  152.854  31.7458  6.525099
  7104.382  7104.400  0.500  1.571385  152.846  31.7549  6.517786
  7104.686  7104.700  0.500  1.571164  152.85  31.7628  6.508697
  7104.987  7105.000  0.500  1.571121  152.858  31.7657  6.499706
  7105.283  7105.300  0.500  1.570988  152.869  31.7722  6.489646
  7105.587  7105.600  0.500  1.570954  152.86  31.7715  6.476927
  7105.886  7105.900  0.500  1.570935  152.859  31.7718  6.462299
  7106.186  7106.200  0.500  1.570567  152.835  31.7785  6.448285
  7106.492  7106.500  0.500  1.570581  152.825  31.776  6.430658
  7106.792  7106.800  0.500  1.570337  152.815  31.7816  6.413377
  7107.092  7107.100  0.500  1.570109  152.809  31.7878  6.394443
  7107.389  7107.400  0.500  1.570388  152.804  31.7779  6.368234
  7107.691  7107.700  0.500  1.570197  152.799  31.7827  6.341727
  7107.989  7108.000  0.500  1.569934  152.801  31.7915  6.310993
  7108.289  7108.300  0.500  1.569775  152.785  31.7933  6.273238
  7108.586  7108.600  0.500  1.569810  152.772  31.7895  6.229584
  7108.893  7108.900  0.500  1.569610  152.768  31.795  6.177366
  7109.188  7109.200  0.500  1.569772  152.771  31.7906  6.111130
  7109.491  7109.500  0.500  1.570140  152.756  31.7757  6.023143
  7109.793  7109.800  0.500  1.570098  152.706  31.7666  5.910225
  7110.095  7110.100  0.500  1.570040  152.736  31.7747  5.755390
  7110.397  7110.400  0.500  1.570222  152.715  31.7646  5.529686
  7110.699  7110.700  0.500  1.570427  152.692  31.7532  5.215712
  7110.997  7111.000  0.500  1.570757  152.67  31.7382  4.816549
  7111.295  7111.300  0.500  1.571387  152.636  31.7112  4.353619
  7111.595  7111.600  0.500  1.572465  153.127  31.7789  3.893228
  7111.893  7111.900  0.500  1.574129  153.102  31.7208  3.476888
  7112.191  7112.200  0.500  1.576860  153.075  31.6289  3.149947
  7112.498  7112.500  0.500  1.580658  153.048  31.5033  2.899677
  7112.788  7112.800  0.500  1.584757  153.029  31.3705  2.712039
  7113.090  7113.100  0.500  1.588164  153.005  31.2589  2.556083
  7113.397  7113.400  0.500  1.590683  152.983  31.1758  2.418442
  7113.695  7113.700  0.500  1.593096  152.975  31.0991  2.296578
  7113.995  7114.000  0.500  1.595392  152.956  31.0239  2.187049
  7114.300  7114.300  0.500  1.597155  152.947  30.9673  2.092052
  7114.598  7114.600  0.500  1.596743  152.936  30.9779  2.017463
  7114.901  7114.900  0.500  1.594976  152.946  31.0347  1.964154
  7115.204  7115.200  0.500  1.593180  152.935  31.0883  1.926069
  7115.500  7115.500  0.500  1.591840  152.923  31.1277  1.899200
  7115.800  7115.800  0.500  1.591299  152.922  31.1443  1.879507
  7116.094  7116.100  0.500  1.591201  152.913  31.1455  1.861832
  7116.399  7116.400  0.500  1.591466  152.899  31.1343  1.841625
  7116.698  7116.700  0.500  1.592110  152.888  31.112  1.813119
  7116.992  7117.000  0.500  1.593025  152.875  31.0809  1.770820
  7117.293  7117.300  0.500  1.594046  152.869  31.048  1.710419
  7117.593  7117.600  0.500  1.594753  152.85  31.0223  1.631258
  7117.903  7117.900  0.500  1.595261  152.831  31.0026  1.536327
  7118.197  7118.200  0.500  1.596075  152.826  30.9764  1.433226
  7118.504  7118.500  0.500  1.597075  152.808  30.9417  1.327558
  7118.796  7118.800  0.500  1.599343  152.798  30.8696  1.225075
  7119.097  7119.100  0.500  1.602223  152.785  30.7783  1.128123
  7119.407  7119.400  0.500  1.605421  152.786  30.6802  1.036869
  7119.703  7119.700  0.500  1.609616  152.75  30.5445  0.952446
  7120.000  7120.000  0.500  1.614973  152.748  30.381  0.872293
  7120.298  7120.300  0.500  1.621913  152.741  30.1694  0.793293
  7120.599  7120.600  0.500  1.630182  152.726  29.9182  0.720382
  7120.896  7120.900  0.500  1.640186  152.714  29.618  0.653377
  7121.201  7121.200  0.500  1.652142  152.695  29.2623  0.595269
  7121.498  7121.500  0.500  1.666129  152.686  28.8543  0.545072
  7121.797  7121.800  0.500  1.682634  152.658  28.3767  0.501251
  7122.100  7122.100  0.500  1.702449  152.641  27.8169  0.461580
  7122.399  7122.400  0.500  1.725081  152.626  27.1917  0.425981
  7122.700  7122.700  0.500  1.749978  152.609  26.52  0.394069
  7123.001  7123.000  0.500  1.775544  152.586  25.8468  0.365720
  7123.303  7123.300  0.500  1.800335  152.58  25.2128  0.340862
  7123.604  7123.600  0.500  1.823201  152.569  24.6411  0.319724
  7123.907  7123.900  0.500  1.843779  152.547  24.1358  0.301346
  7124.200  7124.200  0.500  1.862690  152.534  23.6816  0.285646
  7124.495  7124.500  0.500  1.882141  152.537  23.2258  0.270607
  7124.800  7124.800  0.500  1.903109  152.513  22.7403  0.256526
  7125.097  7125.100  0.500  1.925595  152.506  22.2337  0.242922
  7125.397  7125.400  0.500  1.949889  152.483  21.6968  0.229629
  7125.696  7125.700  0.500  1.975582  152.439  21.1403  0.216954
  7125.997  7126.000  0.500  2.002426  152.443  20.5809  0.204966
  7126.301  7126.300  0.500  2.031042  152.414  19.9965  0.192946
  7126.600  7126.600  0.500  2.059867  152.398  19.4264  0.181268
  7126.904  7126.900  0.500  2.088351  152.369  18.8772  0.169914
  7127.199  7127.200  0.500  2.115560  152.333  18.3662  0.159327
  7127.501  7127.500  0.500  2.142023  152.312  17.8841  0.148683
  7127.806  7127.800  0.500  2.167925  152.294  17.4247  0.138730
  7128.102  7128.100  0.500  2.192614  152.289  16.9992  0.129386
  7128.401  7128.400  0.500  2.216613  152.273  16.5944  0.120434
  7128.696  7128.700  0.500  2.239772  152.262  16.2133  0.111962
  7128.996  7129.000  0.500  2.260765  152.236  15.8738  0.104212
  7129.300  7129.300  0.500  2.278334  152.199  15.5935  0.097168
  7129.601  7129.600  0.500  2.291474  152.178  15.3878  0.091441
  7129.899  7129.900  0.500  2.300006  152.138  15.2531  0.086798
  7130.201  7130.200  0.500  2.304785  152.114  15.178  0.083301
  7130.500  7130.500  0.500  2.307881  152.083  15.128  0.080885
  7130.802  7130.800  0.500  2.310365  152.066  15.0887  0.079150
  7131.102  7131.100  0.500  2.313572  152.02  15.0359  0.078598
  7131.402  7131.400  0.500  2.317791  151.995  14.9702  0.078753
  7131.704  7131.700  0.500  2.324138  151.977  14.8737  0.079771
  7132.001  7132.000  0.500  2.331566  151.968  14.7627  0.081618
  7132.303  7132.300  0.500  2.339493  151.957  14.6451  0.083986
  7132.599  7132.600  0.500  2.346254  151.951  14.5458  0.086663
  7132.899  7132.900  0.500  2.351366  151.956  14.4722  0.089876
  7133.196  7133.200  0.500  2.354338  151.955  14.4291  0.093553
  7133.498  7133.500  0.500  2.354434  151.963  14.4285  0.097842
  7133.800  7133.800  0.500  2.351756  151.969  14.4677  0.102278
  7134.098  7134.100  0.500  2.345593  151.944  14.5548  0.106855
  7134.398  7134.400  0.500  2.337217  151.958  14.6785  0.111487
  7134.703  7134.700  0.500  2.326836  151.956  14.8315  0.115756
  7135.005  7135.000  0.500  2.315443  151.962  15.002  0.120238
  7135.301  7135.300  0.500  2.303732  151.952  15.1778  0.124397
  7135.601  7135.600  0.500  2.292189  151.934  15.3521  0.127944
  7135.899  7135.900  0.500  2.281578  151.932  15.5158  0.131086
  7136.201  7136.200  0.500  2.272116  151.928  15.6629  0.133640
  7136.503  7136.500  0.500  2.264249  151.927  15.7864  0.135471
  7136.801  7136.800  0.500  2.257645  151.921  15.8904  0.136631
  7136.994  7137.000  0.500  2.253819  151.906  15.9497  0.137218
  7137.990  7137.990  0.500  2.235035  151.905  16.2521  0.137012
  7139.001  7138.990  0.500  2.211143  151.895  16.6439  0.134207
  7140.030  7140.010  0.500  2.182396  151.896  17.1294  0.131333
  7141.079  7141.060  0.500  2.154365  151.907  17.6177  0.130684
  7142.141  7142.120  0.500  2.131036  151.905  18.0333  0.133356
  7143.194  7143.200  0.500  2.114225  151.862  18.3339  0.137848
  7144.292  7144.300  0.500  2.105308  151.854  18.497  0.141151
  7145.411  7145.420  0.500  2.103407  151.845  18.5312  0.140688
  7146.557  7146.560  0.500  2.104497  151.85  18.5115  0.135126
  7147.713  7147.710  0.500  2.101106  151.851  18.5746  0.127045
  7148.892  7148.890  0.500  2.088491  151.828  18.8075  0.120285
  7150.080  7150.080  0.500  2.070806  151.826  19.1428  0.116675
  7151.310  7151.300  0.500  2.052633  151.831  19.4946  0.115508
  7152.534  7152.530  0.500  2.037877  151.808  19.7814  0.114790
  7153.784  7153.780  0.500  2.024684  151.794  20.0422  0.115298
  7155.049  7155.050  0.500  2.011867  151.778  20.2986  0.117696
  7156.346  7156.340  0.500  1.998676  151.777  20.568  0.121553
  7157.650  7157.650  0.500  1.985580  151.755  20.8361  0.125005
  7158.984  7158.980  0.500  1.976065  151.742  21.0335  0.126915
  7160.330  7160.330  0.500  1.971149  151.71  21.1327  0.127912
  7161.703  7161.700  0.500  1.970354  151.681  21.1455  0.129012
  7163.084  7163.080  0.500  1.972224  151.64  21.1003  0.131064
  7164.495  7164.490  0.500  1.976479  151.591  21.0038  0.132963
  7165.909  7165.910  0.500  1.981380  151.559  20.8967  0.134706
  7167.355  7167.350  0.500  1.987060  151.517  20.7726  0.135453
  7168.811  7168.810  0.500  1.995096  151.463  20.599  0.135965
  7170.294  7170.290  0.500  2.006682  151.446  20.3594  0.136758
  7171.797  7171.790  0.500  2.022203  151.427  20.0434  0.138842
  7173.316  7173.310  0.500  2.040982  151.397  19.6666  0.142372
  7174.856  7174.850  0.500  2.060407  151.367  19.2845  0.147051
  7176.413  7176.410  0.500  2.073444  151.343  19.0317  0.153747
  7177.985  7177.980  0.500  2.080885  151.329  18.8888  0.160663
  7179.587  7179.580  0.500  2.085185  151.289  18.8028  0.165224
  7181.191  7181.190  0.500  2.086372  151.272  18.7784  0.166094
  7182.836  7182.830  0.500  2.085006  151.238  18.7998  0.164751
  7184.483  7184.480  0.500  2.081691  151.213  18.8592  0.161819
  7186.157  7186.150  0.500  2.077218  151.171  18.9384  0.156084
  7187.849  7187.840  0.500  2.073116  151.141  19.0125  0.148657
  7189.557  7189.550  0.500  2.069496  151.131  19.0802  0.141138
  7191.286  7191.280  0.500  2.065310  149.378  18.938  0.131773
  7193.037  7193.030  0.500  2.059306  150.746  19.2265  0.127012
  7194.803  7194.790  0.500  2.052206  150.903  19.3837  0.125650
  7196.587  7196.580  0.500  2.044527  150.894  19.5319  0.129396
  7198.392  7198.380  0.500  2.037378  150.871  19.6691  0.136873
  7200.215  7200.210  0.500  2.029873  150.821  19.8107  0.147451
  7202.064  7202.050  0.500  2.022306  150.792  19.9573  0.160276
  7203.918  7203.910  0.500  2.013806  150.758  20.1232  0.175142
  7205.801  7205.790  0.500  2.006699  150.708  20.26  0.188811
  7207.699  7207.690  0.500  2.001458  150.627  20.3555  0.195276
  7209.620  7209.610  0.500  1.997386  150.564  20.4299  0.189430
  7211.555  7211.550  0.500  1.994328  151.092  20.5644  0.170963
  7213.518  7213.510  0.500  1.992154  151.042  20.6024  0.144861
  7215.489  7215.480  0.500  1.991385  150.988  20.6108  0.121099
  7217.489  7217.480  0.500  1.992104  150.947  20.5904  0.104054
  7219.504  7219.490  0.500  1.994020  150.902  20.5449  0.094604
  7221.533  7221.520  0.500  1.995500  150.845  20.5068  0.093123
  7223.588  7223.580  0.500  1.994986  150.774  20.5076  0.099349
  7225.662  7225.650  0.500  1.992982  150.664  20.5338  0.112414
  7227.748  7227.740  0.500  1.990036  148.058  20.2382  0.128049
  7229.860  7229.850  0.500  1.985775  150.841  20.7066  0.152238
  7231.991  7231.980  0.500  1.981249  150.789  20.7934  0.175987
  7234.130  7234.120  0.500  1.977914  150.72  20.8532  0.197890
  7236.303  7236.290  0.500  1.975963  150.678  20.8882  0.213587
  7238.491  7238.480  0.500  1.974206  150.638  20.9194  0.220814
  7240.692  7240.680  0.500  1.972222  150.597  20.9552  0.219505
  7242.910  7242.900  0.500  1.968887  150.593  21.0247  0.212441
  7245.162  7245.150  0.500  1.963600  147.825  20.7475  0.199140
  7247.421  7247.410  0.500  1.958079  150.342  21.2176  0.194571
  7249.699  7249.690  0.500  1.953394  150.353  21.3189  0.191991
  7252.003  7251.990  0.500  1.950282  150.253  21.3711  0.194557
  7254.321  7254.310  0.500  1.948327  147.748  21.0559  0.197415
  7256.659  7256.650  0.500  1.947993  150.345  21.4332  0.204812
  7259.019  7259.000  0.500  1.949500  150.183  21.3779  0.202980
  7261.392  7261.380  0.500  1.951651  149.719  21.266  0.195813
  7263.784  7263.770  0.500  1.954955  135.776  19.2219  0.172146
  7266.203  7266.190  0.500  1.953675  150.011  21.2644  0.186219
  7268.632  7268.620  0.500  1.953442  150.541  21.3444  0.181821
  7271.090  7271.070  0.500  1.951104  150.482  21.3861  0.173268
  7273.561  7273.550  0.500  1.948877  148.909  21.2097  0.163135
  7276.060  7276.040  0.500  1.947908  150.545  21.4635  0.159924
  7278.568  7278.550  0.500  1.947627  150.477  21.4598  0.156840
  7281.076  7281.070  0.500  1.946991  150.442  21.4685  0.152747
  7283.633  7283.620  0.500  1.944959  149.082  21.3177  0.145887
  7286.207  7286.190  0.500  1.941663  150.119  21.5368  0.142180
  7288.781  7288.770  0.500  1.937334  150.181  21.6392  0.140803
  7291.398  7291.380  0.500  1.932683  150.118  21.7309  0.147141
  7294.018  7294.000  0.500  1.928064  150.116  21.8313  0.160674
  7296.661  7296.650  0.500  1.923420  150.072  21.9265  0.178263
  7299.322  7299.310  0.500  1.918207  149.955  22.0239  0.196026
  7302.006  7301.990  0.500  1.912115  148.684  21.9706  0.210451
  7304.709  7304.690  0.500  1.906030  150.106  22.3162  0.225496
  7307.422  7307.410  0.500  1.899576  150.044  22.4514  0.234669
  7310.163  7310.150  0.500  1.893402  149.995  22.583  0.238869
  7312.919  7312.900  0.500  1.887202  149.921  22.7123  0.240140
  7315.692  7315.680  0.500  1.880877  149.835  22.8433  0.241253
  7318.481  7318.470  0.500  1.875415  149.779  22.9598  0.243847
  7321.304  7321.290  0.500  1.871456  149.738  23.0447  0.245512
  7324.134  7324.120  0.500  1.869464  149.679  23.0814  0.246655
  7326.981  7326.970  0.500  1.869029  149.621  23.0826  0.247198
  7329.856  7329.850  0.500  1.870129  149.535  23.0439  0.248355
  7332.757  7332.740  0.500  1.871003  149.51  23.0199  0.252712
  7335.661  7335.650  0.500  1.872061  149.477  22.9906  0.258150
  7338.585  7338.570  0.500  1.872998  147.919  22.7295  0.258386
  7341.527  7341.520  0.500  1.872859  149.237  22.9353  0.257949
  7344.502  7344.490  0.500  1.871246  149.245  22.9736  0.248648
  7347.481  7347.470  0.500  1.868328  149.145  23.0253  0.236337
  7350.491  7350.480  0.500  1.863897  149.133  23.1256  0.224428
  7353.510  7353.500  0.500  1.859041  149.076  23.2294  0.214904
  7356.557  7356.550  0.500  1.854630  148.998  23.3198  0.206813
  7359.621  7359.610  0.500  1.850059  148.928  23.4157  0.200044
  7362.703  7362.690  0.500  1.845356  148.849  23.5136  0.195418
  7365.806  7365.790  0.500  1.840269  148.793  23.6245  0.194382
  7368.919  7368.910  0.500  1.834748  148.74  23.7469  0.198094
  7372.058  7372.050  0.500  1.829361  148.692  23.8675  0.207492
  7375.211  7375.200  0.500  1.824752  148.623  23.9666  0.223929
  7378.393  7378.380  0.500  1.820790  148.532  24.047  0.248265
  7381.581  7381.570  0.500  1.817082  148.46  24.1247  0.275510
  7384.803  7384.790  0.500  1.813328  148.38  24.2022  0.297176
  7388.031  7388.020  0.500  1.809655  148.318  24.2812  0.306139
  7391.277  7391.270  0.500  1.806190  148.244  24.3533  0.305223
  7394.552  7394.550  0.500  1.803411  148.175  24.4098  0.300509
  7397.848  7397.840  0.500  1.801750  148.122  24.4416  0.297081
  7401.155  7401.150  0.500  1.800974  148.044  24.4476  0.296613
  7404.474  7404.470  0.500  1.800250  147.947  24.4493  0.298033
  7407.829  7407.820  0.500  1.799231  147.876  24.4626  0.297932
  7411.194  7411.190  0.500  1.797730  147.79  24.4851  0.297780
  7414.573  7414.570  0.500  1.795255  147.716  24.5334  0.297993
  7417.982  7417.980  0.500  1.792069  147.624  24.5964  0.299666
  7421.406  7421.400  0.500  1.788290  147.514  24.6711  0.304218
  7424.859  7424.850  0.500  1.783728  147.409  24.7663  0.311977
  7428.324  7428.310  0.500  1.778748  147.357  24.8811  0.318278
  7431.800  7431.790  0.500  1.773421  147.244  24.9949  0.320148
  7435.291  7435.290  0.500  1.768297  147.141  25.1057  0.319737
  7438.816  7438.810  0.500  1.762579  147.035  25.2315  0.316459
  7442.354  7442.350  0.500  1.756843  146.884  25.3505  0.309330
  7445.910  7445.900  0.500  1.751559  142.953  24.8028  0.293677
  7449.488  7449.480  0.500  1.747457  146.848  25.5834  0.296380
  7453.086  7453.080  0.500  1.743852  145.323  25.4091  0.292341
  7456.697  7456.690  0.500  1.740569  146.661  25.7274  0.296566
  7460.326  7460.320  0.500  1.737582  146.171  25.7181  0.298394
  7463.988  7463.980  0.500  1.735009  146.464  25.8361  0.304494
  7467.657  7467.650  0.500  1.732069  142.443  25.2007  0.305113
  7471.352  7471.340  0.500  1.729190  146.383  25.9725  0.325153
  7475.063  7475.050  0.500  1.726655  146.253  26.0153  0.335690
  7478.786  7478.780  0.500  1.724043  146.144  26.0638  0.344351
  7482.533  7482.520  0.500  1.721199  146.06  26.1231  0.352947
  7486.305  7486.290  0.500  1.717729  145.929  26.1904  0.363448
  7490.088  7490.080  0.500  1.714129  145.819  26.265  0.374263
  7493.890  7493.880  0.500  1.710170  145.708  26.3491  0.383040
  7497.722  7497.710  0.500  1.706144  145.605  26.4367  0.386731
  7501.565  7501.550  0.500  1.702350  145.498  26.5177  0.386387
  7505.415  7505.410  0.500  1.698455  145.358  26.5956  0.385411
  7509.297  7509.290  0.500  1.694335  145.216  26.6793  0.386028
  7513.203  7513.190  0.500  1.690143  145.116  26.7728  0.389223
  7517.137  7517.110  0.500  1.686112  144.991  26.8578  0.393574
  7521.064  7521.050  0.500  1.682350  144.855  26.9338  0.397288
  7525.026  7525.010  0.500  1.678729  144.714  27.0052  0.399366
  7528.997  7528.980  0.500  1.674900  144.621  27.0913  0.400173
  7532.997  7532.980  0.500  1.671128  144.499  27.1709  0.401004
  7537.011  7536.990  0.500  1.667344  144.379  27.2513  0.403730
  7541.043  7541.030  0.500  1.663750  144.251  27.325  0.407605
  7545.095  7545.080  0.500  1.660351  144.093  27.3881  0.412050
  7549.147  7549.150  0.500  1.656628  143.941  27.4612  0.415202
  7553.258  7553.240  0.500  1.652968  143.793  27.5335  0.415968
  7557.368  7557.350  0.500  1.649030  143.688  27.622  0.414163
  7561.496  7561.480  0.500  1.645189  143.553  27.7022  0.411925
  7565.646  7565.630  0.500  1.641264  143.411  27.7837  0.412561
  7569.806  7569.790  0.500  1.637681  143.262  27.8544  0.416835
  7574.000  7573.980  0.500  1.633830  143.085  27.9274  0.424890
  7578.189  7578.180  0.500  1.629863  142.934  28.0088  0.435986
  7582.424  7582.410  0.500  1.625875  142.795  28.0934  0.448095
  7586.665  7586.650  0.500  1.621922  142.631  28.1722  0.457291
  7590.920  7590.910  0.500  1.618009  142.453  28.2475  0.463731
  7595.207  7595.190  0.500  1.613996  142.256  28.3219  0.468177
  7599.509  7599.490  0.500  1.609907  141.972  28.3812  0.470486
  7603.818  7603.810  0.500  1.605794  141.429  28.3891  0.472991
  7608.160  7608.150  0.500  1.601893  141.205  28.4549  0.478635
  7612.524  7612.510  0.500  1.598028  140.968  28.5172  0.485638
  7616.905  7616.890  0.500  1.594562  140.943  28.611  0.491955
  7621.290  7621.280  0.500  1.591386  141.028  28.7193  0.495119
  7625.706  7625.700  0.500  1.587877  141.04  28.8228  0.496974
  7630.138  7630.130  0.500  1.584116  140.924  28.9077  0.500523
  7634.591  7634.580  0.500  1.580163  140.785  28.9935  0.506755
  7639.066  7639.050  0.500  1.575749  140.651  29.0939  0.515380
  7643.554  7643.540  0.500  1.571220  140.502  29.1952  0.524451
  7648.062  7648.050  0.500  1.566923  140.351  29.2894  0.531883
  7652.591  7652.580  0.500  1.562714  140.146  29.37  0.537048
  7657.141  7657.130  0.500  1.558637  139.996  29.4582  0.541733
  7661.713  7661.700  0.500  1.554673  139.81  29.536  0.544737
  7666.292  7666.280  0.500  1.550725  139.654  29.6198  0.546991
  7670.903  7670.890  0.500  1.546616  139.464  29.7014  0.548598
  7675.521  7675.510  0.500  1.542766  139.428  29.8081  0.549950
  7680.176  7680.160  0.500  1.539108  139.575  29.949  0.552683
  7684.831  7684.820  0.500  1.535200  139.319  30.0111  0.555735
  7689.511  7689.500  0.500  1.531532  139.45  30.1496  0.562797
  7694.207  7694.200  0.500  1.527697  139.178  30.2066  0.569753
  7698.926  7698.920  0.500  1.524098  138.958  30.2675  0.576804
  7703.675  7703.660  0.500  1.520465  138.74  30.3299  0.583855
  7708.417  7708.410  0.500  1.516868  138.657  30.421  0.591428
  7713.193  7713.190  0.500  1.512983  138.393  30.4814  0.599022
  7717.998  7717.990  0.500  1.508945  138.139  30.5484  0.606996
  7722.809  7722.800  0.500  1.504694  138.036  30.6559  0.615543
  7727.641  7727.630  0.500  1.500528  137.818  30.735  0.621392
  7732.501  7732.490  0.500  1.496319  137.58  30.8116  0.626968
  7737.369  7737.360  0.500  1.492226  137.3  30.8748  0.632233
  7742.259  7742.250  0.500  1.488391  137.375  31.0104  0.639364
  7747.175  7747.160  0.500  1.484151  137.103  31.0805  0.645245
  7752.111  7752.090  0.500  1.479799  136.89  31.1677  0.650801
  7757.041  7757.030  0.500  1.475616  136.693  31.2531  0.657004
  7762.018  7762.000  0.500  1.471323  136.476  31.3379  0.664615
  7767.002  7766.990  0.500  1.467100  136.288  31.427  0.672856
  7772.008  7771.990  0.500  1.462936  136.044  31.5018  0.681095
  7777.039  7777.020  0.500  1.458859  135.812  31.5766  0.688861
  7782.071  7782.060  0.500  1.455072  135.577  31.6414  0.695305
  7787.123  7787.120  0.500  1.451178  135.366  31.7156  0.702128
  7792.208  7792.200  0.500  1.447275  135.196  31.7995  0.708704
  7797.300  7797.300  0.500  1.443269  135.044  31.8912  0.714786
  7802.422  7802.420  0.500  1.439148  134.834  31.9731  0.720057
  7807.564  7807.560  0.500  1.435127  134.65  32.0581  0.725769
  7812.715  7812.720  0.500  1.431140  134.451  32.1386  0.731102
  7817.900  7817.900  0.500  1.427133  134.244  32.2181  0.736952
  7823.091  7823.090  0.500  1.423177  134.029  32.294  0.743282
  7828.314  7828.310  0.500  1.419081  133.78  32.3663  0.749577
  7833.541  7833.540  0.500  1.415073  133.574  32.4463  0.755682
  7838.791  7838.790  0.500  1.411011  133.068  32.4549  0.760872
  7844.061  7844.060  0.500  1.406811  133.185  32.62  0.770294
  7849.350  7849.350  0.500  1.402650  132.912  32.689  0.777491
  7854.661  7854.660  0.500  1.398563  131.817  32.5523  0.780103
  7859.996  7859.990  0.500  1.394405  132.481  32.8528  0.793639
  7865.354  7865.340  0.500  1.390170  132.299  32.9469  0.802963
  7870.717  7870.710  0.500  1.385997  132.065  33.0261  0.812001
  7876.101  7876.090  0.500  1.381910  131.804  33.0959  0.820663
  7881.514  7881.500  0.500  1.377924  131.565  33.1677  0.828933
  7886.931  7886.920  0.500  1.373847  131.343  33.247  0.838066
  7892.383  7892.370  0.500  1.369690  131.122  33.3293  0.846494
  7897.846  7897.830  0.500  1.365690  130.827  33.3877  0.854650
  7903.329  7903.310  0.500  1.361636  130.62  33.4702  0.863390
  7908.829  7908.810  0.500  1.357544  130.389  33.5481  0.871845
  7914.350  7914.330  0.500  1.353546  130.135  33.6167  0.879921
  7919.887  7919.870  0.500  1.349300  129.91  33.7014  0.888551
  7925.434  7925.420  0.500  1.345425  129.696  33.7766  0.897142
  7931.011  7931.000  0.500  1.341200  129.323  33.822  0.904737
  7936.613  7936.600  0.500  1.337097  128.969  33.868  0.911845
  7942.222  7942.210  0.500  1.332937  128.976  34.0111  0.920698
  7947.870  7947.850  0.500  1.329130  128.632  34.0499  0.927059
  7953.520  7953.500  0.500  1.325201  128.324  34.1022  0.934005
  7959.187  7959.170  0.500  1.320907  128.039  34.1728  0.942137
  7964.884  7964.860  0.500  1.316765  127.745  34.2357  0.949834