File: xdidata/Fe/Fe-IronPhosphate.xdi
# XDI/1.0 BlueSky/1.10.0 BMM/2023-1.0-py310-tiled
# Beamline.name: BMM (06BM) -- Beamline for Materials Measurement (NIST)
# Beamline.xray_source: NSLS-II three-pole wiggler
# Beamline.collimation: paraboloid mirror, 5 nm Rh on 30 nm Pt
# Beamline.focusing: not in use
# Beamline.harmonic_rejection: flat mirror, Si stripe, pitch = 7.0 mrad relative to beam
# Beamline.software: Bluesky 1.10.0, Ophyd 1.7.0, DataBroker 2.0.0b13, Python 3.10.8, 2023-1.0-py310-tiled
# Detector.I0: 10 cm N2
# Detector.I1: 25 cm N2
# Detector.I2: 25 cm N2
# Element.symbol: Fe
# Element.edge: K
# Element.reference: Fe
# Element.reference_material: Fe foil
# Facility.name: NSLS-II
# Facility.energy: 3.0
# Facility.current: 400.8
# Facility.mode: top-off
# Facility.GUP: 123456
# Facility.SAF: 301027
# Facility.cycle: 2023-2
# Mono.name: Si(111)
# Mono.d_spacing: 3.13519
# Mono.encoder_resolution: 0.0000050 deg/ct
# Mono.angle_offset: 16.0754 deg
# Mono.scan_mode: pseudo channel cut
# Mono.scan_type: step
# Mono.direction: forward in energy
# Sample.name: FePO4
# Sample.prep: powder on tape
# Sample.x: 116.329 mm
# Sample.y: 114.126 mm
# Sample.SDD_position: 205.000 mm
# Scan.experimenters: Bruce Ravel
# Scan.edge_energy: 7112.0
# Scan.start_time: 2023-05-05T17:12:59
# Scan.end_time: 2023-05-05T17:21:05
# Scan.transient_id: 74511
# Scan.uid: 43bba369-1f24-4edf-9205-895accda971d
# Scan.plot_hint: ln(I0/It)  --  ln($5/$6)
# Column.1: energy eV
# Column.2: requested_energy eV
# Column.3: measurement_time seconds
# Column.4: xmu
# Column.5: I0 nA
# Column.6: It nA
# Column.7: Ir nA
# ///////////
# Welcome to BMM
# -----------
# energy  requested_energy  measurement_time  xmu  I0  It  Ir
  6911.999  6912.000  0.500  1.127091  154.087  49.9203  9.376513
  6922.011  6922.000  0.500  1.119952  153.959  50.236  9.503508
  6932.017  6932.000  0.500  1.112164  153.909  50.6126  9.642396
  6942.003  6942.000  0.500  1.104649  153.926  51  9.783686
  6951.991  6952.000  0.500  1.097148  153.909  51.3781  9.925733
  6962.006  6962.000  0.500  1.089657  153.933  51.7725  10.0715
  6972.016  6972.000  0.500  1.082206  153.927  52.1578  10.217
  6982.023  6982.000  0.500  1.074824  153.885  52.5299  10.3592
  6992.010  6992.000  0.500  1.067658  153.87  52.9026  10.5032
  7002.013  7002.000  0.500  1.061002  153.83  53.2418  10.6407
  7012.010  7012.000  0.500  1.053913  153.777  53.6022  10.7842
  7022.016  7022.000  0.500  1.046839  153.724  53.9642  10.9289
  7032.014  7032.000  0.500  1.039368  153.664  54.3475  11.0756
  7042.015  7042.000  0.500  1.032376  153.589  54.7023  11.2174
  7052.013  7052.000  0.500  1.025490  153.509  55.0514  11.3565
  7062.008  7062.000  0.500  1.018606  152.734  55.1519  11.4403
  7072.011  7072.000  0.500  1.011849  153.336  55.7449  11.6198
  7081.980  7082.000  0.500  1.005496  153.377  56.1151  11.7379
  7083.981  7084.000  0.500  1.004340  153.139  56.0928  11.7385
  7085.985  7086.000  0.500  1.003022  153.254  56.2088  11.7653
  7087.988  7088.000  0.500  1.001898  153.269  56.2775  11.7817
  7089.981  7090.000  0.500  1.000955  153.26  56.3274  11.7913
  7091.989  7092.000  0.500  0.999584  153.226  56.3922  11.8017
  7093.978  7094.000  0.500  0.998445  153.235  56.4599  11.808
  7095.973  7096.000  0.500  0.997438  153.206  56.506  11.804
  7097.997  7098.000  0.500  0.996207  153.08  56.5292  11.7869
  7099.988  7100.000  0.500  0.995509  153.142  56.5915  11.7688
  7101.995  7102.000  0.500  0.994687  153.103  56.6234  11.7251
  7102.286  7102.300  0.500  0.994553  153.087  56.6252  11.7178
  7102.585  7102.600  0.500  0.994504  153.1  56.6328  11.7088
  7102.884  7102.900  0.500  0.994416  153.101  56.638  11.7002
  7103.184  7103.200  0.500  0.994352  153.088  56.637  11.6888
  7103.485  7103.500  0.500  0.994271  153.086  56.6407  11.6755
  7103.781  7103.800  0.500  0.994337  153.077  56.6336  11.6608
  7104.084  7104.100  0.500  0.994080  153.062  56.6427  11.6463
  7104.384  7104.400  0.500  0.994112  153.047  56.6354  11.6305
  7104.686  7104.700  0.500  0.994208  153.051  56.6313  11.6128
  7104.987  7105.000  0.500  0.994199  153.039  56.6273  11.5934
  7105.283  7105.300  0.500  0.994156  153.037  56.6291  11.5722
  7105.587  7105.600  0.500  0.994001  153.037  56.6379  11.5511
  7105.888  7105.900  0.500  0.993955  153.031  56.6381  11.527
  7106.190  7106.200  0.500  0.993842  153.011  56.6374  11.5002
  7106.492  7106.500  0.500  0.993862  153.015  56.6375  11.4702
  7106.790  7106.800  0.500  0.993878  153.016  56.6372  11.4373
  7107.087  7107.100  0.500  0.993769  152.995  56.6357  11.4008
  7107.389  7107.400  0.500  0.993872  152.983  56.6254  11.3557
  7107.693  7107.700  0.500  0.993806  152.988  56.6308  11.3065
  7107.989  7108.000  0.500  0.994344  152.967  56.5926  11.2435
  7108.289  7108.300  0.500  0.994419  152.968  56.5886  11.1759
  7108.586  7108.600  0.500  0.994757  152.946  56.5616  11.0942
  7108.888  7108.900  0.500  0.995092  152.943  56.5413  10.9972
  7109.193  7109.200  0.500  0.995251  152.928  56.5268  10.8778
  7109.495  7109.500  0.500  0.995463  152.909  56.5077  10.7276
  7109.793  7109.800  0.500  0.995537  152.88  56.4931  10.5309
  7110.093  7110.100  0.500  0.995972  152.868  56.4639  10.2543
  7110.397  7110.400  0.500  0.996501  152.854  56.429  9.855145
  7110.697  7110.700  0.500  0.997309  152.831  56.3748  9.310279
  7110.995  7111.000  0.500  0.998338  152.781  56.2985  8.607048
  7111.297  7111.300  0.500  0.999914  152.781  56.2099  7.781096
  7111.593  7111.600  0.500  1.002002  152.734  56.0752  6.934954
  7111.893  7111.900  0.500  1.005219  152.701  55.883  6.179331
  7112.194  7112.200  0.500  1.009880  152.681  55.616  5.577125
  7112.492  7112.500  0.500  1.017207  152.664  55.2037  5.115119
  7112.792  7112.800  0.500  1.028391  152.632  54.5783  4.743002
  7113.094  7113.100  0.500  1.044767  152.622  53.6882  4.408301
  7113.395  7113.400  0.500  1.064084  152.595  52.6519  4.106916
  7113.699  7113.700  0.500  1.082123  152.588  51.7084  3.836328
  7114.000  7114.000  0.500  1.090495  152.577  51.2735  3.627168
  7114.298  7114.300  0.500  1.083808  152.554  51.6097  3.496595
  7114.598  7114.600  0.500  1.065844  152.544  52.5417  3.429301
  7114.899  7114.900  0.500  1.045857  152.539  53.6007  3.397610
  7115.201  7115.200  0.500  1.030451  152.533  54.4309  3.377553
  7115.500  7115.500  0.500  1.020731  152.535  54.9632  3.359020
  7115.798  7115.800  0.500  1.014526  152.512  55.2968  3.340747
  7116.097  7116.100  0.500  1.011348  152.482  55.4622  3.319311
  7116.395  7116.400  0.500  1.009826  152.503  55.5543  3.291090
  7116.696  7116.700  0.500  1.009436  152.498  55.5741  3.245239
  7116.994  7117.000  0.500  1.010034  152.474  55.5321  3.170763
  7117.295  7117.300  0.500  1.010454  152.466  55.5058  3.067652
  7117.598  7117.600  0.500  1.011387  152.453  55.4494  2.926874
  7117.903  7117.900  0.500  1.012431  152.434  55.3845  2.757531
  7118.201  7118.200  0.500  1.013595  152.421  55.3153  2.572563
  7118.502  7118.500  0.500  1.014872  152.405  55.239  2.384385
  7118.801  7118.800  0.500  1.016578  152.388  55.1387  2.200587
  7119.104  7119.100  0.500  1.018800  152.36  55.0062  2.028576
  7119.404  7119.400  0.500  1.021679  152.365  54.8499  1.866416
  7119.703  7119.700  0.500  1.025188  152.343  54.65  1.716543
  7119.995  7120.000  0.500  1.030362  152.342  54.3674  1.572373
  7120.298  7120.300  0.500  1.037466  152.311  53.9718  1.430284
  7120.597  7120.600  0.500  1.046819  152.301  53.4656  1.296289
  7120.903  7120.900  0.500  1.058704  152.293  52.8312  1.174420
  7121.197  7121.200  0.500  1.073201  152.264  52.0609  1.066468
  7121.496  7121.500  0.500  1.089969  152.248  51.1899  0.973200
  7121.799  7121.800  0.500  1.109767  152.22  50.1771  0.891012
  7122.105  7122.100  0.500  1.133478  152.206  48.9969  0.816598
  7122.403  7122.400  0.500  1.160231  152.172  47.6927  0.751176
  7122.702  7122.700  0.500  1.190909  152.203  46.2613  0.690835
  7123.001  7123.000  0.500  1.224067  152.181  44.7461  0.636325
  7123.303  7123.300  0.500  1.257740  152.152  43.2563  0.587933
  7123.606  7123.600  0.500  1.289793  152.138  41.8878  0.545832
  7123.901  7123.900  0.500  1.316218  152.114  40.7891  0.512202
  7124.202  7124.200  0.500  1.336923  152.493  40.0526  0.485217
  7124.499  7124.500  0.500  1.351524  152.475  39.4674  0.461852
  7124.796  7124.800  0.500  1.362444  152.473  39.0383  0.441750
  7125.100  7125.100  0.500  1.371251  152.456  38.6917  0.423660
  7125.397  7125.400  0.500  1.379326  152.429  38.3737  0.407504
  7125.700  7125.700  0.500  1.386784  152.412  38.0845  0.392156
  7125.999  7126.000  0.500  1.392801  152.388  37.8498  0.378278
  7126.297  7126.300  0.500  1.397064  152.348  37.6789  0.364579
  7126.607  7126.600  0.500  1.399185  152.344  37.5983  0.351717
  7126.902  7126.900  0.500  1.398991  152.305  37.5958  0.339571
  7127.201  7127.200  0.500  1.398128  152.288  37.6242  0.327418
  7127.501  7127.500  0.500  1.397294  152.265  37.6498  0.314274
  7127.804  7127.800  0.500  1.397827  152.241  37.6238  0.300641
  7128.108  7128.100  0.500  1.400570  152.214  37.5142  0.286581
  7128.399  7128.400  0.500  1.405492  152.18  37.3217  0.272239
  7128.696  7128.700  0.500  1.413359  152.166  37.0256  0.256868
  7128.998  7129.000  0.500  1.423075  152.142  36.6619  0.241659
  7129.297  7129.300  0.500  1.433619  152.114  36.2708  0.227371
  7129.601  7129.600  0.500  1.444406  152.079  35.8733  0.213959
  7129.903  7129.900  0.500  1.453718  152.068  35.5384  0.203194
  7130.201  7130.200  0.500  1.462304  152.033  35.2263  0.193968
  7130.502  7130.500  0.500  1.470499  151.996  34.9304  0.186828
  7130.804  7130.800  0.500  1.478135  151.976  34.66  0.182007
  7131.102  7131.100  0.500  1.485685  151.928  34.3885  0.179543
  7131.404  7131.400  0.500  1.492556  151.907  34.1482  0.179372
  7131.699  7131.700  0.500  1.498327  151.881  33.9461  0.181550
  7132.003  7132.000  0.500  1.503344  151.873  33.7743  0.186120
  7132.301  7132.300  0.500  1.507666  151.884  33.631  0.191805
  7132.599  7132.600  0.500  1.511365  151.873  33.5046  0.198744
  7132.896  7132.900  0.500  1.514606  151.858  33.3927  0.206366
  7133.196  7133.200  0.500  1.517826  151.855  33.2848  0.214923
  7133.501  7133.500  0.500  1.521036  151.854  33.1779  0.224000
  7133.796  7133.800  0.500  1.523237  151.858  33.1057  0.232782
  7134.098  7134.100  0.500  1.525128  151.839  33.0391  0.241533
  7134.398  7134.400  0.500  1.526311  151.845  33.0015  0.249616
  7134.698  7134.700  0.500  1.527064  151.823  32.9717  0.257151
  7135.007  7135.000  0.500  1.527477  151.839  32.9617  0.263810
  7135.303  7135.300  0.500  1.527820  151.841  32.9507  0.269203
  7135.599  7135.600  0.500  1.527921  151.826  32.9442  0.274074
  7135.903  7135.900  0.500  1.527957  151.825  32.9429  0.278012
  7136.203  7136.200  0.500  1.527782  151.819  32.9471  0.281103
  7136.503  7136.500  0.500  1.527293  151.793  32.9577  0.283054
  7136.801  7136.800  0.500  1.526552  151.79  32.9815  0.283781
  7136.994  7137.000  0.500  1.525975  151.775  32.9972  0.284048
  7137.996  7137.990  0.500  1.522058  151.777  33.1272  0.279560
  7139.007  7138.990  0.500  1.517595  151.77  33.2737  0.268517
  7140.026  7140.010  0.500  1.513097  151.766  33.4229  0.256789
  7141.072  7141.060  0.500  1.509059  151.753  33.5553  0.249556
  7142.136  7142.120  0.500  1.507503  151.775  33.6125  0.248872
  7143.216  7143.200  0.500  1.505960  151.773  33.664  0.253301
  7144.313  7144.300  0.500  1.504171  151.771  33.7236  0.257730
  7145.439  7145.420  0.500  1.502102  151.746  33.788  0.256667
  7146.578  7146.560  0.500  1.499205  151.779  33.8935  0.247589
  7147.739  7147.710  0.500  1.495362  151.756  34.0188  0.233093
  7148.884  7148.890  0.500  1.490010  151.723  34.1939  0.218967
  7150.072  7150.080  0.500  1.483462  151.703  34.4139  0.210101
  7151.295  7151.300  0.500  1.474504  151.704  34.7239  0.206024
  7152.525  7152.530  0.500  1.463467  151.698  35.1079  0.203978
  7153.777  7153.780  0.500  1.451326  151.688  35.5343  0.204503
  7155.054  7155.050  0.500  1.439870  151.666  35.9385  0.208674
  7156.340  7156.340  0.500  1.428478  151.659  36.3486  0.215111
  7157.661  7157.650  0.500  1.416608  151.625  36.7743  0.220943
  7158.986  7158.980  0.500  1.405229  151.596  37.1881  0.224386
  7160.332  7160.330  0.500  1.395550  151.581  37.5461  0.227182
  7161.711  7161.700  0.500  1.387366  151.548  37.8464  0.231063
  7163.095  7163.080  0.500  1.381456  151.505  38.06  0.236161
  7164.500  7164.490  0.500  1.377495  151.454  38.198  0.241983
  7165.920  7165.910  0.500  1.374442  151.414  38.3049  0.246792
  7167.357  7167.350  0.500  1.372288  151.374  38.3773  0.250157
  7168.809  7168.810  0.500  1.372088  151.335  38.3751  0.253409
  7170.290  7170.290  0.500  1.374529  151.318  38.2772  0.257308
  7171.793  7171.790  0.500  1.379074  151.293  38.0973  0.263830
  7173.314  7173.310  0.500  1.385344  151.264  37.8519  0.273785
  7174.860  7174.850  0.500  1.392859  151.24  37.5625  0.286474
  7176.409  7176.410  0.500  1.397009  151.191  37.395  0.301998
  7177.989  7177.980  0.500  1.398389  151.19  37.3432  0.317863
  7179.585  7179.580  0.500  1.400031  151.185  37.2806  0.327593
  7181.197  7181.190  0.500  1.402041  151.148  37.1966  0.329357
  7182.843  7182.830  0.500  1.404499  151.112  37.0964  0.325311
  7184.487  7184.480  0.500  1.407148  151.074  36.9891  0.317493
  7186.157  7186.150  0.500  1.409719  151.032  36.8838  0.304327
  7187.846  7187.840  0.500  1.411676  150.981  36.7993  0.288378
  7189.559  7189.550  0.500  1.412335  150.986  36.7761  0.272525
  7191.288  7191.280  0.500  1.412169  149.298  36.3712  0.253598
  7193.035  7193.030  0.500  1.411413  150.628  36.7228  0.242708
  7194.801  7194.790  0.500  1.410690  150.795  36.7901  0.238371
  7196.587  7196.580  0.500  1.409778  150.784  36.8212  0.244153
  7198.394  7198.380  0.500  1.408679  150.734  36.8494  0.256841
  7200.222  7200.210  0.500  1.407661  150.681  36.874  0.274531
  7202.059  7202.050  0.500  1.406839  150.643  36.895  0.296293
  7203.915  7203.910  0.500  1.406980  150.608  36.8812  0.320688
  7205.806  7205.790  0.500  1.407341  150.561  36.8563  0.343867
  7207.697  7207.690  0.500  1.407926  150.52  36.8247  0.353796
  7209.622  7209.610  0.500  1.408541  150.461  36.7878  0.341807
  7211.557  7211.550  0.500  1.408473  150.407  36.7771  0.306858
  7213.523  7213.510  0.500  1.407989  150.357  36.7826  0.259754
  7215.489  7215.480  0.500  1.406434  150.306  36.8272  0.217350
  7217.496  7217.480  0.500  1.404299  150.246  36.8913  0.186878
  7219.500  7219.490  0.500  1.401706  150.172  36.9688  0.170648
  7221.529  7221.520  0.500  1.398698  150.128  37.0694  0.168521
  7223.588  7223.580  0.500  1.395248  150.084  37.1865  0.180286
  7225.660  7225.650  0.500  1.391360  149.968  37.3026  0.203943
  7227.750  7227.740  0.500  1.387455  147.358  36.7967  0.232780
  7229.862  7229.850  0.500  1.383590  150.136  37.6355  0.276196
  7231.991  7231.980  0.500  1.379448  150.091  37.7805  0.319610
  7234.130  7234.120  0.500  1.375316  150.03  37.9216  0.359984
  7236.301  7236.290  0.500  1.371648  149.959  38.0429  0.389384
  7238.489  7238.480  0.500  1.368025  149.928  38.1732  0.402903
  7240.699  7240.680  0.500  1.364465  149.866  38.2933  0.401869
  7242.905  7242.900  0.500  1.361089  149.862  38.4218  0.388851
  7245.165  7245.150  0.500  1.357724  147.07  37.8332  0.363483
  7247.423  7247.410  0.500  1.354826  149.615  38.5995  0.354576
  7249.696  7249.690  0.500  1.352416  149.646  38.7006  0.348409
  7252.003  7251.990  0.500  1.350506  149.566  38.7538  0.352775
  7254.321  7254.310  0.500  1.349327  147.109  38.1622  0.358185
  7256.664  7256.650  0.500  1.348565  149.665  38.855  0.371881
  7259.008  7259.000  0.500  1.348045  149.477  38.8263  0.368520
  7261.394  7261.380  0.500  1.347889  148.993  38.7067  0.357177
  7263.791  7263.770  0.500  1.348423  135.844  35.2719  0.316369
  7266.194  7266.190  0.500  1.348194  149.298  38.7739  0.340430
  7268.632  7268.620  0.500  1.348602  149.826  38.8953  0.331606
  7271.079  7271.070  0.500  1.348744  149.757  38.8719  0.315735
  7273.561  7273.550  0.500  1.348772  148.292  38.4905  0.296450
  7276.049  7276.040  0.500  1.348488  149.783  38.8886  0.290406
  7278.568  7278.550  0.500  1.347281  149.745  38.9255  0.284943
  7281.078  7281.070  0.500  1.345589  149.718  38.9846  0.277285
  7283.633  7283.620  0.500  1.343502  148.453  38.7359  0.265248
  7286.205  7286.190  0.500  1.341468  149.36  39.052  0.257856
  7288.779  7288.770  0.500  1.339322  149.429  39.1539  0.255225
  7291.398  7291.380  0.500  1.337850  149.395  39.2027  0.265214
  7294.018  7294.000  0.500  1.336192  149.364  39.2596  0.288931
  7296.664  7296.650  0.500  1.334673  149.323  39.3085  0.319670
  7299.322  7299.310  0.500  1.333370  149.208  39.3293  0.350399
  7302.001  7301.990  0.500  1.332024  147.813  39.0141  0.373753
  7304.700  7304.690  0.500  1.330858  149.318  39.4573  0.398960
  7307.422  7307.410  0.500  1.329477  149.247  39.4931  0.413077
  7310.166  7310.150  0.500  1.327837  149.182  39.5407  0.419198
  7312.919  7312.900  0.500  1.325499  149.087  39.608  0.419227
  7315.692  7315.680  0.500  1.323296  149.024  39.6787  0.419641
  7318.486  7318.470  0.500  1.320591  148.971  39.7719  0.422327
  7321.304  7321.290  0.500  1.317807  149.401  39.9978  0.427042
  7324.130  7324.120  0.500  1.314687  149.333  40.1047  0.429289
  7326.981  7326.970  0.500  1.311492  149.261  40.2136  0.431165
  7329.861  7329.850  0.500  1.308496  149.183  40.3131  0.434834
  7332.753  7332.740  0.500  1.305765  149.116  40.4052  0.444161
  7335.663  7335.650  0.500  1.303284  149.051  40.4878  0.455026
  7338.580  7338.570  0.500  1.300991  147.623  40.1922  0.457400
  7341.529  7341.520  0.500  1.298794  148.831  40.6101  0.457759
  7344.502  7344.490  0.500  1.296358  148.804  40.7019  0.442179
  7347.481  7347.470  0.500  1.293903  148.78  40.7953  0.419324
  7350.496  7350.480  0.500  1.291168  148.717  40.8895  0.397800
  7353.508  7353.500  0.500  1.288406  148.677  40.9918  0.379543
  7356.559  7356.550  0.500  1.286004  148.585  41.0648  0.364839
  7359.625  7359.610  0.500  1.283319  148.485  41.1476  0.351941
  7362.703  7362.690  0.500  1.280638  148.45  41.2483  0.343410
  7365.802  7365.790  0.500  1.277655  148.359  41.3461  0.340680
  7368.921  7368.910  0.500  1.275141  148.29  41.431  0.345623
  7372.058  7372.050  0.500  1.272986  148.245  41.5077  0.360825
  7375.216  7375.200  0.500  1.270999  148.177  41.5711  0.388632
  7378.397  7378.380  0.500  1.269163  148.086  41.6221  0.429593
  7381.584  7381.570  0.500  1.267392  148.015  41.6758  0.476541
  7384.799  7384.790  0.500  1.265608  147.932  41.7269  0.512687
  7388.033  7388.020  0.500  1.263751  147.878  41.789  0.527213
  7391.277  7391.270  0.500  1.261878  147.796  41.8442  0.524993
  7394.554  7394.550  0.500  1.260065  147.728  41.901  0.516962
  7397.848  7397.840  0.500  1.258247  147.65  41.9551  0.510641
  7401.160  7401.150  0.500  1.256587  147.556  41.9978  0.510777
  7404.486  7404.470  0.500  1.254744  147.478  42.0531  0.513343
  7407.822  7407.820  0.500  1.253033  147.373  42.0953  0.513716
  7411.201  7411.190  0.500  1.251325  147.302  42.1469  0.513247
  7414.573  7414.570  0.500  1.249242  147.221  42.2115  0.513422
  7417.977  7417.980  0.500  1.247223  147.12  42.2677  0.515702
  7421.408  7421.400  0.500  1.245057  146.991  42.3223  0.522898
  7424.859  7424.850  0.500  1.242918  146.914  42.3908  0.534893
  7428.319  7428.310  0.500  1.240608  146.844  42.4684  0.544012
  7431.802  7431.790  0.500  1.238251  146.697  42.5262  0.545772
  7435.303  7435.290  0.500  1.235562  146.664  42.6311  0.543815
  7438.814  7438.810  0.500  1.232806  146.557  42.7175  0.536638
  7442.352  7442.350  0.500  1.230132  146.398  42.7853  0.522890
  7445.910  7445.900  0.500  1.227432  142.467  41.749  0.495125
  7449.490  7449.480  0.500  1.224891  146.297  42.9805  0.498781
  7453.091  7453.080  0.500  1.222456  144.939  42.6855  0.491733
  7456.704  7456.690  0.500  1.219796  146.108  43.1444  0.497787
  7460.326  7460.320  0.500  1.217014  145.519  43.09  0.500795
  7463.985  7463.980  0.500  1.214298  145.872  43.312  0.510791
  7467.662  7467.650  0.500  1.211567  141.895  42.2466  0.511612
  7471.350  7471.340  0.500  1.208900  145.817  43.53  0.545308
  7475.058  7475.050  0.500  1.206697  145.689  43.5877  0.563153
  7478.794  7478.780  0.500  1.203620  145.555  43.6818  0.578032
  7482.538  7482.520  0.500  1.201127  145.433  43.7542  0.591491
  7486.310  7486.290  0.500  1.198549  145.279  43.8206  0.608346
  7490.096  7490.080  0.500  1.195960  145.182  43.9049  0.626229
  7493.902  7493.880  0.500  1.193480  145.066  43.9789  0.640259
  7497.722  7497.710  0.500  1.191297  144.975  44.0472  0.645332
  7501.565  7501.550  0.500  1.188793  144.861  44.123  0.643842
  7505.417  7505.410  0.500  1.186110  144.736  44.2033  0.641600
  7509.300  7509.290  0.500  1.183671  144.614  44.2741  0.641568
  7513.208  7513.190  0.500  1.181237  144.511  44.3504  0.645522
  7517.130  7517.110  0.500  1.178485  144.336  44.4187  0.651872
  7521.069  7521.050  0.500  1.175909  144.182  44.4858  0.657047
  7525.021  7525.010  0.500  1.173498  144.032  44.5468  0.659637
  7529.002  7528.980  0.500  1.170827  143.93  44.6341  0.660131
  7533.002  7532.980  0.500  1.168393  143.81  44.7058  0.660552
  7537.015  7536.990  0.500  1.165894  143.69  44.78  0.664126
  7541.046  7541.030  0.500  1.163615  143.559  44.8413  0.670073
  7545.100  7545.080  0.500  1.161435  143.414  44.8939  0.675784
  7549.164  7549.150  0.500  1.159065  143.283  44.9593  0.680453
  7553.237  7553.240  0.500  1.156598  143.153  45.0293  0.681289
  7557.341  7557.350  0.500  1.154133  142.98  45.0859  0.676482
  7561.501  7561.480  0.500  1.151819  142.828  45.1425  0.672592
  7565.629  7565.630  0.500  1.149462  142.683  45.2031  0.672030
  7569.811  7569.790  0.500  1.147091  142.539  45.2646  0.678107
  7574.005  7573.980  0.500  1.144568  142.413  45.3388  0.690709
  7578.167  7578.180  0.500  1.142067  142.29  45.413  0.707999
  7582.432  7582.410  0.500  1.139574  142.136  45.4772  0.725777
  7586.672  7586.650  0.500  1.137086  141.944  45.5287  0.739905
  7590.932  7590.910  0.500  1.134295  141.719  45.5838  0.749484
  7595.207  7595.190  0.500  1.131791  141.478  45.6204  0.754684
  7599.509  7599.490  0.500  1.129051  141.235  45.6669  0.757483
  7603.828  7603.810  0.500  1.126070  140.681  45.6235  0.760873
  7608.169  7608.150  0.500  1.123226  140.443  45.6763  0.769317
  7612.536  7612.510  0.500  1.120653  140.256  45.7327  0.780097
  7616.905  7616.890  0.500  1.117809  140.199  45.8444  0.789579
  7621.299  7621.280  0.500  1.114802  140.302  46.0163  0.794007
  7625.721  7625.700  0.500  1.112072  140.327  46.1502  0.797183
  7630.153  7630.130  0.500  1.109211  140.215  46.2457  0.801440
  7634.598  7634.580  0.500  1.106555  140.069  46.3204  0.810833
  7639.073  7639.050  0.500  1.103777  139.909  46.3959  0.822922
  7643.554  7643.540  0.500  1.100861  139.738  46.4746  0.835427
  7648.072  7648.050  0.500  1.098363  139.591  46.5419  0.845882
  7652.566  7652.580  0.500  1.095567  139.4  46.6084  0.853688
  7657.151  7657.130  0.500  1.092772  139.196  46.6705  0.859323
  7661.723  7661.700  0.500  1.089970  139.025  46.744  0.863677
  7666.297  7666.280  0.500  1.087281  138.844  46.8088  0.865087
  7670.901  7670.890  0.500  1.084669  138.66  46.8691  0.865986
  7675.531  7675.510  0.500  1.082334  138.511  46.9281  0.866916
  7680.176  7680.160  0.500  1.079512  138.292  46.9863  0.868385
  7684.836  7684.820  0.500  1.076879  137.991  47.0076  0.871878
  7689.516  7689.500  0.500  1.074129  138.116  47.1797  0.881891
  7694.207  7694.200  0.500  1.071485  137.826  47.2053  0.891424
  7698.921  7698.920  0.500  1.068742  137.633  47.2686  0.902087
  7703.672  7703.660  0.500  1.066118  137.39  47.3092  0.911626
  7708.427  7708.410  0.500  1.063428  137.301  47.406  0.922406
  7713.203  7713.190  0.500  1.060785  137.021  47.4345  0.933284
  7718.000  7717.990  0.500  1.058072  136.774  47.4775  0.944858
  7722.821  7722.800  0.500  1.055542  136.67  47.5616  0.955956
  7727.646  7727.630  0.500  1.052904  136.433  47.6047  0.964136
  7732.511  7732.490  0.500  1.049987  136.227  47.6715  0.971011
  7737.384  7737.360  0.500  1.047265  135.866  47.6748  0.977027
  7742.233  7742.250  0.500  1.044554  136.006  47.8535  0.987830
  7747.170  7747.160  0.500  1.041735  135.712  47.8851  0.995447
  7752.106  7752.090  0.500  1.039005  135.518  47.9473  1.002600
  7757.054  7757.030  0.500  1.036238  135.336  48.0155  1.009785
  7762.026  7762.000  0.500  1.033651  135.102  48.0565  1.019663
  7767.013  7766.990  0.500  1.030963  134.939  48.1276  1.031558
  7771.998  7771.990  0.500  1.028206  134.752  48.1937  1.042753
  7777.021  7777.020  0.500  1.025372  134.561  48.2622  1.053902
  7782.058  7782.060  0.500  1.022786  134.333  48.305  1.062845
  7787.123  7787.120  0.500  1.020143  134.104  48.3502  1.071697
  7792.203  7792.200  0.500  1.017148  133.903  48.4226  1.080530
  7797.302  7797.300  0.500  1.014167  133.709  48.4969  1.088158
  7802.427  7802.420  0.500  1.011270  133.526  48.571  1.095415
  7807.569  7807.560  0.500  1.008456  133.318  48.632  1.101970
  7812.723  7812.720  0.500  1.005381  133.108  48.7048  1.108895
  7817.910  7817.900  0.500  1.002560  132.922  48.7743  1.116769
  7823.105  7823.090  0.500  0.999682  132.681  48.826  1.124904
  7828.322  7828.310  0.500  0.997018  132.506  48.8917  1.133853
  7833.551  7833.540  0.500  0.993975  132.267  48.9523  1.141516
  7838.809  7838.790  0.500  0.990918  131.718  48.8983  1.147702
  7844.075  7844.060  0.500  0.988202  131.828  49.0723  1.160360
  7849.360  7849.350  0.500  0.985163  131.53  49.1105  1.169257
  7854.677  7854.660  0.500  0.982305  130.485  48.8596  1.171990
  7860.020  7859.990  0.500  0.979409  131.16  49.2549  1.190711
  7864.947  7865.340  0.500  0.977790  130.994  49.2721  1.197202
  7870.736  7870.710  0.500  0.973888  130.703  49.3552  1.214385
  7876.101  7876.090  0.500  0.971307  130.513  49.4107  1.226129
  7881.521  7881.500  0.500  0.968435  130.259  49.4563  1.237566
  7886.945  7886.920  0.500  0.965686  130.032  49.506  1.249519
  7892.394  7892.370  0.500  0.962914  129.806  49.5571  1.259735
  7897.848  7897.830  0.500  0.960088  129.472  49.5696  1.269911
  7903.295  7903.310  0.500  0.957278  129.677  49.7877  1.285368
  7908.832  7908.810  0.500  0.954568  129.615  49.899  1.298306
  7914.352  7914.330  0.500  0.951519  129.364  49.9546  1.309476
  7919.897  7919.870  0.500  0.948738  129.098  49.9906  1.318871
  7925.445  7925.420  0.500  0.945913  128.871  50.0438  1.330547
  7931.003  7931.000  0.500  0.943148  128.514  50.0434  1.339648
  7936.623  7936.600  0.500  0.940287  128.161  50.049  1.348279
  7942.241  7942.210  0.500  0.937435  128.184  50.2008  1.359632
  7947.875  7947.850  0.500  0.934543  127.85  50.2151  1.368047
  7953.482  7953.500  0.500  0.931718  127.482  50.2123  1.376670
  7959.179  7959.170  0.500  0.928785  127.188  50.2434  1.386443
  7964.889  7964.860  0.500  0.925960  126.904  50.2732  1.396553