File: xdidata/Fe/Fe-Ilmenite.xdi
# XDI/1.0 BlueSky/1.10.0 BMM/2023-1.0-py310-tiled
# Beamline.name: BMM (06BM) -- Beamline for Materials Measurement (NIST)
# Beamline.xray_source: NSLS-II three-pole wiggler
# Beamline.collimation: paraboloid mirror, 5 nm Rh on 30 nm Pt
# Beamline.focusing: not in use
# Beamline.harmonic_rejection: flat mirror, Si stripe, pitch = 7.0 mrad relative to beam
# Beamline.software: Bluesky 1.10.0, Ophyd 1.7.0, DataBroker 2.0.0b13, Python 3.10.8, 2023-1.0-py310-tiled
# Detector.I0: 10 cm N2
# Detector.I1: 25 cm N2
# Detector.I2: 25 cm N2
# Element.symbol: Fe
# Element.edge: K
# Element.reference: Fe
# Element.reference_material: Fe foil
# Facility.name: NSLS-II
# Facility.energy: 3.0
# Facility.current: 399.2
# Facility.mode: top-off
# Facility.GUP: 123456
# Facility.SAF: 301027
# Facility.cycle: 2023-2
# Mono.name: Si(111)
# Mono.d_spacing: 3.13519
# Mono.encoder_resolution: 0.0000050 deg/ct
# Mono.angle_offset: 16.0754 deg
# Mono.scan_mode: pseudo channel cut
# Mono.scan_type: step
# Mono.direction: forward in energy
# Sample.name: FeTiO3
# Sample.prep: PEG pellet
# Sample.x: 116.329 mm
# Sample.y: 114.126 mm
# Sample.SDD_position: 205.000 mm
# Scan.experimenters: Bruce Ravel
# Scan.edge_energy: 7112.0
# Scan.start_time: 2023-05-05T17:39:21
# Scan.end_time: 2023-05-05T17:47:28
# Scan.transient_id: 74526
# Scan.uid: 2a0cec3e-a24d-4c20-99a1-97dcad027227
# Scan.plot_hint: ln(I0/It)  --  ln($5/$6)
# Column.1: energy eV
# Column.2: requested_energy eV
# Column.3: measurement_time seconds
# Column.4: xmu
# Column.5: I0 nA
# Column.6: It nA
# Column.7: Ir nA
# ///////////
# courtesy Martin Stennett, University of Sheffield
# -----------
# energy  requested_energy  measurement_time  xmu  I0  It  Ir
  6911.997  6912.000  0.500  2.598170  153.757  11.441  2.146097
  6922.011  6922.000  0.500  2.585356  153.571  11.5745  2.186636
  6932.038  6932.000  0.500  2.572521  153.546  11.7221  2.230305
  6942.013  6942.000  0.500  2.560030  153.544  11.8693  2.274253
  6951.999  6952.000  0.500  2.547247  153.537  12.0215  2.319647
  6962.004  6962.000  0.500  2.534663  153.528  12.173  2.365351
  6972.016  6972.000  0.500  2.522135  153.495  12.3238  2.410979
  6982.021  6982.000  0.500  2.509821  153.451  12.4729  2.456767
  6992.014  6992.000  0.500  2.497515  153.448  12.6271  2.504021
  7002.013  7002.000  0.500  2.485206  153.389  12.7786  2.551217
  7012.008  7012.000  0.500  2.472908  153.325  12.9313  2.598758
  7022.014  7022.000  0.500  2.460635  153.257  13.0852  2.646551
  7032.008  7032.000  0.500  2.448768  153.189  13.2356  2.693911
  7042.008  7042.000  0.500  2.436912  153.12  13.3873  2.742444
  7052.007  7052.000  0.500  2.425078  153.587  13.588  2.800023
  7062.008  7062.000  0.500  2.413225  152.82  13.6814  2.834646
  7072.013  7072.000  0.500  2.401888  153.372  13.8873  2.891306
  7081.980  7082.000  0.500  2.390768  153.359  14.0415  2.933497
  7083.978  7084.000  0.500  2.388820  153.124  14.0472  2.936717
  7085.978  7086.000  0.500  2.386410  153.249  14.0927  2.946678
  7087.983  7088.000  0.500  2.384313  153.241  14.1215  2.953067
  7089.988  7090.000  0.500  2.382313  153.216  14.1475  2.958661
  7091.984  7092.000  0.500  2.380254  153.194  14.1745  2.963445
  7093.982  7094.000  0.500  2.378395  153.176  14.1993  2.966319
  7096.133  7096.000  0.500  2.376455  153.158  14.2252  2.968404
  7098.008  7098.000  0.500  2.374858  153.142  14.2465  2.967342
  7099.988  7100.000  0.500  2.373410  153.113  14.2643  2.962799
  7101.995  7102.000  0.500  2.372180  153.072  14.2781  2.953832
  7102.290  7102.300  0.500  2.372100  153.069  14.2789  2.951440
  7102.585  7102.600  0.500  2.371703  153.064  14.2842  2.950085
  7102.887  7102.900  0.500  2.371450  153.05  14.2865  2.948097
  7103.188  7103.200  0.500  2.371288  153.066  14.2903  2.945563
  7103.483  7103.500  0.500  2.371168  153.041  14.2897  2.942111
  7103.783  7103.800  0.500  2.371015  153.054  14.2931  2.938933
  7104.091  7104.100  0.500  2.370944  153.005  14.2896  2.935152
  7104.382  7104.400  0.500  2.371291  152.981  14.2824  2.929627
  7104.686  7104.700  0.500  2.370988  153.003  14.2887  2.926989
  7104.985  7105.000  0.500  2.370693  153.004  14.293  2.923540
  7105.283  7105.300  0.500  2.371135  153.025  14.2887  2.917087
  7105.584  7105.600  0.500  2.371011  153.006  14.2886  2.911442
  7105.888  7105.900  0.500  2.371001  152.999  14.2882  2.905281
  7106.190  7106.200  0.500  2.370663  152.986  14.2918  2.899208
  7106.492  7106.500  0.500  2.370967  152.976  14.2865  2.890590
  7106.790  7106.800  0.500  2.370895  152.954  14.2855  2.882036
  7107.092  7107.100  0.500  2.370773  152.956  14.2874  2.873701
  7107.383  7107.400  0.500  2.370665  152.924  14.2859  2.862812
  7107.693  7107.700  0.500  2.370789  152.941  14.2857  2.850627
  7107.987  7108.000  0.500  2.370987  152.95  14.2838  2.835954
  7108.287  7108.300  0.500  2.371202  152.926  14.2785  2.818478
  7108.586  7108.600  0.500  2.371486  152.918  14.2737  2.797689
  7108.891  7108.900  0.500  2.371760  152.901  14.2682  2.774218
  7109.188  7109.200  0.500  2.372114  152.882  14.2613  2.744805
  7109.495  7109.500  0.500  2.372690  152.865  14.2515  2.706597
  7109.793  7109.800  0.500  2.373510  152.854  14.2388  2.655364
  7110.093  7110.100  0.500  2.374777  152.85  14.2205  2.586546
  7110.395  7110.400  0.500  2.376382  152.812  14.1941  2.487455
  7110.697  7110.700  0.500  2.378891  152.803  14.1577  2.349757
  7110.995  7111.000  0.500  2.382501  152.774  14.104  2.170943
  7111.295  7111.300  0.500  2.386840  152.748  14.0406  1.962323
  7111.591  7111.600  0.500  2.391004  152.714  13.9791  1.745886
  7111.887  7111.900  0.500  2.393880  152.681  13.9359  1.554914
  7112.191  7112.200  0.500  2.394781  152.653  13.9208  1.403563
  7112.494  7112.500  0.500  2.394603  152.627  13.9209  1.294649
  7112.792  7112.800  0.500  2.394393  152.592  13.9207  1.212926
  7113.092  7113.100  0.500  2.395136  152.56  13.9075  1.144609
  7113.397  7113.400  0.500  2.396821  152.563  13.8843  1.084201
  7113.699  7113.700  0.500  2.399584  152.569  13.8465  1.029095
  7114.002  7114.000  0.500  2.402765  152.572  13.8028  0.978013
  7114.296  7114.300  0.500  2.407500  152.551  13.7357  0.932759
  7114.598  7114.600  0.500  2.415018  152.522  13.6302  0.891402
  7114.899  7114.900  0.500  2.425871  152.498  13.481  0.855904
  7115.201  7115.200  0.500  2.438717  152.48  13.3074  0.826215
  7115.500  7115.500  0.500  2.451144  152.488  13.1437  0.803190
  7115.798  7115.800  0.500  2.462424  152.477  12.9953  0.784062
  7116.092  7116.100  0.500  2.469978  152.467  12.8967  0.771274
  7116.391  7116.400  0.500  2.474209  152.475  12.8429  0.760337
  7116.698  7116.700  0.500  2.476983  152.448  12.8051  0.747366
  7116.994  7117.000  0.500  2.481009  152.433  12.7523  0.728553
  7117.295  7117.300  0.500  2.488032  152.426  12.6626  0.701422
  7117.595  7117.600  0.500  2.498973  152.399  12.5225  0.663669
  7117.903  7117.900  0.500  2.512302  152.386  12.3557  0.618355
  7118.199  7118.200  0.500  2.525551  152.378  12.1924  0.570209
  7118.502  7118.500  0.500  2.536600  152.366  12.0575  0.523080
  7118.798  7118.800  0.500  2.546637  152.36  11.9366  0.479597
  7119.101  7119.100  0.500  2.557725  152.368  11.8056  0.438102
  7119.404  7119.400  0.500  2.572587  152.336  11.629  0.398617
  7119.705  7119.700  0.500  2.592876  152.324  11.3945  0.360564
  7119.998  7120.000  0.500  2.619890  152.309  11.0897  0.323861
  7120.296  7120.300  0.500  2.655498  152.292  10.7006  0.286659
  7120.595  7120.600  0.500  2.699884  152.275  10.2349  0.251144
  7120.896  7120.900  0.500  2.752176  152.252  9.711982  0.218480
  7121.199  7121.200  0.500  2.811997  152.228  9.146633  0.189131
  7121.500  7121.500  0.500  2.873651  152.21  8.598669  0.164897
  7121.797  7121.800  0.500  2.936383  152.193  8.074944  0.144636
  7122.105  7122.100  0.500  2.996613  152.169  7.601779  0.127563
  7122.403  7122.400  0.500  3.048655  152.171  7.216335  0.114053
  7122.702  7122.700  0.500  3.089708  152.162  6.925696  0.103635
  7123.004  7123.000  0.500  3.118600  152.141  6.727530  0.095853
  7123.298  7123.300  0.500  3.138596  152.119  6.593396  0.089752
  7123.602  7123.600  0.500  3.154426  152.113  6.489575  0.084819
  7123.903  7123.900  0.500  3.169698  152.107  6.390982  0.080368
  7124.202  7124.200  0.500  3.184912  152.078  6.293268  0.076260
  7124.493  7124.500  0.500  3.200157  152.068  6.197661  0.072593
  7124.798  7124.800  0.500  3.213630  152.045  6.113800  0.069136
  7125.097  7125.100  0.500  3.224187  152.023  6.048709  0.066176
  7125.403  7125.400  0.500  3.232743  152.009  5.996635  0.063732
  7125.702  7125.700  0.500  3.239827  151.987  5.953435  0.061419
  7125.997  7126.000  0.500  3.246561  151.93  5.911252  0.059114
  7126.301  7126.300  0.500  3.253090  151.947  5.873433  0.056861
  7126.607  7126.600  0.500  3.259918  151.92  5.832432  0.054754
  7126.904  7126.900  0.500  3.266750  151.897  5.791871  0.052465
  7127.201  7127.200  0.500  3.272984  151.859  5.754407  0.050042
  7127.503  7127.500  0.500  3.279282  151.849  5.717934  0.047938
  7127.802  7127.800  0.500  3.284227  151.828  5.688922  0.045634
  7128.102  7128.100  0.500  3.286571  151.788  5.674124  0.043509
  7128.405  7128.400  0.500  3.286513  151.796  5.674745  0.041522
  7128.701  7128.700  0.500  3.282837  151.76  5.694295  0.039579
  7128.996  7129.000  0.500  3.275602  151.68  5.732608  0.037928
  7129.293  7129.300  0.500  3.265560  151.693  5.790981  0.036332
  7129.601  7129.600  0.500  3.254202  151.679  5.856554  0.035135
  7129.901  7129.900  0.500  3.243793  151.67  5.917503  0.033889
  7130.201  7130.200  0.500  3.235454  151.633  5.965615  0.032912
  7130.500  7130.500  0.500  3.229772  151.62  5.999086  0.032248
  7130.802  7130.800  0.500  3.226111  151.588  6.019793  0.031655
  7131.108  7131.100  0.500  3.224638  151.572  6.028044  0.031384
  7131.404  7131.400  0.500  3.223922  151.541  6.031134  0.031825
  7131.704  7131.700  0.500  3.221855  151.505  6.042180  0.032307
  7132.003  7132.000  0.500  3.217867  151.49  6.065708  0.033309
  7132.301  7132.300  0.500  3.211000  151.46  6.106283  0.034672
  7132.603  7132.600  0.500  3.200879  151.472  6.168893  0.036300
  7132.894  7132.900  0.500  3.188649  151.446  6.243739  0.038251
  7133.196  7133.200  0.500  3.174006  151.449  6.335958  0.040647
  7133.496  7133.500  0.500  3.158236  151.442  6.436397  0.043186
  7133.800  7133.800  0.500  3.141977  151.461  6.542721  0.045866
  7134.100  7134.100  0.500  3.125898  151.457  6.648589  0.048244
  7134.398  7134.400  0.500  3.110585  151.453  6.751005  0.050708
  7134.698  7134.700  0.500  3.095906  151.453  6.850823  0.052979
  7135.007  7135.000  0.500  3.081342  151.456  6.951474  0.055225
  7135.305  7135.300  0.500  3.067708  151.451  7.046661  0.057324
  7135.605  7135.600  0.500  3.055104  151.424  7.134760  0.059151
  7135.901  7135.900  0.500  3.043834  151.429  7.215866  0.060635
  7136.203  7136.200  0.500  3.034056  151.442  7.287419  0.061758
  7136.501  7136.500  0.500  3.025843  151.424  7.346605  0.062709
  7136.801  7136.800  0.500  3.019045  151.425  7.396784  0.063433
  7136.994  7137.000  0.500  3.014845  151.414  7.427387  0.063693
  7137.998  7137.990  0.500  2.994843  151.392  7.576350  0.063893
  7139.001  7138.990  0.500  2.971566  151.911  7.781343  0.062641
  7140.028  7140.010  0.500  2.948788  151.893  7.959695  0.060974
  7141.079  7141.060  0.500  2.934128  151.884  8.076744  0.059995
  7142.136  7142.120  0.500  2.931480  151.883  8.098103  0.059724
  7143.218  7143.200  0.500  2.939076  151.884  8.036861  0.060264
  7144.315  7144.300  0.500  2.947302  151.868  7.970185  0.060645
  7145.433  7145.420  0.500  2.947768  151.887  7.967494  0.060400
  7146.587  7146.560  0.500  2.939795  151.879  8.030857  0.058497
  7147.705  7147.710  0.500  2.931936  151.84  8.092133  0.055393
  7148.879  7148.890  0.500  2.930404  151.839  8.104491  0.051945
  7150.072  7150.080  0.500  2.932104  151.841  8.090810  0.049315
  7151.293  7151.300  0.500  2.932554  151.836  8.086937  0.047857
  7152.523  7152.530  0.500  2.930471  151.843  8.104160  0.047097
  7153.779  7153.780  0.500  2.926268  151.829  8.137557  0.046707
  7155.049  7155.050  0.500  2.921852  151.841  8.174193  0.047343
  7156.342  7156.340  0.500  2.918386  151.843  8.202665  0.048358
  7157.656  7157.650  0.500  2.919614  151.797  8.190158  0.049054
  7158.986  7158.980  0.500  2.926120  151.755  8.134757  0.049076
  7160.334  7160.330  0.500  2.936196  151.741  8.052483  0.048719
  7161.716  7161.700  0.500  2.946498  151.698  7.967689  0.048500
  7163.089  7163.080  0.500  2.956058  151.648  7.889263  0.048804
  7164.493  7164.490  0.500  2.965187  151.63  7.816643  0.049201
  7165.915  7165.910  0.500  2.974151  151.575  7.744078  0.049724
  7167.355  7167.350  0.500  2.984182  151.544  7.665240  0.049838
  7168.818  7168.810  0.500  2.998334  151.526  7.556616  0.049734
  7170.299  7170.290  0.500  3.014160  151.513  7.437330  0.049818
  7171.793  7171.790  0.500  3.028636  151.483  7.329012  0.050545
  7173.314  7173.310  0.500  3.033397  151.454  7.292775  0.052540
  7174.858  7174.850  0.500  3.032476  151.422  7.297959  0.055412
  7176.407  7176.410  0.500  3.028617  151.377  7.323982  0.059017
  7177.993  7177.980  0.500  3.021210  151.359  7.377576  0.062412
  7179.583  7179.580  0.500  3.011427  151.359  7.450126  0.065391
  7181.195  7181.190  0.500  3.000875  151.34  7.528200  0.066367
  7182.836  7182.830  0.500  2.990761  151.321  7.603772  0.066504
  7184.485  7184.480  0.500  2.981041  151.28  7.675920  0.065701
  7186.159  7186.150  0.500  2.973194  151.249  7.734814  0.063711
  7187.840  7187.840  0.500  2.967664  151.215  7.775960  0.060642
  7189.559  7189.550  0.500  2.962658  151.205  7.814468  0.057794
  7191.290  7191.280  0.500  2.957080  149.529  7.771104  0.054203
  7193.035  7193.030  0.500  2.950471  150.84  7.891220  0.051959
  7194.798  7194.790  0.500  2.942839  150.971  7.958592  0.051512
  7196.589  7196.580  0.500  2.933270  150.948  8.033846  0.052917
  7198.387  7198.380  0.500  2.922589  150.893  8.117152  0.056135
  7200.222  7200.210  0.500  2.911720  150.844  8.203198  0.060814
  7202.057  7202.050  0.500  2.903654  150.795  8.266975  0.066046
  7203.915  7203.910  0.500  2.898842  150.756  8.304672  0.071783
  7205.810  7205.790  0.500  2.896363  150.652  8.319578  0.077176
  7207.699  7207.690  0.500  2.895564  150.616  8.324214  0.079656
  7209.620  7209.610  0.500  2.895938  150.559  8.317935  0.077211
  7211.560  7211.550  0.500  2.897831  150.484  8.298067  0.069086
  7213.523  7213.510  0.500  2.902501  150.424  8.256141  0.058363
  7215.495  7215.480  0.500  2.907893  150.373  8.208963  0.048407
  7217.491  7217.480  0.500  2.911943  150.289  8.171190  0.041368
  7219.497  7219.490  0.500  2.913454  150.225  8.155378  0.037657
  7221.538  7221.520  0.500  2.912939  150.141  8.155022  0.036840
  7223.593  7223.580  0.500  2.910798  150.057  8.167938  0.039525
  7225.660  7225.650  0.500  2.907532  149.907  8.186472  0.044470
  7227.748  7227.740  0.500  2.904376  147.298  8.069428  0.050609
  7229.860  7229.850  0.500  2.903656  150.076  8.227550  0.059916
  7231.993  7231.980  0.500  2.904348  149.99  8.217146  0.069094
  7234.130  7234.120  0.500  2.905202  149.858  8.202876  0.077346
  7236.301  7236.290  0.500  2.904323  149.843  8.209288  0.083588
  7238.491  7238.480  0.500  2.901174  149.765  8.230891  0.086500
  7240.692  7240.680  0.500  2.895961  149.757  8.273489  0.086556
  7242.917  7242.900  0.500  2.890831  149.731  8.314575  0.083936
  7245.160  7245.150  0.500  2.886471  146.914  8.193768  0.078459
  7247.416  7247.410  0.500  2.883409  149.42  8.359110  0.076401
  7249.701  7249.690  0.500  2.879676  149.429  8.390886  0.075229
  7252.005  7251.990  0.500  2.876147  149.321  8.414466  0.076336
  7254.319  7254.310  0.500  2.874037  146.89  8.294941  0.077338
  7256.666  7256.650  0.500  2.873154  149.338  8.440650  0.080467
  7259.015  7259.000  0.500  2.871654  149.166  8.443597  0.079766
  7261.392  7261.380  0.500  2.869371  148.718  8.437428  0.077534
  7263.782  7263.770  0.500  2.862512  136.62  7.804421  0.069620
  7266.198  7266.190  0.500  2.861247  148.958  8.519986  0.074325
  7268.634  7268.620  0.500  2.857058  149.493  8.586518  0.072997
  7271.088  7271.070  0.500  2.855303  149.45  8.599141  0.069695
  7273.561  7273.550  0.500  2.853966  148.098  8.532711  0.065542
  7276.056  7276.040  0.500  2.851664  149.436  8.629675  0.064134
  7278.564  7278.550  0.500  2.847890  149.383  8.659197  0.063142
  7281.083  7281.070  0.500  2.843163  149.314  8.696244  0.061540
  7283.630  7283.620  0.500  2.837816  148.146  8.674456  0.059264
  7286.202  7286.190  0.500  2.832548  148.939  8.766951  0.057760
  7288.786  7288.770  0.500  2.828469  149.022  8.807702  0.057153
  7291.393  7291.380  0.500  2.826418  148.978  8.823173  0.059399
  7294.012  7294.000  0.500  2.824849  148.936  8.834537  0.064634
  7296.659  7296.650  0.500  2.821854  148.882  8.857839  0.071609
  7299.325  7299.310  0.500  2.816741  148.77  8.896503  0.078765
  7302.006  7301.990  0.500  2.810923  147.242  8.856504  0.084323
  7304.700  7304.690  0.500  2.803649  148.876  9.020152  0.090668
  7307.422  7307.410  0.500  2.795944  148.77  9.083493  0.094630
  7310.163  7310.150  0.500  2.788812  148.685  9.143257  0.096457
  7312.907  7312.900  0.500  2.782826  148.606  9.193280  0.096732
  7315.690  7315.680  0.500  2.779152  148.497  9.220361  0.097201
  7318.492  7318.470  0.500  2.777874  148.481  9.231172  0.097605
  7321.302  7321.290  0.500  2.778641  148.417  9.220098  0.098189
  7324.128  7324.120  0.500  2.780324  148.342  9.199952  0.097972
  7326.981  7326.970  0.500  2.781626  148.283  9.184328  0.098088
  7329.865  7329.850  0.500  2.782332  148.229  9.174472  0.098365
  7332.753  7332.740  0.500  2.781901  148.151  9.173616  0.100254
  7335.661  7335.650  0.500  2.780143  148.076  9.185113  0.102668
  7338.582  7338.570  0.500  2.777014  146.724  9.129765  0.103437
  7341.534  7341.520  0.500  2.773371  147.839  9.232682  0.103521
  7344.504  7344.490  0.500  2.768909  147.811  9.272276  0.100292
  7347.481  7347.470  0.500  2.764172  147.789  9.314893  0.095489
  7350.493  7350.480  0.500  2.759380  147.715  9.354955  0.090592
  7353.512  7353.500  0.500  2.754561  147.649  9.395961  0.086640
  7356.564  7356.550  0.500  2.749345  147.562  9.439498  0.083563
  7359.625  7359.610  0.500  2.743737  147.5  9.488620  0.080919
  7362.703  7362.690  0.500  2.737711  147.42  9.540756  0.078980
  7365.799  7365.790  0.500  2.731656  147.335  9.593217  0.078564
  7368.921  7368.910  0.500  2.726198  147.26  9.640806  0.079949
  7372.063  7372.050  0.500  2.721658  147.21  9.681323  0.083738
  7375.216  7375.200  0.500  2.717243  147.122  9.718409  0.090201
  7378.395  7378.380  0.500  2.712579  147.042  9.758533  0.100020
  7381.586  7381.570  0.500  2.707724  146.987  9.802367  0.111365
  7384.803  7384.790  0.500  2.703233  146.924  9.842257  0.120134
  7388.031  7388.020  0.500  2.699796  146.889  9.873732  0.123831
  7391.282  7391.270  0.500  2.697588  146.779  9.888171  0.123515
  7394.561  7394.550  0.500  2.696105  146.681  9.896255  0.121510
  7397.848  7397.840  0.500  2.694873  146.598  9.902848  0.120001
  7401.160  7401.150  0.500  2.693160  146.519  9.914499  0.119891
  7404.481  7404.470  0.500  2.690508  146.432  9.934860  0.120668
  7407.831  7407.820  0.500  2.686981  146.324  9.962665  0.120842
  7411.201  7411.190  0.500  2.682923  146.261  9.998852  0.121053
  7414.573  7414.570  0.500  2.678259  146.173  10.0395  0.121438
  7417.987  7417.980  0.500  2.673054  146.092  10.0863  0.122424
  7421.411  7421.400  0.500  2.668247  146.033  10.1308  0.124672
  7424.863  7424.850  0.500  2.663314  145.924  10.1734  0.127637
  7428.324  7428.310  0.500  2.658096  145.832  10.2201  0.130174
  7431.800  7431.790  0.500  2.652671  145.737  10.2691  0.131146
  7435.296  7435.290  0.500  2.647244  145.619  10.3165  0.130968
  7438.819  7438.810  0.500  2.642796  145.474  10.3523  0.129415
  7442.357  7442.350  0.500  2.639115  145.329  10.3801  0.126215
  7445.912  7445.900  0.500  2.635450  141.468  10.1414  0.119557
  7449.493  7449.480  0.500  2.632460  145.274  10.4454  0.120518
  7453.088  7453.080  0.500  2.628569  143.988  10.3933  0.119136
  7456.707  7456.690  0.500  2.624919  145.5  10.5408  0.120951
  7460.333  7460.320  0.500  2.622039  145.06  10.5393  0.121680
  7463.990  7463.980  0.500  2.617992  145.451  10.6105  0.124584
  7467.657  7467.650  0.500  2.614431  141.441  10.3548  0.124656
  7471.350  7471.340  0.500  2.610933  145.346  10.678  0.132987
  7475.060  7475.050  0.500  2.606707  145.182  10.7111  0.137769
  7478.794  7478.780  0.500  2.602613  145.054  10.7456  0.141236
  7482.536  7482.520  0.500  2.598314  144.939  10.7833  0.144994
  7486.312  7486.290  0.500  2.594009  144.847  10.8229  0.149556
  7490.098  7490.080  0.500  2.589940  144.705  10.8564  0.154191
  7493.902  7493.880  0.500  2.585138  144.595  10.9004  0.157800
  7497.729  7497.710  0.500  2.580254  144.465  10.9439  0.159525
  7501.558  7501.550  0.500  2.575556  144.402  10.9907  0.159707
  7505.424  7505.410  0.500  2.570765  144.268  11.0332  0.159286
  7509.300  7509.290  0.500  2.566323  144.117  11.0707  0.159576
  7513.210  7513.190  0.500  2.562118  143.969  11.106  0.160939
  7517.140  7517.110  0.500  2.557840  143.83  11.1428  0.162550
  7521.073  7521.050  0.500  2.553648  143.716  11.1807  0.164381
  7525.033  7525.010  0.500  2.549291  143.611  11.2213  0.165233
  7528.990  7528.980  0.500  2.544989  143.471  11.2587  0.165858
  7532.982  7532.980  0.500  2.540875  143.313  11.2927  0.166099
  7537.023  7536.990  0.500  2.536848  143.185  11.3282  0.167126
  7541.029  7541.030  0.500  2.532505  143.052  11.3668  0.168930
  7545.098  7545.080  0.500  2.528101  142.936  11.4078  0.170936
  7549.181  7549.150  0.500  2.523815  142.765  11.4431  0.172342
  7553.224  7553.240  0.500  2.519257  142.641  11.4854  0.172868
  7557.343  7557.350  0.500  2.514920  142.507  11.5244  0.172051
  7561.467  7561.480  0.500  2.510595  142.366  11.5629  0.171288
  7565.629  7565.630  0.500  2.506118  142.224  11.6033  0.171469
  7569.774  7569.790  0.500  2.501752  142.087  11.6428  0.173586
  7574.003  7573.980  0.500  2.497347  141.903  11.679  0.176924
  7578.169  7578.180  0.500  2.493127  141.705  11.7121  0.181570
  7582.412  7582.410  0.500  2.488553  141.564  11.754  0.186720
  7586.650  7586.650  0.500  2.484185  141.386  11.7907  0.190870
  7590.902  7590.910  0.500  2.479539  141.201  11.83  0.193382
  7595.185  7595.190  0.500  2.475186  140.989  11.8638  0.195153
  7599.484  7599.490  0.500  2.470998  140.712  11.8902  0.196305
  7603.808  7603.810  0.500  2.466746  140.166  11.8945  0.197295
  7608.162  7608.150  0.500  2.462402  139.944  11.9275  0.199970
  7612.501  7612.510  0.500  2.458106  139.724  11.9599  0.202990
  7616.913  7616.890  0.500  2.453525  139.66  12.0094  0.205690
  7621.302  7621.280  0.500  2.448997  139.756  12.0721  0.207200
  7625.724  7625.700  0.500  2.444368  139.774  12.1297  0.208559
  7630.151  7630.130  0.500  2.439770  139.651  12.1749  0.210155
  7634.576  7634.580  0.500  2.434992  139.52  12.2217  0.212726
  7639.039  7639.050  0.500  2.430493  139.343  12.2612  0.216308
  7643.532  7643.540  0.500  2.426188  139.159  12.2979  0.219797
  7648.035  7648.050  0.500  2.421439  138.946  12.3376  0.223064
  7652.566  7652.580  0.500  2.416573  138.765  12.3816  0.225661
  7657.126  7657.130  0.500  2.411605  138.603  12.4287  0.227696
  7661.683  7661.700  0.500  2.406870  138.428  12.472  0.229360
  7666.264  7666.280  0.500  2.402225  138.275  12.5161  0.230367
  7670.888  7670.890  0.500  2.397856  138.045  12.55  0.230697
  7675.501  7675.510  0.500  2.393364  137.896  12.5929  0.231404
  7680.149  7680.160  0.500  2.389079  137.671  12.6264  0.232181
  7684.805  7684.820  0.500  2.384656  137.384  12.6559  0.233537
  7689.490  7689.500  0.500  2.380042  137.526  12.7276  0.236773
  7694.181  7694.200  0.500  2.375412  137.217  12.758  0.239653
  7698.939  7698.920  0.500  2.370689  136.976  12.7958  0.242821
  7703.640  7703.660  0.500  2.365930  136.695  12.8305  0.245930
  7708.409  7708.410  0.500  2.361096  136.647  12.8881  0.249468
  7713.178  7713.190  0.500  2.356388  136.407  12.9261  0.253035
  7717.970  7717.990  0.500  2.352222  136.18  12.9585  0.256450
  7722.783  7722.800  0.500  2.347550  136.055  13.0073  0.260406
  7727.626  7727.630  0.500  2.343345  135.856  13.043  0.262815
  7732.513  7732.490  0.500  2.338444  135.628  13.0851  0.265275
  7737.343  7737.360  0.500  2.333740  135.326  13.1175  0.267481
  7742.236  7742.250  0.500  2.328872  135.416  13.1902  0.270841
  7747.147  7747.160  0.500  2.323920  135.15  13.2297  0.273656
  7752.083  7752.090  0.500  2.319090  134.892  13.2684  0.276246
  7757.023  7757.030  0.500  2.314341  134.709  13.3134  0.278686
  7762.011  7762.000  0.500  2.309536  134.506  13.3574  0.282184
  7767.000  7766.990  0.500  2.304693  134.31  13.4027  0.286091
  7772.003  7771.990  0.500  2.300102  134.091  13.4425  0.289644
  7777.039  7777.020  0.500  2.295432  133.88  13.4841  0.292997
  7782.074  7782.060  0.500  2.290630  133.692  13.53  0.296479
  7787.139  7787.120  0.500  2.285966  133.458  13.5695  0.299358
  7792.185  7792.200  0.500  2.281329  133.274  13.6137  0.302547
  7797.323  7797.300  0.500  2.276387  133.061  13.6593  0.305001
  7802.450  7802.420  0.500  2.271707  132.913  13.7081  0.307831
  7807.590  7807.560  0.500  2.266652  132.7  13.7555  0.310141
  7812.754  7812.720  0.500  2.261928  132.483  13.7981  0.312592
  7817.923  7817.900  0.500  2.257247  132.266  13.8401  0.315588
  7823.123  7823.090  0.500  2.252161  132.071  13.8901  0.318733
  7828.335  7828.310  0.500  2.247245  131.866  13.9369  0.321624
  7833.567  7833.540  0.500  2.242520  131.639  13.9788  0.324608
  7838.820  7838.790  0.500  2.237509  131.123  13.994  0.327011
  7844.088  7844.060  0.500  2.232725  131.219  14.0713  0.331077
  7849.381  7849.350  0.500  2.227760  130.932  14.1105  0.334524
  7854.685  7854.660  0.500  2.223001  129.861  14.0618  0.335652
  7860.012  7859.990  0.500  2.218076  130.51  14.2019  0.341678
  7865.322  7865.340  0.500  2.213324  130.286  14.245  0.346264
  7870.698  7870.710  0.500  2.208297  130.062  14.2922  0.350000
  7876.064  7876.090  0.500  2.203359  129.87  14.3417  0.354370
  7881.482  7881.500  0.500  2.198438  129.628  14.3857  0.358629
  7886.905  7886.920  0.500  2.193520  129.394  14.4305  0.362500
  7892.349  7892.370  0.500  2.188992  129.159  14.4696  0.366111
  7897.808  7897.830  0.500  2.183970  128.862  14.5091  0.370128
  7903.289  7903.310  0.500  2.179078  128.605  14.5511  0.374237
  7908.800  7908.810  0.500  2.174281  128.425  14.6006  0.378487
  7914.326  7914.330  0.500  2.169179  128.168  14.646  0.381821
  7919.854  7919.870  0.500  2.164370  127.903  14.6861  0.385862
  7925.410  7925.420  0.500  2.159654  127.647  14.726  0.389897
  7930.992  7931.000  0.500  2.154927  127.266  14.7516  0.393319
  7936.583  7936.600  0.500  2.150682  126.944  14.7768  0.396326
  7942.233  7942.210  0.500  2.145323  126.978  14.8602  0.400454
  7947.843  7947.850  0.500  2.140398  126.641  14.894  0.404040
  7953.482  7953.500  0.500  2.135360  126.287  14.9273  0.407318
  7959.157  7959.170  0.500  2.130410  126.028  14.9707  0.411316
  7964.846  7964.860  0.500  2.125423  125.736  15.0106  0.415317