File: xdidata/Fe/Fe-K-IronFoil.xdi
# XDI/1.0 BlueSky/1.10.0 BMM/2023-1.0-py310-tiled
# Beamline.name: BMM (06BM) -- Beamline for Materials Measurement (NIST)
# Beamline.xray_source: NSLS-II three-pole wiggler
# Beamline.collimation: paraboloid mirror, 5 nm Rh on 30 nm Pt
# Beamline.focusing: not in use
# Beamline.harmonic_rejection: flat mirror, Si stripe, pitch = 7.0 mrad relative to beam
# Beamline.software: Bluesky 1.10.0, Ophyd 1.7.0, DataBroker 2.0.0b13, Python 3.10.8, 2023-1.0-py310-tiled
# Detector.I0: 10 cm N2
# Detector.I1: 25 cm N2
# Detector.I2: 25 cm N2
# Element.symbol: Fe
# Element.edge: K
# Element.reference: Fe
# Element.reference_material: Fe foil
# Facility.name: NSLS-II
# Facility.energy: 3.0
# Facility.current: 399.7
# Facility.mode: top-off
# Facility.GUP: 301027
# Facility.SAF: 310583
# Facility.cycle: 2023-2
# Mono.name: Si(111)
# Mono.d_spacing: 3.13519
# Mono.encoder_resolution: 0.0000050 deg/ct
# Mono.angle_offset: 16.0754 deg
# Mono.scan_mode: pseudo channel cut
# Mono.scan_type: step
# Mono.direction: forward in energy
# Sample.name: Fe foil
# Sample.prep: reference foil
# Sample.x: 109.138 mm
# Sample.y: 153.150 mm
# Sample.SDD_position: 205.000 mm
# Scan.experimenters: Bruce Ravel
# Scan.edge_energy: 7112.0
# Scan.start_time: 2023-05-28T13:17:39
# Scan.end_time: 2023-05-28T13:25:42
# Scan.transient_id: 78714
# Scan.uid: b69c6f83-b7d6-4772-a0ba-608a9260d9af
# Scan.plot_hint: ln(It/Ir)  --  ln($6/$7)
# Column.1: energy eV
# Column.2: requested_energy eV
# Column.3: measurement_time seconds
# Column.4: xmu
# Column.5: I0 nA
# Column.6: It nA
# Column.7: Ir nA
# ///////////
# standard reference foil
# -----------
# energy  requested_energy  measurement_time  xmu  I0  It  Ir
  6912.001  6912.000  0.500  1.981854  152.384  141.274  19.4695
  6922.007  6922.000  0.500  1.973350  152.321  141.704  19.6955
  6932.064  6932.000  0.500  1.964941  152.361  142.19  19.9299
  6942.039  6942.000  0.500  1.956677  152.434  142.698  20.1671
  6952.020  6952.000  0.500  1.948396  152.478  143.173  20.4025
  6962.000  6962.000  0.500  1.940179  152.531  143.722  20.6498
  6972.006  6972.000  0.500  1.932054  152.596  144.236  20.8927
  6982.006  6982.000  0.500  1.923958  152.624  144.706  21.1311
  6992.008  6992.000  0.500  1.915859  152.685  145.207  21.3766
  7002.009  7002.000  0.500  1.907951  152.708  145.698  21.6192
  7012.016  7012.000  0.500  1.900069  152.754  146.201  21.8656
  7022.012  7022.000  0.500  1.892278  152.804  146.705  22.1126
  7032.012  7032.000  0.500  1.884662  152.853  147.206  22.3576
  7042.011  7042.000  0.500  1.877230  152.876  147.667  22.5951
  7051.978  7052.000  0.500  1.869977  152.706  147.934  22.8006
  7061.983  7062.000  0.500  1.863156  152.596  148.255  23.0065
  7071.986  7072.000  0.500  1.857056  152.538  148.639  23.2073
  7081.980  7082.000  0.500  1.852171  152.572  149.123  23.3969
  7083.989  7084.000  0.500  1.851434  151.909  148.579  23.3287
  7085.987  7086.000  0.500  1.850853  152.442  149.197  23.4392
  7087.988  7088.000  0.500  1.850414  152.477  149.322  23.4692
  7089.985  7090.000  0.500  1.850227  152.487  149.38  23.4827
  7091.984  7092.000  0.500  1.850254  152.773  149.759  23.5417
  7093.980  7094.000  0.500  1.850486  152.89  149.983  23.5715
  7095.988  7096.000  0.500  1.851421  152.958  150.134  23.5731
  7097.986  7098.000  0.500  1.852719  152.983  150.258  23.562
  7099.988  7100.000  0.500  1.855048  152.989  150.38  23.5263
  7101.984  7102.000  0.500  1.858637  152.998  150.457  23.454
  7102.284  7102.300  0.500  1.859268  152.964  150.425  23.4342
  7102.579  7102.600  0.500  1.860011  152.989  150.455  23.4215
  7102.880  7102.900  0.500  1.860794  152.96  150.457  23.4035
  7103.180  7103.200  0.500  1.861708  152.954  150.454  23.3816
  7103.479  7103.500  0.500  1.862674  152.991  150.489  23.3644
  7103.783  7103.800  0.500  1.863671  152.968  150.466  23.3376
  7104.082  7104.100  0.500  1.864811  152.982  150.449  23.3084
  7104.384  7104.400  0.500  1.865841  152.962  150.461  23.2862
  7104.688  7104.700  0.500  1.867191  152.963  150.471  23.2564
  7104.987  7105.000  0.500  1.868611  152.951  150.472  23.2236
  7105.289  7105.300  0.500  1.870160  152.967  150.501  23.192
  7105.591  7105.600  0.500  1.871761  152.968  150.525  23.1587
  7105.888  7105.900  0.500  1.873650  152.953  150.523  23.1146
  7106.184  7106.200  0.500  1.875619  152.959  150.52  23.0687
  7106.486  7106.500  0.500  1.877850  152.938  150.548  23.0215
  7106.787  7106.800  0.500  1.880260  152.958  150.583  22.9715
  7107.085  7107.100  0.500  1.883021  152.948  150.6  22.9107
  7107.387  7107.400  0.500  1.886170  152.932  150.613  22.8407
  7107.687  7107.700  0.500  1.889749  152.94  150.65  22.7647
  7107.991  7108.000  0.500  1.893987  152.941  150.708  22.6771
  7108.299  7108.300  0.500  1.898767  152.928  150.687  22.5659
  7108.593  7108.600  0.500  1.904314  152.908  150.69  22.4414
  7108.893  7108.900  0.500  1.910789  152.892  150.695  22.2973
  7109.197  7109.200  0.500  1.918752  152.915  150.708  22.1224
  7109.495  7109.500  0.500  1.928605  152.906  150.662  21.8989
  7109.795  7109.800  0.500  1.941576  152.906  150.657  21.6159
  7110.095  7110.100  0.500  1.958650  152.897  150.669  21.2516
  7110.395  7110.400  0.500  1.982149  152.873  150.665  20.7576
  7110.693  7110.700  0.500  2.016094  152.85  150.668  20.0651
  7110.993  7111.000  0.500  2.064833  152.84  150.705  19.1153
  7111.291  7111.300  0.500  2.135274  152.808  150.625  17.8057
  7111.591  7111.600  0.500  2.230317  152.77  150.58  16.1865
  7111.900  7111.900  0.500  2.345404  152.739  150.556  14.4245
  7112.200  7112.200  0.500  2.458294  152.689  150.566  12.8856
  7112.498  7112.500  0.500  2.559578  152.696  150.575  11.6451
  7112.796  7112.800  0.500  2.640116  152.68  150.54  10.7415
  7113.101  7113.100  0.500  2.705449  152.635  150.546  10.0625
  7113.395  7113.400  0.500  2.762067  152.627  150.561  9.509574
  7113.695  7113.700  0.500  2.814999  152.615  150.574  9.020074
  7113.989  7114.000  0.500  2.864402  152.602  150.579  8.585583
  7114.294  7114.300  0.500  2.911663  152.6  150.595  8.190168
  7114.596  7114.600  0.500  2.955360  152.594  150.617  7.841127
  7114.901  7114.900  0.500  2.993429  152.592  150.641  7.549405
  7115.197  7115.200  0.500  3.023327  152.583  150.627  7.326378
  7115.504  7115.500  0.500  3.046615  152.619  150.674  7.159976
  7115.802  7115.800  0.500  3.063769  152.597  150.65  7.037058
  7116.107  7116.100  0.500  3.076314  152.591  150.666  6.950059
  7116.404  7116.400  0.500  3.086014  152.572  150.666  6.883000
  7116.704  7116.700  0.500  3.095591  152.553  150.614  6.815042
  7117.001  7117.000  0.500  3.108694  152.564  150.679  6.729220
  7117.299  7117.300  0.500  3.128077  152.52  150.637  6.598169
  7117.598  7117.600  0.500  3.157640  152.529  150.675  6.407610
  7117.896  7117.900  0.500  3.199165  152.509  150.68  6.147192
  7118.199  7118.200  0.500  3.254612  152.52  150.693  5.816094
  7118.502  7118.500  0.500  3.321586  152.506  150.68  5.438871
  7118.803  7118.800  0.500  3.394739  152.471  150.65  5.054194
  7119.097  7119.100  0.500  3.470518  152.478  150.697  4.686826
  7119.402  7119.400  0.500  3.548001  152.461  150.702  4.337531
  7119.705  7119.700  0.500  3.625339  152.445  150.684  4.014225
  7120.006  7120.000  0.500  3.706676  152.461  150.663  3.700138
  7120.303  7120.300  0.500  3.790613  152.429  150.681  3.402645
  7120.604  7120.600  0.500  3.878497  152.413  150.688  3.116505
  7120.900  7120.900  0.500  3.965852  152.398  150.687  2.855799
  7121.195  7121.200  0.500  4.051354  152.38  150.684  2.621717
  7121.498  7121.500  0.500  4.132630  152.336  150.673  2.416894
  7121.795  7121.800  0.500  4.207518  152.352  150.682  2.242640
  7122.094  7122.100  0.500  4.277273  152.346  150.71  2.091921
  7122.399  7122.400  0.500  4.342461  152.339  150.723  1.960071
  7122.700  7122.700  0.500  4.400747  152.324  150.715  1.849002
  7122.999  7123.000  0.500  4.454976  152.331  150.727  1.751541
  7123.303  7123.300  0.500  4.504578  152.319  150.719  1.666694
  7123.600  7123.600  0.500  4.548750  152.299  150.728  1.594762
  7123.903  7123.900  0.500  4.590049  152.263  150.681  1.529772
  7124.202  7124.200  0.500  4.628356  152.236  150.673  1.472199
  7124.499  7124.500  0.500  4.665051  152.251  150.664  1.419066
  7124.798  7124.800  0.500  4.700338  152.236  150.666  1.369882
  7125.100  7125.100  0.500  4.733579  152.2  150.638  1.324852
  7125.401  7125.400  0.500  4.766427  152.2  150.677  1.282373
  7125.700  7125.700  0.500  4.797433  152.192  150.685  1.243285
  7126.006  7126.000  0.500  4.827591  152.176  150.693  1.206415
  7126.301  7126.300  0.500  4.857943  152.153  150.681  1.170254
  7126.602  7126.600  0.500  4.888857  152.126  150.629  1.134238
  7126.902  7126.900  0.500  4.921965  152.082  150.594  1.097046
  7127.203  7127.200  0.500  4.956650  152.099  150.662  1.060128
  7127.498  7127.500  0.500  4.992978  152.064  150.656  1.022265
  7127.800  7127.800  0.500  5.032646  152.044  150.635  0.982373
  7128.097  7128.100  0.500  5.073087  151.99  150.568  0.943013
  7128.397  7128.400  0.500  5.117926  152.01  150.571  0.901687
  7128.703  7128.700  0.500  5.165823  151.986  150.597  0.859665
  7129.004  7129.000  0.500  5.216519  151.97  150.624  0.817314
  7129.302  7129.300  0.500  5.267558  151.939  150.611  0.776579
  7129.606  7129.600  0.500  5.319601  151.919  150.644  0.737359
  7129.903  7129.900  0.500  5.367907  151.894  150.638  0.702557
  7130.201  7130.200  0.500  5.411339  151.875  150.543  0.672272
  7130.505  7130.500  0.500  5.449357  151.84  150.553  0.647237
  7130.802  7130.800  0.500  5.479340  151.811  150.508  0.627931
  7131.100  7131.100  0.500  5.500146  151.767  150.447  0.614754
  7131.397  7131.400  0.500  5.509262  151.77  150.507  0.609417
  7131.701  7131.700  0.500  5.505820  151.753  150.52  0.611572
  7131.999  7132.000  0.500  5.490046  151.731  150.513  0.621264
  7132.301  7132.300  0.500  5.464205  151.714  150.483  0.637401
  7132.601  7132.600  0.500  5.431785  151.687  150.494  0.658454
  7132.903  7132.900  0.500  5.392903  151.699  150.512  0.684641
  7133.205  7133.200  0.500  5.350214  151.683  150.52  0.714538
  7133.505  7133.500  0.500  5.306004  151.693  150.556  0.747014
  7133.800  7133.800  0.500  5.262871  151.682  150.517  0.779739
  7134.103  7134.100  0.500  5.220661  151.679  150.532  0.813438
  7134.407  7134.400  0.500  5.182155  151.682  150.559  0.845524
  7134.703  7134.700  0.500  5.147902  151.686  150.57  0.875053
  7135.003  7135.000  0.500  5.117466  151.685  150.576  0.902127
  7135.298  7135.300  0.500  5.091078  151.645  150.521  0.925915
  7135.596  7135.600  0.500  5.068117  151.665  150.564  0.947691
  7135.894  7135.900  0.500  5.049162  151.673  150.61  0.966123
  7136.192  7136.200  0.500  5.034170  151.666  150.611  0.980720
  7136.495  7136.500  0.500  5.023333  151.629  150.568  0.991122
  7136.801  7136.800  0.500  5.015956  151.636  150.6  0.998669
  7137.007  7137.000  0.500  5.013264  151.614  150.602  1.001376
  7137.996  7137.990  0.500  5.020523  151.629  150.658  0.994503
  7138.997  7138.990  0.500  5.056983  151.61  150.676  0.959011
  7140.026  7140.010  0.500  5.107467  151.619  150.756  0.912287
  7141.074  7141.060  0.500  5.148132  151.621  150.774  0.876035
  7142.130  7142.120  0.500  5.162699  151.619  150.865  0.863887
  7143.216  7143.200  0.500  5.151452  151.614  150.892  0.873811
  7144.315  7144.300  0.500  5.132996  151.608  150.92  0.890256
  7145.435  7145.420  0.500  5.129529  151.607  150.987  0.893745
  7146.572  7146.560  0.500  5.157318  151.602  151.006  0.869359
  7147.722  7147.710  0.500  5.215079  151.603  151.068  0.820906
  7148.905  7148.890  0.500  5.285195  151.583  151.095  0.765453
  7150.087  7150.080  0.500  5.339771  151.589  151.122  0.724928
  7151.314  7151.300  0.500  5.373463  151.583  151.171  0.701136
  7152.542  7152.530  0.500  5.395083  151.578  151.234  0.686429
  7153.786  7153.780  0.500  5.409511  151.544  151.24  0.676621
  7155.060  7155.050  0.500  5.405389  151.545  151.25  0.679460
  7156.350  7156.340  0.500  5.388082  151.534  151.296  0.691534
  7157.658  7157.650  0.500  5.370498  151.53  151.358  0.704088
  7158.991  7158.980  0.500  5.361959  151.5  151.421  0.710421
  7160.341  7160.330  0.500  5.359418  151.459  151.423  0.712241
  7161.714  7161.700  0.500  5.353361  151.466  151.458  0.716731
  7163.093  7163.080  0.500  5.338566  151.41  151.462  0.727434
  7164.495  7164.490  0.500  5.317999  151.365  151.504  0.742758
  7165.922  7165.910  0.500  5.299567  151.332  151.566  0.756883
  7167.353  7167.350  0.500  5.286084  151.291  151.604  0.767349
  7168.824  7168.810  0.500  5.274512  151.268  151.631  0.776422
  7170.299  7170.290  0.500  5.258001  151.265  151.644  0.789415
  7171.793  7171.790  0.500  5.231588  151.23  151.653  0.810590
  7173.329  7173.310  0.500  5.190397  151.203  151.71  0.844994
  7174.858  7174.850  0.500  5.140362  151.187  151.762  0.888655
  7176.418  7176.410  0.500  5.083804  151.166  151.795  0.940570
  7177.993  7177.980  0.500  5.029409  151.131  151.832  0.993385
  7179.592  7179.580  0.500  4.991126  151.146  151.937  1.032870
  7181.206  7181.190  0.500  4.977873  151.122  151.979  1.046939
  7182.839  7182.830  0.500  4.984318  151.481  152.412  1.043175
  7184.496  7184.480  0.500  5.001977  151.484  152.477  1.025353
  7186.154  7186.150  0.500  5.037352  151.495  152.567  0.990302
  7187.860  7187.840  0.500  5.087300  151.505  152.654  0.942589
  7189.557  7189.550  0.500  5.141179  151.51  152.756  0.893740
  7191.292  7191.280  0.500  5.201691  151.25  152.559  0.840180
  7193.035  7193.030  0.500  5.258687  150.207  151.607  0.788680
  7194.805  7194.790  0.500  5.286863  151.286  152.751  0.772556
  7196.585  7196.580  0.500  5.272177  151.328  152.875  0.784621
  7198.403  7198.380  0.500  5.226752  151.302  152.941  0.821436
  7200.195  7200.210  0.500  5.162861  151.228  152.919  0.875504
  7202.039  7202.050  0.500  5.089503  151.212  152.983  0.942540
  7203.898  7203.910  0.500  5.009552  151.18  153.035  1.021337
  7205.784  7205.790  0.500  4.935827  151.149  153.103  1.099973
  7207.684  7207.690  0.500  4.895388  151.124  153.136  1.145613
  7209.611  7209.610  0.500  4.914126  151.08  153.15  1.124451
  7211.555  7211.550  0.500  5.007307  151.047  153.249  1.025067
  7213.514  7213.510  0.500  5.165271  151  153.253  0.875307
  7215.493  7215.480  0.500  5.345821  150.958  153.289  0.730887
  7217.487  7217.480  0.500  5.504936  150.925  153.343  0.623593
  7219.500  7219.490  0.500  5.609797  150.895  153.431  0.561834
  7221.527  7221.520  0.500  5.640938  150.845  153.428  0.544598
  7223.588  7223.580  0.500  5.589847  150.811  153.489  0.573373
  7225.653  7225.650  0.500  5.477182  150.762  153.532  0.641930
  7227.748  7227.740  0.500  5.335350  149.175  151.998  0.732360
  7229.858  7229.850  0.500  5.185611  150.852  153.781  0.860640
  7231.984  7231.980  0.500  5.041696  150.806  153.843  0.994254
  7234.132  7234.120  0.500  4.920605  150.769  153.883  1.122531
  7236.290  7236.290  0.500  4.838210  150.743  153.955  1.219509
  7238.489  7238.480  0.500  4.798720  150.722  154.021  1.269177
  7240.686  7240.680  0.500  4.798851  150.699  154.091  1.269591
  7242.908  7242.900  0.500  4.830392  150.636  154.106  1.230290
  7245.154  7245.150  0.500  4.880714  148.018  151.498  1.150111
  7247.416  7247.410  0.500  4.927671  150.488  154.08  1.116053
  7249.694  7249.690  0.500  4.952327  150.545  154.27  1.090220
  7252.003  7251.990  0.500  4.945498  150.453  154.286  1.097804
  7254.317  7254.310  0.500  4.917434  148.722  152.615  1.116819
  7256.659  7256.650  0.500  4.893157  150.629  154.631  1.159380
  7259.010  7259.000  0.500  4.896426  150.465  154.553  1.155009
  7261.383  7261.380  0.500  4.922953  150.103  154.274  1.122747
  7263.787  7263.770  0.500  4.952591  144.878  149.059  1.053115
  7266.201  7266.190  0.500  4.974229  149.506  153.919  1.064170
  7268.630  7268.620  0.500  4.999928  150.865  155.426  1.047329
  7271.081  7271.070  0.500  5.044912  150.825  155.492  1.001683
  7273.570  7273.550  0.500  5.099389  150.366  155.119  0.946298
  7276.049  7276.040  0.500  5.133568  150.894  155.772  0.918355
  7278.562  7278.550  0.500  5.152750  150.832  155.821  0.901185
  7281.080  7281.070  0.500  5.178897  150.808  155.9  0.878372
  7283.635  7283.620  0.500  5.215820  150.542  155.735  0.845638
  7286.205  7286.190  0.500  5.252754  150.4  155.692  0.814752
  7288.795  7288.770  0.500  5.270822  150.562  155.956  0.801518
  7291.386  7291.380  0.500  5.242208  150.579  156.081  0.825447
  7294.009  7294.000  0.500  5.163351  150.558  156.168  0.893672
  7296.664  7296.650  0.500  5.063346  150.502  156.224  0.988018
  7299.329  7299.310  0.500  4.970475  150.38  156.183  1.083884
  7302.003  7301.990  0.500  4.895006  148.088  153.908  1.151829
  7304.705  7304.690  0.500  4.838987  150.528  156.53  1.238945
  7307.426  7307.410  0.500  4.802434  150.477  156.626  1.285859
  7310.163  7310.150  0.500  4.786390  150.405  156.663  1.306962
  7312.912  7312.900  0.500  4.785871  150.367  156.729  1.308192
  7315.694  7315.680  0.500  4.786588  150.324  156.82  1.308014
  7318.483  7318.470  0.500  4.782183  150.284  156.906  1.314507
  7321.302  7321.290  0.500  4.777644  150.264  156.979  1.321103
  7324.132  7324.120  0.500  4.773708  150.223  157.048  1.326894
  7326.974  7326.970  0.500  4.771760  150.164  157.093  1.329862
  7329.861  7329.850  0.500  4.766919  150.128  157.184  1.337094
  7332.748  7332.740  0.500  4.750301  150.099  157.268  1.360229
  7335.654  7335.650  0.500  4.726427  150.063  157.313  1.393491
  7338.573  7338.570  0.500  4.711951  149.362  156.678  1.408105
  7341.527  7341.520  0.500  4.718527  149.809  157.277  1.404217
  7344.495  7344.490  0.500  4.751237  149.872  157.477  1.360756
  7347.477  7347.470  0.500  4.803871  149.846  157.58  1.291831
  7350.491  7350.480  0.500  4.858791  149.815  157.651  1.223352
  7353.503  7353.500  0.500  4.908007  149.803  157.817  1.165822
  7356.555  7356.550  0.500  4.950512  149.748  157.849  1.117540
  7359.618  7359.610  0.500  4.988071  149.709  157.935  1.076926
  7362.703  7362.690  0.500  5.016509  149.641  158  1.047168
  7365.799  7365.790  0.500  5.029447  149.586  158.07  1.034160
  7368.921  7368.910  0.500  5.019150  149.569  158.177  1.045576
  7372.053  7372.050  0.500  4.981605  149.527  158.23  1.085941
  7375.211  7375.200  0.500  4.913323  149.448  158.273  1.162993
  7378.393  7378.380  0.500  4.817459  149.385  158.313  1.280322
  7381.581  7381.570  0.500  4.714052  149.319  158.387  1.420469
  7384.801  7384.790  0.500  4.636952  149.295  158.516  1.535569
  7388.026  7388.020  0.500  4.605098  149.242  158.589  1.586008
  7391.279  7391.270  0.500  4.606420  149.196  158.652  1.584540
  7394.566  7394.550  0.500  4.623366  149.164  158.755  1.558921
  7397.855  7397.840  0.500  4.637306  149.121  158.87  1.538456
  7401.167  7401.150  0.500  4.639497  149.066  158.916  1.535536
  7404.481  7404.470  0.500  4.634987  149.014  158.971  1.543012
  7407.829  7407.820  0.500  4.634316  148.96  159.037  1.544691
  7411.201  7411.190  0.500  4.636462  148.865  159.044  1.541438
  7414.580  7414.570  0.500  4.637458  148.839  159.133  1.540775
  7417.999  7417.980  0.500  4.634178  148.731  159.223  1.546708
  7421.415  7421.400  0.500  4.623082  148.721  159.341  1.565127
  7424.866  7424.850  0.500  4.602427  148.64  159.392  1.598298
  7428.322  7428.310  0.500  4.585319  148.568  159.447  1.626435
  7431.805  7431.790  0.500  4.582471  148.479  159.456  1.631173
  7435.301  7435.290  0.500  4.587169  148.432  159.54  1.624375
  7438.823  7438.810  0.500  4.600067  148.336  159.566  1.603821
  7442.366  7442.350  0.500  4.626139  148.255  159.583  1.562711
  7445.917  7445.900  0.500  4.656097  146.399  157.795  1.499605
  7449.504  7449.480  0.500  4.678567  148.155  159.848  1.485357
  7453.100  7453.080  0.500  4.686909  147.599  159.348  1.468411
  7456.707  7456.690  0.500  4.684850  148.039  159.957  1.477066
  7460.336  7460.320  0.500  4.678724  145.153  156.96  1.458293
  7463.995  7463.980  0.500  4.664772  147.918  160.114  1.508500
  7467.664  7467.650  0.500  4.639756  145.35  157.471  1.521177
  7471.357  7471.340  0.500  4.606013  147.927  160.384  1.602493
  7475.065  7475.050  0.500  4.574084  147.796  160.422  1.654877
  7478.794  7478.780  0.500  4.549348  147.714  160.486  1.696997
  7482.536  7482.520  0.500  4.527809  147.629  160.473  1.733807
  7486.303  7486.290  0.500  4.500970  147.556  160.527  1.781564
  7490.091  7490.080  0.500  4.473544  147.47  160.624  1.832211
  7493.895  7493.880  0.500  4.452487  147.353  160.629  1.871259
  7497.724  7497.710  0.500  4.443865  147.322  160.755  1.888941
  7501.565  7501.550  0.500  4.446134  147.278  160.854  1.885818
  7505.427  7505.410  0.500  4.451894  147.191  160.901  1.875532
  7509.307  7509.290  0.500  4.453581  147.108  160.973  1.873218
  7513.208  7513.190  0.500  4.449230  147.02  161.023  1.881969
  7517.125  7517.110  0.500  4.441103  146.936  161.039  1.897507
  7521.061  7521.050  0.500  4.434291  146.86  161.131  1.911578
  7525.023  7525.010  0.500  4.430717  146.781  161.203  1.919274
  7528.995  7528.980  0.500  4.431107  146.689  161.257  1.919173
  7532.994  7532.980  0.500  4.431682  146.595  161.281  1.918345
  7537.008  7536.990  0.500  4.428343  146.478  161.29  1.924878
  7541.053  7541.030  0.500  4.420387  146.429  161.356  1.941049
  7545.102  7545.080  0.500  4.412702  146.322  161.369  1.956176
  7549.168  7549.150  0.500  4.406364  146.234  161.433  1.969395
  7553.256  7553.240  0.500  4.405942  146.097  161.444  1.970363
  7557.368  7557.350  0.500  4.412263  146.062  161.576  1.959543
  7561.499  7561.480  0.500  4.420206  145.926  161.592  1.944235
  7565.649  7565.630  0.500  4.422730  145.85  161.653  1.940067
  7569.804  7569.790  0.500  4.415930  145.776  161.732  1.954262
  7573.993  7573.980  0.500  4.399670  145.675  161.732  1.986296
  7578.196  7578.180  0.500  4.376848  145.578  161.781  2.032765
  7582.419  7582.410  0.500  4.352756  145.468  161.828  2.082937
  7586.652  7586.650  0.500  4.333805  145.33  161.843  2.122984
  7590.917  7590.910  0.500  4.321253  145.217  161.864  2.150073
  7595.199  7595.190  0.500  4.314035  145.027  161.797  2.164752
  7599.489  7599.490  0.500  4.310478  144.866  161.798  2.172485
  7603.813  7603.810  0.500  4.305521  144.257  161.268  2.176126
  7608.152  7608.150  0.500  4.295775  144.171  161.346  2.198500
  7612.519  7612.510  0.500  4.282778  143.932  161.259  2.226068
  7616.898  7616.890  0.500  4.272550  143.994  161.487  2.252124
  7621.287  7621.280  0.500  4.268961  144.071  161.652  2.262537
  7625.704  7625.700  0.500  4.268039  144.172  161.921  2.268391
  7630.133  7630.130  0.500  4.264220  144.102  162.013  2.278359
  7634.586  7634.580  0.500  4.254993  144.041  162.099  2.300706
  7639.053  7639.050  0.500  4.241487  143.929  162.138  2.332544
  7643.546  7643.540  0.500  4.227718  143.798  162.169  2.365335
  7648.062  7648.050  0.500  4.216051  143.664  162.205  2.393632
  7652.591  7652.580  0.500  4.207776  143.563  162.254  2.414245
  7657.141  7657.130  0.500  4.201801  143.948  162.845  2.437561
  7661.716  7661.700  0.500  4.197662  143.86  162.898  2.448461
  7666.289  7666.280  0.500  4.196505  143.78  162.967  2.452334
  7670.906  7670.890  0.500  4.196258  143.624  162.963  2.452890
  7675.521  7675.510  0.500  4.196073  143.516  162.99  2.453750
  7680.174  7680.160  0.500  4.195710  143.372  162.989  2.454621
  7684.828  7684.820  0.500  4.192213  143.176  162.938  2.462454
  7689.508  7689.500  0.500  4.183981  143.22  163.156  2.486129
  7694.212  7694.200  0.500  4.173666  143.007  163.043  2.510165
  7698.929  7698.920  0.500  4.163007  142.876  163.062  2.537353
  7703.672  7703.660  0.500  4.152969  142.701  162.999  2.561972
  7708.414  7708.410  0.500  4.142901  142.704  163.163  2.590490
  7713.200  7713.190  0.500  4.131519  142.481  163.085  2.618895
  7718.003  7717.990  0.500  4.119522  142.262  163.041  2.649790
  7722.816  7722.800  0.500  4.108950  142.243  163.132  2.679447
  7727.649  7727.630  0.500  4.100926  142.071  163.103  2.700553
  7732.506  7732.490  0.500  4.094657  141.857  163.035  2.716408
  7737.376  7737.360  0.500  4.088099  141.692  163.018  2.733989
  7742.264  7742.250  0.500  4.080751  141.729  163.249  2.758048
  7747.173  7747.160  0.500  4.073292  141.477  163.091  2.776022
  7752.106  7752.090  0.500  4.067228  141.336  163.07  2.792531
  7757.041  7757.030  0.500  4.060377  141.176  163.076  2.811836
  7762.021  7762.000  0.500  4.051962  141.016  163.08  2.835680
  7767.018  7766.990  0.500  4.041436  140.838  163.032  2.864831
  7772.011  7771.990  0.500  4.031527  140.627  162.961  2.892094
  7777.044  7777.020  0.500  4.022037  140.497  162.968  2.919802
  7782.087  7782.060  0.500  4.013958  140.33  162.954  2.943233
  7787.147  7787.120  0.500  4.006099  140.131  162.897  2.965419
  7792.234  7792.200  0.500  3.999271  139.968  162.869  2.985232
  7797.315  7797.300  0.500  3.992627  139.778  162.816  3.004155
  7802.463  7802.420  0.500  3.987180  139.635  162.812  3.020486
  7807.600  7807.560  0.500  3.982199  139.434  162.72  3.033841
  7812.765  7812.720  0.500  3.976764  139.23  162.668  3.049405
  7817.944  7817.900  0.500  3.970867  139.071  162.66  3.067301
  7823.120  7823.090  0.500  3.964225  138.874  162.603  3.086641
  7828.351  7828.310  0.500  3.957714  138.685  162.525  3.105329
  7833.580  7833.540  0.500  3.951527  138.41  162.387  3.121938
  7838.801  7838.790  0.500  3.944599  138.281  162.388  3.143665
  7844.082  7844.060  0.500  3.937219  138.08  162.339  3.165992
  7849.339  7849.350  0.500  3.929418  137.843  162.245  3.188948
  7854.643  7854.660  0.500  3.921739  136.737  161.125  3.191351
  7859.977  7859.990  0.500  3.913414  137.427  162.092  3.237338
  7865.325  7865.340  0.500  3.904172  137.246  162.014  3.265812
  7870.730  7870.710  0.500  3.895083  137.001  161.894  3.293204
  7876.088  7876.090  0.500  3.885914  136.809  161.878  3.323206
  7881.476  7881.500  0.500  3.877203  136.559  161.714  3.348885
  7886.902  7886.920  0.500  3.868587  136.38  161.678  3.377100
  7892.346  7892.370  0.500  3.860773  136.184  161.617  3.402314
  7897.808  7897.830  0.500  3.852820  135.943  161.492  3.426838
  7903.284  7903.310  0.500  3.844524  135.753  161.443  3.454333
  7908.826  7908.810  0.500  3.836375  135.543  161.363  3.480875
  7914.347  7914.330  0.500  3.828765  135.352  161.307  3.506245
  7919.857  7919.870  0.500  3.821122  135.148  161.228  3.531417
  7925.429  7925.420  0.500  3.813628  134.911  161.126  3.555723
  7931.006  7931.000  0.500  3.805870  134.511  160.813  3.576457
  7936.575  7936.600  0.500  3.799167  134.289  160.706  3.598115
  7942.209  7942.210  0.500  3.793481  134.281  160.877  3.622475
  7947.821  7947.850  0.500  3.787049  133.948  160.645  3.640604
  7953.512  7953.500  0.500  3.780378  133.641  160.457  3.660667
  7959.146  7959.170  0.500  3.773343  133.453  160.386  3.684897
  7964.837  7964.860  0.500  3.766459  133.123  160.188  3.705768