File: xdidata/Fe/Fe-K-Carpholite.xdi
# XDI/1.0 BlueSky/1.5.3
# Beamline.name: 6BM
# Beamline.xray_source: NSLS-II three-pole wiggler
# Beamline.collimation: paraboloid mirror, 5 nm Rh on 30 nm Pt
# Beamline.focusing: not in use
# Beamline.harmonic_rejection: flat mirror, Si stripe, pitch = 7.0 mrad relative to beam
# Detector.i0: 10 cm N2
# Detector.i1: 25 cm N2
# Detector.i2: 25 cm N2
# Element.symbol: Fe
# Element.edge: K
# Facility.name: NSLS-II
# Facility.energy: 3.0
# Facility.current: 400.8
# Facility.mode: top-off
# Facility.gup: 301027
# Facility.saf: 304793
# Facility.cycle: 2020-1
# Mono.name: Si(111)
# Mono.d_spacing: 3.13532
# Mono.encoder_resolution: 0.0000050 deg/ct
# Mono.angle_offset: 16.0581 deg
# Mono.scan_mode: fixed exit
# Mono.scan_type: step
# Mono.direction: forward in energy
# Sample.name: MnAl2Si2O6(OH)4
# Sample.prep: Powder in polyethylene glycol pellet
# Sample.x_position: -122.297 mm
# Sample.y_position: 119.848 mm
# Scan.experimenters: Bruce Ravel
# Scan.edge_energy: 7112.0
# Scan.start_time: 2020-01-15T00:12:55
# Scan.end_time: 2020-01-15T00:51:07
# Scan.transient_id: 19551
# Scan.uid: a91eaf3c-ea57-4025-bd6f-3b2d05122a4d
# Scan.plot_hint: ln(I0/It)  --  ln($5/$6)
# Scan.sequence: merge of 2 scans
# Column.1: energy eV
# Column.2: requested_energy eV
# Column.3: measurement_time seconds
# Column.4: mutrans
# Column.5: i0
# Column.6: itrans
# Column.7: irefer
# /////
#  Schlaggenwald, Bohemia, CZ
# -----
# energy   requested_energy   measurement_time   mutrans   i0   itrans   irefer
6912 6912 0.500000 3.238033 71.3014 2.797989 0.783005
6922.01 6922 0.500000 3.222288 71.0754 2.833372 0.795784
6932.02 6932 0.500000 3.207798 70.9478 2.869572 0.808504
6942.02 6942 0.500000 3.192169 70.7932 2.908393 0.823574
6952.02 6952 0.500000 3.175262 70.6289 2.951101 0.839907
6962.02 6962 0.500000 3.158834 70.5151 2.995149 0.855410
6972.02 6972 0.500000 3.143782 70.3514 3.033488 0.870522
6982.01 6982 0.500000 3.128813 70.2383 3.074330 0.885390
6992.01 6992 0.500000 3.113863 70.0906 3.114052 0.901296
7002.01 7002 0.500000 3.099195 69.9471 3.153598 0.915364
7012.02 7012 0.500000 3.084894 69.7987 3.192235 0.931106
7022.01 7022 0.500000 3.070828 69.6927 3.232538 0.946914
7032.02 7032 0.500000 3.055948 69.5695 3.275215 0.964330
7042.01 7042 0.500000 3.041237 69.3962 3.315477 0.977982
7052.02 7052 0.500000 3.026778 69.2357 3.355984 0.994539
7062.01 7062 0.500000 3.012112 68.4621 3.367487 0.999316
7072.01 7072 0.500000 2.998069 68.9921 3.441550 1.024889
7082.01 7082 0.500000 2.983887 68.8271 3.482362 1.037764
7084 7084 0.500000 2.981200 68.8562 3.493180 1.041166
7086.01 7086 0.500000 2.978198 68.867 3.504275 1.043102
7088.01 7088 0.500000 2.975510 68.8212 3.511360 1.046465
7090 7090 0.500000 2.972580 68.8275 3.521970 1.048692
7092.01 7092 0.500000 2.969810 68.8655 3.533710 1.051345
7094 7094 0.500000 2.967122 68.8864 3.544292 1.052852
7096 7096 0.500000 2.964372 68.8096 3.550078 1.052179
7098 7098 0.500000 2.961780 68.7558 3.556524 1.052092
7100 7100 0.500000 2.958750 68.7527 3.567146 1.051074
7102 7102 0.500000 2.956266 68.722 3.574428 1.048843
7102.08 7102.1 0.500000 2.956371 68.7501 3.575538 1.048943
7102.18 7102.2 0.500000 2.955761 68.7885 3.579697 1.050663
7102.28 7102.3 0.500000 2.955904 68.7606 3.577728 1.049380
7102.38 7102.4 0.500000 2.955710 68.7282 3.576738 1.048471
7102.48 7102.5 0.500000 2.955535 68.7956 3.580874 1.048594
7102.58 7102.6 0.500000 2.955407 68.8204 3.582635 1.049428
7102.68 7102.7 0.500000 2.955084 68.7728 3.581302 1.048882
7102.78 7102.8 0.500000 2.955190 68.7886 3.581750 1.048952
7102.88 7102.9 0.500000 2.954916 68.757 3.581072 1.047697
7102.98 7103 0.500000 2.955082 68.7775 3.581552 1.046902
7103.08 7103.1 0.500000 2.954842 68.7982 3.583480 1.048065
7103.19 7103.2 0.500000 2.954636 68.8103 3.584864 1.048216
7103.28 7103.3 0.500000 2.954452 68.8136 3.585685 1.048154
7103.38 7103.4 0.500000 2.954449 68.7869 3.584307 1.046990
7103.49 7103.5 0.500000 2.953971 68.7464 3.583894 1.046875
7103.59 7103.6 0.500000 2.954252 68.7591 3.583572 1.045671
7103.69 7103.7 0.500000 2.953988 68.7526 3.584148 1.044596
7103.79 7103.8 0.500000 2.953871 68.7689 3.585430 1.045084
7103.89 7103.9 0.500000 2.953662 68.7507 3.585245 1.044705
7103.99 7104 0.500000 2.953568 68.7394 3.584989 1.044320
7104.09 7104.1 0.500000 2.953450 68.7553 3.586233 1.043794
7104.19 7104.2 0.500000 2.953282 68.752 3.586663 1.043662
7104.3 7104.3 0.500000 2.953307 68.7458 3.586280 1.042912
7104.39 7104.4 0.500000 2.952838 68.7461 3.587960 1.042499
7104.49 7104.5 0.500000 2.952945 68.74 3.587267 1.042325
7104.6 7104.6 0.500000 2.952755 68.7193 3.586851 1.041100
7104.7 7104.7 0.500000 2.952754 68.7309 3.587460 1.041646
7104.8 7104.8 0.500000 2.952456 68.7489 3.589477 1.041552
7104.89 7104.9 0.500000 2.952237 68.7725 3.591478 1.041994
7105 7105 0.500000 2.952173 68.7451 3.590288 1.040507
7105.1 7105.1 0.500000 2.952299 68.6998 3.587491 1.038894
7105.2 7105.2 0.500000 2.952097 68.7131 3.588892 1.038679
7105.29 7105.3 0.500000 2.951793 68.7318 3.590951 1.038131
7105.4 7105.4 0.500000 2.951695 68.7218 3.590793 1.037523
7105.5 7105.5 0.500000 2.951645 68.7143 3.590587 1.036639
7105.59 7105.6 0.500000 2.951537 68.7012 3.590277 1.037007
7105.69 7105.7 0.500000 2.951372 68.6812 3.589827 1.035844
7105.8 7105.8 0.500000 2.951308 68.6759 3.589787 1.035133
7105.9 7105.9 0.500000 2.951170 68.685 3.590760 1.033737
7105.99 7106 0.500000 2.951070 68.7063 3.592222 1.032853
7106.1 7106.1 0.500000 2.951065 68.6801 3.590873 1.032487
7106.2 7106.2 0.500000 2.950947 68.6593 3.590212 1.031345
7106.3 7106.3 0.500000 2.950740 68.6621 3.591093 1.030350
7106.39 7106.4 0.500000 2.950357 68.7109 3.595010 1.030395
7106.49 7106.5 0.500000 2.950536 68.7078 3.594229 1.029279
7106.59 7106.6 0.500000 2.950264 68.6399 3.591618 1.026674
7106.69 7106.7 0.500000 2.950338 68.6421 3.591489 1.025826
7106.79 7106.8 0.500000 2.950116 68.6393 3.592103 1.025390
7106.9 7106.9 0.500000 2.949935 68.6498 3.593346 1.024368
7107 7107 0.500000 2.949803 68.6243 3.592491 1.023100
7107.1 7107.1 0.500000 2.949775 68.6726 3.595114 1.022734
7107.19 7107.2 0.500000 2.949386 68.6728 3.596471 1.021322
7107.3 7107.3 0.500000 2.949616 68.6442 3.594223 1.018905
7107.4 7107.4 0.500000 2.949482 68.6061 3.592681 1.017039
7107.49 7107.5 0.500000 2.949235 68.6161 3.594112 1.016351
7107.6 7107.6 0.500000 2.949124 68.6509 3.596332 1.014405
7107.7 7107.7 0.500000 2.948965 68.6149 3.594990 1.012936
7107.8 7107.8 0.500000 2.948774 68.5968 3.594743 1.011142
7107.9 7107.9 0.500000 2.948785 68.6038 3.595073 1.008943
7108 7108 0.500000 2.948605 68.6045 3.595767 1.008312
7108.1 7108.1 0.500000 2.948382 68.7297 3.603125 1.006221
7108.2 7108.2 0.500000 2.948110 68.756 3.605472 1.006160
7108.3 7108.3 0.500000 2.948486 68.7448 3.603535 1.003338
7108.4 7108.4 0.500000 2.948315 68.7741 3.605691 1.000686
7108.5 7108.5 0.500000 2.948105 68.7818 3.606850 0.998558
7108.6 7108.6 0.500000 2.947966 68.7529 3.605829 0.995066
7108.7 7108.7 0.500000 2.948092 68.8891 3.612536 0.993647
7108.8 7108.8 0.500000 2.947844 68.881 3.612993 0.991027
7108.9 7108.9 0.500000 2.947811 68.8878 3.613487 0.987662
7109.01 7109 0.500000 2.947663 68.9184 3.615597 0.983523
7109.1 7109.1 0.500000 2.947822 68.932 3.615858 0.979995
7109.2 7109.2 0.500000 2.947268 68.904 3.616291 0.975322
7109.3 7109.3 0.500000 2.947106 68.8621 3.614675 0.970136
7109.4 7109.4 0.500000 2.947043 68.8624 3.614918 0.963735
7109.5 7109.5 0.500000 2.947108 68.8746 3.615322 0.958874
7109.6 7109.6 0.500000 2.947043 68.8592 3.614746 0.953358
7109.7 7109.7 0.500000 2.947060 68.8888 3.616240 0.944991
7109.8 7109.8 0.500000 2.947024 68.8829 3.616125 0.937826
7109.9 7109.9 0.500000 2.946580 68.8535 3.616125 0.928546
7110 7110 0.500000 2.946753 68.8384 3.614700 0.918229
7110.1 7110.1 0.500000 2.946719 68.7962 3.612614 0.907076
7110.2 7110.2 0.500000 2.946788 68.8487 3.615119 0.894723
7110.3 7110.3 0.500000 2.946664 68.842 3.615202 0.878949
7110.39 7110.4 0.500000 2.946971 68.8167 3.612820 0.862318
7110.5 7110.5 0.500000 2.946581 68.8059 3.613586 0.844355
7110.6 7110.6 0.500000 2.946746 68.8288 3.614223 0.821599
7110.69 7110.7 0.500000 2.946909 68.8117 3.612780 0.801293
7110.8 7110.8 0.500000 2.946978 68.7697 3.610282 0.775824
7110.9 7110.9 0.500000 2.947051 68.814 3.612338 0.750335
7111 7111 0.500000 2.947159 68.8212 3.612319 0.725764
7111.1 7111.1 0.500000 2.947148 68.7986 3.611186 0.698110
7111.2 7111.2 0.500000 2.947334 68.7735 3.609204 0.671944
7111.3 7111.3 0.500000 2.947497 68.742 3.606971 0.646268
7111.4 7111.4 0.500000 2.947420 68.7782 3.609131 0.622916
7111.5 7111.5 0.500000 2.947410 68.7673 3.608594 0.600672
7111.6 7111.6 0.500000 2.947572 68.7184 3.605434 0.578117
7111.7 7111.7 0.500000 2.947649 68.6995 3.604190 0.558705
7111.8 7111.8 0.500000 2.947567 68.7175 3.605420 0.541217
7111.9 7111.9 0.500000 2.947712 68.7236 3.605230 0.525141
7112 7112 0.500000 2.947609 68.7122 3.605010 0.511144
7112.1 7112.1 0.500000 2.947183 68.6858 3.605143 0.496204
7112.2 7112.2 0.500000 2.947298 68.6955 3.605258 0.484199
7112.3 7112.3 0.500000 2.947030 68.6818 3.605528 0.473408
7112.4 7112.4 0.500000 2.946579 68.6584 3.605873 0.463724
7112.5 7112.5 0.500000 2.946574 68.6313 3.604469 0.453164
7112.6 7112.6 0.500000 2.946357 68.6211 3.604726 0.444680
7112.7 7112.7 0.500000 2.946141 68.5976 3.604265 0.437184
7112.8 7112.8 0.500000 2.945869 68.6003 3.605368 0.427891
7112.9 7112.9 0.500000 2.945777 68.6389 3.607735 0.420484
7112.99 7113 0.500000 2.945568 68.6461 3.608863 0.413756
7113.1 7113.1 0.500000 2.945314 68.5958 3.607125 0.407176
7113.2 7113.2 0.500000 2.945368 68.5435 3.604221 0.401210
7113.3 7113.3 0.500000 2.944921 68.5415 3.605660 0.394713
7113.4 7113.4 0.500000 2.944850 68.5665 3.607281 0.387607
7113.5 7113.5 0.500000 2.944754 68.5683 3.607717 0.382506
7113.6 7113.6 0.500000 2.944789 68.4847 3.603204 0.375076
7113.7 7113.7 0.500000 2.944560 68.4707 3.603279 0.369761
7113.8 7113.8 0.500000 2.944673 68.4736 3.603029 0.364640
7113.9 7113.9 0.500000 2.944184 68.527 3.607583 0.360684
7114 7114 0.500000 2.944233 68.5173 3.606934 0.355315
7114.1 7114.1 0.500000 2.944053 68.4972 3.606536 0.350739
7114.2 7114.2 0.500000 2.943574 68.468 3.606714 0.346507
7114.3 7114.3 0.500000 2.943605 68.4657 3.606491 0.342691
7114.4 7114.4 0.500000 2.943291 68.4683 3.607730 0.339727
7114.5 7114.5 0.500000 2.943477 68.4616 3.606751 0.335382
7114.6 7114.6 0.500000 2.943210 68.4596 3.607577 0.332342
7114.7 7114.7 0.500000 2.942958 68.4507 3.608067 0.329590
7114.8 7114.8 0.500000 2.942692 68.4328 3.608042 0.327242
7114.9 7114.9 0.500000 2.942755 68.4314 3.607747 0.324768
7115 7115 0.500000 2.942585 68.4334 3.608452 0.323595
7115.1 7115.1 0.500000 2.942406 68.444 3.609644 0.321759
7115.2 7115.2 0.500000 2.942654 68.4185 3.607422 0.319299
7115.3 7115.3 0.500000 2.942293 68.4509 3.610377 0.318033
7115.4 7115.4 0.500000 2.942449 68.4246 3.608480 0.316770
7115.49 7115.5 0.500000 2.942404 68.4437 3.609625 0.315541
7115.6 7115.6 0.500000 2.942103 68.4044 3.608660 0.314231
7115.69 7115.7 0.500000 2.942258 68.368 3.606220 0.313511
7115.8 7115.8 0.500000 2.942274 68.411 3.608394 0.312725
7115.9 7115.9 0.500000 2.942241 68.4412 3.610094 0.312081
7116 7116 0.500000 2.942283 68.443 3.610053 0.310542
7116.1 7116.1 0.500000 2.942403 68.4346 3.609170 0.309642
7116.2 7116.2 0.500000 2.942244 68.4196 3.608948 0.307983
7116.3 7116.3 0.500000 2.942487 68.4376 3.609014 0.307279
7116.4 7116.4 0.500000 2.942656 68.3944 3.606131 0.305814
7116.5 7116.5 0.500000 2.942598 68.3829 3.605743 0.303995
7116.6 7116.6 0.500000 2.942556 68.4018 3.606856 0.302133
7116.7 7116.7 0.500000 2.942862 68.3929 3.605233 0.299452
7116.8 7116.8 0.500000 2.943177 68.3718 3.603060 0.297437
7116.9 7116.9 0.500000 2.943307 68.3363 3.600698 0.293459
7117 7117 0.500000 2.943652 68.3414 3.599740 0.289854
7117.1 7117.1 0.500000 2.943714 68.3563 3.600288 0.286232
7117.2 7117.2 0.500000 2.944295 68.3697 3.598846 0.281995
7117.3 7117.3 0.500000 2.944860 68.3226 3.594386 0.277240
7117.4 7117.4 0.500000 2.945476 68.3162 3.591795 0.272456
7117.5 7117.5 0.500000 2.945911 68.3375 3.591427 0.268088
7117.6 7117.6 0.500000 2.946363 68.3331 3.589573 0.261979
7117.7 7117.7 0.500000 2.947021 68.2738 3.584093 0.255975
7117.8 7117.8 0.500000 2.947909 68.257 3.580033 0.250443
7117.9 7117.9 0.500000 2.948444 68.2871 3.579769 0.246349
7118 7118 0.500000 2.949248 68.2827 3.576609 0.239610
7118.1 7118.1 0.500000 2.950190 68.3053 3.574478 0.235030
7118.2 7118.2 0.500000 2.950970 68.2619 3.569388 0.229713
7118.3 7118.3 0.500000 2.952435 68.2695 3.564649 0.222387
7118.39 7118.4 0.500000 2.953492 68.2729 3.561096 0.217303
7118.5 7118.5 0.500000 2.954784 68.2696 3.556203 0.212017
7118.6 7118.6 0.500000 2.956122 68.2641 3.551224 0.204939
7118.7 7118.7 0.500000 2.957256 68.2048 3.544083 0.200820
7118.8 7118.8 0.500000 2.958587 68.2651 3.542476 0.195286
7118.9 7118.9 0.500000 2.960414 68.2349 3.534271 0.189126
7119 7119 0.500000 2.962179 68.1822 3.525546 0.184134
7119.1 7119.1 0.500000 2.964077 68.1491 3.516916 0.177948
7119.2 7119.2 0.500000 2.965889 68.1574 3.511013 0.173871
7119.31 7119.3 0.500000 2.968310 68.1797 3.503686 0.168149
7119.4 7119.4 0.500000 2.970413 68.1759 3.495971 0.163547
7119.5 7119.5 0.500000 2.972843 68.1394 3.485664 0.158783
7119.6 7119.6 0.500000 2.975200 68.1404 3.477431 0.154588
7119.7 7119.7 0.500000 2.977724 68.1353 3.468568 0.149551
7119.81 7119.8 0.500000 2.980750 68.1475 3.458286 0.144743
7119.9 7119.9 0.500000 2.983523 68.1108 3.447510 0.140711
7120 7120 0.500000 2.986594 68.0988 3.436079 0.135909
7120.1 7120.1 0.500000 2.989698 68.1145 3.426236 0.132111
7120.2 7120.2 0.500000 2.992860 68.1127 3.415429 0.127790
7120.3 7120.3 0.500000 2.996092 68.1024 3.403885 0.123806
7120.4 7120.4 0.500000 2.999391 68.0897 3.391911 0.120701
7120.5 7120.5 0.500000 3.003221 68.0646 3.377830 0.116262
7120.6 7120.6 0.500000 3.006501 68.0246 3.364794 0.113041
7120.7 7120.7 0.500000 3.009971 68.038 3.353798 0.109336
7120.8 7120.8 0.500000 3.013441 68.0605 3.343515 0.106571
7120.9 7120.9 0.500000 3.017032 68.0116 3.328911 0.102985
7121 7121 0.500000 3.020171 67.9827 3.317063 0.100296
7121.1 7121.1 0.500000 3.023624 67.9872 3.305956 0.096782
7121.2 7121.2 0.500000 3.026703 68.1381 3.303007 0.095254
7121.3 7121.3 0.500000 3.029529 68.1623 3.294654 0.091986
7121.4 7121.4 0.500000 3.032509 68.1596 3.285025 0.089939
7121.5 7121.5 0.500000 3.035687 68.1413 3.273827 0.087707
7121.6 7121.6 0.500000 3.038106 68.1233 3.264767 0.086042
7121.7 7121.7 0.500000 3.040408 68.1864 3.260602 0.083797
7121.8 7121.8 0.500000 3.043061 68.2201 3.253473 0.081872
7121.9 7121.9 0.500000 3.045017 68.2271 3.247528 0.080432
7122.01 7122 0.500000 3.047231 68.1953 3.238937 0.078731
7122.1 7122.1 0.500000 3.049083 68.2264 3.234159 0.077391
7122.2 7122.2 0.500000 3.051251 68.1846 3.225186 0.075731
7122.3 7122.3 0.500000 3.053107 68.159 3.217590 0.074260
7122.4 7122.4 0.500000 3.055111 68.1785 3.212784 0.073244
7122.5 7122.5 0.500000 3.057276 68.1304 3.203444 0.071374
7122.6 7122.6 0.500000 3.058790 68.0978 3.197335 0.071200
7122.7 7122.7 0.500000 3.060568 68.0811 3.190668 0.069558
7122.8 7122.8 0.500000 3.062371 68.0695 3.184437 0.068096
7122.9 7122.9 0.500000 3.064238 68.0206 3.176223 0.066540
7123 7123 0.500000 3.066223 67.9899 3.168449 0.065616
7123.1 7123.1 0.500000 3.067867 67.9854 3.163050 0.064720
7123.2 7123.2 0.500000 3.069966 67.9529 3.154985 0.063262
7123.29 7123.3 0.500000 3.071786 67.9394 3.148674 0.063025
7123.4 7123.4 0.500000 3.073566 67.8686 3.139519 0.061508
7123.5 7123.5 0.500000 3.075615 67.8412 3.132090 0.060933
7123.6 7123.6 0.500000 3.077508 67.8418 3.126097 0.059941
7123.7 7123.7 0.500000 3.079563 67.812 3.118248 0.059113
7123.8 7123.8 0.500000 3.081689 67.7822 3.110186 0.058012
7123.9 7123.9 0.500000 3.083885 67.7398 3.101340 0.057133
7124 7124 0.500000 3.085445 67.6888 3.094077 0.057077
7124.1 7124.1 0.500000 3.087899 67.6398 3.084284 0.055629
7124.2 7124.2 0.500000 3.090361 67.6622 3.077651 0.054946
7124.3 7124.3 0.500000 3.092513 67.6482 3.070540 0.054237
7124.41 7124.4 0.500000 3.094950 67.6159 3.061329 0.053647
7124.5 7124.5 0.500000 3.097031 67.5664 3.052778 0.052824
7124.6 7124.6 0.500000 3.099634 67.5394 3.043707 0.052125
7124.7 7124.7 0.500000 3.101904 67.5072 3.035291 0.051445
7124.8 7124.8 0.500000 3.104278 67.4499 3.025592 0.051181
7124.91 7124.9 0.500000 3.106479 67.4695 3.019528 0.050589
7125 7125 0.500000 3.108695 67.4228 3.011145 0.049631
7125.1 7125.1 0.500000 3.110958 67.3814 3.002300 0.049163
7125.2 7125.2 0.500000 3.113106 67.3079 2.992512 0.047923
7125.3 7125.3 0.500000 3.115207 67.268 2.984635 0.047441
7125.4 7125.4 0.500000 3.117348 67.262 2.978045 0.047354
7125.5 7125.5 0.500000 3.119203 67.2402 2.971553 0.046288
7125.6 7125.6 0.500000 3.120496 67.1894 2.965470 0.046367
7125.7 7125.7 0.500000 3.122402 67.1285 2.957202 0.045409
7125.8 7125.8 0.500000 3.123749 67.0941 2.951671 0.045168
7125.9 7125.9 0.500000 3.125158 67.0859 2.947080 0.044535
7126 7126 0.500000 3.126300 67.0545 2.942343 0.043509
7126.09 7126.1 0.500000 3.127419 66.9716 2.935554 0.043596
7126.2 7126.2 0.500000 3.128464 66.9159 2.929912 0.043022
7126.3 7126.3 0.500000 3.129203 66.8598 2.925294 0.042184
7126.4 7126.4 0.500000 3.130152 66.8437 2.921910 0.041785
7126.5 7126.5 0.500000 3.130489 66.8212 2.919863 0.040956
7126.6 7126.6 0.500000 3.130907 66.7593 2.915944 0.040615
7126.7 7126.7 0.500000 3.131450 66.6879 2.911229 0.040162
7126.8 7126.8 0.500000 3.132045 66.631 2.907000 0.039328
7126.9 7126.9 0.500000 3.132330 66.6103 2.905307 0.039450
7127 7127 0.500000 3.132066 66.542 2.903056 0.038345
7127.11 7127.1 0.500000 3.132157 66.4719 2.899743 0.038507
7127.2 7127.2 0.500000 3.132279 66.4002 2.896265 0.038037
7127.3 7127.3 0.500000 3.131866 66.3383 2.894729 0.037717
7127.4 7127.4 0.500000 3.131995 66.2937 2.892443 0.037032
7127.5 7127.5 0.500000 3.131327 66.3019 2.894730 0.036778
7127.6 7127.6 0.500000 3.130651 66.2536 2.894575 0.036483
7127.7 7127.7 0.500000 3.130147 66.2027 2.893789 0.035380
7127.8 7127.8 0.500000 3.129300 66.0861 2.891104 0.034436
7127.9 7127.9 0.500000 3.128258 66.0852 2.894134 0.034228
7128 7128 0.500000 3.127328 66.0313 2.894467 0.033713
7128.1 7128.1 0.500000 3.126206 66.0302 2.897621 0.033133
7128.2 7128.2 0.500000 3.125166 66.0235 2.900470 0.033015
7128.3 7128.3 0.500000 3.123944 65.9793 2.901958 0.031630
7128.4 7128.4 0.500000 3.122841 65.8951 2.901343 0.032620
7128.5 7128.5 0.500000 3.121480 65.8396 2.902991 0.031750
7128.6 7128.6 0.500000 3.120159 65.8169 2.905866 0.031054
7128.69 7128.7 0.500000 3.118785 65.8115 2.909439 0.030719
7128.8 7128.8 0.500000 3.117488 65.7237 2.909440 0.029942
7128.9 7128.9 0.500000 3.115912 65.7631 2.915808 0.028773
7128.99 7129 0.500000 3.114886 65.7205 2.916884 0.029379
7129.1 7129.1 0.500000 3.113122 65.6941 2.920841 0.029476
7129.2 7129.2 0.500000 3.111867 65.6342 2.921800 0.027439
7129.29 7129.3 0.500000 3.110647 65.625 2.925001 0.027942
7129.4 7129.4 0.500000 3.109108 65.5865 2.927987 0.027782
7129.5 7129.5 0.500000 3.107635 65.5691 2.931412 0.027166
7129.6 7129.6 0.500000 3.106405 65.512 2.932419 0.027802
7129.7 7129.7 0.500000 3.105173 65.4515 2.933323 0.026488
7129.8 7129.8 0.500000 3.103889 65.3965 2.934792 0.026286
7129.9 7129.9 0.500000 3.102262 65.4483 2.941732 0.026000
7130 7130 0.500000 3.101138 65.3829 2.942136 0.025097
7130.1 7130.1 0.500000 3.099889 65.3295 2.943489 0.025656
7130.2 7130.2 0.500000 3.098567 65.3354 2.947531 0.025503
7130.3 7130.3 0.500000 3.097445 65.2415 2.946636 0.024365
7130.41 7130.4 0.500000 3.096016 65.2042 2.949230 0.023892
7130.5 7130.5 0.500000 3.094836 65.1918 2.952084 0.024253
7130.6 7130.6 0.500000 3.093413 65.1464 2.954188 0.025158
7130.7 7130.7 0.500000 3.092211 65.0703 2.954257 0.024757
7130.8 7130.8 0.500000 3.090620 65.0041 2.955979 0.025126
7130.9 7130.9 0.500000 3.089200 64.9765 2.958928 0.024816
7131.01 7131 0.500000 3.087734 64.9928 2.964086 0.024739
7131.1 7131.1 0.500000 3.086381 64.9541 2.966254 0.024482
7131.2 7131.2 0.500000 3.084742 64.9327 2.970141 0.024744
7131.3 7131.3 0.500000 3.083433 64.8769 2.971473 0.024903
7131.4 7131.4 0.500000 3.081955 64.8189 2.973165 0.024917
7131.5 7131.5 0.500000 3.080121 64.8304 2.979199 0.025510
7131.6 7131.6 0.500000 3.078486 64.8386 2.984446 0.025887
7131.7 7131.7 0.500000 3.077114 64.8157 2.987490 0.025642
7131.8 7131.8 0.500000 3.075550 64.7504 2.988999 0.026739
7131.9 7131.9 0.500000 3.074289 64.7343 2.992116 0.026820
7132.01 7132 0.500000 3.072876 64.738 2.996675 0.027830
7132.1 7132.1 0.500000 3.071776 64.7518 3.000390 0.027269
7132.2 7132.2 0.500000 3.070470 64.7333 3.003544 0.026770
7132.29 7132.3 0.500000 3.069553 64.7213 3.005615 0.027951
7132.41 7132.4 0.500000 3.068099 64.6768 3.008173 0.028407
7132.49 7132.5 0.500000 3.067127 64.7433 3.013990 0.029078
7132.6 7132.6 0.500000 3.066034 64.7215 3.016463 0.028637
7132.72 7132.7 0.500000 3.064941 64.7347 3.020520 0.029853
7132.81 7132.8 0.500000 3.063916 64.7229 3.023118 0.030352
7132.91 7132.9 0.500000 3.062711 64.7425 3.027625 0.031429
7133.01 7133 0.500000 3.061929 64.7531 3.030513 0.030647
7133.11 7133.1 0.500000 3.060709 64.7585 3.034427 0.032056
7133.21 7133.2 0.500000 3.059744 64.7386 3.036296 0.031868
7133.31 7133.3 0.500000 3.058935 64.7462 3.039220 0.032186
7133.41 7133.4 0.500000 3.058086 64.7431 3.041641 0.032745
7133.51 7133.5 0.500000 3.056960 64.7762 3.046518 0.033586
7133.6 7133.6 0.500000 3.056033 64.7801 3.049560 0.032715
7133.71 7133.7 0.500000 3.055084 64.8037 3.053606 0.033807
7133.8 7133.8 0.500000 3.054040 64.8034 3.056713 0.035245
7133.9 7133.9 0.500000 3.053375 64.8251 3.059783 0.035989
7134 7134 0.500000 3.052364 64.8507 3.064069 0.035451
7134.1 7134.1 0.500000 3.051692 64.8656 3.066806 0.036900
7134.2 7134.2 0.500000 3.050795 64.9428 3.073227 0.036973
7134.3 7134.3 0.500000 3.049888 64.9952 3.078468 0.037300
7134.4 7134.4 0.500000 3.049364 65.0083 3.080730 0.035904
7134.5 7134.5 0.500000 3.048448 65.1336 3.089463 0.037873
7134.6 7134.6 0.500000 3.047639 65.1541 3.092922 0.038414
7134.7 7134.7 0.500000 3.046992 65.1086 3.092788 0.037710
7134.81 7134.8 0.500000 3.046255 65.1994 3.099435 0.038889
7134.9 7134.9 0.500000 3.045547 65.2154 3.102333 0.038882
7135 7135 0.500000 3.045193 65.2467 3.104913 0.039313
7135.1 7135.1 0.500000 3.044725 65.2578 3.106867 0.038859
7135.21 7135.2 0.500000 3.044174 65.2501 3.108232 0.039384
7135.3 7135.3 0.500000 3.043409 65.2773 3.111903 0.040417
7135.4 7135.4 0.500000 3.043071 65.2929 3.113679 0.040177
7135.5 7135.5 0.500000 3.042528 65.3339 3.117359 0.039597
7135.6 7135.6 0.500000 3.042072 65.3502 3.119562 0.039963
7135.7 7135.7 0.500000 3.041829 65.3194 3.118834 0.040638
7135.8 7135.8 0.500000 3.041277 65.3166 3.120458 0.041028
7135.91 7135.9 0.500000 3.040382 65.3749 3.126017 0.041641
7136.01 7136 0.500000 3.040018 65.4279 3.129686 0.040272
7136.1 7136.1 0.500000 3.039635 65.4481 3.131899 0.041581
7136.2 7136.2 0.500000 3.038958 65.4323 3.133265 0.041466
7136.31 7136.3 0.500000 3.038386 65.4255 3.134720 0.041460
7136.41 7136.4 0.500000 3.037526 65.4029 3.136299 0.042447
7136.5 7136.5 0.500000 3.037355 65.4634 3.139728 0.041739
7136.6 7136.6 0.500000 3.036798 65.5038 3.143442 0.041988
7136.7 7136.7 0.500000 3.036130 65.5132 3.145971 0.042363
7136.8 7136.8 0.500000 3.035253 65.5116 3.148660 0.041061
7136.9 7136.9 0.500000 3.034779 65.4961 3.149445 0.040833
7137 7137 0.500000 3.034140 65.5343 3.153266 0.042091
7137.11 7137.1 0.500000 3.033651 65.5547 3.155811 0.041631
7137.2 7137.2 0.500000 3.033183 65.5618 3.157591 0.041024
7137.3 7137.3 0.500000 3.032800 65.5337 3.157504 0.041334
7137.4 7137.4 0.500000 3.032164 65.5237 3.158976 0.041911
7137.5 7137.5 0.500000 3.031864 65.5663 3.161984 0.041055
7137.6 7137.6 0.500000 3.031279 65.6147 3.166209 0.041031
7137.69 7137.7 0.500000 3.030860 65.6162 3.167540 0.041494
7137.8 7137.8 0.500000 3.030488 65.6046 3.168189 0.041080
7137.9 7137.9 0.500000 3.030297 65.6281 3.169938 0.040324
7138 7138 0.500000 3.029836 65.6381 3.171876 0.041805
7138.1 7138.1 0.500000 3.029546 65.6431 3.173032 0.041336
7138.2 7138.2 0.500000 3.029362 65.6615 3.174500 0.040437
7138.3 7138.3 0.500000 3.028768 65.645 3.175567 0.040195
7138.4 7138.4 0.500000 3.028612 65.6657 3.177081 0.039799
7138.5 7138.5 0.500000 3.028371 65.6498 3.177084 0.040014
7138.6 7138.6 0.500000 3.028169 65.6469 3.177581 0.039813
7138.7 7138.7 0.500000 3.028037 65.6278 3.177070 0.038757
7138.79 7138.8 0.500000 3.027933 65.6187 3.176961 0.039398
7138.9 7138.9 0.500000 3.027687 65.7166 3.182467 0.039371
7139 7139 0.500000 3.027092 65.7166 3.184338 0.038959
7139.1 7139.1 0.500000 3.027211 65.7064 3.183513 0.038611
7139.2 7139.2 0.500000 3.026991 65.6778 3.182830 0.038617
7139.3 7139.3 0.500000 3.026941 65.6759 3.182914 0.038314
7139.4 7139.4 0.500000 3.026594 65.6522 3.182841 0.038911
7139.5 7139.5 0.500000 3.026369 65.6615 3.184002 0.037667
7139.6 7139.6 0.500000 3.026496 65.709 3.185926 0.038716
7139.7 7139.7 0.500000 3.026058 65.717 3.187702 0.039092
7139.8 7139.8 0.500000 3.026201 65.7129 3.187046 0.037421
7139.9 7139.9 0.500000 3.026110 65.6858 3.186021 0.038055
7140 7140 0.500000 3.025698 65.7006 3.188051 0.037551
7140.11 7140.1 0.500000 3.025724 65.699 3.187880 0.038083
7140.2 7140.2 0.500000 3.025620 65.6821 3.187404 0.038088
7140.3 7140.3 0.500000 3.025486 65.6803 3.187731 0.037237
7140.4 7140.4 0.500000 3.025329 65.7034 3.189362 0.037613
7140.51 7140.5 0.500000 3.025105 65.7168 3.190731 0.036875
7140.6 7140.6 0.500000 3.025131 65.7126 3.190438 0.037083
7140.7 7140.7 0.500000 3.025032 65.6791 3.189139 0.036622
7140.8 7140.8 0.500000 3.024917 65.6592 3.188545 0.036847
7140.91 7140.9 0.500000 3.024800 65.6674 3.189345 0.036467
7141 7141 0.500000 3.024472 65.6758 3.190757 0.036168
7141.1 7141.1 0.500000 3.024625 65.7187 3.192355 0.035709
7141.2 7141.2 0.500000 3.024341 65.7001 3.192350 0.036980
7141.3 7141.3 0.500000 3.024504 65.6762 3.190672 0.037022
7141.4 7141.4 0.500000 3.024032 65.6812 3.192423 0.037584
7141.5 7141.5 0.500000 3.023722 65.6789 3.193306 0.036711
7141.6 7141.6 0.500000 3.023645 65.6938 3.194267 0.036453
7141.7 7141.7 0.500000 3.023445 65.7077 3.195578 0.036832
7141.8 7141.8 0.500000 3.023323 65.681 3.194689 0.036801
7141.9 7141.9 0.500000 3.023311 65.6866 3.194989 0.036476
7142 7142 0.700000 3.023007 91.9348 4.473059 0.051110
7143.1 7143.08 0.710000 3.021040 93.2556 4.546254 0.052758
7144.21 7144.18 0.730000 3.018937 95.8966 4.684863 0.055933
7145.28 7145.29 0.740000 3.016396 97.1219 4.756774 0.056369
7146.43 7146.43 0.750000 3.013103 98.464 4.838429 0.054408
7147.59 7147.58 0.760000 3.009701 99.8165 4.921647 0.051665
7148.77 7148.76 0.780000 3.006086 102.466 5.070501 0.050305
7149.96 7149.95 0.790000 3.003337 103.824 5.151903 0.049067
7151.16 7151.16 0.800000 3.001259 105.162 5.229106 0.048769
7152.4 7152.39 0.810000 2.999743 106.519 5.304617 0.049323
7153.65 7153.64 0.830000 2.999498 109.208 5.439890 0.048482
7154.92 7154.91 0.840000 2.999930 110.553 5.504486 0.051150
7156.21 7156.2 0.850000 3.000392 111.868 5.567388 0.053166
7157.52 7157.51 0.860000 3.000160 113.13 5.631486 0.052172
7158.84 7158.83 0.880000 2.999055 115.666 5.764116 0.055023
7160.19 7160.18 0.890000 2.998345 117.01 5.835235 0.054834
7161.55 7161.54 0.900000 2.997843 118.267 5.900889 0.056780
7162.94 7162.93 0.910000 2.997341 119.449 5.962881 0.058098
7164.34 7164.33 0.930000 2.996353 121.942 6.093312 0.059534
7165.76 7165.75 0.940000 2.994757 123.102 6.161116 0.060845
7167.2 7167.19 0.950000 2.993135 124.294 6.230841 0.063266
7168.66 7168.65 0.960000 2.992084 125.503 6.298099 0.064424
7170.14 7170.13 0.980000 2.991206 127.981 6.428102 0.067240
7171.64 7171.63 0.990000 2.991117 129.096 6.484640 0.069853
7173.15 7173.14 1.000000 2.990778 130.3 6.547362 0.072596
7174.69 7174.68 1.010000 2.989734 131.573 6.618224 0.077774
7176.25 7176.24 1.030000 2.988644 133.955 6.745415 0.083519
7177.82 7177.81 1.040000 2.987249 135.133 6.814231 0.088943
7179.4 7179.4 1.050000 2.985425 136.437 6.892496 0.091709
7181.01 7181.01 1.060000 2.984303 137.629 6.960533 0.092379
7182.67 7182.65 1.080000 2.983131 140.203 7.099066 0.093584
7184.31 7184.3 1.090000 2.981650 141.493 7.174985 0.094066
7185.98 7185.97 1.100000 2.978840 142.973 7.270439 0.091691
7187.66 7187.65 1.110000 2.974950 144.171 7.359895 0.089279
7189.37 7189.36 1.130000 2.971167 146.699 7.517356 0.085720
7191.1 7191.09 1.140000 2.967071 147.78 7.603741 0.080049
7192.85 7192.83 1.150000 2.963141 149.528 7.724090 0.076969
7194.62 7194.6 1.160000 2.959345 150.873 7.823177 0.077395
7196.4 7196.38 1.180000 2.955496 153.532 7.991815 0.082155
7198.19 7198.18 1.190000 2.951722 154.608 8.078173 0.085493
7200.02 7200 1.200000 2.947815 156.018 8.183827 0.091803
7201.85 7201.84 1.210000 2.943890 157.342 8.285698 0.100684
7203.72 7203.7 1.230000 2.940085 159.869 8.450883 0.109929
7205.6 7205.58 1.240000 2.936688 161.099 8.544844 0.120044
7207.5 7207.48 1.250000 2.933909 162.479 8.642063 0.124209
7209.42 7209.4 1.260000 2.931979 163.718 8.724761 0.121561
7211.35 7211.33 1.280000 2.930293 166.183 8.871054 0.111076
7213.31 7213.29 1.290000 2.928331 167.38 8.952521 0.096116
7215.28 7215.26 1.300000 2.926584 168.7 9.038913 0.082644
7217.27 7217.26 1.310000 2.924685 169.786 9.114331 0.072818
7219.28 7219.27 1.330000 2.922495 172.347 9.272109 0.067271
7221.3 7221.3 1.340000 2.920668 173.435 9.347712 0.066751
7223.35 7223.35 1.350000 2.918364 174.489 9.426196 0.071984
7225.43 7225.42 1.360000 2.915871 175.529 9.506027 0.080314
7227.53 7227.51 1.380000 2.913102 176.722 9.597225 0.092925
7229.62 7229.61 1.390000 2.911060 179.499 9.767927 0.107781
7231.75 7231.74 1.400000 2.908804 180.791 9.860468 0.125681
7233.89 7233.89 1.410000 2.906385 182.043 9.952709 0.140763
7236.06 7236.05 1.430000 2.903484 184.415 10.1118 0.153898
7238.23 7238.23 1.440000 2.899919 185.489 10.2069 0.160446
7240.44 7240.44 1.450000 2.896315 186.746 10.3133 0.160925
7242.67 7242.66 1.460000 2.893311 187.805 10.403 0.155618
7244.9 7244.9 1.480000 2.889827 190.33 10.5795 0.151354
7247.16 7247.16 1.490000 2.886907 188.243 10.4942 0.144535
7249.44 7249.44 1.500000 2.883217 192.24 10.7566 0.144923
7251.75 7251.74 1.510000 2.879984 193.629 10.8696 0.147160
7254.04 7254.05 1.530000 2.876927 195.958 11.0339 0.153745
7256.39 7256.39 1.540000 2.874056 197.042 11.1268 0.158218
7258.74 7258.74 1.550000 2.871557 198.293 11.2255 0.158397
7261.12 7261.12 1.560000 2.869007 198.787 11.2822 0.154043
7263.51 7263.51 1.580000 2.867823 188.425 10.7068 0.142728
7265.91 7265.92 1.590000 2.863412 203.308 11.6034 0.152167
7268.37 7268.35 1.600000 2.860291 205.002 11.737 0.149545
7270.8 7270.8 1.610000 2.857002 206.151 11.8415 0.143319
7273.26 7273.27 1.630000 2.853025 207.475 11.9648 0.136955
7275.76 7275.76 1.640000 2.849171 209.768 12.1438 0.135623
7278.27 7278.27 1.650000 2.845231 211.112 12.2698 0.134220
7280.78 7280.79 1.660000 2.841880 211.442 12.3304 0.132142
7283.34 7283.34 1.680000 2.838427 213.888 12.5163 0.127475
7285.9 7285.9 1.690000 2.835128 215.33 12.6423 0.124679
7288.49 7288.49 1.700000 2.831619 216.529 12.7573 0.125366
7291.09 7291.09 1.710000 2.828539 217.655 12.8632 0.129820
7293.71 7293.71 1.730000 2.825225 220.183 13.0559 0.141837
7296.34 7296.35 1.740000 2.821885 221.148 13.1569 0.157752
7299.01 7299.01 1.750000 2.818452 222.235 13.2671 0.173724
7301.68 7301.69 1.760000 2.814942 219.928 13.1755 0.185719
7304.39 7304.39 1.780000 2.811172 226.159 13.5999 0.200041
7307.11 7307.11 1.790000 2.807355 227.368 13.725 0.209525
7309.84 7309.84 1.800000 2.803919 228.306 13.829 0.213810
7312.59 7312.6 1.810000 2.800294 229.417 13.9467 0.215590
7315.37 7315.37 1.830000 2.796764 231.896 14.1473 0.217715
7318.17 7318.17 1.840000 2.793231 233.043 14.2677 0.220746
7320.98 7320.98 1.850000 2.789762 234.449 14.4036 0.222706
7323.8 7323.81 1.860000 2.786104 235.721 14.5347 0.226846
7326.66 7326.66 1.880000 2.782401 238.09 14.7353 0.228881
7329.54 7329.53 1.890000 2.778747 239.037 14.8482 0.232572
7332.42 7332.42 1.900000 2.775196 240.333 14.9817 0.239838
7335.32 7335.32 1.910000 2.771648 241.81 15.1273 0.245678
7338.26 7338.25 1.930000 2.768294 244.033 15.3178 0.251909
7341.2 7341.2 1.940000 2.764697 244.928 15.4293 0.254402
7344.16 7344.16 1.950000 2.761416 246.25 15.5635 0.243095
7347.14 7347.14 1.960000 2.757643 247.409 15.6958 0.233512
7350.15 7350.15 1.980000 2.753982 249.85 15.909 0.224812
7353.17 7353.17 1.990000 2.750071 250.585 16.0184 0.216327
7356.21 7356.21 2.000000 2.746201 251.689 16.1512 0.209702
7359.27 7359.27 2.010000 2.742231 252.913 16.2942 0.203800
7362.35 7362.35 2.030000 2.738337 255.096 16.499 0.199725
7365.45 7365.45 2.040000 2.734325 256.188 16.6363 0.199612
7368.56 7368.56 2.050000 2.730236 257.333 16.7792 0.204018
7371.7 7371.7 2.060000 2.726070 258.179 16.9046 0.213566
7374.85 7374.85 2.080000 2.722033 260.557 17.1292 0.230573
7378.02 7378.03 2.090000 2.718062 261.601 17.2664 0.255521
7381.22 7381.22 2.100000 2.714366 262.528 17.3917 0.284422
7384.44 7384.43 2.110000 2.710420 263.663 17.536 0.307478
7387.66 7387.66 2.130000 2.706435 265.773 17.7469 0.318462
7390.91 7390.92 2.140000 2.702465 267.022 17.9011 0.319666
7394.18 7394.18 2.150000 2.698397 267.9 18.0333 0.316559
7397.47 7397.47 2.160000 2.694531 268.939 18.1733 0.315074
7400.78 7400.78 2.180000 2.690501 271.283 18.4058 0.318224
7404.11 7404.11 2.190000 2.686464 272.26 18.5467 0.323997
7407.45 7407.45 2.200000 2.682561 273.23 18.6856 0.324656
7410.81 7410.82 2.210000 2.678508 274.227 18.8299 0.324874
7414.19 7414.2 2.230000 2.674278 276.548 19.0697 0.327877
7417.6 7417.6 2.240000 2.670012 277.578 19.2227 0.332701
7421.03 7421.03 2.250000 2.665829 278.497 19.3672 0.338744
7424.47 7424.47 2.260000 2.661614 279.505 19.5194 0.347323
7427.93 7427.93 2.280000 2.657359 281.688 19.7556 0.358221
7431.4 7431.4 2.290000 2.653325 282.567 19.8974 0.359037
7434.91 7434.9 2.300000 2.648978 283.598 20.0571 0.360615
7438.42 7438.42 2.310000 2.644704 284.519 20.2084 0.358605
7441.97 7441.96 2.330000 2.640511 286.577 20.44 0.352201
7445.51 7445.51 2.340000 2.636481 280.099 20.0586 0.336439
7449.09 7449.09 2.350000 2.632213 288.956 20.7815 0.340225
7452.68 7452.68 2.360000 2.627895 289.727 20.927 0.340485
7456.3 7456.29 2.380000 2.623582 291.965 21.1799 0.344663
7459.93 7459.92 2.390000 2.619348 293.143 21.3557 0.350358
7463.57 7463.57 2.400000 2.615162 293.878 21.4989 0.356903
7467.24 7467.24 2.410000 2.611180 289.521 21.2646 0.361048
7470.93 7470.93 2.430000 2.606356 297.618 21.965 0.384823
7474.64 7474.64 2.440000 2.602120 298.395 22.1158 0.399101
7478.36 7478.36 2.450000 2.597656 299.191 22.2742 0.412028
7482.12 7482.11 2.460000 2.593093 300.811 22.4972 0.424259
7485.88 7485.87 2.480000 2.588729 302.864 22.7498 0.438621
7489.66 7489.66 2.490000 2.584371 303.559 22.9016 0.454913
7493.46 7493.46 2.500000 2.580087 304.707 23.0868 0.465137
7497.28 7497.28 2.510000 2.575701 306.205 23.3024 0.472321
7501.12 7501.12 2.530000 2.571197 308.321 23.5693 0.477969
7504.98 7504.98 2.540000 2.566922 308.95 23.7186 0.477001
7508.86 7508.86 2.550000 2.562551 309.962 23.9005 0.480850
7512.77 7512.76 2.560000 2.557914 310.529 24.0555 0.487607
7516.68 7516.68 2.580000 2.553326 312.476 24.3175 0.493753
7520.61 7520.61 2.590000 2.548893 313.673 24.5191 0.500703
7524.57 7524.57 2.600000 2.544404 314.014 24.6563 0.503100
7528.54 7528.54 2.610000 2.539984 314.985 24.8423 0.507784
7532.54 7532.54 2.630000 2.535383 316.949 25.1123 0.512092
7536.55 7536.55 2.640000 2.530698 317.62 25.2837 0.515805
7540.59 7540.58 2.650000 2.526164 318.245 25.4486 0.521311
7544.64 7544.63 2.660000 2.521634 319.039 25.6278 0.529887
7548.71 7548.7 2.680000 2.516833 321.254 25.9299 0.539593
7552.79 7552.79 2.690000 2.512329 321.674 26.0811 0.541001
7556.9 7556.9 2.700000 2.507734 322.641 26.2798 0.540399
7561.02 7561.02 2.710000 2.503370 323.225 26.4426 0.539674
7565.17 7565.17 2.730000 2.498857 325.169 26.722 0.543984
7569.34 7569.33 2.740000 2.494169 325.723 26.8933 0.550439
7573.53 7573.52 2.750000 2.489508 326.772 27.1059 0.564551
7577.73 7577.72 2.760000 2.484870 327.172 27.2654 0.580476
7581.94 7581.94 2.780000 2.480097 329.02 27.5504 0.599343
7586.19 7586.18 2.790000 2.475525 329.604 27.7259 0.612049
7590.44 7590.44 2.800000 2.470888 330.062 27.8935 0.623087
7594.72 7594.72 2.810000 2.466258 330.66 28.0735 0.629989
7599.03 7599.02 2.830000 2.461550 332.265 28.343 0.638230
7603.34 7603.34 2.840000 2.456799 332.341 28.4844 0.645505
7607.68 7607.67 2.850000 2.452183 332.019 28.5886 0.651100
7612.03 7612.03 2.860000 2.447386 332.121 28.7348 0.663586
7616.41 7616.4 2.880000 2.442721 334.988 29.1186 0.677430
7620.81 7620.8 2.890000 2.437951 336.001 29.3463 0.684555
7625.22 7625.21 2.900000 2.433199 336.956 29.5697 0.689407
7629.65 7629.64 2.910000 2.428540 337.541 29.7594 0.695833
7634.1 7634.09 2.930000 2.423801 339.194 30.0472 0.708095
7638.57 7638.56 2.940000 2.419009 339.693 30.2359 0.720305
7643.06 7643.05 2.950000 2.414271 340.356 30.4388 0.734136
7647.57 7647.56 2.960000 2.409478 340.444 30.5931 0.745939
7652.09 7652.08 2.980000 2.404714 343.076 30.9767 0.759936
7656.64 7656.63 2.990000 2.399862 343.271 31.1451 0.767504
7661.19 7661.19 3.000000 2.395049 343.837 31.3469 0.774369
7665.79 7665.78 3.010000 2.390224 344.226 31.5342 0.780414
7670.38 7670.38 3.030000 2.385341 345.843 31.8373 0.785833
7675.01 7675 3.040000 2.380698 346.809 32.075 0.790148
7679.64 7679.64 3.050000 2.375873 347.113 32.2583 0.794194
7684.3 7684.3 3.060000 2.370945 346.975 32.4049 0.799995
7688.98 7688.98 3.080000 2.366017 349.667 32.8176 0.816927
7693.69 7693.68 3.090000 2.361250 349.422 32.9513 0.829017
7698.4 7698.4 3.100000 2.356351 349.518 33.1221 0.838919
7703.13 7703.13 3.110000 2.351281 349.867 33.3238 0.850981
7707.89 7707.89 3.130000 2.345953 348.931 33.4122 0.862773
7712.67 7712.66 3.140000 2.341415 351.261 33.7883 0.879036
7717.46 7717.46 3.150000 2.336575 351.597 33.9846 0.892954
7722.27 7722.27 3.160000 2.331716 351.696 34.1598 0.906216
7727.1 7727.1 3.180000 2.326955 353.083 34.4582 0.921181
7731.95 7731.95 3.190000 2.321884 353.29 34.6536 0.930393
7736.82 7736.82 3.200000 2.316928 353.093 34.8064 0.938203
7741.72 7741.71 3.210000 2.312012 354.503 35.1176 0.952771
7746.62 7746.62 3.230000 2.307014 355.054 35.3485 0.965514
7751.54 7751.54 3.240000 2.301991 355.176 35.5387 0.974650
7756.5 7756.49 3.250000 2.296965 354.91 35.6909 0.983660
7761.45 7761.45 3.260000 2.292123 354.938 35.867 0.995345
7766.44 7766.44 3.280000 2.286975 355.84 36.1437 1.013326
7771.44 7771.44 3.290000 2.281928 355.809 36.3234 1.026503
7776.46 7776.46 3.300000 2.276904 355.565 36.4813 1.038997
7781.51 7781.5 3.310000 2.271996 355.398 36.6437 1.048496
7786.56 7786.56 3.330000 2.266808 356.168 36.914 1.063766
7791.64 7791.64 3.340000 2.261691 355.944 37.0801 1.074721
7796.74 7796.74 3.350000 2.256487 355.813 37.2598 1.084385
7801.86 7801.86 3.360000 2.251184 355.433 37.4178 1.094223
7806.99 7806.99 3.380000 2.246148 355.956 37.6621 1.105904
7812.15 7812.15 3.390000 2.240906 355.581 37.8202 1.113637
7817.32 7817.32 3.400000 2.235816 355.228 37.9755 1.124140
7822.52 7822.52 3.410000 2.230482 354.715 38.1235 1.134564
7827.74 7827.73 3.430000 2.225273 355.5 38.4074 1.148355
7832.97 7832.96 3.440000 2.220149 355.524 38.6073 1.160056
7838.21 7838.21 3.450000 2.215025 355.622 38.8164 1.172632
7843.48 7843.48 3.460000 2.209688 354.728 38.926 1.181449
7848.77 7848.77 3.480000 2.204459 355.215 39.1837 1.196766
7854.08 7854.08 3.490000 2.199232 353.17 39.1623 1.202581