File: xdidata/Fe/Fe-K-Wolframite.xdi
# XDI/1.0 BlueSky/1.5.3
# Beamline.name: 6BM
# Beamline.xray_source: NSLS-II three-pole wiggler
# Beamline.collimation: paraboloid mirror, 5 nm Rh on 30 nm Pt
# Beamline.focusing: not in use
# Beamline.harmonic_rejection: flat mirror, Si stripe, pitch = 7.0 mrad relative to beam
# Detector.i0: 10 cm N2
# Detector.i1: 25 cm N2
# Detector.i2: 25 cm N2
# Element.symbol: Fe
# Element.edge: K
# Facility.name: NSLS-II
# Facility.energy: 3.0
# Facility.current: 400.6
# Facility.mode: top-off
# Facility.gup: 301027
# Facility.saf: 304793
# Facility.cycle: 2020-1
# Mono.name: Si(111)
# Mono.d_spacing: 3.13532
# Mono.encoder_resolution: 0.0000050 deg/ct
# Mono.angle_offset: 16.0581 deg
# Mono.scan_mode: fixed exit
# Mono.scan_type: step
# Mono.direction: forward in energy
# Sample.name: (Fe,Mn)WO4
# Sample.prep: Powder in polyethylene glycol pellet
# Sample.x_position: -122.297 mm
# Sample.y_position: 119.848 mm
# Scan.experimenters: Bruce Ravel
# Scan.edge_energy: 7112.0
# Scan.start_time: 2020-01-15T02:08:51
# Scan.end_time: 2020-01-15T02:46:40
# Scan.transient_id: 19557
# Scan.uid: f04b10b0-adb0-4a2a-bd11-126c308991a8
# Scan.plot_hint: ln(I0/It)  --  ln($5/$6)
# Scan.sequence: merge of 2 scans
# Column.1: energy eV
# Column.2: requested_energy eV
# Column.3: measurement_time seconds
# Column.4: mutrans
# Column.5: i0
# Column.6: itrans
# Column.7: irefer
# /////
#  Cumberland, Black â€“ ID
# -----
# energy   requested_energy   measurement_time   mutrans   i0   itrans   irefer
6912 6912 0.500000 2.618186 71.7753 5.234967 1.441372
6922.01 6922 0.500000 2.608112 71.6239 5.276838 1.463930
6932.02 6932 0.500000 2.597323 71.4564 5.321596 1.481494
6942.02 6942 0.500000 2.586683 71.291 5.366026 1.500280
6952.02 6952 0.500000 2.576045 71.1157 5.410098 1.519324
6962.02 6962 0.500000 2.565393 70.9465 5.454998 1.538369
6972.02 6972 0.500000 2.554823 70.7735 5.499502 1.557307
6982.02 6982 0.500000 2.544138 70.6441 5.548420 1.577188
6992.01 6992 0.500000 2.533807 70.4746 5.592595 1.596003
7002.01 7002 0.500000 2.523226 70.3069 5.638628 1.615996
7012.01 7012 0.500000 2.513067 70.158 5.684179 1.635811
7022.02 7022 0.500000 2.503240 69.9925 5.726765 1.654546
7032.01 7032 0.500000 2.492617 69.8249 5.774049 1.674782
7042.02 7042 0.500000 2.482357 69.649 5.818915 1.692707
7052.01 7052 0.500000 2.471802 69.4711 5.865621 1.712731
7062.01 7062 0.500000 2.461697 68.6867 5.858297 1.714540
7072.01 7072 0.500000 2.451591 69.1622 5.958771 1.749700
7082.01 7082 0.500000 2.442170 68.9107 5.993300 1.760545
7084.01 7084 0.500000 2.440149 68.9572 6.009476 1.765848
7086 7086 0.500000 2.437906 68.9625 6.023422 1.768442
7088 7088 0.500000 2.436350 68.923 6.029355 1.770004
7090 7090 0.500000 2.434278 68.9106 6.040782 1.772701
7092 7092 0.500000 2.432267 68.8645 6.048891 1.773043
7094.01 7094 0.500000 2.430448 68.8366 6.057463 1.773602
7096.01 7096 0.500000 2.428605 68.794 6.064869 1.773462
7098 7098 0.500000 2.426654 68.7801 6.075488 1.771716
7100 7100 0.500000 2.424981 68.7435 6.082425 1.766485
7102 7102 0.500000 2.423024 68.6966 6.090146 1.761340
7102.08 7102.1 0.500000 2.423208 68.6824 6.087786 1.760572
7102.18 7102.2 0.500000 2.423086 68.7062 6.090617 1.761210
7102.28 7102.3 0.500000 2.422797 68.6621 6.088486 1.760115
7102.38 7102.4 0.500000 2.422806 68.6338 6.085927 1.758231
7102.48 7102.5 0.500000 2.422851 68.6458 6.086780 1.758037
7102.58 7102.6 0.500000 2.422592 68.6149 6.085568 1.756545
7102.68 7102.7 0.500000 2.422484 68.5998 6.084848 1.755981
7102.78 7102.8 0.500000 2.422484 68.6075 6.085563 1.756377
7102.89 7102.9 0.500000 2.422409 68.5897 6.084472 1.755386
7102.99 7103 0.500000 2.422219 68.6026 6.086733 1.755032
7103.08 7103.1 0.500000 2.422403 68.5621 6.082027 1.752874
7103.19 7103.2 0.500000 2.422159 68.5864 6.085665 1.753880
7103.29 7103.3 0.500000 2.422145 68.5676 6.084076 1.752084
7103.39 7103.4 0.500000 2.422122 68.5711 6.084528 1.751410
7103.49 7103.5 0.500000 2.421917 68.5441 6.083375 1.751043
7103.59 7103.6 0.500000 2.421745 68.5582 6.085698 1.750837
7103.69 7103.7 0.500000 2.421714 68.5438 6.084580 1.749596
7103.79 7103.8 0.500000 2.421709 68.5234 6.082858 1.748313
7103.89 7103.9 0.500000 2.421317 68.5206 6.084929 1.748340
7104 7104 0.500000 2.421327 68.53 6.085781 1.747377
7104.09 7104.1 0.500000 2.421292 68.5125 6.084397 1.746538
7104.19 7104.2 0.500000 2.421215 68.5209 6.085592 1.745345
7104.29 7104.3 0.500000 2.421175 68.5207 6.085829 1.744797
7104.4 7104.4 0.500000 2.420954 68.516 6.086794 1.743428
7104.49 7104.5 0.500000 2.421016 68.5236 6.087007 1.742579
7104.59 7104.6 0.500000 2.420926 68.4867 6.084351 1.742398
7104.7 7104.7 0.500000 2.420731 68.4938 6.086147 1.740694
7104.8 7104.8 0.500000 2.420749 68.4849 6.085295 1.739772
7104.9 7104.9 0.500000 2.420677 68.489 6.086050 1.738396
7104.99 7105 0.500000 2.420546 68.4943 6.087291 1.738407
7105.1 7105.1 0.500000 2.420831 68.49 6.085224 1.737079
7105.2 7105.2 0.500000 2.420609 68.467 6.084520 1.735160
7105.3 7105.3 0.500000 2.420503 68.4715 6.085545 1.734805
7105.39 7105.4 0.500000 2.420305 68.455 6.085267 1.733875
7105.5 7105.5 0.500000 2.420362 68.4486 6.084387 1.731241
7105.6 7105.6 0.500000 2.420208 68.4464 6.085100 1.730933
7105.69 7105.7 0.500000 2.420107 68.4491 6.085937 1.729968
7105.8 7105.8 0.500000 2.419906 68.4419 6.086538 1.728594
7105.9 7105.9 0.500000 2.419685 68.4275 6.086582 1.726760
7105.99 7106 0.500000 2.420094 68.4346 6.084833 1.725039
7106.09 7106.1 0.500000 2.419977 68.4256 6.084616 1.724404
7106.19 7106.2 0.500000 2.419963 68.4097 6.083337 1.722122
7106.29 7106.3 0.500000 2.419817 68.4092 6.084135 1.720249
7106.39 7106.4 0.500000 2.419311 68.4458 6.090420 1.720239
7106.49 7106.5 0.500000 2.419377 68.4707 6.092340 1.719173
7106.59 7106.6 0.500000 2.419478 68.4463 6.089589 1.716375
7106.7 7106.7 0.500000 2.419567 68.3915 6.084117 1.713294
7106.79 7106.8 0.500000 2.419512 68.3981 6.085022 1.712442
7106.89 7106.9 0.500000 2.419290 68.4142 6.087773 1.710481
7107 7107 0.500000 2.419087 68.3919 6.087065 1.708523
7107.1 7107.1 0.500000 2.419099 68.4616 6.093205 1.707334
7107.19 7107.2 0.500000 2.419190 68.4582 6.092352 1.705418
7107.29 7107.3 0.500000 2.418884 68.4688 6.095125 1.703036
7107.4 7107.4 0.500000 2.418722 68.4646 6.095757 1.700511
7107.5 7107.5 0.500000 2.418847 68.4414 6.092945 1.698120
7107.6 7107.6 0.500000 2.418850 68.4441 6.093171 1.694922
7107.7 7107.7 0.500000 2.418709 68.4487 6.094474 1.692187
7107.8 7107.8 0.500000 2.418597 68.461 6.096262 1.689862
7107.9 7107.9 0.500000 2.418533 68.4505 6.095661 1.687126
7108 7108 0.500000 2.418542 68.4684 6.097214 1.683182
7108.1 7108.1 0.500000 2.418578 68.4642 6.096627 1.679650
7108.2 7108.2 0.500000 2.418346 68.4654 6.098129 1.676484
7108.3 7108.3 0.500000 2.418374 68.4815 6.099401 1.672161
7108.4 7108.4 0.500000 2.418429 68.4442 6.095751 1.667027
7108.5 7108.5 0.500000 2.418330 68.4191 6.094217 1.662413
7108.6 7108.6 0.500000 2.417980 68.4282 6.097029 1.658017
7108.7 7108.7 0.500000 2.417903 68.4228 6.097057 1.653005
7108.8 7108.8 0.500000 2.417968 68.4074 6.095261 1.645890
7108.9 7108.9 0.500000 2.418092 68.4007 6.093920 1.640229
7109 7109 0.500000 2.417991 68.4029 6.094729 1.633564
7109.1 7109.1 0.500000 2.418052 68.3818 6.092477 1.626053
7109.2 7109.2 0.500000 2.418017 68.4007 6.094368 1.619261
7109.3 7109.3 0.500000 2.418085 68.3882 6.092845 1.609877
7109.4 7109.4 0.500000 2.417817 68.3997 6.095518 1.602543
7109.5 7109.5 0.500000 2.417793 68.4074 6.096306 1.593135
7109.6 7109.6 0.500000 2.417917 68.3754 6.092760 1.581682
7109.7 7109.7 0.500000 2.417917 68.3473 6.090234 1.568333
7109.8 7109.8 0.500000 2.417885 68.3871 6.093954 1.556920
7109.89 7109.9 0.500000 2.417784 68.5511 6.109186 1.544881
7110 7110 0.500000 2.417549 68.5214 6.107960 1.527694
7110.1 7110.1 0.500000 2.417785 68.4796 6.102825 1.505676
7110.19 7110.2 0.500000 2.417784 68.5049 6.105088 1.485730
7110.3 7110.3 0.500000 2.417991 68.4849 6.102029 1.457924
7110.39 7110.4 0.500000 2.417967 68.5246 6.105724 1.432054
7110.5 7110.5 0.500000 2.418103 68.5171 6.104220 1.399624
7110.6 7110.6 0.500000 2.418215 68.4587 6.098340 1.362286
7110.7 7110.7 0.500000 2.418349 68.4343 6.095339 1.325599
7110.8 7110.8 0.500000 2.418513 68.4819 6.098590 1.284649
7110.9 7110.9 0.500000 2.418614 68.5165 6.101032 1.243388
7111 7111 0.500000 2.418905 68.497 6.097492 1.199105
7111.1 7111.1 0.500000 2.419207 68.4565 6.092090 1.154025
7111.2 7111.2 0.500000 2.419238 68.4298 6.089534 1.112713
7111.3 7111.3 0.500000 2.419203 68.4211 6.088948 1.069113
7111.4 7111.4 0.500000 2.419513 68.4391 6.088712 1.032052
7111.5 7111.5 0.500000 2.419687 68.4029 6.084393 0.992997
7111.6 7111.6 0.500000 2.419841 68.3997 6.083175 0.958258
7111.7 7111.7 0.500000 2.420108 68.3855 6.080287 0.926304
7111.81 7111.8 0.500000 2.420072 68.4504 6.086285 0.896534
7111.9 7111.9 0.500000 2.420084 68.4015 6.081862 0.872276
7112 7112 0.500000 2.419995 68.3472 6.077560 0.846843
7112.1 7112.1 0.500000 2.419894 68.3465 6.078126 0.823735
7112.19 7112.2 0.500000 2.420022 68.3389 6.076663 0.806104
7112.3 7112.3 0.500000 2.419883 68.3482 6.078331 0.786165
7112.4 7112.4 0.500000 2.419829 68.3406 6.078014 0.769592
7112.5 7112.5 0.500000 2.419959 68.3172 6.075135 0.753651
7112.6 7112.6 0.500000 2.419830 68.2688 6.071606 0.737918
7112.7 7112.7 0.500000 2.420048 68.293 6.072420 0.724617
7112.8 7112.8 0.500000 2.420226 68.2903 6.071114 0.711139
7112.89 7112.9 0.500000 2.420274 68.2647 6.068559 0.698554
7113 7113 0.500000 2.420054 68.2903 6.072150 0.686676
7113.1 7113.1 0.500000 2.420300 68.2943 6.071029 0.674362
7113.2 7113.2 0.500000 2.420331 68.2368 6.065693 0.662133
7113.3 7113.3 0.500000 2.420335 68.1937 6.061852 0.651776
7113.4 7113.4 0.500000 2.420661 68.1965 6.060157 0.641923
7113.5 7113.5 0.500000 2.420759 68.1947 6.059378 0.631757
7113.6 7113.6 0.500000 2.421055 68.2112 6.059059 0.621416
7113.7 7113.7 0.500000 2.421068 68.1866 6.056782 0.613303
7113.8 7113.8 0.500000 2.421242 68.1906 6.056099 0.604340
7113.9 7113.9 0.500000 2.421340 68.2209 6.058148 0.595958
7114 7114 0.500000 2.421620 68.1805 6.052880 0.587275
7114.1 7114.1 0.500000 2.422031 68.1277 6.045735 0.579554
7114.2 7114.2 0.500000 2.422349 68.1303 6.044055 0.571985
7114.3 7114.3 0.500000 2.422715 68.1269 6.041487 0.565992
7114.4 7114.4 0.500000 2.423113 68.1157 6.038139 0.558198
7114.5 7114.5 0.500000 2.423738 68.0882 6.031918 0.552705
7114.6 7114.6 0.500000 2.424392 68.1005 6.029077 0.546817
7114.7 7114.7 0.500000 2.424962 68.1001 6.025559 0.542415
7114.8 7114.8 0.500000 2.425563 68.1023 6.022171 0.538310
7114.9 7114.9 0.500000 2.426432 68.0958 6.016317 0.533816
7115 7115 0.500000 2.427342 68.0993 6.011136 0.530382
7115.1 7115.1 0.500000 2.428189 68.1054 6.006545 0.525449
7115.2 7115.2 0.500000 2.428934 68.1034 6.001927 0.523743
7115.3 7115.3 0.500000 2.429917 68.0803 5.993990 0.519766
7115.4 7115.4 0.500000 2.430638 68.0834 5.989967 0.518663
7115.5 7115.5 0.500000 2.431337 68.0949 5.986792 0.516014
7115.59 7115.6 0.500000 2.432012 68.0948 5.982806 0.513371
7115.7 7115.7 0.500000 2.432448 68.0792 5.978848 0.512856
7115.8 7115.8 0.500000 2.432908 68.0654 5.974827 0.510928
7115.9 7115.9 0.500000 2.433402 68.0707 5.972460 0.507453
7116 7116 0.500000 2.433932 68.0652 5.968729 0.506511
7116.1 7116.1 0.500000 2.433921 68.0622 5.968533 0.505398
7116.2 7116.2 0.500000 2.434329 68.0465 5.964736 0.503060
7116.3 7116.3 0.500000 2.434208 68.0381 5.964688 0.500531
7116.41 7116.4 0.500000 2.434290 68.0506 5.965317 0.497606
7116.5 7116.5 0.500000 2.434161 68.025 5.963840 0.495426
7116.6 7116.6 0.500000 2.433896 68.0126 5.964316 0.491987
7116.7 7116.7 0.500000 2.433979 68.005 5.963187 0.488320
7116.8 7116.8 0.500000 2.433569 68.0003 5.965199 0.483239
7116.9 7116.9 0.500000 2.433472 67.9895 5.964852 0.478179
7117 7117 0.500000 2.433288 67.9758 5.964735 0.473181
7117.1 7117.1 0.500000 2.433182 67.974 5.965202 0.468447
7117.2 7117.2 0.500000 2.433162 67.9379 5.962155 0.460122
7117.3 7117.3 0.500000 2.433048 67.9253 5.961717 0.452681
7117.4 7117.4 0.500000 2.433006 67.9629 5.965280 0.446430
7117.5 7117.5 0.500000 2.433219 67.9323 5.961333 0.436999
7117.6 7117.6 0.500000 2.433466 67.9396 5.960505 0.427897
7117.7 7117.7 0.500000 2.433851 67.9083 5.955394 0.418777
7117.8 7117.8 0.500000 2.434323 67.8867 5.950784 0.410338
7117.9 7117.9 0.500000 2.434827 67.8851 5.947683 0.401342
7118 7118 0.500000 2.435313 67.8868 5.944865 0.392008
7118.1 7118.1 0.500000 2.436320 67.8814 5.938413 0.382577
7118.2 7118.2 0.500000 2.437385 67.8531 5.929452 0.373149
7118.3 7118.3 0.500000 2.438712 67.8257 5.919540 0.364769
7118.4 7118.4 0.500000 2.439834 67.8281 5.912843 0.354111
7118.5 7118.5 0.500000 2.441222 67.8246 5.904524 0.345155
7118.6 7118.6 0.500000 2.442712 67.8096 5.894208 0.335596
7118.7 7118.7 0.500000 2.444752 67.8082 5.882198 0.326187
7118.8 7118.8 0.500000 2.446702 67.7813 5.868310 0.317926
7118.9 7118.9 0.500000 2.448384 67.7731 5.857845 0.308669
7119 7119 0.500000 2.450633 67.7654 5.844017 0.299162
7119.1 7119.1 0.500000 2.452597 67.7288 5.829403 0.290693
7119.2 7119.2 0.500000 2.454673 67.7256 5.817038 0.283277
7119.3 7119.3 0.500000 2.456656 67.718 5.804863 0.274565
7119.4 7119.4 0.500000 2.458654 67.7003 5.792079 0.266932
7119.5 7119.5 0.500000 2.460730 67.6694 5.777310 0.258683
7119.6 7119.6 0.500000 2.462635 67.6764 5.767009 0.251353
7119.7 7119.7 0.500000 2.464290 67.6485 5.754549 0.243272
7119.8 7119.8 0.500000 2.466347 67.6403 5.742481 0.235901
7119.9 7119.9 0.500000 2.468194 67.6045 5.728650 0.228567
7120 7120 0.500000 2.470086 67.6022 5.717851 0.222906
7120.1 7120.1 0.500000 2.471836 67.5645 5.704456 0.216575
7120.2 7120.2 0.500000 2.473778 67.5605 5.693047 0.209373
7120.3 7120.3 0.500000 2.475785 67.4565 5.672894 0.202923
7120.4 7120.4 0.500000 2.477838 67.4979 5.664595 0.197533
7120.5 7120.5 0.500000 2.479998 67.5028 5.652912 0.191386
7120.6 7120.6 0.500000 2.482560 67.4689 5.635486 0.184962
7120.7 7120.7 0.500000 2.484992 67.646 5.636542 0.180734
7120.8 7120.8 0.500000 2.487359 67.6104 5.619971 0.175050
7120.9 7120.9 0.500000 2.490241 67.6038 5.603511 0.170448
7121 7121 0.500000 2.493200 67.5848 5.585204 0.166147
7121.1 7121.1 0.500000 2.496196 67.5561 5.565906 0.160391
7121.2 7121.2 0.500000 2.499681 67.5268 5.544709 0.156247
7121.3 7121.3 0.500000 2.503042 67.5088 5.524021 0.152959
7121.4 7121.4 0.500000 2.506750 67.4624 5.499959 0.147354
7121.5 7121.5 0.500000 2.510752 67.4484 5.477073 0.144730
7121.6 7121.6 0.500000 2.514800 67.4346 5.453631 0.139890
7121.7 7121.7 0.500000 2.518839 67.4317 5.431598 0.136338
7121.8 7121.8 0.500000 2.523018 67.4116 5.407790 0.133189
7121.9 7121.9 0.500000 2.527547 67.345 5.377814 0.129874
7122 7122 0.500000 2.532280 67.3108 5.349454 0.127131
7122.1 7122.1 0.500000 2.536999 67.2921 5.323772 0.123901
7122.2 7122.2 0.500000 2.541726 67.2444 5.294177 0.121370
7122.3 7122.3 0.500000 2.546328 67.2324 5.269723 0.119033
7122.4 7122.4 0.500000 2.551213 67.2 5.241741 0.116718
7122.5 7122.5 0.500000 2.556243 67.184 5.213729 0.114302
7122.6 7122.6 0.500000 2.561081 67.1356 5.184760 0.111783
7122.7 7122.7 0.500000 2.566167 67.083 5.154738 0.109098
7122.8 7122.8 0.500000 2.571111 67.0576 5.127409 0.106609
7122.9 7122.9 0.500000 2.575849 67.1619 5.110522 0.105386
7123 7123 0.500000 2.580586 67.1461 5.086002 0.102858
7123.1 7123.1 0.500000 2.585103 67.1037 5.059075 0.100526
7123.2 7123.2 0.500000 2.589410 67.0744 5.034902 0.099884
7123.3 7123.3 0.500000 2.593350 67.0172 5.011024 0.097533
7123.4 7123.4 0.500000 2.597133 67.0138 4.991472 0.095917
7123.5 7123.5 0.500000 2.600522 66.9615 4.970710 0.093753
7123.6 7123.6 0.500000 2.603958 66.9232 4.950838 0.092576
7123.7 7123.7 0.500000 2.607015 66.8795 4.932122 0.091453
7123.8 7123.8 0.500000 2.609858 66.8434 4.915873 0.089641
7123.9 7123.9 0.500000 2.612580 66.7809 4.897793 0.088539
7124 7124 0.500000 2.615251 66.7599 4.883173 0.087225
7124.1 7124.1 0.500000 2.617484 66.7295 4.869952 0.086058
7124.2 7124.2 0.500000 2.619756 66.7166 4.858125 0.085130
7124.3 7124.3 0.500000 2.622096 66.6676 4.843430 0.083125
7124.4 7124.4 0.500000 2.624408 66.616 4.828086 0.083074
7124.5 7124.5 0.500000 2.626638 66.6186 4.817833 0.081706
7124.6 7124.6 0.500000 2.628693 66.5877 4.805815 0.080406
7124.7 7124.7 0.500000 2.630928 66.5137 4.789645 0.079635
7124.8 7124.8 0.500000 2.633323 66.5278 4.779557 0.078667
7124.9 7124.9 0.500000 2.635423 66.4836 4.765734 0.078140
7125 7125 0.500000 2.637516 66.4708 4.755134 0.076613
7125.1 7125.1 0.500000 2.639806 66.4161 4.740266 0.074918
7125.2 7125.2 0.500000 2.641987 66.3972 4.729279 0.075103
7125.3 7125.3 0.500000 2.644239 66.3813 4.717725 0.073495
7125.4 7125.4 0.500000 2.646069 66.3517 4.706851 0.072844
7125.5 7125.5 0.500000 2.648050 66.3044 4.694294 0.071730
7125.6 7125.6 0.500000 2.649595 66.28 4.684992 0.071024
7125.7 7125.7 0.500000 2.651481 66.2437 4.673543 0.069934
7125.8 7125.8 0.500000 2.653411 66.2038 4.661923 0.069470
7125.89 7125.9 0.500000 2.654646 66.1756 4.654162 0.067998
7126 7126 0.500000 2.655878 66.1399 4.645739 0.067626
7126.1 7126.1 0.500000 2.656949 66.0959 4.637651 0.067521
7126.19 7126.2 0.500000 2.657904 66.0569 4.630541 0.065844
7126.3 7126.3 0.500000 2.658803 66.0131 4.623156 0.065421
7126.4 7126.4 0.500000 2.659441 66.0228 4.620863 0.064567
7126.5 7126.5 0.500000 2.659733 65.9548 4.614742 0.063783
7126.6 7126.6 0.500000 2.659962 65.9173 4.611004 0.062918
7126.7 7126.7 0.500000 2.660527 65.8534 4.604028 0.062677
7126.8 7126.8 0.500000 2.660729 65.8525 4.602913 0.061513
7126.9 7126.9 0.500000 2.660684 65.8092 4.600094 0.061661
7127 7127 0.500000 2.660932 65.7477 4.594741 0.059348
7127.1 7127.1 0.500000 2.660849 65.7144 4.592705 0.059870
7127.2 7127.2 0.500000 2.660891 65.6765 4.589870 0.059016
7127.3 7127.3 0.500000 2.661201 65.6367 4.585759 0.057721
7127.4 7127.4 0.500000 2.661084 65.5936 4.583178 0.057116
7127.51 7127.5 0.500000 2.661243 65.5358 4.578422 0.056294
7127.6 7127.6 0.500000 2.661261 65.4885 4.575054 0.055390
7127.7 7127.7 0.500000 2.661188 65.476 4.574482 0.053982
7127.8 7127.8 0.500000 2.661251 65.4341 4.571298 0.053361
7127.9 7127.9 0.500000 2.661008 65.4076 4.570459 0.052919
7128 7128 0.500000 2.661093 65.3682 4.567423 0.051860
7128.1 7128.1 0.500000 2.660900 65.3544 4.567305 0.050887
7128.2 7128.2 0.500000 2.660860 65.3114 4.564557 0.050160
7128.3 7128.3 0.500000 2.660884 65.2842 4.562471 0.049700
7128.4 7128.4 0.500000 2.660987 65.2215 4.557676 0.048235
7128.49 7128.5 0.500000 2.660923 65.2329 4.558703 0.048138
7128.6 7128.6 0.500000 2.660883 65.2088 4.557177 0.046787
7128.7 7128.7 0.500000 2.660919 65.1604 4.553699 0.046182
7128.8 7128.8 0.500000 2.660508 65.1502 4.554814 0.045827
7128.9 7128.9 0.500000 2.660391 65.1103 4.552576 0.044468
7129 7129 0.500000 2.659772 65.1204 4.556095 0.044124
7129.1 7129.1 0.500000 2.659346 65.0734 4.554749 0.043000
7129.2 7129.2 0.500000 2.659292 65.0442 4.552946 0.042660
7129.3 7129.3 0.500000 2.658602 65.0177 4.554239 0.042000
7129.4 7129.4 0.500000 2.658276 64.9741 4.552672 0.041380
7129.49 7129.5 0.500000 2.657469 64.9274 4.553010 0.040459
7129.6 7129.6 0.500000 2.656653 64.9093 4.555525 0.040428
7129.7 7129.7 0.500000 2.655925 64.8964 4.557937 0.039800
7129.8 7129.8 0.500000 2.655287 64.855 4.558016 0.039369
7129.9 7129.9 0.500000 2.654751 64.8016 4.556667 0.039468
7130 7130 0.500000 2.653789 64.7681 4.558651 0.038596
7130.1 7130.1 0.500000 2.652887 64.7264 4.559890 0.037860
7130.21 7130.2 0.500000 2.652096 64.7046 4.562044 0.037782
7130.3 7130.3 0.500000 2.651146 64.635 4.561445 0.037774
7130.4 7130.4 0.500000 2.650335 64.6023 4.562751 0.036859
7130.51 7130.5 0.500000 2.649271 64.5721 4.565601 0.037317
7130.61 7130.6 0.500000 2.648564 64.5209 4.565186 0.037585
7130.7 7130.7 0.500000 2.647890 64.4791 4.565101 0.037200
7130.81 7130.8 0.500000 2.646786 64.4523 4.568307 0.037112
7130.91 7130.9 0.500000 2.646031 64.4305 4.570244 0.036842
7131.01 7131 0.500000 2.645357 64.3787 4.569715 0.036856
7131.1 7131.1 0.500000 2.644642 64.343 4.570320 0.036233
7131.21 7131.2 0.500000 2.643632 64.3138 4.572938 0.037398
7131.3 7131.3 0.500000 2.642972 64.2836 4.573759 0.037207
7131.4 7131.4 0.500000 2.642454 64.2557 4.574140 0.037126
7131.51 7131.5 0.500000 2.641471 64.2445 4.577839 0.038253
7131.61 7131.6 0.500000 2.641178 64.2318 4.578382 0.038028
7131.71 7131.7 0.500000 2.640176 64.1941 4.580222 0.038305
7131.81 7131.8 0.500000 2.639860 64.1566 4.579011 0.039088
7131.89 7131.9 0.500000 2.639169 64.1631 4.582401 0.039244
7132 7132 0.500000 2.638621 64.1514 4.584241 0.039729
7132.09 7132.1 0.500000 2.638127 64.1697 4.587660 0.039422
7132.21 7132.2 0.500000 2.637415 64.1599 4.590477 0.041013
7132.31 7132.3 0.500000 2.637270 64.15 4.590420 0.041877
7132.41 7132.4 0.500000 2.636784 64.1451 4.592414 0.041891
7132.52 7132.5 0.500000 2.636057 64.1584 4.596635 0.042605
7132.61 7132.6 0.500000 2.635736 64.1319 4.596197 0.042545
7132.71 7132.7 0.500000 2.635346 64.1358 4.598270 0.043914
7132.81 7132.8 0.500000 2.634686 64.1662 4.603411 0.044528
7132.91 7132.9 0.500000 2.634358 64.1697 4.605316 0.045467
7133.01 7133 0.500000 2.633935 64.1667 4.606920 0.046028
7133.1 7133.1 0.500000 2.633589 64.1929 4.610469 0.045891
7133.21 7133.2 0.500000 2.632859 64.1914 4.613737 0.047330
7133.31 7133.3 0.500000 2.632456 64.2058 4.616605 0.047653
7133.4 7133.4 0.500000 2.631933 64.2064 4.618965 0.048324
7133.5 7133.5 0.500000 2.631134 64.226 4.624186 0.048838
7133.6 7133.6 0.500000 2.630586 64.3841 4.638105 0.048960
7133.7 7133.7 0.500000 2.629936 64.3972 4.642089 0.050298
7133.8 7133.8 0.500000 2.629120 64.415 4.647094 0.051352
7133.9 7133.9 0.500000 2.628497 64.4411 4.651870 0.051129
7134 7134 0.500000 2.627867 64.4358 4.654398 0.051922
7134.1 7134.1 0.500000 2.627223 64.443 4.657873 0.052694
7134.2 7134.2 0.500000 2.626742 64.4634 4.661552 0.053342
7134.3 7134.3 0.500000 2.626053 64.4588 4.664587 0.053898
7134.4 7134.4 0.500000 2.625233 64.4901 4.670654 0.054603
7134.5 7134.5 0.500000 2.624351 64.5051 4.675766 0.055148
7134.6 7134.6 0.500000 2.623617 64.5301 4.681062 0.056063
7134.7 7134.7 0.500000 2.622925 64.5272 4.684094 0.056359
7134.8 7134.8 0.500000 2.622352 64.5462 4.688107 0.056647
7134.9 7134.9 0.500000 2.621451 64.5701 4.694071 0.057169
7135 7135 0.500000 2.620802 64.5898 4.698552 0.057634
7135.1 7135.1 0.500000 2.620106 64.6093 4.703384 0.057989
7135.2 7135.2 0.500000 2.619210 64.6193 4.708147 0.058676
7135.3 7135.3 0.500000 2.618430 64.6227 4.711909 0.058858
7135.4 7135.4 0.500000 2.617960 64.6497 4.716348 0.059154
7135.51 7135.5 0.500000 2.617027 64.6855 4.723437 0.058971
7135.6 7135.6 0.500000 2.616243 64.7002 4.728091 0.060013
7135.7 7135.7 0.500000 2.615431 64.8365 4.741864 0.060220
7135.8 7135.8 0.500000 2.614597 64.8612 4.747719 0.060148
7135.9 7135.9 0.500000 2.613676 64.8857 4.753867 0.061223
7136 7136 0.500000 2.612847 64.9084 4.759360 0.060832
7136.1 7136.1 0.500000 2.611994 64.912 4.763816 0.061050
7136.21 7136.2 0.500000 2.611026 64.9202 4.769169 0.061852
7136.3 7136.3 0.500000 2.610108 64.9586 4.776260 0.061598
7136.4 7136.4 0.500000 2.608824 64.9442 4.781265 0.062245
7136.5 7136.5 0.500000 2.608172 64.9748 4.786713 0.061263
7136.6 7136.6 0.500000 2.607473 64.9924 4.791450 0.062212
7136.7 7136.7 0.500000 2.606133 64.9972 4.798285 0.061680
7136.8 7136.8 0.500000 2.605106 64.9792 4.801536 0.062196
7136.9 7136.9 0.500000 2.604027 64.9954 4.808042 0.062023
7137.01 7137 0.500000 2.603123 65.0316 4.815252 0.061397
7137.1 7137.1 0.500000 2.602194 65.0298 4.819412 0.062259
7137.2 7137.2 0.500000 2.601600 65.0664 4.824958 0.062023
7137.3 7137.3 0.500000 2.600095 65.0823 4.833480 0.061923
7137.4 7137.4 0.500000 2.599292 65.0729 4.836775 0.061822
7137.5 7137.5 0.500000 2.598245 65.0662 4.841184 0.062502
7137.6 7137.6 0.500000 2.597318 65.0696 4.845930 0.061736
7137.7 7137.7 0.500000 2.596349 65.0936 4.852504 0.061508
7137.8 7137.8 0.500000 2.595409 65.1044 4.857962 0.060463
7137.9 7137.9 0.500000 2.594510 65.1 4.861869 0.061869
7137.99 7138 0.500000 2.593724 65.1168 4.866844 0.061459
7138.1 7138.1 0.500000 2.592684 65.1259 4.872670 0.061655
7138.2 7138.2 0.500000 2.592213 65.1375 4.875871 0.060452
7138.3 7138.3 0.500000 2.591223 65.1174 4.878931 0.061754
7138.4 7138.4 0.500000 2.590425 65.1405 4.884732 0.061052
7138.5 7138.5 0.500000 2.589747 65.1457 4.888514 0.060481
7138.6 7138.6 0.500000 2.589334 65.1387 4.889969 0.060464
7138.7 7138.7 0.500000 2.588540 65.1363 4.893625 0.059239
7138.8 7138.8 0.500000 2.587812 65.1374 4.897289 0.059743
7138.9 7138.9 0.500000 2.587206 65.16 4.901986 0.058341
7139 7139 0.500000 2.586603 65.1795 4.906337 0.058762
7139.1 7139.1 0.500000 2.585907 65.1846 4.910162 0.058218
7139.2 7139.2 0.500000 2.585220 65.1567 4.911506 0.057998
7139.3 7139.3 0.500000 2.584715 65.1562 4.913923 0.057905
7139.4 7139.4 0.500000 2.584258 65.1577 4.916267 0.057876
7139.5 7139.5 0.500000 2.583565 65.1936 4.922347 0.057599
7139.6 7139.6 0.500000 2.583009 65.1725 4.923548 0.057066
7139.7 7139.7 0.500000 2.582860 65.1915 4.925757 0.057596
7139.8 7139.8 0.500000 2.582344 65.1834 4.927648 0.057119
7139.9 7139.9 0.500000 2.581785 65.1814 4.930181 0.057404
7140.01 7140 0.500000 2.581524 65.1827 4.931679 0.055755
7140.11 7140.1 0.500000 2.581037 65.1908 4.934666 0.056543
7140.2 7140.2 0.500000 2.580786 65.2046 4.936919 0.056200
7140.3 7140.3 0.500000 2.580209 65.2125 4.940383 0.056466
7140.4 7140.4 0.500000 2.580005 65.2028 4.940679 0.055936
7140.5 7140.5 0.500000 2.579651 65.205 4.942568 0.055715
7140.6 7140.6 0.500000 2.579540 65.1979 4.942568 0.055742
7140.7 7140.7 0.500000 2.579090 65.237 4.947776 0.055597
7140.81 7140.8 0.500000 2.579056 65.2417 4.948378 0.055644
7140.9 7140.9 0.500000 2.578654 65.2474 4.950717 0.056150
7141 7141 0.500000 2.578495 65.2387 4.950845 0.055575
7141.1 7141.1 0.500000 2.578276 65.2287 4.951172 0.055461
7141.2 7141.2 0.500000 2.577843 65.2529 4.955167 0.055061
7141.3 7141.3 0.500000 2.577827 65.2558 4.955456 0.055249
7141.4 7141.4 0.500000 2.577778 65.2556 4.955675 0.055231
7141.5 7141.5 0.500000 2.577336 65.2472 4.957235 0.055158
7141.6 7141.6 0.500000 2.577260 65.2738 4.959633 0.055389
7141.69 7141.7 0.500000 2.577239 65.2354 4.956820 0.055325
7141.8 7141.8 0.500000 2.577027 65.2651 4.960114 0.055338
7141.9 7141.9 0.500000 2.576738 65.2569 4.960926 0.055584
7142 7142 0.700000 2.576712 91.3586 6.945493 0.077760
7143.09 7143.08 0.710000 2.573040 92.6932 7.072778 0.080747
7144.21 7144.18 0.730000 2.567232 95.3342 7.316732 0.084635
7145.29 7145.29 0.740000 2.560306 96.6573 7.470089 0.084918
7146.43 7146.43 0.750000 2.554258 98.0163 7.620909 0.083498
7147.59 7147.58 0.760000 2.548820 99.4222 7.772425 0.079312
7148.77 7148.76 0.780000 2.543593 102.071 8.021272 0.077980
7149.96 7149.95 0.790000 2.539331 103.418 8.161649 0.075797
7151.17 7151.16 0.800000 2.536366 104.782 8.293853 0.074916
7152.4 7152.39 0.810000 2.534693 106.188 8.419195 0.075414
7153.64 7153.64 0.830000 2.534096 108.879 8.637754 0.075498
7154.91 7154.91 0.840000 2.533717 110.243 8.749273 0.077343
7156.21 7156.2 0.850000 2.534856 111.614 8.847964 0.079469
7157.52 7157.51 0.860000 2.537154 112.954 8.933652 0.082036
7158.84 7158.83 0.880000 2.539541 115.51 9.114007 0.082101
7160.19 7160.18 0.890000 2.541860 116.794 9.194062 0.084011
7161.55 7161.54 0.900000 2.544055 118.048 9.272315 0.085686
7162.94 7162.93 0.910000 2.546287 119.278 9.348084 0.087560
7164.34 7164.33 0.930000 2.548762 121.82 9.523656 0.091387
7165.76 7165.75 0.940000 2.550769 123.01 9.597459 0.094005
7167.2 7167.19 0.950000 2.552378 124.233 9.677221 0.094868
7168.66 7168.65 0.960000 2.553775 125.459 9.759147 0.098350
7170.14 7170.13 0.980000 2.555115 127.959 9.940254 0.101315
7171.63 7171.63 0.990000 2.556135 129.214 10.0276 0.104773
7173.14 7173.14 1.000000 2.555352 130.459 10.1321 0.109868
7174.69 7174.68 1.010000 2.553533 131.628 10.2414 0.116822
7176.24 7176.24 1.030000 2.551270 134.133 10.46 0.125869
7177.82 7177.81 1.040000 2.548547 135.416 10.5889 0.133923
7179.41 7179.4 1.050000 2.545720 136.626 10.7137 0.139578
7181.02 7181.01 1.060000 2.542972 138.031 10.8537 0.142022
7182.67 7182.65 1.080000 2.540609 140.725 11.0917 0.144420
7184.3 7184.3 1.090000 2.539141 141.98 11.207 0.142688
7185.98 7185.97 1.100000 2.538035 143.19 11.3151 0.138196
7187.66 7187.65 1.110000 2.537263 144.389 11.4186 0.133157
7189.38 7189.36 1.130000 2.535691 146.483 11.6026 0.127974
7191.1 7191.09 1.140000 2.533423 147.652 11.7217 0.121465
7192.85 7192.83 1.150000 2.530603 149.491 11.9013 0.117629
7194.62 7194.6 1.160000 2.527157 151.074 12.0686 0.116991
7196.41 7196.38 1.180000 2.523784 153.656 12.3165 0.122661
7198.19 7198.18 1.190000 2.520262 155.001 12.468 0.129363
7200.02 7200 1.200000 2.516933 156.305 12.6149 0.140062
7201.85 7201.84 1.210000 2.513669 157.608 12.7616 0.150989
7203.72 7203.7 1.230000 2.510248 160.194 13.0155 0.167657
7205.6 7205.58 1.240000 2.507470 161.538 13.1612 0.180302
7207.5 7207.48 1.250000 2.504921 162.736 13.2926 0.187818
7209.41 7209.4 1.260000 2.502598 164.021 13.4288 0.182988
7211.35 7211.33 1.280000 2.500425 166.594 13.6691 0.168208
7213.31 7213.29 1.290000 2.498444 167.848 13.7993 0.143849
7215.27 7215.26 1.300000 2.496478 169.118 13.931 0.122762
7217.27 7217.26 1.310000 2.494839 170.2 14.0432 0.107657
7219.28 7219.27 1.330000 2.493239 172.684 14.2709 0.100487
7221.31 7221.3 1.340000 2.491599 173.851 14.3909 0.099477
7223.36 7223.35 1.350000 2.490025 174.94 14.5039 0.106052
7225.44 7225.42 1.360000 2.488510 175.937 14.6088 0.120000
7227.53 7227.51 1.380000 2.486814 177.198 14.7383 0.139018
7229.62 7229.61 1.390000 2.485583 180.147 15.0021 0.162424
7231.76 7231.74 1.400000 2.484599 181.393 15.1207 0.187337
7233.91 7233.89 1.410000 2.483442 182.386 15.2212 0.211163
7236.07 7236.05 1.430000 2.481522 184.782 15.4507 0.230131
7238.24 7238.23 1.440000 2.479888 186.01 15.5788 0.239343
7240.45 7240.44 1.450000 2.478040 187.136 15.7021 0.239430
7242.66 7242.66 1.460000 2.476336 188.403 15.8353 0.232815
7244.9 7244.9 1.480000 2.474772 190.955 16.075 0.225236
7247.16 7247.16 1.490000 2.473460 188.769 15.9117 0.212659
7249.44 7249.44 1.500000 2.471666 193.004 16.298 0.214541
7251.74 7251.74 1.510000 2.469793 194.334 16.4412 0.218764
7254.05 7254.05 1.530000 2.467639 196.654 16.6732 0.226989
7256.39 7256.39 1.540000 2.464937 197.986 16.8317 0.233045
7258.74 7258.74 1.550000 2.462396 199.239 16.9812 0.234339
7261.11 7261.12 1.560000 2.459811 199.849 17.0772 0.229741
7263.51 7263.51 1.580000 2.457377 188.93 16.1837 0.210531
7265.92 7265.92 1.590000 2.454000 204.422 17.5699 0.224387
7268.36 7268.35 1.600000 2.451300 206.17 17.7682 0.221700
7270.8 7270.8 1.610000 2.448821 207.332 17.9126 0.212239
7273.26 7273.27 1.630000 2.446632 208.798 18.0787 0.203408
7275.76 7275.76 1.640000 2.444533 211.219 18.3268 0.199485
7278.27 7278.27 1.650000 2.441886 212.384 18.4767 0.197202
7280.79 7280.79 1.660000 2.438976 212.911 18.5764 0.193272
7283.35 7283.34 1.680000 2.435539 215.487 18.8662 0.189317
7285.9 7285.9 1.690000 2.432063 216.944 19.0597 0.184730
7288.48 7288.49 1.700000 2.428774 218.054 19.2202 0.182750
7291.09 7291.09 1.710000 2.426064 219.273 19.3803 0.191920
7293.71 7293.71 1.730000 2.423628 221.645 19.6377 0.210382
7296.34 7296.35 1.740000 2.421137 222.797 19.7889 0.232595
7299.01 7299.01 1.750000 2.418830 223.879 19.9311 0.255593
7301.69 7301.69 1.760000 2.416336 221.555 19.7733 0.272365
7304.38 7304.39 1.780000 2.413846 227.912 20.3913 0.294704
7307.11 7307.11 1.790000 2.411409 229.108 20.5485 0.307087
7309.84 7309.84 1.800000 2.409105 229.994 20.6755 0.313569
7312.6 7312.6 1.810000 2.406629 231.187 20.8343 0.314388
7315.37 7315.37 1.830000 2.403842 233.497 21.1013 0.318441
7318.17 7318.17 1.840000 2.401038 234.753 21.2743 0.322756
7320.98 7320.98 1.850000 2.398352 235.731 21.4203 0.325835
7323.81 7323.81 1.860000 2.395760 236.989 21.5905 0.327468
7326.66 7326.66 1.880000 2.393292 239.159 21.8421 0.333645
7329.53 7329.53 1.890000 2.390496 240.294 22.0072 0.337647
7332.42 7332.42 1.900000 2.387652 242.053 22.2314 0.347024
7335.32 7335.32 1.910000 2.384832 243.046 22.3856 0.356921
7338.25 7338.25 1.930000 2.382139 245.263 22.6507 0.364278
7341.2 7341.2 1.940000 2.379793 246.086 22.7801 0.363164
7344.16 7344.16 1.950000 2.377079 247.538 22.9768 0.355442
7347.14 7347.14 1.960000 2.374499 248.751 23.1491 0.338619
7350.14 7350.15 1.980000 2.371679 251.58 23.4783 0.325617
7353.17 7353.17 1.990000 2.368879 252.46 23.6267 0.311652
7356.21 7356.21 2.000000 2.365705 253.56 23.8051 0.301596
7359.27 7359.27 2.010000 2.362814 254.585 23.9704 0.293152
7362.35 7362.35 2.030000 2.359726 257.042 24.2767 0.288862
7365.45 7365.45 2.040000 2.356695 258.057 24.4465 0.288745
7368.56 7368.56 2.050000 2.353630 259.139 24.6244 0.292981
7371.7 7371.7 2.060000 2.350796 260.243 24.7995 0.305674
7374.85 7374.85 2.080000 2.348025 262.362 25.0708 0.330994
7378.03 7378.03 2.090000 2.345006 263.392 25.2453 0.366579
7381.22 7381.22 2.100000 2.342033 264.601 25.4367 0.407440
7384.43 7384.43 2.110000 2.339075 265.435 25.5924 0.439518
7387.66 7387.66 2.130000 2.336081 267.633 25.8817 0.456278
7390.92 7390.92 2.140000 2.332724 268.76 26.0781 0.458265
7394.18 7394.18 2.150000 2.329648 269.673 26.2474 0.452615
7397.46 7397.47 2.160000 2.326498 270.993 26.459 0.451059
7400.78 7400.78 2.180000 2.323494 272.906 26.7259 0.453809
7404.11 7404.11 2.190000 2.320335 274.065 26.9245 0.457588
7407.45 7407.45 2.200000 2.317387 274.846 27.0807 0.461591
7410.81 7410.82 2.210000 2.314009 275.921 27.2787 0.463039
7414.2 7414.2 2.230000 2.310857 277.978 27.5688 0.467366
7417.6 7417.6 2.240000 2.307647 279.246 27.7836 0.472132
7421.03 7421.03 2.250000 2.304717 279.8 27.9204 0.479613
7424.48 7424.47 2.260000 2.301612 280.719 28.0992 0.492188
7427.93 7427.93 2.280000 2.298511 282.999 28.4154 0.505223
7431.4 7431.4 2.290000 2.295661 283.786 28.5759 0.508360
7434.9 7434.9 2.300000 2.292375 284.615 28.7537 0.508449
7438.42 7438.42 2.310000 2.289135 285.543 28.941 0.504807
7441.96 7441.96 2.330000 2.286135 287.468 29.2235 0.495947
7445.51 7445.51 2.340000 2.282719 280.854 28.6489 0.470944
7449.1 7449.09 2.350000 2.279584 290.205 29.6959 0.477040
7452.69 7452.68 2.360000 2.276542 290.319 29.798 0.474307
7456.29 7456.29 2.380000 2.273497 292.948 30.1594 0.481494
7459.92 7459.92 2.390000 2.270495 293.753 30.3332 0.485541
7463.57 7463.57 2.400000 2.267237 294.835 30.5444 0.497648
7467.25 7467.24 2.410000 2.263987 289.882 30.129 0.503324
7470.93 7470.93 2.430000 2.260809 298.319 31.1044 0.536183
7474.65 7474.64 2.440000 2.257452 299.226 31.3041 0.555642
7478.36 7478.36 2.450000 2.253992 299.987 31.4924 0.571308
7482.11 7482.11 2.460000 2.250519 300.994 31.7081 0.586803
7485.88 7485.87 2.480000 2.247109 302.964 32.0247 0.608483
7489.66 7489.66 2.490000 2.243717 304.27 32.2718 0.627554
7493.47 7493.46 2.500000 2.240419 305.43 32.502 0.646671
7497.28 7497.28 2.510000 2.237161 306.628 32.736 0.654629
7501.13 7501.12 2.530000 2.233594 309.083 33.116 0.659027
7504.98 7504.98 2.540000 2.230442 309.795 33.2971 0.660089
7508.86 7508.86 2.550000 2.227160 310.765 33.511 0.661652
7512.76 7512.76 2.560000 2.223626 311.885 33.751 0.667341
7516.69 7516.68 2.580000 2.220251 314.469 34.1456 0.681960
7520.61 7520.61 2.590000 2.216906 315.28 34.3484 0.689333
7524.58 7524.57 2.600000 2.213335 316.46 34.6003 0.695947
7528.55 7528.54 2.610000 2.209973 317.05 34.7816 0.698724
7532.54 7532.54 2.630000 2.206328 319.239 35.1494 0.704234
7536.56 7536.55 2.640000 2.202902 320.073 35.3623 0.710344
7540.58 7540.58 2.650000 2.199350 321.235 35.617 0.720839
7544.63 7544.63 2.660000 2.195872 321.76 35.7996 0.730241
7548.71 7548.7 2.680000 2.192267 324.056 36.1851 0.741085
7552.8 7552.79 2.690000 2.188772 324.742 36.3887 0.745116
7556.91 7556.9 2.700000 2.185139 325.965 36.6587 0.744240
7561.03 7561.02 2.710000 2.181408 326.256 36.8287 0.741415
7565.17 7565.17 2.730000 2.178287 328.32 37.1774 0.745300
7569.34 7569.33 2.740000 2.174577 329.143 37.4092 0.754287
7573.52 7573.52 2.750000 2.171270 329.765 37.604 0.768798
7577.73 7577.72 2.760000 2.167715 330.855 37.8626 0.792244
7581.95 7581.94 2.780000 2.164387 332.318 38.1569 0.816992
7586.19 7586.18 2.790000 2.160862 333.054 38.3765 0.837180
7590.45 7590.44 2.800000 2.157431 333.71 38.5842 0.849332
7594.73 7594.72 2.810000 2.153850 334.107 38.7687 0.859373
7599.02 7599.02 2.830000 2.150443 335.963 39.1171 0.868885
7603.34 7603.34 2.840000 2.146897 335.675 39.2222 0.875251
7607.67 7607.67 2.850000 2.143333 335.449 39.3357 0.883627
7612.03 7612.03 2.860000 2.139944 336.041 39.5391 0.899259
7616.4 7616.4 2.880000 2.136121 338.392 39.9681 0.917583
7620.8 7620.8 2.890000 2.132752 339.455 40.229 0.921648
7625.22 7625.21 2.900000 2.129082 340.308 40.4785 0.931262
7629.65 7629.64 2.910000 2.125519 340.816 40.6837 0.937207
7634.1 7634.09 2.930000 2.121741 342.602 41.0515 0.952700
7638.56 7638.56 2.940000 2.118201 343.032 41.2487 0.969835
7643.06 7643.05 2.950000 2.114565 343.468 41.4517 0.986468
7647.57 7647.56 2.960000 2.111183 343.604 41.6086 1.000765
7652.09 7652.08 2.980000 2.107641 345.175 41.9471 1.013945
7656.64 7656.63 2.990000 2.104031 345.805 42.1758 1.026523
7661.2 7661.19 3.000000 2.100256 345.973 42.3558 1.032584
7665.79 7665.78 3.010000 2.096681 346.972 42.6302 1.038617
7670.39 7670.38 3.030000 2.093012 348.697 42.9996 1.047146
7675.01 7675 3.040000 2.089503 348.969 43.1845 1.049569
7679.64 7679.64 3.050000 2.085961 349.433 43.3953 1.055194
7684.31 7684.3 3.060000 2.082372 349.478 43.557 1.061373
7688.99 7688.98 3.080000 2.078868 352.133 44.042 1.079551
7693.69 7693.68 3.090000 2.075220 352.811 44.2879 1.096664
7698.4 7698.4 3.100000 2.071778 352.662 44.422 1.110429
7703.13 7703.13 3.110000 2.067964 352.952 44.6283 1.125747
7707.89 7707.89 3.130000 2.064366 352.297 44.7061 1.135904
7712.66 7712.66 3.140000 2.060627 354.551 45.1606 1.159968
7717.47 7717.46 3.150000 2.056823 354.462 45.3213 1.175573
7722.28 7722.27 3.160000 2.052960 355.028 45.5694 1.191393
7727.11 7727.1 3.180000 2.049210 356.074 45.8754 1.208844
7731.95 7731.95 3.190000 2.045372 356.219 46.0705 1.222367
7736.82 7736.82 3.200000 2.041797 355.983 46.2048 1.227896
7741.71 7741.71 3.210000 2.038005 357.515 46.58 1.246807
7746.62 7746.62 3.230000 2.034382 357.96 46.8073 1.258163
7751.54 7751.54 3.240000 2.030699 358.132 47.0025 1.271178
7756.49 7756.49 3.250000 2.027094 357.925 47.1451 1.282799
7761.45 7761.45 3.260000 2.023217 357.918 47.3273 1.294985
7766.44 7766.44 3.280000 2.019401 359.08 47.6624 1.315410
7771.44 7771.44 3.290000 2.015670 358.949 47.8231 1.332578
7776.46 7776.46 3.300000 2.011922 358.875 47.9928 1.346602
7781.5 7781.5 3.310000 2.008156 358.864 48.1724 1.362176
7786.56 7786.56 3.330000 2.004342 359.824 48.4859 1.377580
7791.64 7791.64 3.340000 2.000511 359.692 48.6541 1.392739
7796.74 7796.74 3.350000 1.996497 359.565 48.8327 1.404415
7801.86 7801.86 3.360000 1.992663 359.421 49.0006 1.415894
7806.99 7806.99 3.380000 1.988785 360.216 49.2998 1.428531
7812.15 7812.15 3.390000 1.985059 359.925 49.4439 1.436195
7817.32 7817.32 3.400000 1.981291 359.639 49.5911 1.448459
7822.52 7822.52 3.410000 1.977522 359.384 49.7431 1.458421
7827.73 7827.73 3.430000 1.973543 360.088 50.0392 1.475127
7832.97 7832.96 3.440000 1.969786 359.772 50.1836 1.486569
7838.21 7838.21 3.450000 1.965835 359.586 50.3561 1.498487
7843.48 7843.48 3.460000 1.962064 359.011 50.4655 1.510206
7848.77 7848.77 3.480000 1.958111 360.211 50.8348 1.529744
7854.08 7854.08 3.490000 1.954190 357.671 50.6745 1.535651