File: xdidata/Fe/Fe-K-Jacobsite.xdi
# XDI/1.0 BlueSky/1.5.3
# Beamline.name: 6BM
# Beamline.xray_source: NSLS-II three-pole wiggler
# Beamline.collimation: paraboloid mirror, 5 nm Rh on 30 nm Pt
# Beamline.focusing: not in use
# Beamline.harmonic_rejection: flat mirror, Si stripe, pitch = 7.0 mrad relative to beam
# Detector.i0: 10 cm N2
# Detector.i1: 25 cm N2
# Detector.i2: 25 cm N2
# Element.symbol: Fe
# Element.edge: K
# Facility.name: NSLS-II
# Facility.energy: 3.0
# Facility.current: 401.2
# Facility.mode: top-off
# Facility.gup: 301027
# Facility.saf: 304793
# Facility.cycle: 2020-1
# Mono.name: Si(111)
# Mono.d_spacing: 3.13532
# Mono.encoder_resolution: 0.0000050 deg/ct
# Mono.angle_offset: 16.0581 deg
# Mono.scan_mode: fixed exit
# Mono.scan_type: step
# Mono.direction: forward in energy
# Sample.name: MnFe2O4
# Sample.prep: Powder in polyethylene glycol pellet
# Sample.x_position: -122.297 mm
# Sample.y_position: 119.848 mm
# Scan.experimenters: Bruce Ravel
# Scan.edge_energy: 7112.0
# Scan.start_time: 2020-01-14T22:55:32
# Scan.end_time: 2020-01-14T23:33:53
# Scan.transient_id: 19547
# Scan.uid: 0759c084-5616-4f31-a998-a91a6b387149
# Scan.plot_hint: ln(I0/It)  --  ln($5/$6)
# Scan.sequence: merge of 2 scans
# Column.1: energy eV
# Column.2: requested_energy eV
# Column.3: measurement_time seconds
# Column.4: mutrans
# Column.5: i0
# Column.6: itrans
# Column.7: irefer
# /////
#  Jakobsberg Mine, Nordmark, Sweden
# -----
# energy   requested_energy   measurement_time   mutrans   i0   itrans   irefer
6912 6912 0.500000 1.870704 71.0917 10.9493 3.041177
6922.01 6922 0.500000 1.861097 70.8515 11.0176 3.073311
6932.01 6932 0.500000 1.850842 70.6944 11.1065 3.111338
6942.02 6942 0.500000 1.841216 70.5242 11.1869 3.146988
6952.01 6952 0.500000 1.831241 70.379 11.2758 3.185957
6962.02 6962 0.500000 1.821077 70.277 11.3744 3.226609
6972.02 6972 0.500000 1.810218 70.1289 11.4744 3.269852
6982.02 6982 0.500000 1.800228 69.9797 11.5649 3.308498
6992.01 6992 0.500000 1.790771 69.822 11.6485 3.347519
7002.02 7002 0.500000 1.781017 69.7084 11.7436 3.387681
7012.02 7012 0.500000 1.771870 69.5696 11.8279 3.427747
7022.02 7022 0.500000 1.762827 69.4196 11.9096 3.464291
7032.01 7032 0.500000 1.753190 69.2593 11.9971 3.502293
7042.01 7042 0.500000 1.743688 69.1241 12.0881 3.542374
7052.01 7052 0.500000 1.734259 69.0099 12.1824 3.583181
7062.01 7062 0.500000 1.725063 68.2754 12.1641 3.588004
7072.01 7072 0.500000 1.715899 68.7142 12.355 3.653608
7082.01 7082 0.500000 1.707232 68.5784 12.4379 3.682179
7084.02 7084 0.500000 1.705356 68.6167 12.4682 3.690525
7086.01 7086 0.500000 1.703965 68.6257 12.4872 3.696657
7088.01 7088 0.500000 1.702241 68.6239 12.5084 3.701237
7090.01 7090 0.500000 1.700349 68.6134 12.5302 3.704440
7092.01 7092 0.500000 1.698838 68.5409 12.5359 3.702885
7094 7094 0.500000 1.697412 68.5849 12.5618 3.705928
7096 7096 0.500000 1.695879 68.6307 12.5894 3.709113
7098 7098 0.500000 1.694530 68.5888 12.5988 3.703643
7100 7100 0.500000 1.693196 68.5185 12.6027 3.692453
7102 7102 0.500000 1.692269 68.5147 12.6136 3.677798
7102.08 7102.1 0.500000 1.692147 68.5356 12.619 3.679179
7102.18 7102.2 0.500000 1.691949 68.5743 12.6287 3.680110
7102.28 7102.3 0.500000 1.692217 68.5358 12.6182 3.675897
7102.38 7102.4 0.500000 1.692225 68.6089 12.6315 3.679756
7102.48 7102.5 0.500000 1.692128 68.6107 12.6331 3.677835
7102.58 7102.6 0.500000 1.692029 68.6104 12.6343 3.678722
7102.68 7102.7 0.500000 1.692039 68.6615 12.6436 3.680134
7102.78 7102.8 0.500000 1.692102 68.6435 12.6395 3.676030
7102.89 7102.9 0.500000 1.691952 68.6445 12.6416 3.676554
7102.98 7103 0.500000 1.691914 68.6371 12.6406 3.675394
7103.09 7103.1 0.500000 1.692002 68.6456 12.6411 3.673228
7103.19 7103.2 0.500000 1.691815 68.6581 12.6459 3.673636
7103.29 7103.3 0.500000 1.691639 68.6424 12.6451 3.672106
7103.39 7103.4 0.500000 1.691533 68.6371 12.6455 3.670121
7103.49 7103.5 0.500000 1.691532 68.6895 12.655 3.673513
7103.59 7103.6 0.500000 1.691654 68.7471 12.6642 3.673657
7103.69 7103.7 0.500000 1.691620 68.7841 12.6715 3.674598
7103.79 7103.8 0.500000 1.691587 68.7467 12.6653 3.670832
7103.89 7103.9 0.500000 1.691176 68.7242 12.6659 3.669964
7103.99 7104 0.500000 1.691329 68.7252 12.6643 3.667026
7104.09 7104.1 0.500000 1.691368 68.7588 12.67 3.667380
7104.19 7104.2 0.500000 1.691281 68.7568 12.6708 3.666048
7104.3 7104.3 0.500000 1.691294 68.7541 12.67 3.664652
7104.39 7104.4 0.500000 1.691236 68.7327 12.6668 3.661376
7104.49 7104.5 0.500000 1.691238 68.6833 12.6577 3.656254
7104.6 7104.6 0.500000 1.691113 68.7194 12.6659 3.657111
7104.69 7104.7 0.500000 1.691092 68.7711 12.6758 3.656927
7104.79 7104.8 0.500000 1.691104 68.7696 12.6753 3.655156
7104.89 7104.9 0.500000 1.690955 68.7499 12.6736 3.652970
7104.99 7105 0.500000 1.691122 68.7567 12.6727 3.650368
7105.1 7105.1 0.500000 1.691003 68.775 12.6776 3.649417
7105.19 7105.2 0.500000 1.690898 68.7704 12.678 3.647324
7105.29 7105.3 0.500000 1.690999 68.7901 12.6804 3.646000
7105.39 7105.4 0.500000 1.690962 68.7488 12.6732 3.641556
7105.49 7105.5 0.500000 1.690976 68.7379 12.6712 3.638465
7105.59 7105.6 0.500000 1.690986 68.7818 12.6791 3.637322
7105.69 7105.7 0.500000 1.690857 68.8193 12.6876 3.638079
7105.79 7105.8 0.500000 1.690849 68.8047 12.685 3.635299
7105.9 7105.9 0.500000 1.690812 68.7773 12.6805 3.630341
7105.99 7106 0.500000 1.690641 68.7732 12.6818 3.627696
7106.09 7106.1 0.500000 1.690640 68.7956 12.686 3.625317
7106.2 7106.2 0.500000 1.690670 68.8007 12.6866 3.622338
7106.29 7106.3 0.500000 1.690553 68.7897 12.686 3.619170
7106.39 7106.4 0.500000 1.690576 68.8068 12.6889 3.615921
7106.49 7106.5 0.500000 1.690663 68.7451 12.6765 3.609719
7106.6 7106.6 0.500000 1.690527 68.7811 12.6848 3.607527
7106.7 7106.7 0.500000 1.690421 68.7928 12.6882 3.604293
7106.8 7106.8 0.500000 1.690524 68.8071 12.6896 3.600987
7106.9 7106.9 0.500000 1.690595 68.8033 12.688 3.596342
7107 7107 0.500000 1.690561 68.8114 12.6899 3.592910
7107.1 7107.1 0.500000 1.690422 68.7559 12.6814 3.585034
7107.19 7107.2 0.500000 1.690423 68.736 12.6778 3.579401
7107.3 7107.3 0.500000 1.690408 68.7517 12.6809 3.575204
7107.4 7107.4 0.500000 1.690396 68.7952 12.689 3.572878
7107.5 7107.5 0.500000 1.690447 68.7871 12.6869 3.567115
7107.6 7107.6 0.500000 1.690354 68.7439 12.68 3.559021
7107.7 7107.7 0.500000 1.690476 68.7573 12.6811 3.553738
7107.8 7107.8 0.500000 1.690394 68.7697 12.6843 3.547693
7107.9 7107.9 0.500000 1.690437 68.7879 12.6871 3.542286
7108 7108 0.500000 1.690523 68.7653 12.6819 3.532857
7108.1 7108.1 0.500000 1.690473 68.7357 12.6771 3.524059
7108.2 7108.2 0.500000 1.690570 68.6964 12.6686 3.513189
7108.3 7108.3 0.500000 1.690505 68.6685 12.6643 3.504458
7108.4 7108.4 0.500000 1.690556 68.7222 12.6735 3.498278
7108.5 7108.5 0.500000 1.690477 68.7388 12.6776 3.489735
7108.6 7108.6 0.500000 1.690611 68.7343 12.675 3.478397
7108.7 7108.7 0.500000 1.690621 68.7324 12.6746 3.468445
7108.8 7108.8 0.500000 1.690498 68.7598 12.6812 3.457224
7108.9 7108.9 0.500000 1.690624 68.7195 12.6722 3.442803
7109 7109 0.500000 1.690664 68.6392 12.6568 3.425061
7109.1 7109.1 0.500000 1.690616 68.6959 12.6679 3.414394
7109.19 7109.2 0.500000 1.690797 68.7351 12.673 3.399728
7109.3 7109.3 0.500000 1.690650 68.7264 12.673 3.382881
7109.4 7109.4 0.500000 1.690824 68.6879 12.6639 3.360750
7109.5 7109.5 0.500000 1.690890 68.6638 12.6585 3.340790
7109.6 7109.6 0.500000 1.690821 68.8576 12.6951 3.328323
7109.7 7109.7 0.500000 1.690872 68.8548 12.694 3.301202
7109.8 7109.8 0.500000 1.690986 68.8392 12.6897 3.272042
7109.89 7109.9 0.500000 1.691229 68.8325 12.6856 3.239911
7110 7110 0.500000 1.691422 68.8453 12.6852 3.203273
7110.1 7110.1 0.500000 1.691546 68.8551 12.6855 3.162611
7110.19 7110.2 0.500000 1.691600 68.822 12.6787 3.115353
7110.3 7110.3 0.500000 1.691693 68.8246 12.678 3.063299
7110.4 7110.4 0.500000 1.691917 68.8294 12.6761 3.003226
7110.5 7110.5 0.500000 1.691972 68.8303 12.6755 2.936801
7110.6 7110.6 0.500000 1.692121 68.8183 12.6713 2.860363
7110.7 7110.7 0.500000 1.692403 68.8135 12.6669 2.782196
7110.8 7110.8 0.500000 1.692716 68.7935 12.6593 2.695702
7110.9 7110.9 0.500000 1.692992 68.9894 12.6918 2.613108
7111 7111 0.500000 1.693310 68.9841 12.6868 2.525800
7111.1 7111.1 0.500000 1.693694 68.9407 12.6738 2.426125
7111.2 7111.2 0.500000 1.694253 68.9494 12.6684 2.338245
7111.3 7111.3 0.500000 1.694726 68.9786 12.6679 2.250711
7111.4 7111.4 0.500000 1.695273 68.9623 12.6579 2.166547
7111.5 7111.5 0.500000 1.695827 68.9412 12.647 2.086844
7111.6 7111.6 0.500000 1.696595 68.9166 12.6329 2.012026
7111.7 7111.7 0.500000 1.697576 68.9052 12.6184 1.943418
7111.8 7111.8 0.500000 1.698524 68.9262 12.6105 1.882695
7111.9 7111.9 0.500000 1.699682 68.931 12.5968 1.823701
7112 7112 0.500000 1.700918 68.9365 12.5818 1.771104
7112.1 7112.1 0.500000 1.702659 68.9287 12.5592 1.721583
7112.2 7112.2 0.500000 1.704314 68.9276 12.5379 1.676465
7112.3 7112.3 0.500000 1.706341 68.8732 12.5027 1.633636
7112.4 7112.4 0.500000 1.708430 68.8893 12.4795 1.593818
7112.49 7112.5 0.500000 1.710529 68.8669 12.4494 1.558666
7112.6 7112.6 0.500000 1.712856 68.836 12.4145 1.522613
7112.7 7112.7 0.500000 1.715143 68.8439 12.3876 1.490668
7112.8 7112.8 0.500000 1.717445 68.8799 12.3656 1.460620
7112.9 7112.9 0.500000 1.719785 68.8979 12.3397 1.430223
7113 7113 0.500000 1.721662 68.8598 12.3098 1.402630
7113.1 7113.1 0.500000 1.723639 68.8375 12.2812 1.375011
7113.2 7113.2 0.500000 1.725178 68.7852 12.2533 1.349266
7113.3 7113.3 0.500000 1.726405 68.7915 12.2392 1.326120
7113.4 7113.4 0.500000 1.727410 68.8155 12.2315 1.304429
7113.5 7113.5 0.500000 1.728131 68.8032 12.2205 1.283244
7113.6 7113.6 0.500000 1.728340 68.8174 12.2206 1.263593
7113.7 7113.7 0.500000 1.728168 68.7622 12.2128 1.245297
7113.8 7113.8 0.500000 1.727570 68.7378 12.2159 1.227902
7113.9 7113.9 0.500000 1.726863 68.7379 12.2246 1.211106
7114 7114 0.500000 1.725904 68.7733 12.2426 1.196703
7114.1 7114.1 0.500000 1.724702 68.765 12.256 1.183830
7114.2 7114.2 0.500000 1.723349 68.7385 12.2674 1.171372
7114.3 7114.3 0.500000 1.721968 68.7202 12.2813 1.158552
7114.4 7114.4 0.500000 1.720716 68.7345 12.2992 1.146568
7114.5 7114.5 0.500000 1.719402 68.7369 12.3153 1.137740
7114.6 7114.6 0.500000 1.718023 68.7453 12.3345 1.128334
7114.7 7114.7 0.500000 1.716804 68.7458 12.3492 1.120050
7114.8 7114.8 0.500000 1.716113 68.7272 12.3546 1.111831
7114.9 7114.9 0.500000 1.715070 68.713 12.3651 1.104432
7114.99 7115 0.500000 1.714318 68.7276 12.3766 1.098925
7115.1 7115.1 0.500000 1.713764 68.743 12.3866 1.093265
7115.2 7115.2 0.500000 1.713429 68.7022 12.3833 1.087269
7115.3 7115.3 0.500000 1.713160 68.6751 12.3817 1.081665
7115.4 7115.4 0.500000 1.713007 68.6987 12.3879 1.079211
7115.49 7115.5 0.500000 1.712932 68.7497 12.398 1.075908
7115.6 7115.6 0.500000 1.713161 68.7544 12.3961 1.071599
7115.7 7115.7 0.500000 1.713205 68.7252 12.3902 1.068520
7115.8 7115.8 0.500000 1.713354 68.7075 12.3852 1.063880
7115.9 7115.9 0.500000 1.713599 68.6768 12.3766 1.059946
7116 7116 0.500000 1.713868 68.6708 12.3722 1.057824
7116.1 7116.1 0.500000 1.714411 68.7495 12.3796 1.054128
7116.2 7116.2 0.500000 1.714650 68.7233 12.3721 1.049378
7116.3 7116.3 0.500000 1.715090 68.687 12.3598 1.043957
7116.4 7116.4 0.500000 1.715533 68.7062 12.3579 1.039012
7116.5 7116.5 0.500000 1.716060 68.7154 12.353 1.032181
7116.6 7116.6 0.500000 1.716457 68.7049 12.3461 1.024657
7116.7 7116.7 0.500000 1.717033 68.6835 12.3353 1.016388
7116.8 7116.8 0.500000 1.717360 68.6406 12.3237 1.005626
7116.9 7116.9 0.500000 1.717858 68.6345 12.3164 0.994150
7117 7117 0.500000 1.718447 68.636 12.3093 0.982571
7117.1 7117.1 0.500000 1.718952 68.5992 12.2967 0.969518
7117.2 7117.2 0.500000 1.719400 68.6223 12.2952 0.955306
7117.3 7117.3 0.500000 1.720132 68.6133 12.2848 0.938575
7117.4 7117.4 0.500000 1.720767 68.6314 12.2803 0.923026
7117.5 7117.5 0.500000 1.721318 68.6093 12.2694 0.906131
7117.6 7117.6 0.500000 1.721998 68.5745 12.2551 0.886755
7117.7 7117.7 0.500000 1.722811 68.5596 12.2424 0.866967
7117.8 7117.8 0.500000 1.723373 68.5933 12.2414 0.848420
7117.9 7117.9 0.500000 1.724201 68.6135 12.2352 0.830039
7118 7118 0.500000 1.724959 68.5701 12.2182 0.810429
7118.1 7118.1 0.500000 1.725653 68.5289 12.2023 0.792308
7118.2 7118.2 0.500000 1.726438 68.4702 12.1825 0.772050
7118.3 7118.3 0.500000 1.727794 68.4677 12.1655 0.751729
7118.4 7118.4 0.500000 1.729094 68.5392 12.1626 0.733558
7118.5 7118.5 0.500000 1.730048 68.4931 12.1422 0.713556
7118.6 7118.6 0.500000 1.731367 68.4657 12.1222 0.694556
7118.7 7118.7 0.500000 1.732753 68.4624 12.1039 0.677169
7118.8 7118.8 0.500000 1.734218 68.4365 12.0796 0.657043
7118.9 7118.9 0.500000 1.736112 68.3931 12.0511 0.639552
7119 7119 0.500000 1.738115 68.349 12.0213 0.619788
7119.1 7119.1 0.500000 1.740022 68.2919 11.9882 0.601816
7119.2 7119.2 0.500000 1.742026 68.335 11.9714 0.585646
7119.31 7119.3 0.500000 1.744459 68.356 11.9458 0.567193
7119.4 7119.4 0.500000 1.746903 68.3455 11.9165 0.552153
7119.51 7119.5 0.500000 1.749407 68.307 11.8776 0.533704
7119.6 7119.6 0.500000 1.752172 68.2782 11.8406 0.518384
7119.7 7119.7 0.500000 1.754922 68.2681 11.8067 0.501974
7119.8 7119.8 0.500000 1.758017 68.2616 11.7687 0.486447
7119.9 7119.9 0.500000 1.761236 68.2231 11.7248 0.470864
7120 7120 0.500000 1.764345 68.162 11.6774 0.457089
7120.1 7120.1 0.500000 1.768092 68.1585 11.6338 0.441306
7120.2 7120.2 0.500000 1.771720 68.1213 11.5853 0.428248
7120.3 7120.3 0.500000 1.775501 68.0963 11.5362 0.414858
7120.4 7120.4 0.500000 1.779381 68.034 11.4807 0.400678
7120.5 7120.5 0.500000 1.783738 68.0309 11.4318 0.388270
7120.6 7120.6 0.500000 1.788555 68.0387 11.3777 0.376805
7120.7 7120.7 0.500000 1.793284 68.01 11.3183 0.364075
7120.8 7120.8 0.500000 1.798277 67.9825 11.2586 0.352232
7120.9 7120.9 0.500000 1.803451 67.9242 11.1909 0.340544
7121 7121 0.500000 1.808766 67.8762 11.1219 0.329800
7121.09 7121.1 0.500000 1.814268 67.905 11.0674 0.320021
7121.2 7121.2 0.500000 1.820251 67.9005 10.9995 0.310632
7121.3 7121.3 0.500000 1.826213 67.8598 10.9282 0.301093
7121.4 7121.4 0.500000 1.832124 67.8249 10.857 0.291494
7121.5 7121.5 0.500000 1.838263 67.7853 10.7835 0.282870
7121.6 7121.6 0.500000 1.844861 67.7704 10.7116 0.275751
7121.7 7121.7 0.500000 1.850780 67.724 10.641 0.268266
7121.8 7121.8 0.500000 1.856715 67.6662 10.5671 0.260568
7121.9 7121.9 0.500000 1.863096 67.6671 10.5014 0.254122
7122 7122 0.500000 1.868851 67.6549 10.4392 0.247536
7122.1 7122.1 0.500000 1.874951 67.6497 10.3738 0.241967
7122.21 7122.2 0.500000 1.880732 67.5804 10.3034 0.236960
7122.3 7122.3 0.500000 1.886374 67.5482 10.2429 0.231259
7122.4 7122.4 0.500000 1.892166 67.4912 10.1729 0.225387
7122.5 7122.5 0.500000 1.897432 67.4208 10.1094 0.221438
7122.6 7122.6 0.500000 1.903056 67.4816 10.0623 0.216417
7122.7 7122.7 0.500000 1.908819 67.5644 10.0179 0.212046
7122.8 7122.8 0.500000 1.914490 67.5377 9.956770 0.207440
7122.9 7122.9 0.500000 1.919784 67.4779 9.894362 0.202894
7123 7123 0.500000 1.925267 67.4307 9.834647 0.199217
7123.1 7123.1 0.500000 1.930904 67.4333 9.780356 0.195233
7123.2 7123.2 0.500000 1.936395 67.3607 9.716855 0.191692
7123.3 7123.3 0.500000 1.941877 67.322 9.656838 0.186861
7123.4 7123.4 0.500000 1.947447 67.296 9.600733 0.184429
7123.5 7123.5 0.500000 1.953062 67.2637 9.542571 0.180319
7123.6 7123.6 0.500000 1.958532 67.239 9.486650 0.176725
7123.7 7123.7 0.500000 1.964155 67.3562 9.448341 0.174222
7123.8 7123.8 0.500000 1.969742 67.3438 9.395863 0.172474
7123.9 7123.9 0.500000 1.975475 67.298 9.336236 0.168389
7124 7124 0.500000 1.981009 67.2582 9.276914 0.164437
7124.1 7124.1 0.500000 1.986588 67.2222 9.221159 0.162727
7124.2 7124.2 0.500000 1.992630 67.182 9.161007 0.159898
7124.3 7124.3 0.500000 1.998553 67.094 9.093332 0.157222
7124.4 7124.4 0.500000 2.004722 67.1102 9.040159 0.153568
7124.5 7124.5 0.500000 2.010942 67.0559 8.976853 0.151157
7124.6 7124.6 0.500000 2.017472 67.07 8.920838 0.149302
7124.7 7124.7 0.500000 2.024032 67.0723 8.860465 0.146596
7124.8 7124.8 0.500000 2.030950 67.0271 8.795301 0.144313
7124.9 7124.9 0.500000 2.038171 66.99 8.725929 0.140859
7125 7125 0.500000 2.045734 66.9481 8.653814 0.138681
7125.1 7125.1 0.500000 2.052863 66.8892 8.584769 0.135225
7125.2 7125.2 0.500000 2.060385 66.8227 8.511198 0.134069
7125.31 7125.3 0.500000 2.068501 66.8758 8.447908 0.130496
7125.4 7125.4 0.500000 2.075735 66.8641 8.390012 0.129396
7125.5 7125.5 0.500000 2.083303 66.8225 8.317745 0.126741
7125.59 7125.6 0.500000 2.091099 66.7444 8.248599 0.124094
7125.71 7125.7 0.500000 2.099279 66.6811 8.168516 0.121688
7125.81 7125.8 0.500000 2.106964 66.6351 8.100757 0.119441
7125.91 7125.9 0.500000 2.114210 66.6184 8.038215 0.117169
7126.01 7126 0.500000 2.121704 66.6175 7.979575 0.114685
7126.11 7126.1 0.500000 2.128537 66.5747 7.921006 0.113510
7126.21 7126.2 0.500000 2.135047 66.496 7.860292 0.111391
7126.31 7126.3 0.500000 2.141471 66.4587 7.805719 0.109932
7126.41 7126.4 0.500000 2.147656 66.4288 7.754767 0.107346
7126.51 7126.5 0.500000 2.153293 66.3852 7.706544 0.105777
7126.61 7126.6 0.500000 2.158756 66.3625 7.661054 0.104072
7126.71 7126.7 0.500000 2.163947 66.3066 7.615003 0.102377
7126.81 7126.8 0.500000 2.169012 66.2398 7.570581 0.101142
7126.9 7126.9 0.500000 2.173648 66.1758 7.527979 0.098480
7127.01 7127 0.500000 2.177788 66.1505 7.493300 0.097572
7127.11 7127.1 0.500000 2.182221 66.1163 7.455691 0.095758
7127.2 7127.2 0.500000 2.186343 66.104 7.425261 0.094207
7127.31 7127.3 0.500000 2.190201 66.0037 7.384760 0.092900
7127.41 7127.4 0.500000 2.193900 65.9457 7.350785 0.090420
7127.51 7127.5 0.500000 2.197451 65.9218 7.322485 0.088365
7127.6 7127.6 0.500000 2.200945 65.9018 7.295490 0.087257
7127.7 7127.7 0.500000 2.204122 65.8662 7.268168 0.086183
7127.81 7127.8 0.500000 2.207426 65.8218 7.238211 0.084753
7127.9 7127.9 0.500000 2.210793 65.7631 7.207831 0.081879
7128 7128 0.500000 2.213840 65.7407 7.184399 0.080941
7128.11 7128.1 0.500000 2.217022 65.7203 7.158042 0.079657
7128.21 7128.2 0.500000 2.220178 65.6853 7.131354 0.078157
7128.3 7128.3 0.500000 2.223766 65.659 7.104138 0.075841
7128.4 7128.4 0.500000 2.227053 65.6055 7.075505 0.074346
7128.51 7128.5 0.500000 2.230904 65.5826 7.044379 0.073519
7128.61 7128.6 0.500000 2.234579 65.5675 7.016898 0.071794
7128.7 7128.7 0.500000 2.238683 65.5224 6.984610 0.070612
7128.8 7128.8 0.500000 2.242895 65.5159 6.954856 0.068816
7128.9 7128.9 0.500000 2.247321 65.4811 6.919846 0.066828
7129 7129 0.500000 2.252095 65.4462 6.883550 0.066198
7129.1 7129.1 0.500000 2.257430 65.4192 6.844093 0.063849
7129.19 7129.2 0.500000 2.262811 65.3823 6.804285 0.063285
7129.3 7129.3 0.500000 2.268613 65.3626 6.760250 0.061580
7129.4 7129.4 0.500000 2.274826 65.3333 6.716817 0.060888
7129.5 7129.5 0.500000 2.281310 65.2797 6.668767 0.059109
7129.6 7129.6 0.500000 2.288051 65.2313 6.618627 0.058113
7129.7 7129.7 0.500000 2.294947 65.2098 6.570494 0.057511
7129.8 7129.8 0.500000 2.302490 65.1791 6.519018 0.056006
7129.9 7129.9 0.500000 2.309891 65.1655 6.470099 0.053869
7130 7130 0.500000 2.317463 65.1161 6.414946 0.054298
7130.1 7130.1 0.500000 2.325356 65.0627 6.358588 0.053893
7130.2 7130.2 0.500000 2.332922 65.0557 6.311176 0.052851
7130.3 7130.3 0.500000 2.340738 64.9894 6.255655 0.051677
7130.4 7130.4 0.500000 2.348361 64.9692 6.206669 0.049971
7130.5 7130.5 0.500000 2.355626 64.921 6.157857 0.049961
7130.6 7130.6 0.500000 2.362800 64.9034 6.111967 0.048920
7130.7 7130.7 0.500000 2.369546 64.8178 6.061975 0.048492
7130.8 7130.8 0.500000 2.376234 64.7701 6.016390 0.048136
7130.9 7130.9 0.500000 2.382672 64.7366 5.976161 0.047668
7131 7131 0.500000 2.388273 64.7031 5.939675 0.046801
7131.1 7131.1 0.500000 2.393828 64.6679 5.902859 0.046672
7131.2 7131.2 0.500000 2.398557 64.6516 5.872772 0.047151
7131.31 7131.3 0.500000 2.402960 64.5724 5.840561 0.047234
7131.4 7131.4 0.500000 2.406760 64.5624 5.817734 0.048212
7131.5 7131.5 0.500000 2.410197 64.5661 5.797720 0.048233
7131.6 7131.6 0.500000 2.412920 64.5391 5.779435 0.047962
7131.7 7131.7 0.500000 2.415155 64.5199 5.765211 0.047509
7131.8 7131.8 0.500000 2.416473 64.4936 5.755257 0.048173
7131.9 7131.9 0.500000 2.417193 64.4737 5.749239 0.048647
7132 7132 0.500000 2.417216 64.4717 5.748942 0.049762
7132.1 7132.1 0.500000 2.416648 64.4639 5.751478 0.050709
7132.2 7132.2 0.500000 2.415766 64.4748 5.757526 0.051610
7132.3 7132.3 0.500000 2.414178 64.4557 5.765208 0.051972
7132.4 7132.4 0.500000 2.411994 64.4292 5.775451 0.053103
7132.5 7132.5 0.500000 2.409339 64.4483 5.792472 0.054080
7132.6 7132.6 0.500000 2.406041 64.4466 5.811460 0.054046
7132.7 7132.7 0.500000 2.402639 64.4643 5.832897 0.054454
7132.8 7132.8 0.500000 2.398630 64.4615 5.855836 0.056128
7132.9 7132.9 0.500000 2.394421 64.4659 5.880679 0.058426
7133 7133 0.500000 2.390062 64.4546 5.906149 0.058771
7133.1 7133.1 0.500000 2.385385 64.4373 5.932973 0.059684
7133.2 7133.2 0.500000 2.380556 64.4838 5.965000 0.061320
7133.3 7133.3 0.500000 2.375686 64.487 5.994117 0.062322
7133.4 7133.4 0.500000 2.370386 64.4699 6.024693 0.062524
7133.5 7133.5 0.500000 2.365023 64.5128 6.061595 0.064020
7133.6 7133.6 0.500000 2.359836 64.4993 6.090730 0.064853
7133.69 7133.7 0.500000 2.354437 64.5169 6.125364 0.066173
7133.8 7133.8 0.500000 2.349070 64.4922 6.157022 0.067235
7133.9 7133.9 0.500000 2.344000 64.5296 6.191172 0.069112
7134 7134 0.500000 2.338919 64.5372 6.223118 0.068837
7134.1 7134.1 0.500000 2.333679 64.5308 6.255043 0.070222
7134.2 7134.2 0.500000 2.328759 64.5501 6.289139 0.071525
7134.3 7134.3 0.500000 2.323976 64.5681 6.319570 0.072432
7134.4 7134.4 0.500000 2.319457 64.5569 6.346713 0.072972
7134.5 7134.5 0.500000 2.314966 64.5707 6.377870 0.073688
7134.6 7134.6 0.500000 2.310769 64.5681 6.404465 0.076726
7134.7 7134.7 0.500000 2.306804 64.6047 6.433000 0.076632
7134.8 7134.8 0.500000 2.303284 64.6062 6.455901 0.077342
7134.9 7134.9 0.500000 2.299932 64.6436 6.481860 0.079135
7135 7135 0.500000 2.296554 64.6647 6.505769 0.079724
7135.1 7135.1 0.500000 2.293781 64.6684 6.523242 0.081091
7135.2 7135.2 0.500000 2.291012 64.6903 6.543876 0.080220
7135.31 7135.3 0.500000 2.288387 64.6975 6.562584 0.080563
7135.4 7135.4 0.500000 2.286128 64.7125 6.578980 0.082074
7135.5 7135.5 0.500000 2.283918 64.858 6.607728 0.082015
7135.6 7135.6 0.500000 2.281822 64.8867 6.624545 0.083674
7135.7 7135.7 0.500000 2.280127 64.883 6.635959 0.083190
7135.8 7135.8 0.500000 2.278532 64.9135 6.649375 0.084672
7135.9 7135.9 0.500000 2.276915 64.9548 6.664095 0.084653
7136 7136 0.500000 2.275670 64.9617 6.673398 0.084519
7136.1 7136.1 0.500000 2.274522 64.9458 6.679608 0.085831
7136.2 7136.2 0.500000 2.273623 64.9774 6.688808 0.085947
7136.3 7136.3 0.500000 2.272755 64.9724 6.693881 0.086057
7136.4 7136.4 0.500000 2.271985 64.9885 6.700816 0.085986
7136.5 7136.5 0.500000 2.271515 65.0267 6.707941 0.086671
7136.6 7136.6 0.500000 2.270781 64.9899 6.708920 0.085603
7136.7 7136.7 0.500000 2.270513 65.1385 6.726047 0.086445
7136.8 7136.8 0.500000 2.269967 65.092 6.725044 0.086956
7136.9 7136.9 0.500000 2.269816 65.1294 6.729903 0.086822
7137 7137 0.500000 2.269688 65.1986 6.737928 0.085480
7137.1 7137.1 0.500000 2.269438 65.2037 6.740109 0.085882
7137.2 7137.2 0.500000 2.269095 65.1975 6.741797 0.086573
7137.3 7137.3 0.500000 2.269136 65.1973 6.741496 0.085739
7137.4 7137.4 0.500000 2.269313 65.2137 6.742006 0.085343
7137.49 7137.5 0.500000 2.269462 65.2196 6.741641 0.085906
7137.6 7137.6 0.500000 2.269289 65.2169 6.742506 0.084426
7137.7 7137.7 0.500000 2.269170 65.211 6.742682 0.085606
7137.8 7137.8 0.500000 2.269293 65.2032 6.741055 0.084012
7137.9 7137.9 0.500000 2.269211 65.2389 6.745292 0.085422
7138 7138 0.500000 2.269259 65.259 6.747047 0.084588
7138.1 7138.1 0.500000 2.269203 65.2893 6.750561 0.083857
7138.19 7138.2 0.500000 2.269159 65.2754 6.749414 0.084374
7138.3 7138.3 0.500000 2.269291 65.2869 6.749728 0.084305
7138.4 7138.4 0.500000 2.269168 65.2879 6.750690 0.083739
7138.5 7138.5 0.500000 2.268931 65.2935 6.752832 0.083034
7138.6 7138.6 0.500000 2.268733 65.2746 6.752196 0.082574
7138.7 7138.7 0.500000 2.268541 65.2887 6.754964 0.082411
7138.8 7138.8 0.500000 2.268403 65.302 6.757254 0.080694
7138.9 7138.9 0.500000 2.267753 65.2846 6.759866 0.081796
7139 7139 0.500000 2.267082 65.3066 6.766561 0.080218
7139.1 7139.1 0.500000 2.266527 65.3238 6.772370 0.080198
7139.2 7139.2 0.500000 2.265907 65.3167 6.775794 0.080254
7139.3 7139.3 0.500000 2.265034 65.3057 6.780325 0.078902
7139.4 7139.4 0.500000 2.264209 65.2918 6.784623 0.079712
7139.51 7139.5 0.500000 2.263394 65.3098 6.792220 0.080393
7139.61 7139.6 0.500000 2.262356 65.2764 6.795920 0.078656
7139.7 7139.7 0.500000 2.261273 65.3189 6.807209 0.078452
7139.8 7139.8 0.500000 2.259892 65.3205 6.816957 0.078829
7139.9 7139.9 0.500000 2.258637 65.3202 6.825726 0.078718
7140 7140 0.500000 2.257459 65.3265 6.834083 0.077629
7140.1 7140.1 0.500000 2.255816 65.3334 6.845719 0.077847
7140.2 7140.2 0.500000 2.254355 65.325 6.855414 0.077498
7140.31 7140.3 0.500000 2.252653 65.3282 6.867658 0.076743
7140.4 7140.4 0.500000 2.250986 65.3507 6.881305 0.078025
7140.5 7140.5 0.500000 2.249251 65.342 6.892049 0.077550
7140.6 7140.6 0.500000 2.247610 65.3637 6.906080 0.077322
7140.7 7140.7 0.500000 2.245402 65.3587 6.920953 0.077292
7140.8 7140.8 0.500000 2.243489 65.3588 6.933893 0.077000
7140.9 7140.9 0.500000 2.241706 65.3698 6.947315 0.076090
7141 7141 0.500000 2.239782 65.3692 6.960495 0.077179
7141.1 7141.1 0.500000 2.237911 65.3729 6.974062 0.077589
7141.2 7141.2 0.500000 2.235793 65.3724 6.988435 0.077609
7141.3 7141.3 0.500000 2.233950 65.385 7.003039 0.077102
7141.4 7141.4 0.500000 2.232166 65.3841 7.015878 0.077652
7141.5 7141.5 0.500000 2.230422 65.387 7.028132 0.076980
7141.6 7141.6 0.500000 2.228458 65.3809 7.041156 0.077247
7141.7 7141.7 0.500000 2.227035 65.3668 7.049768 0.079071
7141.8 7141.8 0.500000 2.225443 65.3645 7.060752 0.077829
7141.9 7141.9 0.500000 2.223935 65.4052 7.075710 0.079834
7142 7142 0.700000 2.222535 91.1867 9.878482 0.109321
7143.09 7143.08 0.710000 2.213906 92.9095 10.1524 0.114686
7144.21 7144.18 0.730000 2.217529 95.5511 10.4034 0.118922
7145.28 7145.29 0.740000 2.223660 96.8714 10.4827 0.119085
7146.42 7146.43 0.750000 2.221681 98.1854 10.6458 0.116140
7147.58 7147.58 0.760000 2.206754 99.5831 10.9594 0.111150
7148.77 7148.76 0.780000 2.184642 102.25 11.5036 0.110370
7149.95 7149.95 0.790000 2.162452 103.66 11.9255 0.109816
7151.17 7151.16 0.800000 2.146230 104.99 12.276 0.110875
7152.4 7152.39 0.810000 2.135617 106.375 12.5705 0.110360
7153.65 7153.64 0.830000 2.127127 109.08 13.0004 0.111869
7154.91 7154.91 0.840000 2.117538 110.431 13.2877 0.115471
7156.21 7156.2 0.850000 2.107171 111.769 13.5896 0.122199
7157.52 7157.51 0.860000 2.097281 112.998 13.8751 0.126155
7158.83 7158.83 0.880000 2.089479 115.696 14.3176 0.128922
7160.19 7160.18 0.890000 2.085707 116.952 14.5277 0.131093
7161.55 7161.54 0.900000 2.085997 118.155 14.6729 0.134247
7162.93 7162.93 0.910000 2.088731 119.433 14.7911 0.137460
7164.34 7164.33 0.930000 2.092338 121.983 15.0524 0.143086
7165.76 7165.75 0.940000 2.097136 123.144 15.1231 0.145720
7167.2 7167.19 0.950000 2.103936 124.338 15.1661 0.148524
7168.66 7168.65 0.960000 2.113083 125.531 15.1726 0.148962
7170.14 7170.13 0.980000 2.123683 128.049 15.3132 0.153503
7171.64 7171.63 0.990000 2.133914 129.217 15.2959 0.156878
7173.15 7173.14 1.000000 2.141762 130.433 15.3189 0.165221
7174.69 7174.68 1.010000 2.148733 131.61 15.3499 0.173212
7176.25 7176.24 1.030000 2.154226 134.107 15.5557 0.186999
7177.82 7177.81 1.040000 2.159947 135.353 15.6102 0.195906
7179.4 7179.4 1.050000 2.167130 136.602 15.642 0.203398
7181.02 7181.01 1.060000 2.173421 137.819 15.6821 0.203577
7182.65 7182.65 1.080000 2.174866 140.317 15.9433 0.206762
7184.31 7184.3 1.090000 2.172938 141.587 16.1186 0.204150
7185.98 7185.97 1.100000 2.170153 142.822 16.3045 0.198937
7187.67 7187.65 1.110000 2.167291 144.037 16.4905 0.190731
7189.38 7189.36 1.130000 2.164312 146.122 16.779 0.184424
7191.1 7191.09 1.140000 2.159781 147.222 16.9821 0.174903
7192.85 7192.83 1.150000 2.154592 149.057 17.2833 0.169133
7194.62 7194.6 1.160000 2.148449 150.348 17.5404 0.168475
7196.4 7196.38 1.180000 2.142577 152.884 17.9414 0.177355
7198.2 7198.18 1.190000 2.136971 154.162 18.193 0.187060
7200.02 7200 1.200000 2.131496 155.71 18.4767 0.204998
7201.85 7201.84 1.210000 2.126229 157.259 18.7587 0.222177
7203.72 7203.7 1.230000 2.120979 159.74 19.1551 0.245603
7205.59 7205.58 1.240000 2.116203 161.028 19.4018 0.265648
7207.5 7207.48 1.250000 2.112223 162.29 19.6321 0.275047
7209.41 7209.4 1.260000 2.109489 163.543 19.8377 0.269070
7211.35 7211.33 1.280000 2.107880 166.106 20.1811 0.247587
7213.3 7213.29 1.290000 2.106819 167.445 20.3653 0.211827
7215.27 7215.26 1.300000 2.105554 168.968 20.5766 0.179654
7217.27 7217.26 1.310000 2.104509 170.199 20.7482 0.155898
7219.28 7219.27 1.330000 2.104236 172.677 21.0561 0.144979
7221.31 7221.3 1.340000 2.103843 173.816 21.2033 0.143479
7223.37 7223.35 1.350000 2.103480 174.931 21.3471 0.154534
7225.44 7225.42 1.360000 2.102524 175.822 21.4763 0.173774
7227.52 7227.51 1.380000 2.099922 177.114 21.6904 0.202962
7229.63 7229.61 1.390000 2.096829 180.038 22.117 0.239381
7231.75 7231.74 1.400000 2.092920 181.206 22.3474 0.276302
7233.91 7233.89 1.410000 2.088653 182.379 22.5884 0.312670
7236.06 7236.05 1.430000 2.083985 184.805 22.9957 0.341136
7238.24 7238.23 1.440000 2.077659 185.988 23.2901 0.357883
7240.45 7240.44 1.450000 2.070737 187.056 23.5862 0.358820
7242.68 7242.66 1.460000 2.063968 188.29 23.9034 0.350364
7244.92 7244.9 1.480000 2.058953 190.841 24.349 0.339702
7247.17 7247.16 1.490000 2.056782 188.682 24.1257 0.322414
7249.44 7249.44 1.500000 2.057151 192.788 24.6417 0.324219
7251.74 7251.74 1.510000 2.059525 194.221 24.7659 0.327034
7254.06 7254.05 1.530000 2.062945 196.501 24.9708 0.340808
7256.39 7256.39 1.540000 2.066955 197.61 25.0119 0.347646
7258.76 7258.74 1.550000 2.070723 198.88 25.0775 0.344921
7261.12 7261.12 1.560000 2.074012 199.367 25.0567 0.335617
7263.5 7263.51 1.580000 2.077789 188.745 23.6326 0.306099
7265.93 7265.92 1.590000 2.077152 203.987 25.5569 0.325700
7268.35 7268.35 1.600000 2.076863 205.653 25.773 0.318035
7270.8 7270.8 1.610000 2.075609 206.616 25.9262 0.305504
7273.27 7273.27 1.630000 2.073354 208.245 26.1897 0.292061
7275.76 7275.76 1.640000 2.070660 210.537 26.5492 0.290201
7278.27 7278.27 1.650000 2.067166 211.661 26.7844 0.287224
7280.79 7280.79 1.660000 2.063244 212.26 26.9658 0.279507
7283.34 7283.34 1.680000 2.057853 214.651 27.4169 0.273500
7285.9 7285.9 1.690000 2.051638 216.036 27.7663 0.266122
7288.49 7288.49 1.700000 2.045502 217.17 28.0834 0.263944
7291.09 7291.09 1.710000 2.039724 218.53 28.4232 0.279220
7293.72 7293.71 1.730000 2.034649 220.821 28.8676 0.307766
7296.35 7296.35 1.740000 2.030088 222.017 29.1562 0.343013
7299 7299.01 1.750000 2.025483 223.172 29.443 0.377475
7301.69 7301.69 1.760000 2.020681 220.783 29.2682 0.402679
7304.4 7304.39 1.780000 2.016231 227.138 30.2452 0.436705
7307.1 7307.11 1.790000 2.012442 228.333 30.5193 0.456379
7309.84 7309.84 1.800000 2.009926 229.2 30.7123 0.464461
7312.6 7312.6 1.810000 2.008830 230.434 30.9117 0.468016
7315.37 7315.37 1.830000 2.008514 232.911 31.2538 0.471287
7318.16 7318.17 1.840000 2.008669 233.936 31.3865 0.475013
7320.98 7320.98 1.850000 2.009280 235.277 31.5471 0.479708
7323.81 7323.81 1.860000 2.009183 236.196 31.6735 0.483334
7326.66 7326.66 1.880000 2.008679 238.716 32.0275 0.489180
7329.53 7329.53 1.890000 2.006818 239.739 32.2246 0.493963
7332.42 7332.42 1.900000 2.003499 240.875 32.4852 0.506890
7335.33 7335.32 1.910000 1.999850 242.08 32.7671 0.522266
7338.25 7338.25 1.930000 1.996109 244.152 33.1711 0.535655
7341.2 7341.2 1.940000 1.992024 245.121 33.4391 0.536267
7344.17 7344.16 1.950000 1.987778 247.106 33.8535 0.522315
7347.15 7347.14 1.960000 1.983388 248.101 34.1395 0.498951
7350.15 7350.15 1.980000 1.979648 250.383 34.5821 0.478863
7353.17 7353.17 1.990000 1.976176 251.514 34.8593 0.459371
7356.21 7356.21 2.000000 1.972971 252.388 35.0929 0.446289
7359.27 7359.27 2.010000 1.970283 254.18 35.4372 0.431004
7362.35 7362.35 2.030000 1.968101 256.347 35.8173 0.424803
7365.44 7365.45 2.040000 1.966357 257.23 36.0034 0.422953
7368.56 7368.56 2.050000 1.964685 258.381 36.2251 0.428235
7371.7 7371.7 2.060000 1.962322 259.077 36.4085 0.448264
7374.85 7374.85 2.080000 1.959470 261.419 36.8424 0.486372
7378.03 7378.03 2.090000 1.956350 262.348 37.0889 0.536919
7381.22 7381.22 2.100000 1.953041 263.182 37.3303 0.598198
7384.42 7384.43 2.110000 1.950325 264.347 37.5973 0.646161
7387.66 7387.66 2.130000 1.947955 266.291 37.9639 0.672443
7390.93 7390.92 2.140000 1.945970 267.286 38.1815 0.670180
7394.17 7394.18 2.150000 1.943830 268.38 38.4196 0.663531
7397.47 7397.47 2.160000 1.941169 269.115 38.6277 0.658009
7400.79 7400.78 2.180000 1.938181 271.584 39.099 0.666831
7404.11 7404.11 2.190000 1.934794 272.339 39.3405 0.670710
7407.45 7407.45 2.200000 1.931662 273.434 39.6226 0.677101
7410.82 7410.82 2.210000 1.927960 274.434 39.9148 0.678708
7414.2 7414.2 2.230000 1.924450 276.515 40.359 0.685334
7417.6 7417.6 2.240000 1.920809 277.608 40.6665 0.693691
7421.03 7421.03 2.250000 1.917079 278.477 40.9462 0.704025
7424.48 7424.47 2.260000 1.913239 279.415 41.242 0.721633
7427.93 7427.93 2.280000 1.909088 281.589 41.7358 0.743147
7431.4 7431.4 2.290000 1.905026 282.458 42.0349 0.751119
7434.9 7434.9 2.300000 1.901512 283.549 42.3459 0.748790
7438.42 7438.42 2.310000 1.898433 284.225 42.5779 0.742619
7441.97 7441.96 2.330000 1.895941 286.38 43.0079 0.732216
7445.51 7445.51 2.340000 1.894014 279.732 42.0904 0.691249
7449.1 7449.09 2.350000 1.891455 288.952 43.589 0.702993
7452.69 7452.68 2.360000 1.888682 289.322 43.7661 0.698646
7456.29 7456.29 2.380000 1.885142 292.027 44.332 0.708389
7459.92 7459.92 2.390000 1.881118 292.68 44.6101 0.719313
7463.57 7463.57 2.400000 1.877131 293.557 44.9225 0.733179
7467.25 7467.24 2.410000 1.873846 289.383 44.4297 0.742957
7470.94 7470.93 2.430000 1.870665 297.208 45.7764 0.791433
7474.64 7474.64 2.440000 1.868138 298.072 46.0255 0.821525
7478.36 7478.36 2.450000 1.865845 298.837 46.2496 0.841534
7482.11 7482.11 2.460000 1.863177 299.623 46.4953 0.862516
7485.88 7485.87 2.480000 1.860444 301.974 46.9882 0.893914
7489.67 7489.66 2.490000 1.857481 302.522 47.2131 0.924135
7493.46 7493.46 2.500000 1.854611 303.595 47.5167 0.945550
7497.28 7497.28 2.510000 1.851835 304.315 47.762 0.959223
7501.12 7501.12 2.530000 1.848796 306.461 48.2451 0.963432
7504.98 7504.98 2.540000 1.845497 307.353 48.5454 0.964784
7508.86 7508.86 2.550000 1.842029 308.179 48.845 0.967953
7512.77 7512.76 2.560000 1.838321 310.182 49.3451 0.982509
7516.68 7516.68 2.580000 1.834742 312.508 49.8933 0.996913
7520.61 7520.61 2.590000 1.831343 313.43 50.2109 1.007817
7524.57 7524.57 2.600000 1.827818 314.237 50.518 1.016395
7528.54 7528.54 2.610000 1.824679 315.105 50.8168 1.024462
7532.54 7532.54 2.630000 1.821407 317.051 51.2982 1.035244
7536.55 7536.55 2.640000 1.818138 317.958 51.6135 1.040590
7540.58 7540.58 2.650000 1.814582 318.62 51.9051 1.055524
7544.64 7544.63 2.660000 1.811022 319.361 52.2115 1.066552
7548.71 7548.7 2.680000 1.807119 321.452 52.7587 1.082262
7552.79 7552.79 2.690000 1.803414 322.198 53.0774 1.090973
7556.9 7556.9 2.700000 1.799858 322.801 53.3661 1.088160
7561.02 7561.02 2.710000 1.796623 323.816 53.7075 1.082174
7565.17 7565.17 2.730000 1.793373 325.461 54.1561 1.090346
7569.33 7569.33 2.740000 1.790482 326.247 54.4441 1.105765
7573.52 7573.52 2.750000 1.787526 326.986 54.7289 1.127480
7577.73 7577.72 2.760000 1.784477 327.63 55.0041 1.155507
7581.95 7581.94 2.780000 1.781473 329.383 55.4648 1.193886
7586.19 7586.18 2.790000 1.778601 330.074 55.7411 1.218534
7590.45 7590.44 2.800000 1.775543 330.387 55.9649 1.236433
7594.73 7594.72 2.810000 1.772398 330.829 56.2162 1.249472
7599.03 7599.02 2.830000 1.769204 332.594 56.6969 1.266998
7603.35 7603.34 2.840000 1.765591 332.368 56.8634 1.271664
7607.67 7607.67 2.850000 1.762001 332.119 57.0251 1.288485
7612.03 7612.03 2.860000 1.758330 332.365 57.2771 1.307264
7616.41 7616.4 2.880000 1.754662 334.734 57.8975 1.334489
7620.8 7620.8 2.890000 1.751084 335.884 58.3045 1.345566
7625.22 7625.21 2.900000 1.747455 336.571 58.6363 1.351591
7629.64 7629.64 2.910000 1.743952 337.071 58.9293 1.362042
7634.1 7634.09 2.930000 1.740617 338.439 59.3665 1.382928
7638.57 7638.56 2.940000 1.737130 338.982 59.6694 1.407590
7643.06 7643.05 2.950000 1.733678 339.206 59.9151 1.430940
7647.56 7647.56 2.960000 1.730363 339.477 60.1623 1.452844
7652.09 7652.08 2.980000 1.727001 340.807 60.6012 1.471958
7656.63 7656.63 2.990000 1.723610 340.889 60.8216 1.484649
7661.19 7661.19 3.000000 1.720522 341.09 61.0457 1.494253
7665.79 7665.78 3.010000 1.717197 341.475 61.3181 1.502524
7670.38 7670.38 3.030000 1.714051 342.765 61.7438 1.509822
7675 7675 3.040000 1.710814 342.951 61.9777 1.512612
7679.64 7679.64 3.050000 1.707620 343.891 62.3461 1.517527
7684.3 7684.3 3.060000 1.704460 343.673 62.5041 1.531069
7688.98 7688.98 3.080000 1.701148 346.199 63.1721 1.559139
7693.68 7693.68 3.090000 1.697885 346.336 63.4038 1.575757
7698.4 7698.4 3.100000 1.694381 346.431 63.6439 1.596013
7703.13 7703.13 3.110000 1.690854 346.53 63.8869 1.614757
7707.89 7707.89 3.130000 1.686884 345.204 63.8957 1.630784
7712.67 7712.66 3.140000 1.683582 347.711 64.5726 1.663396
7717.47 7717.46 3.150000 1.680098 347.685 64.7932 1.687288
7722.28 7722.27 3.160000 1.676519 347.918 65.069 1.710229
7727.11 7727.1 3.180000 1.672864 348.761 65.4656 1.730159
7731.95 7731.95 3.190000 1.669056 348.821 65.7265 1.747552
7736.82 7736.82 3.200000 1.665577 348.457 65.8867 1.759982
7741.72 7741.71 3.210000 1.662124 349.644 66.34 1.782378
7746.62 7746.62 3.230000 1.658547 350.061 66.6571 1.801260
7751.54 7751.54 3.240000 1.655254 349.78 66.8232 1.815204
7756.49 7756.49 3.250000 1.651909 349.572 67.0072 1.828983
7761.45 7761.45 3.260000 1.648568 349.424 67.203 1.846465
7766.44 7766.44 3.280000 1.645179 350.265 67.5935 1.873139
7771.45 7771.44 3.290000 1.641679 350.027 67.7843 1.896203
7776.47 7776.46 3.300000 1.638141 349.753 67.9714 1.917293
7781.51 7781.5 3.310000 1.634761 349.487 68.1497 1.932697
7786.56 7786.56 3.330000 1.631407 350.127 68.5037 1.955060
7791.64 7791.64 3.340000 1.628008 349.783 68.6696 1.970012
7796.74 7796.74 3.350000 1.624680 349.485 68.8396 1.982164
7801.86 7801.86 3.360000 1.620994 349.053 69.0085 1.998021
7806.99 7806.99 3.380000 1.617213 349.682 69.3947 2.013653
7812.15 7812.15 3.390000 1.613732 349.13 69.5268 2.028379
7817.32 7817.32 3.400000 1.610194 348.636 69.6745 2.039124
7822.53 7822.52 3.410000 1.606404 348.317 69.8752 2.057121
7827.73 7827.73 3.430000 1.602781 348.815 70.2289 2.078809
7832.96 7832.96 3.440000 1.599103 348.463 70.4165 2.090002
7838.21 7838.21 3.450000 1.595191 348.033 70.6055 2.107667
7843.49 7843.48 3.460000 1.591375 347.251 70.7164 2.125137
7848.77 7848.77 3.480000 1.587794 347.628 71.047 2.146268
7854.08 7854.08 3.490000 1.584172 345.014 70.7685 2.149414