File: xdidata/Fe/Fe-K-Petedunnite.xdi
# XDI/1.0 BlueSky/1.10.0 BMM/2023-1.0-py310-tiled
# Beamline.name: BMM (06BM) -- Beamline for Materials Measurement (NIST)
# Beamline.xray_source: NSLS-II three-pole wiggler
# Beamline.collimation: paraboloid mirror, 5 nm Rh on 30 nm Pt
# Beamline.focusing: not in use
# Beamline.harmonic_rejection: flat mirror, Si stripe, pitch = 7.0 mrad relative to beam
# Beamline.software: Bluesky 1.10.0, Ophyd 1.7.0, DataBroker 2.0.0b13, Python 3.10.8, 2023-1.0-py310-tiled
# Detector.I0: 10 cm N2
# Detector.I1: 25 cm N2
# Detector.I2: 25 cm N2
# Detector.fluorescence: SII Vortex ME4 (4-element silicon drift)
# Detector.deadtime_correction: Xspress3
# Element.symbol: Fe
# Element.edge: K
# Element.reference: Fe
# Element.reference_material: Fe foil
# Facility.name: NSLS-II
# Facility.energy: 3.0
# Facility.current: 400.1
# Facility.mode: top-off
# Facility.GUP: 301027
# Facility.SAF: 310583
# Facility.cycle: 2023-2
# Mono.name: Si(111)
# Mono.d_spacing: 3.13519
# Mono.encoder_resolution: 0.0000050 deg/ct
# Mono.angle_offset: 16.0754 deg
# Mono.scan_mode: pseudo channel cut
# Mono.scan_type: step
# Mono.direction: forward in energy
# Sample.name: Ca(Zn,Mn,Fe,Mg)Si2O6
# Sample.prep: powder on tape
# Sample.x: 119.711 mm
# Sample.y: 114.376 mm
# Sample.SDD_position: 25.000 mm
# Scan.experimenters: Bruce Ravel
# Scan.edge_energy: 7112.0
# Scan.start_time: 2023-06-27T10:25:12
# Scan.end_time: 2023-06-27T10:42:39
# Scan.transient_id: 85117
# Scan.uid: 02ad399c-7d5d-432b-9c44-3b78d3ef97ef
# Scan.plot_hint: (Fe1+Fe2+Fe3+Fe4)/I0  --  ($8+$9+$10+$11)/$5
# Column.1: energy eV
# Column.2: requested_energy eV
# Column.3: measurement_time seconds
# Column.4: xmu
# Column.5: I0 nA
# Column.6: It nA
# Column.7: Ir nA
# Column.8: Fe1
# Column.9: Fe2
# Column.10: Fe3
# Column.11: Fe4
# ///////////
# sample courtesy Martin Stennett, University of Sheffield
# -----------
# energy  requested_energy  measurement_time  xmu  I0  It  Ir  Fe1  Fe2  Fe3  Fe4
  6912.001  6912.000  2.000  20.8242  591.614  224.975  41.035  3508.9  3111.33  2606.28  3093.36
  6922.011  6922.000  2.000  20.6542  592.005  226.684  41.6446  3454.45  3151.33  2538.27  3083.36
  6932.019  6932.000  2.000  20.5603  592.782  228.598  42.2989  3497.83  3124.33  2643.28  2922.34
  6942.015  6942.000  2.000  20.4644  593.734  230.575  42.9713  3414.42  3264.35  2510.27  2961.35
  6952.018  6952.000  2.000  20.4479  594.526  232.505  43.6407  3441.82  3030.32  2642.28  3042.36
  6962.014  6962.000  2.000  20.41  595.44  234.487  44.3206  3526.96  3115.34  2592.28  2918.35
  6972.010  6972.000  2.000  20.3464  596.472  236.527  45.0238  3470.07  3150.35  2546.28  2969.36
  6982.012  6982.000  2.000  20.0415  597.112  238.335  45.682  3376.02  3107.34  2603.29  2880.35
  6992.006  6992.000  2.000  20.0566  597.901  240.341  46.3865  3321.87  3110.35  2524.28  3035.37
  7002.004  7002.000  2.000  20.2974  598.517  242.215  47.0676  3324.27  3109.35  2619.3  3095.39
  7012.004  7012.000  2.000  20.2492  599.05  244.091  47.753  3359.25  3172.36  2590.3  3008.38
  7022.005  7022.000  2.000  19.818  599.671  245.963  48.4377  3349.23  3080.35  2542.29  2912.37
  7032.004  7032.000  2.000  20.0304  600.156  247.836  49.1244  3363.33  3144.36  2575.3  2938.37
  7042.002  7042.000  2.000  20.0019  600.612  249.661  49.8013  3363.33  3174.37  2629.31  2846.37
  7052.003  7052.000  2.000  20.0274  600.934  251.459  50.4665  3369.07  3042.36  2634.31  2989.39
  7062.002  7062.000  2.000  20.4583  601.563  253.41  51.1488  3332.83  3169.38  2808.34  2996.39
  7072.003  7072.000  2.000  20.412  601.323  254.959  51.7205  3430.08  3184.38  2708.33  2951.39
  7081.997  7082.000  2.000  20.3292  601.827  256.816  52.2948  3380.58  3171.38  2689.33  2993.4
  7084.000  7084.000  2.000  20.451  597.185  255.127  51.977  3362.91  3143.38  2702.33  3004.4
  7085.997  7086.000  2.000  20.1831  601.328  257.191  52.4171  3333.56  3143.38  2751.34  2908.39
  7088.005  7088.000  2.000  21.1208  601.512  257.629  52.517  3532.24  3213.39  2864.35  3094.41
  7090.000  7090.000  2.000  20.5791  601.597  258.005  52.5945  3433.2  3209.39  2706.33  3031.41
  7091.999  7092.000  2.000  20.5625  601.548  258.305  52.6452  3433.2  3209.39  2706.33  3020.41
  7093.997  7094.000  2.000  20.7937  601.469  258.616  52.6791  3471.65  3151.39  2783.34  3100.42
  7096.005  7096.000  2.000  20.6954  601.434  258.938  52.692  3394.81  3151.39  2819.35  3081.41
  7098.003  7098.000  2.000  20.9657  601.501  259.325  52.6876  3496.76  3171.38  2868.35  3074.41
  7100.001  7100.000  2.000  21.0688  601.597  259.738  52.6481  3313.73  3273.4  2891.35  3196.44
  7101.999  7102.000  2.000  21.4058  601.561  259.98  52.5052  3453.67  3260.4  2926.36  3236.44
  7102.301  7102.300  2.000  21.7832  601.479  260.015  52.4755  3544.95  3261.4  3043.38  3252.44
  7102.596  7102.600  2.000  21.5008  601.426  260.021  52.442  3495.94  3350.41  2884.36  3200.43
  7102.891  7102.900  2.000  21.1546  601.421  260.045  52.4051  3430.67  3285.4  2891.36  3115.42
  7103.197  7103.200  2.000  21.5825  601.747  260.23  52.3975  3487.98  3296.41  3028.38  3174.43
  7103.490  7103.500  2.000  21.1957  603.149  260.921  52.4872  3468.97  3236.4  2952.37  3126.43
  7103.798  7103.800  2.000  21.8692  603.068  260.897  52.4271  3485.35  3365.42  2933.37  3404.47
  7104.099  7104.100  2.000  21.9039  603.078  260.971  52.3878  3515.54  3470.43  2960.37  3263.45
  7104.401  7104.400  2.000  21.6532  603.045  260.996  52.3305  3412.64  3411.42  3002.37  3231.44
  7104.698  7104.700  2.000  21.7504  603  260.976  52.2654  3474.27  3371.41  3031.37  3238.44
  7105.004  7105.000  2.000  21.8714  602.966  261.06  52.2098  3562.49  3528.43  2933.36  3163.43
  7105.298  7105.300  2.000  22.0841  602.969  261.129  52.1486  3606.76  3404.42  3015.38  3289.45
  7105.597  7105.600  2.000  21.5353  602.902  261.112  52.0592  3428.44  3340.42  2948.37  3266.45
  7105.897  7105.900  2.000  22.1599  602.919  261.164  51.9785  3628.35  3459.43  3003.38  3269.45
  7106.201  7106.200  2.000  22.3039  602.896  261.236  51.8895  3514.67  3589.44  3034.38  3308.45
  7106.501  7106.500  2.000  22.2049  602.875  261.237  51.7834  3603.54  3529.43  2962.37  3291.45
  7106.802  7106.800  2.000  22.6281  602.862  261.283  51.6721  3563.33  3469.43  3181.4  3427.47
  7107.102  7107.100  2.000  22.4022  602.781  261.318  51.5488  3563.33  3585.45  3025.38  3329.45
  7107.406  7107.400  2.000  22.8982  602.729  261.295  51.3921  3619.1  3505.43  3222.41  3454.48
  7107.706  7107.700  2.000  22.4983  602.759  261.412  51.2457  3690.77  3494.43  3058.38  3317.46
  7108.008  7108.000  2.000  22.7322  602.729  261.521  51.0693  3726.06  3503.44  3139.39  3332.46
  7108.306  7108.300  2.000  23.2018  602.688  261.498  50.8504  3761.14  3657.46  3189.4  3375.46
  7108.606  7108.600  2.000  23.1573  602.677  261.556  50.6079  3696.04  3631.45  3208.4  3420.47
  7108.908  7108.900  2.000  23.4331  602.629  261.575  50.321  3747.08  3627.45  3250.41  3496.49
  7109.208  7109.200  2.000  23.6534  602.613  261.618  49.9834  3817.49  3686.46  3194.4  3555.49
  7109.503  7109.500  2.000  23.9149  602.627  261.658  49.5797  3742.33  3794.48  3271.42  3603.5
  7109.803  7109.800  2.000  24.4713  602.545  261.666  49.0556  3878.63  3862.48  3328.42  3675.51
  7110.099  7110.100  2.000  24.7012  602.524  261.798  48.417  3878.63  3819.48  3482.44  3702.52
  7110.406  7110.400  2.000  25.1248  602.466  261.734  47.5003  4050.38  3819.48  3419.43  3847.53
  7110.706  7110.700  2.000  26.7199  602.404  261.735  46.3165  4218.61  4180.53  3710.47  3986.56
  7111.010  7111.000  2.000  27.5641  602.279  261.761  44.6431  4465.69  4346.56  3740.48  4048.57
  7111.304  7111.300  2.000  29.1772  602.232  261.796  42.3661  4586.75  4643.59  4124.53  4216.59
  7111.608  7111.600  2.000  31.9756  602.147  261.78  39.1371  5002.08  5081.66  4538.59  4631.66
  7111.911  7111.900  2.000  35.1593  602.036  261.769  35.3086  5443  5585.74  4974.66  5163.75
  7112.209  7112.200  2.000  38.986  601.978  261.793  31.4364  5937.31  6067.8  5630.75  5832.84
  7112.507  7112.500  2.000  42.1901  601.867  261.853  28.1339  6519.19  6572.88  6086.83  6213.92
  7112.811  7112.800  2.000  43.5706  601.827  261.844  25.5864  6519.19  6572.88  6560.9  6568.98
  7113.107  7113.100  2.000  47.0144  601.737  261.762  23.6965  6892.25  7484.03  6886.96  7027.06
  7113.414  7113.400  2.000  48.9733  601.682  261.795  22.1973  7511.22  7625.06  7098.99  7231.1
  7113.706  7113.700  2.000  51.308  601.644  261.794  21.0009  7846.83  8054.12  7447.04  7521.15
  7114.010  7114.000  2.000  52.5498  601.6  261.848  19.9067  7994.55  8243.16  7720.09  7656.17
  7114.302  7114.300  2.000  54.698  601.637  261.913  18.9669  8363.75  8577.21  7907.13  8060.25
  7114.613  7114.600  2.000  55.7001  601.685  262.01  18.0817  8485.28  8601.22  8084.15  8343.3
  7114.914  7114.900  2.000  56.9769  601.657  262.05  17.3409  8637.8  8951.26  8317.18  8374.3
  7115.223  7115.200  2.000  58.4936  601.665  262.094  16.7313  8781.66  9167.31  8541.24  8703.36
  7115.500  7115.500  2.000  58.4836  601.703  262.126  16.2837  8789.85  9178.31  8599.24  8622.34
  7115.817  7115.800  2.000  59.1539  601.639  262.152  15.9052  8938.31  9352.35  8503.22  8795.39
  7116.114  7116.100  2.000  59.7595  601.661  262.248  15.6589  9050.99  9325.33  8794.26  8784.37
  7116.421  7116.400  2.000  60.4062  601.724  262.358  15.4709  9020.8  9610.38  8847.28  8869.4
  7116.715  7116.700  2.000  60.5015  601.667  262.322  15.3303  9122.72  9472.36  8847.28  8959.41
  7117.024  7117.000  2.000  60.9376  601.663  262.373  15.1618  9159.76  9542.39  8879.31  9082.44
  7117.318  7117.300  2.000  61.7604  601.649  262.4  14.952  9386.93  9699.41  9054.31  9017.43
  7117.739  7117.600  2.000  63.2336  601.546  262.402  14.564  9444.6  10026.5  9228.35  9338.48
  7117.982  7117.900  2.000  63.6485  601.552  262.466  14.1299  9719.51  9944.47  9254.37  9369.5
  7118.259  7118.200  2.000  66.2838  601.461  262.416  13.4999  9774.54  10471.5  9811.45  9809.58
  7118.528  7118.500  2.000  69.005  601.387  262.502  12.6833  10326.9  10823.6  10131.5  10216.7
  7118.826  7118.800  2.000  70.5712  601.27  262.5  11.8949  10591.4  11105.7  10293.5  10441.7
  7119.144  7119.100  2.000  73.6782  601.17  262.537  11.0528  10843.9  11711.8  10946.7  10790.8
  7119.432  7119.400  2.000  77.3108  601.134  262.49  10.2312  11460.6  11908.8  11516.8  11587.9
  7119.731  7119.700  2.000  80.0677  600.857  262.415  9.506156  11852.5  12606.9  11848.8  11801
  7120.023  7120.000  2.000  84.1253  600.734  262.463  8.754967  12481.8  13145.1  12594  12316.1
  7120.320  7120.300  2.000  87.0035  602.176  263.042  8.116327  12955  13709.2  12773  12954.2
  7120.627  7120.600  2.000  91.5796  602.122  263.012  7.391696  13579.2  14425.3  13531.2  13606.4
  7120.896  7120.900  2.000  95.6728  601.897  262.955  6.822916  14059.9  15102.5  14302.3  14120.5
  7121.208  7121.200  2.000  98.9232  601.818  263.011  6.240798  14741.1  15102.5  14819.5  14870.7
  7121.511  7121.500  2.000  103.746  601.777  263.058  5.724139  15293.8  16332.7  15460.6  15344.8
  7121.801  7121.800  2.000  107.947  601.723  263.01  5.293351  15922.6  16900.9  16108.7  16022
  7122.109  7122.100  2.000  112.085  601.668  262.963  4.898028  16507.9  17451  16798.9  16680.1
  7122.401  7122.400  2.000  114.988  601.572  262.954  4.577944  16924.5  18175.2  17062  17012.2
  7122.707  7122.700  2.000  120.604  601.492  262.937  4.289460  17869.5  18914.3  17982.2  17776.4
  7123.004  7123.000  2.000  125.125  601.481  262.973  4.048136  18247  19671.5  18773.4  18568.6
  7123.307  7123.300  2.000  129.463  601.417  262.944  3.835358  19332.8  20260.6  19208.5  19059.7
  7123.604  7123.600  2.000  134.811  601.455  262.98  3.658292  19578.4  21076.9  20404.8  20023
  7123.909  7123.900  2.000  139.898  601.385  263.043  3.500971  20336.6  22213.2  20925.9  20657.1
  7124.200  7124.200  2.000  144.279  601.303  262.957  3.362608  21209.9  22359.2  21835.1  21351.3
  7124.508  7124.500  2.000  148.639  601.228  263.001  3.231824  21704.6  23238.4  22484.3  21938.5
  7124.803  7124.800  2.000  154.106  601.224  263.002  3.115642  22466.2  24118.6  23278.5  22788.7
  7125.102  7125.100  2.000  159.058  601.184  263.039  3.006354  23218.7  24792.9  23961.8  23650
  7125.397  7125.400  2.000  161.746  601.057  262.99  2.909250  23816.6  25319  24362.8  23720
  7125.700  7125.700  2.000  166.45  600.993  263.04  2.817508  24265  25868.1  25183.1  24719.3
  7125.999  7126.000  2.000  168.774  600.951  263.036  2.733493  24883.9  25868.1  25581.2  25091.4
  7126.307  7126.300  2.000  173.156  600.876  263.033  2.649542  25365  27242.6  25859.3  25578.6
  7126.605  7126.600  2.000  174.309  600.838  263.009  2.569856  25365  27242.6  26545.5  25578.6
  7126.904  7126.900  2.000  181.131  600.8  263.047  2.489130  26232.3  28235.8  27603.7  26751.9
  7127.203  7127.200  2.000  183.02  600.708  263.062  2.408629  26904.8  28405.9  27710.8  26920
  7127.509  7127.500  2.000  189.08  600.608  263.019  2.321161  27554.3  29343.2  28585.1  28080.4
  7127.806  7127.800  2.000  192.778  600.514  262.978  2.236843  28078.9  30050.4  29022.2  28614.6
  7128.110  7128.100  2.000  195.799  600.451  262.984  2.149878  28078.9  30050.4  30000.6  29437.8
  7128.401  7128.400  2.000  203.945  600.424  263.014  2.063819  29182.8  31896  31133.9  30241.1
  7128.705  7128.700  2.000  206.898  600.297  262.993  1.970798  29854.1  32133.1  31336  30877.3
  7129.002  7129.000  2.000  214.08  600.238  262.985  1.876972  31161.3  33274.5  32389.3  31673.6
  7129.304  7129.300  2.000  216.944  600.143  262.95  1.781351  31376.6  34040.7  32623.4  32156.8
  7129.597  7129.600  2.000  221.123  600.073  262.954  1.692996  32046.3  34424.8  33322.6  32896
  7129.897  7129.900  2.000  223.335  600.007  262.908  1.608006  32228.5  34915  33750.9  33108.2
  7130.196  7130.200  2.000  225.567  599.89  262.916  1.534757  32488.2  35301.1  34305  33221.2
  7130.507  7130.500  2.000  227.913  599.805  262.952  1.468279  33121  35542.2  34373.1  33667.4
  7130.800  7130.800  2.000  229.006  599.7  262.947  1.415592  32799.9  35636.3  34761.2  34137.6
  7131.108  7131.100  2.000  229.708  599.611  262.886  1.373482  33371.9  35518.2  34449  34396.5
  7131.402  7131.400  2.000  231.61  599.518  262.864  1.347044  33533.9  35810.4  35180.4  34329.6
  7131.708  7131.700  2.000  229.727  599.391  262.889  1.337819  32957  35665.3  34837.3  34236.6
  7132.005  7132.000  2.000  228.534  599.292  262.979  1.346171  32997  35418.2  34678.2  33865.4
  7132.310  7132.300  2.000  225.447  599.247  263.021  1.370372  32462.2  35027.1  34375.9  33233.2
  7132.601  7132.600  2.000  224.262  599.242  263.041  1.406506  32400.1  34878  33699.8  33409.3
  7132.905  7132.900  2.000  222.283  599.202  263.146  1.456624  31944.9  34591.9  33821.8  32834.1
  7133.203  7133.200  2.000  220.338  599.171  263.176  1.515455  31616  34243.8  33415.6  32745
  7133.507  7133.500  2.000  219.729  599.076  263.221  1.584700  31628.2  34110.8  33377.7  32517.9
  7133.798  7133.800  2.000  218.065  599.107  263.249  1.655260  31410.8  33553.6  33166.7  32512.9
  7134.100  7134.100  2.000  217.692  599.05  263.247  1.729745  31338.4  34218.8  32844.5  32006.8
  7134.398  7134.400  2.000  216.717  599.14  263.322  1.801540  31092.8  33633.6  32867.5  32249.8
  7134.707  7134.700  2.000  215.208  599.126  263.383  1.871725  31113.9  33322.5  32683.4  31816.7
  7135.001  7135.000  2.000  214.387  599.169  263.487  1.936828  30803.2  33249.5  32672.4  31728.6
  7135.303  7135.300  2.000  213.804  599.13  263.453  1.997732  31044.3  33224.5  32131.3  31696.6
  7135.601  7135.600  2.000  212.194  599.066  263.501  2.051982  30510  33096.4  32081.2  31430.6
  7135.910  7135.900  2.000  209.933  599.127  263.623  2.100966  30398.8  32549.2  31707.1  31121.5
  7136.203  7136.200  2.000  208.503  599.048  263.697  2.139133  29931.6  32472.2  31429.1  31070.4
  7136.508  7136.500  2.000  206.727  599.004  263.654  2.169927  29740.7  32161.1  31246  30682.3
  7136.801  7136.800  2.000  205.95  598.98  263.688  2.191043  29860.7  31885  30950.9  30663.3
  7137.005  7137.000  2.000  205.682  599.016  263.739  2.202272  29774.6  32038.1  31193.9  30200.2
  7138.005  7137.990  2.000  202.016  599.023  263.957  2.208060  29095.7  31352.9  30603.8  29960.1
  7139.012  7138.990  2.000  202.206  598.972  264.112  2.142451  29067.9  31668  30487.8  29892.1
  7140.036  7140.010  2.000  200.768  599.026  264.293  2.039611  28774.6  31286.8  30507.7  29696
  7141.063  7141.060  2.000  200.487  599.015  264.429  1.950473  28790.4  31323.8  30439.6  29540.9
  7142.128  7142.120  2.000  199.357  599.055  264.607  1.909789  28790.4  30884.7  30101.6  29648.9
  7143.214  7143.200  2.000  199.277  599.068  264.857  1.922370  28805  30802.7  30157.7  29615
  7144.315  7144.300  2.000  195.591  599.107  265.022  1.960406  28043.4  30755.7  29515.4  28865.7
  7145.435  7145.420  2.000  192.509  599.148  265.264  1.978775  28001.2  29889.4  29106.3  28344.6
  7146.565  7146.560  2.000  190.531  599.279  265.482  1.941473  27379  29815.4  29103.3  27883.4
  7147.718  7147.710  2.000  190.062  600.118  266.089  1.846080  27445.4  29542.3  28903.2  28168.5
  7148.908  7148.890  2.000  189.965  601.055  266.704  1.723365  27445.4  29542.3  28903.2  28288.5
  7150.091  7150.080  2.000  188.987  601.056  266.904  1.624957  27433.9  29537.3  28449.1  28171.5
  7151.306  7151.300  2.000  187.843  601.131  267.153  1.565169  27305.6  29311.3  28756.2  27545.3
  7152.538  7152.530  2.000  185.694  601.113  267.352  1.529441  26809.8  29124.2  28164  27525.3
  7153.795  7153.780  2.000  184.658  601.031  267.5  1.505108  26935.5  28757.1  28123.1  27169.2
  7155.060  7155.050  2.000  182.405  601.006  267.695  1.506216  26471.4  28625  27308.8  27221.2
  7156.355  7156.340  2.000  182.584  601.058  267.932  1.530984  26559.7  28883  27375.8  26925.1
  7157.665  7157.650  2.000  182.358  601.008  268.182  1.561478  26425.4  28525  27532.9  27115.2
  7158.993  7158.980  2.000  180.868  600.942  268.359  1.578397  26180.3  28093.9  27845.9  26571
  7160.337  7160.330  2.000  180.554  600.901  268.588  1.583812  26021.4  27899.8  27713.9  26860.1
  7161.714  7161.700  2.000  181.767  600.889  268.778  1.592161  26128.9  29001.1  27392.9  26699.1
  7163.087  7163.080  2.000  182.43  600.759  269.028  1.615548  26709.6  28529  27608.9  26749.1
  7164.497  7164.490  2.000  183.3  600.629  269.164  1.649224  26548.8  28759.1  27670  27117.2
  7165.920  7165.910  2.000  184.131  600.527  269.336  1.682493  26714.2  28724.1  27930.1  27207.3
  7167.355  7167.350  2.000  185.107  600.389  269.573  1.707574  27077.8  28669.1  27953  27436.3
  7168.818  7168.810  2.000  187.069  600.289  269.706  1.728442  27077.8  29087.2  28366.2  27764.4
  7170.303  7170.290  2.000  187.557  600.212  269.906  1.755778  27188.1  29162.3  28380.2  27843.4
  7171.804  7171.790  2.000  190.18  600.149  270.12  1.800501  27418.1  29689.4  28737.3  28291.6
  7173.327  7173.310  2.000  190.918  600.122  270.388  1.874548  27510.8  29809.5  28915.3  28338.6
  7174.858  7174.850  2.000  192.619  600.01  270.57  1.970280  27983.9  30147.6  28896.3  28545.7
  7176.422  7176.410  2.000  192.595  599.922  270.816  2.087078  27866.1  30091.5  29199.4  28384.6
  7177.998  7177.980  2.000  192.528  599.882  271.044  2.208510  27769.5  30228.6  29075.4  28420.7
  7179.587  7179.580  2.000  192.031  599.828  271.326  2.305372  27859.7  29815.5  29344.5  28165.6
  7181.197  7181.190  2.000  192.581  599.85  271.612  2.347331  27975  29904.5  29080.4  28559.7
  7182.841  7182.830  2.000  191.819  599.809  271.847  2.339770  27653.3  29944.6  29150.4  28306.7
  7184.494  7184.480  2.000  192.119  599.687  271.986  2.303266  27668.7  29699.4  29312.5  28530.7
  7186.157  7186.150  2.000  192.521  599.703  272.325  2.231713  27442.9  30380.6  29158.4  28473.7
  7187.853  7187.840  2.000  191.901  599.618  272.554  2.125786  27442.9  29853.5  29255.5  28515.7
  7189.563  7189.550  2.000  193.579  599.653  272.909  2.016340  27724.2  30432.7  29033.4  28889.8
  7191.294  7191.280  2.000  194.985  599.504  273.115  1.901367  28132.3  30100.6  29727.6  28933.8
  7193.046  7193.030  2.000  195.296  591.795  269.819  1.768623  28132.3  30036.5  29094.4  28311.7
  7194.798  7194.790  2.000  195.863  598.546  273.187  1.731827  28343.8  30524.7  29619.6  28744.8
  7196.589  7196.580  2.000  195.735  598.773  273.631  1.749452  28343.8  30542.8  29512.6  28801.9
  7198.383  7198.380  2.000  195.752  598.748  273.854  1.825706  28365.6  30542.8  29471.5  28825.9
  7200.224  7200.210  2.000  194.99  598.651  274.134  1.946958  27843.6  30385.8  29666.6  28834.9
  7202.059  7202.050  2.000  193.181  598.541  274.401  2.095937  28069.8  30243.7  29106.5  28206.7
  7203.920  7203.910  2.000  192.69  598.495  274.714  2.272086  27640.9  29780.5  29325.5  28576.8
  7205.795  7205.790  2.000  189.243  598.325  274.912  2.453768  27153.8  29795.5  28498.3  27781.6
  7207.708  7207.690  2.000  188.696  598.194  275.171  2.573185  27229.5  29427.4  28309.3  27910.6
  7209.616  7209.610  2.000  188.931  598.028  275.429  2.548415  27229.6  29492.5  28548.4  27715.5
  7211.564  7211.550  2.000  189.873  597.914  275.703  2.343538  27471.3  29568.5  28651.3  27836.6
  7213.516  7213.510  2.000  193.687  597.803  275.93  2.013864  28033.4  29940.6  29493.6  28318.7
  7215.491  7215.480  2.000  195.993  597.662  276.206  1.680993  28371.5  30570.8  29598.6  28596.8
  7217.489  7217.480  2.000  198.653  597.568  276.514  1.425365  28578  30887.9  30093.8  29149.1
  7219.502  7219.490  2.000  200.643  597.348  276.707  1.272564  28778.4  31365.1  30173.8  29536.2
  7221.533  7221.520  2.000  200.588  597.333  277.064  1.223501  28818.5  31353.1  30261.9  29384.1
  7223.595  7223.580  2.000  200.107  597.207  277.308  1.277281  28701.6  31185  30058.8  29560.2
  7225.658  7225.650  2.000  198.3  596.96  277.569  1.423791  28338.4  30775.9  30028.8  29234.1
  7227.757  7227.740  2.000  195.651  594.268  276.682  1.634489  28045.8  30271.8  29310.6  28640.9
  7229.856  7229.850  2.000  191.202  597.307  278.458  1.911075  27469.6  29586.6  28818.5  28331.8
  7231.989  7231.980  2.000  188.943  597.134  278.723  2.214483  27179.6  29341.5  28547.4  27755.6
  7234.128  7234.120  2.000  187.113  597  279.051  2.510725  26974.5  28874.3  28325.3  27532.5
  7236.303  7236.290  2.000  186.254  596.87  279.333  2.746947  26834.1  28913.3  28065.2  27356.5
  7238.496  7238.480  2.000  185.224  596.825  279.692  2.872793  26546.4  28779.4  28015.3  27205.5
  7240.694  7240.680  2.000  185.773  596.745  280.041  2.887691  26581.4  28648.2  28366.3  27263.4
  7242.905  7242.900  2.000  187.409  596.558  280.269  2.807056  26877.3  28984.4  28413.4  27525.6
  7245.154  7245.150  2.000  189.61  588.294  276.741  2.637870  26778.5  29051.4  27960.1  27756.6
  7247.419  7247.410  2.000  191.719  596.009  280.715  2.547930  27493.6  29559.6  28787.5  28425.9
  7249.694  7249.690  2.000  191.521  596.106  281.126  2.481448  27484.6  29607.7  28915.5  28158.8
  7252.000  7251.990  2.000  192.455  595.8  281.402  2.491645  27484.6  29607.7  28976.6  28596
  7254.317  7254.310  2.000  191.469  592.085  280.058  2.547023  27436.5  29410.5  28629.4  27889.7
  7256.662  7256.650  2.000  193.521  596.594  282.572  2.638078  27570.2  30019.8  29256.6  28607
  7259.013  7259.000  2.000  193.169  595.985  282.752  2.638238  27672.6  30079.8  29051.6  28321.9
  7261.385  7261.380  2.000  192.023  594.73  282.527  2.569777  27433.7  29456.7  29099.7  28211.9
  7263.780  7263.770  2.000  193.698  581.892  276.819  2.442952  27541.9  29279.5  28374.3  27515.6
  7266.198  7266.190  2.000  194.754  585.656  278.97  2.406554  27609.1  29843.7  28669.5  27936.7
  7268.632  7268.620  2.000  195.828  597.494  284.908  2.397418  28148.1  30232.9  29484.8  29140.2
  7271.081  7271.070  2.000  195.236  597.367  285.268  2.298590  28071.8  30314.9  29376.8  28864.1
  7273.556  7273.550  2.000  197.037  595.96  285  2.172972  28217.3  30473  30048.9  28687.1
  7276.049  7276.040  2.000  198.44  597.832  286.411  2.102543  28454.4  30749.1  29901.9  29528.4
  7278.555  7278.550  2.000  197.519  597.602  286.662  2.063533  28242.5  30952.2  30009  28834.2
  7281.074  7281.070  2.000  198.79  597.345  286.974  2.013816  28463.6  30897.1  30145.1  29240.3
  7283.624  7283.620  2.000  199.094  598.041  287.73  1.946250  28792.2  31070.1  30044  29160.3
  7286.200  7286.190  2.000  202.705  597.865  288.099  1.876573  28865.6  31607.4  30885.3  29831.5
  7288.774  7288.770  2.000  200.811  598.588  288.821  1.841144  28897  31041.2  30365.2  29899.5
  7291.389  7291.380  2.000  201.037  598.518  289.201  1.886890  29040.3  31429.3  30364.2  29490.5
  7294.003  7294.000  2.000  198.177  598.454  289.62  2.039189  28358.4  30812.1  29924  29505.4
  7296.652  7296.650  2.000  196.489  598.312  290.006  2.254286  28358.2  30215  29800  29188.3
  7299.318  7299.310  2.000  195.809  598.045  290.388  2.481332  28393.5  30286  29734.9  28688.1
  7301.999  7301.990  2.000  194.559  588.049  285.945  2.640027  27636  29599.7  29078.7  28095.8
  7304.696  7304.690  2.000  192.627  598.356  291.382  2.851431  27846.9  30030.9  29119.8  28262.1
  7307.406  7307.410  2.000  192.212  598.198  291.803  2.966905  27733.1  29757.9  29099.8  28390.1
  7310.154  7310.150  2.000  191.718  598.027  292.144  3.024032  27587  29909.9  28755.6  28400.1
  7312.912  7312.900  2.000  191.701  597.877  292.561  3.031416  27563.1  29759.8  29050.8  28240
  7315.683  7315.680  2.000  192.582  597.663  292.845  3.030079  27753.3  29682.9  29265.9  28397.1
  7318.472  7318.470  2.000  191.592  597.56  293.304  3.045938  27553  29658.9  28729.8  28546.2
  7321.288  7321.290  2.000  192.739  597.421  293.665  3.064573  27847.8  29628.8  29188.8  28481.1
  7324.130  7324.120  2.000  192.519  597.239  294.072  3.080251  27738.2  30001  28992.7  28248.1
  7326.962  7326.970  2.000  192.543  597.135  294.553  3.090414  27428.4  30001  29312.8  28232.1
  7329.849  7329.850  2.000  191.984  596.982  294.925  3.106733  27629.8  29737.9  29064.9  28178.1
  7332.739  7332.740  2.000  191.444  596.861  295.356  3.159799  27517.7  29848  28734.7  28165.1
  7335.651  7335.650  2.000  191.22  596.8  295.808  3.240518  27500.1  29461.9  29061.9  28096.1
  7338.569  7338.570  2.000  191.036  596.395  296.063  3.293805  27158.4  29766.9  28886.8  28121.1
  7341.527  7341.520  2.000  191.096  595.37  296.059  3.279167  27337  29491.8  28855.8  28088.1
  7344.486  7344.490  2.000  193.066  595.905  296.821  3.186265  27582.7  29949  29217  28300.2
  7347.470  7347.470  2.000  193.335  595.864  297.278  3.028081  27843.4  29794  29447.9  28116.1
  7350.477  7350.480  2.000  196.424  595.811  297.717  2.866697  27975.5  30494.2  29656.1  28905.4
  7353.503  7353.500  2.000  196.558  595.69  298.255  2.731697  28397.7  30454.2  29563.1  28672.4
  7356.541  7356.550  2.000  198.14  595.572  298.648  2.619385  28261  30731.2  30067.1  28947.4
  7359.607  7359.610  2.000  199.243  595.419  299.05  2.524134  28628.8  30879.5  29986.3  29138.6
  7362.680  7362.690  2.000  200.019  595.199  299.499  2.452402  28600.8  30813.4  30224.3  29412.6
  7365.792  7365.790  2.000  200.359  595.008  299.888  2.420755  28600.8  30813.4  30224.3  29576.7
  7368.910  7368.910  2.000  200.251  594.817  300.342  2.443774  28452  30951.5  30238.4  29470.7
  7372.053  7372.050  2.000  199.909  594.637  300.796  2.535430  28502.2  30951.5  30121.3  29298.6
  7375.206  7375.200  2.000  200.051  594.412  301.149  2.711619  28502.2  30990.4  30121.3  29298.6
  7378.379  7378.380  2.000  196.332  594.124  301.55  2.984376  28213.9  30469.2  29255  28707.4
  7381.575  7381.570  2.000  195.37  593.89  301.939  3.316611  28213.9  29902.1  29567.1  28345.3
  7384.785  7384.790  2.000  194.108  593.552  302.344  3.599004  27893.5  29999.1  28902  28418.4
  7388.026  7388.020  2.000  193.536  593.305  302.733  3.733177  27468.4  29905.1  29213  28239.3
  7391.272  7391.270  2.000  193.222  593.037  303.127  3.737005  27255.2  29645.1  29331.1  28356.4
  7394.550  7394.550  2.000  193.813  592.746  303.555  3.679625  27374.3  30167.2  29339  28001.2
  7397.846  7397.840  2.000  194.703  592.45  303.912  3.628610  27446.2  30215.3  29028  28662.5
  7401.157  7401.150  2.000  194.49  592.123  304.214  3.622984  27572.4  29969.2  29147.1  28473.4
  7404.469  7404.470  2.000  194.221  591.912  304.698  3.641390  27633.4  29750.1  29233  28345.4
  7407.824  7407.820  2.000  194.338  591.649  305.144  3.649116  27500.2  30022.2  29150  28307.4
  7411.189  7411.190  2.000  194.47  591.422  305.595  3.647491  27471.5  30201.2  29126.1  28215.4
  7414.578  7414.570  2.000  195.159  591.146  306.043  3.647145  27812.5  29696.2  29304.1  28554.5
  7417.985  7417.980  2.000  194.724  590.889  306.42  3.660871  27812.5  29870.2  29233.1  28144.4
  7421.406  7421.400  2.000  196.988  590.658  306.883  3.703782  28012.3  30308.3  29427.2  28604.6
  7424.856  7424.850  2.000  194.343  590.443  307.356  3.784367  27685.1  29585.1  29315.1  28163.4
  7428.315  7428.310  2.000  194.304  590.208  307.78  3.856438  27193.8  29988.3  29353.2  28144.4
  7431.795  7431.790  2.000  194.464  589.871  308.143  3.875001  27193.8  29822.3  29343.2  28349.5
  7435.289  7435.290  2.000  195.503  589.64  308.653  3.864001  27675.3  30078.4  28978.2  28544.6
  7438.807  7438.810  2.000  195.203  589.367  309.119  3.819973  27675.3  29966.3  29020.2  28384.6
  7442.350  7442.350  2.000  197.246  588.992  309.43  3.728197  28110.1  30187.3  29387.2  28491.6
  7445.910  7445.900  2.000  197.708  586.191  308.573  3.606010  27701.5  30004.3  29476.2  28712.6
  7449.483  7449.480  2.000  197.646  588.675  310.432  3.542773  27973.7  30125.4  29681.3  28568.6
  7453.091  7453.080  2.000  197.485  587.055  310.154  3.505681  27970.4  30188.5  29560.3  28215.5
  7456.693  7456.690  2.000  199.11  588.477  311.554  3.524232  28315.2  30465.5  29719.4  28671.7
  7460.319  7460.320  2.000  198.871  572.988  303.957  3.458330  27264.2  30019.2  28665  28002.4
  7463.983  7463.980  2.000  198.624  588.15  312.596  3.604395  28052.4  30593.6  29382.3  28792.8
  7467.648  7467.650  2.000  196.79  584.455  311.274  3.676232  27407.4  30130.4  29110.3  28366.6
  7471.340  7471.340  2.000  197.077  588.001  313.661  3.828641  27878  30139.5  29566.4  28297.7
  7475.060  7475.050  2.000  197.363  587.667  314.06  3.959422  27909.1  29903.4  29389.4  28781.8
  7478.782  7478.780  2.000  196.788  587.375  314.552  4.065333  27751.9  29907.5  29489.4  28439.7
  7482.526  7482.520  2.000  195.687  587.182  315.05  4.159414  27601.5  29804.4  29247.4  28250.6
  7486.298  7486.290  2.000  196.969  586.837  315.486  4.275990  27837.3  29956.5  29330.4  28464.7
  7490.081  7490.080  2.000  195.932  586.625  316.026  4.404020  27561.9  29725.3  29423.3  28227.6
  7493.880  7493.880  2.000  195.159  586.383  316.485  4.506160  27402.7  29799.4  29147.2  28088.6
  7497.710  7497.710  2.000  195.419  586.184  317.041  4.555738  27469.1  29575.3  29347.3  28159.6
  7501.548  7501.550  2.000  195.836  585.955  317.583  4.551598  27608.8  29898.5  29334.3  27909.6
  7505.417  7505.410  2.000  196.432  585.595  317.977  4.530839  27803.3  29699.5  29146.4  28380.8
  7509.300  7509.290  2.000  197.521  585.328  318.463  4.526758  27939.6  30173.6  29020.3  28480.8
  7513.201  7513.190  2.000  196.511  585.042  318.956  4.551193  27939.6  29888.5  29020.3  28118.7
  7517.118  7517.110  2.000  196.103  584.771  319.434  4.593945  27528.7  29888.5  29139.4  28118.7
  7521.059  7521.050  2.000  196.804  586.059  320.845  4.645509  27669.2  29815.5  29441.4  28412.8
  7525.016  7525.010  2.000  196.794  585.769  321.277  4.667021  27303.8  30375.7  29214.4  28381.8
  7528.980  7528.980  2.000  197.519  585.563  321.889  4.674316  27724.6  30095.7  29425.6  28413.9
  7532.977  7532.980  2.000  196.673  585.267  322.387  4.675975  27474.9  30336.8  28930.5  28363.9
  7536.989  7536.990  2.000  197.729  584.957  322.726  4.694637  27458.7  30159.7  29322.6  28722
  7541.031  7541.030  2.000  198.208  584.639  323.23  4.735888  27745  30051.7  29692.6  28390.9
  7545.083  7545.080  2.000  197.583  584.337  323.781  4.779834  27651.6  30296.7  29169.5  28336.9
  7549.156  7549.150  2.000  197.782  584.094  324.257  4.815419  27649.9  30003.7  29315.5  28554
  7553.239  7553.240  2.000  198.592  583.752  324.734  4.826800  27921.2  30042.8  29304.6  28660.1
  7557.358  7557.350  2.000  198.757  583.485  325.251  4.802209  27921.2  30042.8  29304.6  28703.1
  7561.484  7561.480  2.000  198.13  583.22  325.749  4.769516  27536.1  30143.8  29351.6  28522
  7565.634  7565.630  2.000  199.9  582.892  326.267  4.761850  27702.1  30383.8  29567.7  28866.1
  7569.792  7569.790  2.000  198.945  582.633  326.753  4.797467  27713.5  30260.8  29446.6  28491
  7573.983  7573.980  2.000  199.439  582.269  327.237  4.879588  27923.8  30094.8  29599.7  28509.1
  7578.182  7578.180  2.000  199.311  582.072  327.798  4.996970  27868.4  30158.9  29344.7  28641.2
  7582.415  7582.410  2.000  198.916  581.704  328.362  5.127767  27652.5  30158.9  29524.7  28374.1
  7586.650  7586.650  2.000  198.209  581.289  328.724  5.232859  27606.1  29759.7  29508.7  28342
  7590.907  7590.910  2.000  198.644  580.83  329.278  5.308455  27620.5  30175.9  29171.7  28410.1
  7595.192  7595.190  2.000  199.14  580.274  329.618  5.352017  27714.1  30050.8  29239.7  28551.2
  7599.489  7599.490  2.000  198.469  579.609  329.906  5.373467  27714.1  29652.7  29198.7  28469.2
  7603.811  7603.810  2.000  199.01  577.409  329.34  5.390249  27532.5  29854.8  29267.7  28255.1
  7608.150  7608.150  2.000  198.669  577.132  329.868  5.448219  27714.8  29987.9  28934.6  28021
  7612.509  7612.510  2.000  198.289  576.337  330.115  5.520055  27248.9  29868.8  29066.6  28097
  7616.890  7616.890  2.000  198.833  576.634  330.974  5.592551  27571.7  29745.8  29146.6  28190
  7621.275  7621.280  2.000  200.663  577.155  331.981  5.631556  27792.7  30233  29308.8  28479.3
  7625.701  7625.700  2.000  200.426  577.646  332.907  5.647909  27553.2  30458.1  29343.8  28420.3
  7630.131  7630.130  2.000  199.56  577.652  333.62  5.678725  27852.2  29728.9  29227.8  28467.3
  7634.581  7634.580  2.000  198.851  577.445  334.264  5.739197  27553.6  29967.9  29277.8  28026.1
  7639.051  7639.050  2.000  199.483  577.142  334.805  5.823570  27567.7  29951  29351.8  28259.2
  7643.541  7643.540  2.000  198.845  576.873  335.381  5.913133  27567.7  29678.9  29351.8  28110.2
  7648.052  7648.050  2.000  198.583  576.57  335.893  5.991463  27594.2  29606.9  29096.8  28199.3
  7652.584  7652.580  2.000  198.864  576.289  336.464  6.051190  27264.2  30004  29028.8  28306.3
  7657.133  7657.130  2.000  199.465  575.994  337.034  6.096789  27652.4  29709.9  29115.8  28412.4
  7661.698  7661.700  2.000  199.186  575.664  337.579  6.129067  27636.3  29709.9  28905.8  28412.4
  7666.284  7666.280  2.000  199.664  575.355  338.085  6.145371  27377.1  29942.1  29314  28244.4
  7670.893  7670.890  2.000  200.765  575.042  338.655  6.154423  27922.7  29889  29295  28341.4
  7675.516  7675.510  2.000  200.209  574.672  339.182  6.161204  27325.2  29921.1  29347  28461.4
  7680.166  7680.160  2.000  201.607  574.214  339.645  6.172541  27531.7  29958.2  29331  28944.6
  7684.820  7684.820  2.000  200.104  573.725  340.072  6.197375  27577.2  29841.1  29232  28154.4
  7689.501  7689.500  2.000  200.964  572.918  340.355  6.248558  27577.2  29896.2  29273  28389.5
  7694.204  7694.200  2.000  201.462  573.382  341.344  6.329719  27757.8  29956.2  29462.1  28338.5
  7698.921  7698.920  2.000  200.878  572.833  341.795  6.406612  27625.8  29914.2  29153  28376.5
  7703.662  7703.660  2.000  201.181  572.182  342.164  6.475509  27625.8  29865.1  29153  28468.5
  7708.409  7708.410  2.000  199.804  572.549  343.14  6.557884  27541.3  29633.1  29079  28144.4
  7713.198  7713.190  2.000  199.026  571.797  343.526  6.637852  27473.7  29597.1  28584.9  28146.5
  7717.990  7717.990  2.000  200.524  571.048  343.795  6.720407  27446.5  29499.1  29259  28304.5
  7722.801  7722.800  2.000  201.549  571.056  344.491  6.804564  27811.2  30038.3  29174  28072.5
  7727.631  7727.630  2.000  201.704  570.437  344.871  6.864134  27242.3  30025.3  29246.1  28545.7
  7732.495  7732.490  2.000  201.12  569.934  345.289  6.914094  27541.4  29699.2  29205.1  28179.5
  7737.364  7737.360  2.000  200.865  569.258  345.724  6.966250  27312.1  29652.2  29099.1  28280.6
  7742.256  7742.250  2.000  201.38  569.383  346.537  7.030001  27404  29810.3  29059.1  28388.7
  7747.168  7747.160  2.000  201.228  568.634  346.914  7.088009  27059.6  29751.3  29226.2  28387.7
  7752.091  7752.090  2.000  201.19  568.036  347.259  7.138974  27059.6  29751.3  29084.2  28387.7