File: xdidata/Fe/Fe-Ludwigite.xdi
# XDI/1.0 BlueSky/1.10.0 BMM/2023-1.0-py310-tiled
# Beamline.name: BMM (06BM) -- Beamline for Materials Measurement (NIST)
# Beamline.xray_source: NSLS-II three-pole wiggler
# Beamline.collimation: paraboloid mirror, 5 nm Rh on 30 nm Pt
# Beamline.focusing: not in use
# Beamline.harmonic_rejection: flat mirror, Si stripe, pitch = 7.0 mrad relative to beam
# Beamline.software: Bluesky 1.10.0, Ophyd 1.7.0, DataBroker 2.0.0b13, Python 3.10.8, 2023-1.0-py310-tiled
# Detector.I0: 10 cm N2
# Detector.I1: 25 cm N2
# Detector.I2: 25 cm N2
# Element.symbol: Fe
# Element.edge: K
# Element.reference: Fe
# Element.reference_material: Fe foil
# Facility.name: NSLS-II
# Facility.energy: 3.0
# Facility.current: 400.3
# Facility.mode: top-off
# Facility.GUP: 123456
# Facility.SAF: 301027
# Facility.cycle: 2023-2
# Mono.name: Si(111)
# Mono.d_spacing: 3.13519
# Mono.encoder_resolution: 0.0000050 deg/ct
# Mono.angle_offset: 16.0754 deg
# Mono.scan_mode: pseudo channel cut
# Mono.scan_type: step
# Mono.direction: forward in energy
# Sample.name: Mg2FeBO5
# Sample.prep: PEG pellet
# Sample.x: 142.329 mm
# Sample.y: 114.126 mm
# Sample.SDD_position: 205.000 mm
# Scan.experimenters: Bruce Ravel
# Scan.edge_energy: 7112.0
# Scan.start_time: 2023-05-05T20:47:37
# Scan.end_time: 2023-05-05T20:55:52
# Scan.transient_id: 74631
# Scan.uid: d33c9957-3997-43d3-a6a7-6366e3fd1f26
# Scan.plot_hint: ln(I0/It)  --  ln($5/$6)
# Column.1: energy eV
# Column.2: requested_energy eV
# Column.3: measurement_time seconds
# Column.4: xmu
# Column.5: I0 nA
# Column.6: It nA
# Column.7: Ir nA
# ///////////
# courtesy Martin Stennett, University of Sheffield
# -----------
# energy  requested_energy  measurement_time  xmu  I0  It  Ir
  6912.001  6912.000  0.500  1.398104  155.087  38.3166  7.186278
  6921.914  6922.000  0.500  1.389215  154.948  38.6241  7.294943
  6932.040  6932.000  0.500  1.380380  154.891  38.9526  7.409612
  6942.019  6942.000  0.500  1.371440  154.887  39.3012  7.529380
  6951.993  6952.000  0.500  1.363204  154.844  39.6152  7.641205
  6962.000  6962.000  0.500  1.354238  154.823  39.9665  7.763159
  6972.012  6972.000  0.500  1.345742  154.821  40.3072  7.883921
  6982.025  6982.000  0.500  1.337302  154.789  40.6403  8.003759
  6992.014  6992.000  0.500  1.328724  154.755  40.9815  8.125214
  7002.013  7002.000  0.500  1.320028  154.709  41.3271  8.249313
  7012.006  7012.000  0.500  1.311792  154.664  41.6567  8.369252
  7022.016  7022.000  0.500  1.303661  154.584  41.975  8.488433
  7032.010  7032.000  0.500  1.295232  154.525  42.3143  8.612864
  7042.013  7042.000  0.500  1.287085  154.443  42.6377  8.732984
  7052.007  7052.000  0.500  1.278972  154.339  42.9562  8.849191
  7062.006  7062.000  0.500  1.271025  153.624  43.0983  8.928249
  7072.009  7072.000  0.500  1.263233  154.114  43.5739  9.071000
  7081.976  7082.000  0.500  1.255899  154.027  43.87  9.165229
  7083.981  7084.000  0.500  1.254538  153.803  43.8657  9.168844
  7085.982  7086.000  0.500  1.253117  153.937  43.9664  9.191435
  7087.981  7088.000  0.500  1.251925  153.935  44.0183  9.205360
  7089.985  7090.000  0.500  1.250662  153.926  44.0714  9.215859
  7091.993  7092.000  0.500  1.249658  153.89  44.1053  9.218923
  7093.987  7094.000  0.500  1.248350  153.854  44.1526  9.223953
  7096.513  7096.000  0.500  1.247050  153.822  44.2009  9.219947
  7097.978  7098.000  0.500  1.246237  153.844  44.2431  9.214710
  7100.001  7100.000  0.500  1.245379  153.794  44.2667  9.193571
  7102.006  7102.000  0.500  1.244712  153.748  44.2831  9.159207
  7102.288  7102.300  0.500  1.244525  153.747  44.2912  9.153460
  7102.587  7102.600  0.500  1.244667  153.742  44.2833  9.144571
  7102.887  7102.900  0.500  1.244418  153.729  44.2906  9.137370
  7103.195  7103.200  0.500  1.244299  153.723  44.2941  9.128678
  7103.488  7103.500  0.500  1.244584  153.706  44.2767  9.116267
  7103.785  7103.800  0.500  1.244369  153.7  44.2844  9.107487
  7104.084  7104.100  0.500  1.244494  153.699  44.2785  9.095585
  7104.386  7104.400  0.500  1.244450  153.685  44.2766  9.083415
  7104.686  7104.700  0.500  1.244459  153.668  44.2712  9.068008
  7104.985  7105.000  0.500  1.244494  153.683  44.274  9.054657
  7105.289  7105.300  0.500  1.244659  153.679  44.2655  9.036621
  7105.587  7105.600  0.500  1.244507  153.662  44.2675  9.019974
  7105.890  7105.900  0.500  1.244740  153.649  44.2534  8.998016
  7106.190  7106.200  0.500  1.244713  153.625  44.2475  8.974740
  7106.490  7106.500  0.500  1.244726  153.629  44.2482  8.952827
  7106.792  7106.800  0.500  1.244656  153.615  44.2472  8.926922
  7107.089  7107.100  0.500  1.245137  153.606  44.2234  8.893930
  7107.385  7107.400  0.500  1.245142  153.598  44.2209  8.860386
  7107.691  7107.700  0.500  1.245220  153.594  44.2161  8.822184
  7107.989  7108.000  0.500  1.245394  153.594  44.2087  8.777390
  7108.291  7108.300  0.500  1.245733  153.586  44.1914  8.723134
  7108.589  7108.600  0.500  1.245943  153.565  44.1761  8.660785
  7108.891  7108.900  0.500  1.246290  153.549  44.1559  8.587236
  7109.195  7109.200  0.500  1.246810  153.546  44.1322  8.494930
  7109.493  7109.500  0.500  1.247239  153.533  44.1094  8.379186
  7109.795  7109.800  0.500  1.247815  153.518  44.0799  8.225656
  7110.095  7110.100  0.500  1.248864  153.487  44.0246  8.011883
  7110.395  7110.400  0.500  1.249841  153.482  43.9804  7.715646
  7110.701  7110.700  0.500  1.251495  153.442  43.8963  7.293716
  7110.997  7111.000  0.500  1.253341  153.425  43.8105  6.763311
  7111.295  7111.300  0.500  1.256131  153.4  43.6811  6.120609
  7111.593  7111.600  0.500  1.259446  153.374  43.5292  5.455512
  7111.891  7111.900  0.500  1.263511  153.342  43.3437  4.847464
  7112.194  7112.200  0.500  1.268221  153.31  43.1309  4.364456
  7112.492  7112.500  0.500  1.273784  153.282  42.8839  4.001463
  7112.790  7112.800  0.500  1.279824  153.253  42.6175  3.724405
  7113.092  7113.100  0.500  1.286108  153.247  42.3489  3.494636
  7113.397  7113.400  0.500  1.291138  153.227  42.1309  3.297277
  7113.699  7113.700  0.500  1.293664  153.207  42.0191  3.128024
  7114.002  7114.000  0.500  1.293926  153.187  42.0026  2.981036
  7114.296  7114.300  0.500  1.293330  153.18  42.0259  2.857227
  7114.598  7114.600  0.500  1.292231  153.17  42.0694  2.754484
  7114.899  7114.900  0.500  1.291067  153.162  42.1161  2.677112
  7115.204  7115.200  0.500  1.290228  153.163  42.1515  2.617531
  7115.498  7115.500  0.500  1.289538  153.13  42.1718  2.577554
  7115.796  7115.800  0.500  1.290040  153.132  42.1511  2.545891
  7116.097  7116.100  0.500  1.291218  153.125  42.0995  2.517801
  7116.391  7116.400  0.500  1.293631  153.101  41.9915  2.487755
  7116.698  7116.700  0.500  1.297889  153.096  41.8118  2.442032
  7116.996  7117.000  0.500  1.302925  153.076  41.5962  2.379770
  7117.295  7117.300  0.500  1.309069  153.066  41.3386  2.292630
  7117.598  7117.600  0.500  1.317028  153.052  41.0072  2.176694
  7117.900  7117.900  0.500  1.327064  153.046  40.5961  2.037735
  7118.203  7118.200  0.500  1.339669  153.038  40.0855  1.879594
  7118.506  7118.500  0.500  1.354617  153.016  39.4851  1.719586
  7118.798  7118.800  0.500  1.371829  152.991  38.805  1.566209
  7119.099  7119.100  0.500  1.392071  152.969  38.022  1.418164
  7119.402  7119.400  0.500  1.415147  152.954  37.151  1.279657
  7119.703  7119.700  0.500  1.440101  152.944  36.2331  1.151680
  7119.995  7120.000  0.500  1.467717  152.918  35.2402  1.031558
  7120.296  7120.300  0.500  1.497505  152.902  34.2023  0.918685
  7120.595  7120.600  0.500  1.529348  152.876  33.1247  0.813204
  7120.894  7120.900  0.500  1.561865  152.858  32.0611  0.720955
  7121.199  7121.200  0.500  1.594377  152.846  31.0332  0.641862
  7121.500  7121.500  0.500  1.625700  152.793  30.0657  0.576551
  7121.797  7121.800  0.500  1.656214  152.791  29.1618  0.522022
  7122.098  7122.100  0.500  1.686402  152.775  28.2915  0.474670
  7122.401  7122.400  0.500  1.715255  152.746  27.4817  0.434897
  7122.705  7122.700  0.500  1.743154  152.716  26.7204  0.400331
  7123.001  7123.000  0.500  1.769790  152.681  26.0122  0.371085
  7123.301  7123.300  0.500  1.796549  152.663  25.3223  0.344774
  7123.600  7123.600  0.500  1.823287  152.633  24.6493  0.322202
  7123.901  7123.900  0.500  1.850678  152.595  23.9774  0.301812
  7124.206  7124.200  0.500  1.879502  152.566  23.2916  0.282597
  7124.495  7124.500  0.500  1.908688  152.529  22.6162  0.265141
  7124.796  7124.800  0.500  1.939687  152.683  21.9481  0.248728
  7125.097  7125.100  0.500  1.969788  152.996  21.3408  0.234028
  7125.399  7125.400  0.500  1.999023  152.955  20.7204  0.219963
  7125.702  7125.700  0.500  2.026036  152.921  20.1637  0.207636
  7125.999  7126.000  0.500  2.050519  152.871  19.6697  0.196696
  7126.301  7126.300  0.500  2.073567  152.821  19.2152  0.186069
  7126.607  7126.600  0.500  2.095851  152.786  18.7874  0.175861
  7126.904  7126.900  0.500  2.117852  152.755  18.3748  0.166122
  7127.203  7127.200  0.500  2.140946  152.717  17.9509  0.156581
  7127.503  7127.500  0.500  2.165813  152.684  17.5062  0.146491
  7127.798  7127.800  0.500  2.191816  152.632  17.0511  0.136956
  7128.099  7128.100  0.500  2.219914  152.583  16.5733  0.127274
  7128.401  7128.400  0.500  2.248974  152.555  16.0957  0.117744
  7128.705  7128.700  0.500  2.279195  152.525  15.6135  0.108895
  7128.996  7129.000  0.500  2.308986  152.485  15.1512  0.100388
  7129.295  7129.300  0.500  2.338107  152.447  14.7126  0.092585
  7129.601  7129.600  0.500  2.364361  152.397  14.3267  0.085870
  7129.899  7129.900  0.500  2.385139  152.365  14.0292  0.080412
  7130.203  7130.200  0.500  2.399387  152.315  13.8262  0.076217
  7130.502  7130.500  0.500  2.407107  152.269  13.7157  0.073443
  7130.802  7130.800  0.500  2.409272  152.205  13.6803  0.071751
  7131.104  7131.100  0.500  2.407357  152.195  13.7056  0.071360
  7131.404  7131.400  0.500  2.402037  152.151  13.7747  0.071951
  7131.706  7131.700  0.500  2.394896  152.091  13.868  0.073572
  7131.999  7132.000  0.500  2.386629  152.072  13.9814  0.076251
  7132.297  7132.300  0.500  2.376826  152.054  14.1174  0.079681
  7132.599  7132.600  0.500  2.366151  152.058  14.2693  0.083549
  7132.901  7132.900  0.500  2.353746  152.038  14.4455  0.088185
  7133.201  7133.200  0.500  2.339774  152.035  14.6485  0.093417
  7133.498  7133.500  0.500  2.324608  152.024  14.8713  0.099108
  7133.796  7133.800  0.500  2.308644  152.016  15.1098  0.104960
  7134.100  7134.100  0.500  2.291714  151.98  15.3642  0.111001
  7134.403  7134.400  0.500  2.276173  151.951  15.6018  0.116732
  7134.705  7134.700  0.500  2.261668  151.941  15.8287  0.122131
  7135.001  7135.000  0.500  2.248668  151.938  16.0355  0.126657
  7135.305  7135.300  0.500  2.236830  151.916  16.2241  0.131568
  7135.603  7135.600  0.500  2.226764  151.904  16.387  0.135333
  7135.903  7135.900  0.500  2.218317  151.921  16.5277  0.138427
  7136.203  7136.200  0.500  2.211600  151.922  16.6393  0.140745
  7136.499  7136.500  0.500  2.206217  151.891  16.7256  0.142584
  7136.799  7136.800  0.500  2.201844  151.875  16.7972  0.143593
  7136.992  7137.000  0.500  2.199410  151.853  16.8357  0.143992
  7138.000  7137.990  0.500  2.186666  151.848  17.0511  0.143361
  7139.003  7138.990  0.500  2.171748  151.793  17.3011  0.139299
  7140.030  7140.010  0.500  2.154555  151.797  17.6016  0.134899
  7141.085  7141.060  0.500  2.138856  151.803  17.8808  0.132391
  7142.108  7142.120  0.500  2.126756  151.788  18.0967  0.133314
  7143.190  7143.200  0.500  2.116555  151.778  18.2811  0.136443
  7144.294  7144.300  0.500  2.105878  151.763  18.4754  0.140228
  7145.420  7145.420  0.500  2.091002  151.748  18.7504  0.141851
  7146.557  7146.560  0.500  2.069446  151.723  19.1559  0.139633
  7147.713  7147.710  0.500  2.043377  151.723  19.6619  0.134544
  7148.892  7148.890  0.500  2.015588  151.711  20.2142  0.129031
  7150.085  7150.080  0.500  1.991909  151.712  20.6987  0.125799
  7151.295  7151.300  0.500  1.974082  151.711  21.0709  0.124514
  7152.540  7152.530  0.500  1.961655  151.705  21.3336  0.123300
  7153.784  7153.780  0.500  1.953089  151.707  21.5174  0.123080
  7155.047  7155.050  0.500  1.947780  151.682  21.6283  0.124714
  7156.344  7156.340  0.500  1.945286  151.656  21.6786  0.127457
  7157.650  7157.650  0.500  1.945884  151.624  21.6611  0.129266
  7158.973  7158.980  0.500  1.949009  151.622  21.5933  0.129678
  7160.332  7160.330  0.500  1.956067  151.6  21.4383  0.129141
  7161.707  7161.700  0.500  1.965184  151.557  21.2376  0.128954
  7163.082  7163.080  0.500  1.974931  151.522  21.0268  0.129588
  7164.497  7164.490  0.500  1.984450  151.47  20.8205  0.130942
  7165.915  7165.910  0.500  1.993873  151.417  20.618  0.132048
  7167.355  7167.350  0.500  2.002829  151.37  20.4278  0.132493
  7168.816  7168.810  0.500  2.012793  151.365  20.2246  0.132815
  7170.294  7170.290  0.500  2.023155  151.337  20.0124  0.133725
  7171.797  7171.790  0.500  2.034874  151.308  19.7755  0.135941
  7173.323  7173.310  0.500  2.045026  151.274  19.5714  0.140700
  7174.851  7174.850  0.500  2.053866  151.244  19.3952  0.146633
  7176.418  7176.410  0.500  2.060835  151.221  19.2576  0.154178
  7177.987  7177.980  0.500  2.065558  151.184  19.1622  0.161851
  7179.592  7179.580  0.500  2.069997  151.162  19.0746  0.166617
  7181.193  7181.190  0.500  2.073638  151.132  19.0014  0.167391
  7182.832  7182.830  0.500  2.075184  151.09  18.9668  0.165517
  7184.496  7184.480  0.500  2.074410  151.049  18.9764  0.162239
  7186.157  7186.150  0.500  2.071731  151.024  19.0242  0.156639
  7187.844  7187.840  0.500  2.068190  150.987  19.087  0.149092
  7189.557  7189.550  0.500  2.063941  150.945  19.1629  0.141601
  7191.290  7191.280  0.500  2.058963  149.45  19.0677  0.132657
  7193.048  7193.030  0.500  2.053055  150.601  19.3285  0.127363
  7194.801  7194.790  0.500  2.046042  150.783  19.488  0.125620
  7196.591  7196.580  0.500  2.037892  150.754  19.6437  0.129080
  7198.390  7198.380  0.500  2.029040  150.711  19.8127  0.136779
  7200.226  7200.210  0.500  2.019737  150.652  19.99  0.147548
  7202.059  7202.050  0.500  2.010292  150.602  20.173  0.160628
  7203.922  7203.910  0.500  2.001897  150.558  20.3373  0.174933
  7205.795  7205.790  0.500  1.994510  150.523  20.4832  0.189454
  7207.703  7207.690  0.500  1.989199  150.485  20.587  0.196854
  7209.616  7209.610  0.500  1.985563  150.422  20.6534  0.191538
  7211.562  7211.550  0.500  1.982881  150.383  20.7035  0.172744
  7213.514  7213.510  0.500  1.980553  150.323  20.7435  0.147002
  7215.504  7215.480  0.500  1.978055  150.254  20.7859  0.122771
  7217.463  7217.480  0.500  1.976172  150.177  20.8143  0.105637
  7219.486  7219.490  0.500  1.974364  150.124  20.8447  0.095908
  7221.511  7221.520  0.500  1.972769  150.055  20.8683  0.093999
  7223.584  7223.580  0.500  1.971219  149.996  20.8925  0.100293
  7225.649  7225.650  0.500  1.969798  149.839  20.9002  0.112688
  7227.748  7227.740  0.500  1.968227  147.248  20.5712  0.128220
  7229.864  7229.850  0.500  1.966096  150.034  21.0052  0.152416
  7231.989  7231.980  0.500  1.963889  150  21.0467  0.175990
  7234.134  7234.120  0.500  1.961576  149.956  21.0893  0.198182
  7236.299  7236.290  0.500  1.959857  149.915  21.1199  0.214395
  7238.494  7238.480  0.500  1.958959  149.876  21.1333  0.221951
  7240.688  7240.680  0.500  1.958263  149.82  21.1401  0.220945
  7242.910  7242.900  0.500  1.957805  149.786  21.145  0.213067
  7245.156  7245.150  0.500  1.958133  146.96  20.7393  0.198641
  7247.419  7247.410  0.500  1.959692  149.492  21.0637  0.192699
  7249.699  7249.690  0.500  1.961682  149.511  21.0244  0.188481
  7252.007  7251.990  0.500  1.963423  149.389  20.9708  0.189831
  7254.315  7254.310  0.500  1.964844  147.125  20.6236  0.192158
  7256.659  7256.650  0.500  1.965743  149.513  20.9396  0.199466
  7259.006  7259.000  0.500  1.965792  149.362  20.9174  0.197725
  7261.388  7261.380  0.500  1.965143  148.94  20.8719  0.191859
  7263.778  7263.770  0.500  1.963094  138.615  19.4648  0.173918
  7266.201  7266.190  0.500  1.960417  149.087  20.9914  0.183371
  7268.634  7268.620  0.500  1.956576  149.699  21.1586  0.179702
  7271.076  7271.070  0.500  1.952497  149.645  21.2375  0.171900
  7273.561  7273.550  0.500  1.948631  148.509  21.1579  0.162146
  7276.049  7276.040  0.500  1.945289  149.681  21.3963  0.159011
  7278.559  7278.550  0.500  1.941943  149.618  21.4589  0.156627
  7281.083  7281.070  0.500  1.938428  149.575  21.5283  0.152536
  7283.626  7283.620  0.500  1.933931  148.57  21.4801  0.146639
  7286.202  7286.190  0.500  1.928559  149.195  21.6867  0.142797
  7288.779  7288.770  0.500  1.922354  149.296  21.8364  0.141507
  7291.389  7291.380  0.500  1.916041  149.241  21.9666  0.147644
  7294.014  7294.000  0.500  1.910572  149.227  22.0849  0.161245
  7296.666  7296.650  0.500  1.905877  149.169  22.1803  0.178783
  7299.318  7299.310  0.500  1.902260  149.039  22.2412  0.196420
  7302.003  7301.990  0.500  1.899002  147.299  22.0534  0.209988
  7304.698  7304.690  0.500  1.895957  149.227  22.41  0.225134
  7307.422  7307.410  0.500  1.893053  149.699  22.5463  0.234317
  7310.161  7310.150  0.500  1.890383  149.623  22.5952  0.238033
  7312.916  7312.900  0.500  1.888039  149.559  22.6384  0.238363
  7315.692  7315.680  0.500  1.886363  149.492  22.6663  0.238589
  7318.477  7318.470  0.500  1.885009  149.418  22.6858  0.239733
  7321.302  7321.290  0.500  1.883945  149.377  22.7037  0.241217
  7324.134  7324.120  0.500  1.882702  149.318  22.7229  0.242169
  7326.983  7326.970  0.500  1.881143  149.227  22.7446  0.242658
  7329.859  7329.850  0.500  1.879165  149.188  22.7837  0.244371
  7332.753  7332.740  0.500  1.876472  149.134  22.8368  0.249271
  7335.663  7335.650  0.500  1.873751  149.079  22.8906  0.255835
  7338.582  7338.570  0.500  1.870769  147.872  22.773  0.257691
  7341.532  7341.520  0.500  1.867962  148.858  22.9893  0.257943
  7344.500  7344.490  0.500  1.864792  148.862  23.063  0.249545
  7347.486  7347.470  0.500  1.861034  148.792  23.1388  0.236874
  7350.493  7350.480  0.500  1.856990  148.732  23.2233  0.224970
  7353.512  7353.500  0.500  1.853040  148.671  23.3056  0.214787
  7356.559  7356.550  0.500  1.849732  148.591  23.3703  0.206676
  7359.623  7359.610  0.500  1.846214  148.512  23.4402  0.199687
  7362.703  7362.690  0.500  1.842915  148.466  23.5104  0.194808
  7365.799  7365.790  0.500  1.840278  148.368  23.5568  0.193207
  7368.921  7368.910  0.500  1.837688  148.323  23.6108  0.195686
  7372.065  7372.050  0.500  1.835187  148.245  23.6575  0.204689
  7375.218  7375.200  0.500  1.832791  148.169  23.702  0.220033
  7378.393  7378.380  0.500  1.830113  148.097  23.7541  0.243550
  7381.584  7381.570  0.500  1.827257  148.024  23.8102  0.270435
  7384.801  7384.790  0.500  1.824112  147.961  23.8751  0.291794
  7388.026  7388.020  0.500  1.821139  147.873  23.932  0.300463
  7391.279  7391.270  0.500  1.817675  147.799  24.003  0.299932
  7394.561  7394.550  0.500  1.814210  147.712  24.072  0.295487
  7397.848  7397.840  0.500  1.810408  147.632  24.1507  0.292427
  7401.157  7401.150  0.500  1.806613  147.549  24.2289  0.293383
  7404.483  7404.470  0.500  1.802725  147.454  24.3077  0.295212
  7407.824  7407.820  0.500  1.799021  147.374  24.3846  0.296135
  7411.198  7411.190  0.500  1.795355  147.287  24.4598  0.296269
  7414.580  7414.570  0.500  1.791453  147.175  24.5368  0.297020
  7417.989  7417.980  0.500  1.787361  147.084  24.6221  0.299132
  7421.401  7421.400  0.500  1.783384  146.996  24.7054  0.303938
  7424.856  7424.850  0.500  1.779816  146.887  24.7753  0.310830
  7428.315  7428.310  0.500  1.776299  146.815  24.8505  0.316641
  7431.805  7431.790  0.500  1.772984  146.701  24.9136  0.318025
  7435.303  7435.290  0.500  1.769891  146.623  24.9775  0.317039
  7438.828  7438.810  0.500  1.766922  146.471  25.0258  0.312971
  7442.359  7442.350  0.500  1.764135  146.336  25.0725  0.304917
  7445.912  7445.900  0.500  1.760965  142.443  24.4829  0.288930
  7449.488  7449.480  0.500  1.758493  146.247  25.199  0.291069
  7453.088  7453.080  0.500  1.755796  144.957  25.0442  0.286973
  7456.697  7456.690  0.500  1.752696  146.054  25.312  0.290625
  7460.333  7460.320  0.500  1.749413  145.446  25.2896  0.292238
  7463.992  7463.980  0.500  1.745822  145.833  25.448  0.298612
  7467.662  7467.650  0.500  1.742078  141.812  24.8393  0.299377
  7471.350  7471.340  0.500  1.738499  145.754  25.6212  0.319254
  7475.063  7475.050  0.500  1.735077  145.628  25.6869  0.330317
  7478.791  7478.780  0.500  1.731741  145.509  25.7516  0.339086
  7482.533  7482.520  0.500  1.728882  145.356  25.7982  0.347231
  7486.298  7486.290  0.500  1.725642  145.182  25.851  0.357263
  7490.091  7490.080  0.500  1.722044  145.106  25.9306  0.368335
  7493.892  7493.880  0.500  1.718483  145.008  26.0054  0.376717
  7497.724  7497.710  0.500  1.714884  144.892  26.0783  0.380298
  7501.565  7501.550  0.500  1.711394  144.772  26.1479  0.379913
  7505.427  7505.410  0.500  1.707601  144.647  26.2245  0.378709
  7509.304  7509.290  0.500  1.704347  144.522  26.2873  0.379224
  7513.210  7513.190  0.500  1.700756  144.37  26.3541  0.381953
  7517.133  7517.110  0.500  1.697108  144.251  26.4287  0.385916
  7521.069  7521.050  0.500  1.693599  144.136  26.5003  0.389726
  7525.031  7525.010  0.500  1.690094  143.995  26.5674  0.391647
  7528.995  7528.980  0.500  1.686409  143.877  26.6435  0.392146
  7532.994  7532.980  0.500  1.682584  143.746  26.7213  0.393194
  7537.003  7536.990  0.500  1.678802  143.591  26.7937  0.395711
  7541.048  7541.030  0.500  1.675322  143.452  26.8611  0.399790
  7545.093  7545.080  0.500  1.671857  143.305  26.9268  0.403759
  7549.181  7549.150  0.500  1.668038  143.169  27.0041  0.407159
  7553.271  7553.240  0.500  1.664264  143.009  27.0759  0.407767
  7557.368  7557.350  0.500  1.660559  142.889  27.1535  0.405976
  7561.516  7561.480  0.500  1.657349  142.733  27.2111  0.403734
  7565.666  7565.630  0.500  1.654023  142.603  27.277  0.403743
  7569.811  7569.790  0.500  1.650561  142.46  27.344  0.408176
  7574.003  7573.980  0.500  1.647070  142.317  27.4122  0.415941
  7578.199  7578.180  0.500  1.643519  142.16  27.4794  0.426347
  7582.432  7582.410  0.500  1.639854  142.026  27.5542  0.437823
  7586.682  7586.650  0.500  1.636196  141.828  27.6166  0.447204
  7590.934  7590.910  0.500  1.632546  141.662  27.6853  0.453040
  7595.209  7595.190  0.500  1.628659  141.452  27.7519  0.457016
  7599.511  7599.490  0.500  1.625158  141.231  27.8056  0.459628
  7603.830  7603.810  0.500  1.621738  140.673  27.7906  0.461436
  7608.145  7608.150  0.500  1.618327  140.468  27.8451  0.467033
  7612.531  7612.510  0.500  1.614978  140.275  27.9001  0.473930
  7616.915  7616.890  0.500  1.611560  140.264  27.9933  0.479868
  7621.302  7621.280  0.500  1.607833  140.357  28.1164  0.483117
  7625.709  7625.700  0.500  1.604201  140.409  28.2292  0.485455
  7630.148  7630.130  0.500  1.600203  140.357  28.3318  0.488923
  7634.573  7634.580  0.500  1.596527  140.217  28.4078  0.494823
  7639.073  7639.050  0.500  1.592679  140.066  28.4865  0.503136
  7643.527  7643.540  0.500  1.588882  139.898  28.5606  0.511552
  7648.042  7648.050  0.500  1.585066  139.713  28.6319  0.518355
  7652.566  7652.580  0.500  1.581598  139.615  28.7112  0.523621
  7657.116  7657.130  0.500  1.578181  139.428  28.771  0.527944
  7661.683  7661.700  0.500  1.574540  139.279  28.845  0.530664
  7666.277  7666.280  0.500  1.570840  139.132  28.9215  0.532443
  7670.881  7670.890  0.500  1.566821  138.964  29.0028  0.533664
  7675.496  7675.510  0.500  1.563152  138.792  29.0733  0.535072
  7680.146  7680.160  0.500  1.559300  138.631  29.1518  0.536620
  7684.805  7684.820  0.500  1.555765  138.341  29.1938  0.539219
  7689.523  7689.500  0.500  1.551975  138.472  29.3325  0.546103
  7694.187  7694.200  0.500  1.548293  138.196  29.3819  0.552940
  7698.906  7698.920  0.500  1.544522  138.006  29.4523  0.560072
  7703.637  7703.660  0.500  1.540754  137.778  29.5148  0.566489
  7708.412  7708.410  0.500  1.536936  137.717  29.6145  0.573713
  7713.195  7713.190  0.500  1.533288  137.461  29.6675  0.581422
  7717.998  7717.990  0.500  1.529435  137.239  29.734  0.589292
  7722.783  7722.800  0.500  1.525708  137.122  29.8194  0.597300
  7727.611  7727.630  0.500  1.521841  136.922  29.8914  0.602880
  7732.478  7732.490  0.500  1.518349  136.723  29.9524  0.607825
  7737.384  7737.360  0.500  1.514380  136.43  30.0071  0.612768
  7742.274  7742.250  0.500  1.510525  136.486  30.1353  0.619826
  7747.175  7747.160  0.500  1.506807  136.245  30.1941  0.625343
  7752.106  7752.090  0.500  1.503004  136.046  30.2649  0.630578
  7757.046  7757.030  0.500  1.499483  135.827  30.3228  0.635846
  7762.016  7762.000  0.500  1.495630  135.624  30.3944  0.642512
  7767.002  7766.990  0.500  1.492311  135.429  30.4516  0.650022
  7772.008  7771.990  0.500  1.488406  135.231  30.526  0.658273
  7777.036  7777.020  0.500  1.484553  135.012  30.5942  0.665719
  7782.082  7782.060  0.500  1.480549  134.825  30.6743  0.672361
  7787.144  7787.120  0.500  1.476874  134.61  30.7382  0.678594
  7792.224  7792.200  0.500  1.473256  134.43  30.8085  0.684624
  7797.279  7797.300  0.500  1.469432  134.214  30.8769  0.690369
  7802.401  7802.420  0.500  1.465517  134.014  30.9517  0.695087
  7807.538  7807.560  0.500  1.461646  133.812  31.0248  0.700431
  7812.707  7812.720  0.500  1.457848  133.581  31.0892  0.705330
  7817.889  7817.900  0.500  1.453793  133.402  31.1737  0.710899
  7823.086  7823.090  0.500  1.450266  133.188  31.2336  0.717358
  7828.306  7828.310  0.500  1.446457  132.967  31.3009  0.723146
  7833.541  7833.540  0.500  1.442493  132.744  31.3725  0.729096
  7838.770  7838.790  0.500  1.438468  132.241  31.3797  0.733655
  7844.051  7844.060  0.500  1.434535  132.328  31.5239  0.742516
  7849.337  7849.350  0.500  1.430654  132.058  31.582  0.749062
  7854.677  7854.660  0.500  1.426869  130.984  31.4438  0.751525
  7859.967  7859.990  0.500  1.423135  131.661  31.7248  0.764479
  7865.365  7865.340  0.500  1.419300  131.868  31.8968  0.775671
  7870.677  7870.710  0.500  1.415611  131.677  31.9682  0.784142
  7876.064  7876.090  0.500  1.411901  131.46  32.0342  0.792189
  7881.474  7881.500  0.500  1.408123  131.234  32.1002  0.800542
  7886.894  7886.920  0.500  1.404259  131.019  32.1716  0.808793
  7892.349  7892.370  0.500  1.400576  130.773  32.2296  0.816773
  7897.806  7897.830  0.500  1.396664  130.455  32.2774  0.824330
  7903.284  7903.310  0.500  1.392842  130.281  32.3576  0.832714
  7908.789  7908.810  0.500  1.389059  130.008  32.4121  0.840402
  7914.347  7914.330  0.500  1.385208  129.792  32.4833  0.848381
  7919.846  7919.870  0.500  1.381319  129.537  32.5457  0.856035
  7925.405  7925.420  0.500  1.377498  129.262  32.601  0.863871
  7930.979  7931.000  0.500  1.373653  128.901  32.6353  0.871012
  7936.583  7936.600  0.500  1.369813  128.552  32.672  0.877333
  7942.217  7942.210  0.500  1.366000  128.571  32.8017  0.885085
  7947.853  7947.850  0.500  1.362136  128.232  32.8419  0.891850
  7953.474  7953.500  0.500  1.358353  127.875  32.8747  0.898480
  7959.149  7959.170  0.500  1.354641  127.614  32.9294  0.906077
  7964.829  7964.860  0.500  1.350642  127.281  32.9751  0.912792