File: xdidata/Fe/Fe-Lepidocrocite.xdi
# XDI/1.0 BlueSky/1.10.0 BMM/2023-1.0-py310-tiled
# Beamline.name: BMM (06BM) -- Beamline for Materials Measurement (NIST)
# Beamline.xray_source: NSLS-II three-pole wiggler
# Beamline.collimation: paraboloid mirror, 5 nm Rh on 30 nm Pt
# Beamline.focusing: not in use
# Beamline.harmonic_rejection: flat mirror, Si stripe, pitch = 7.0 mrad relative to beam
# Beamline.software: Bluesky 1.10.0, Ophyd 1.7.0, DataBroker 2.0.0b13, Python 3.10.8, 2023-1.0-py310-tiled
# Detector.I0: 10 cm N2
# Detector.I1: 25 cm N2
# Detector.I2: 25 cm N2
# Element.symbol: Fe
# Element.edge: K
# Element.reference: Fe
# Element.reference_material: Fe foil
# Facility.name: NSLS-II
# Facility.energy: 3.0
# Facility.current: 400.0
# Facility.mode: top-off
# Facility.GUP: 123456
# Facility.SAF: 301027
# Facility.cycle: 2023-2
# Mono.name: Si(111)
# Mono.d_spacing: 3.13519
# Mono.encoder_resolution: 0.0000050 deg/ct
# Mono.angle_offset: 16.0754 deg
# Mono.scan_mode: pseudo channel cut
# Mono.scan_type: step
# Mono.direction: forward in energy
# Sample.name: gamma-FeOOH
# Sample.prep: powder on tape
# Sample.x: 116.329 mm
# Sample.y: 114.126 mm
# Sample.SDD_position: 205.000 mm
# Scan.experimenters: Bruce Ravel
# Scan.edge_energy: 7112.0
# Scan.start_time: 2023-05-05T17:04:08
# Scan.end_time: 2023-05-05T17:12:16
# Scan.transient_id: 74506
# Scan.uid: a42ce525-1b10-4fb5-9dc1-11dc8e8f5189
# Scan.plot_hint: ln(I0/It)  --  ln($5/$6)
# Column.1: energy eV
# Column.2: requested_energy eV
# Column.3: measurement_time seconds
# Column.4: xmu
# Column.5: I0 nA
# Column.6: It nA
# Column.7: Ir nA
# ///////////
# Welcome to BMM
# -----------
# energy  requested_energy  measurement_time  xmu  I0  It  Ir
  6911.997  6912.000  0.500  1.659787  153.862  29.2614  5.491544
  6921.872  6922.000  0.500  1.650141  153.739  29.5214  5.580171
  6932.015  6932.000  0.500  1.640259  153.723  29.8114  5.673938
  6942.031  6942.000  0.500  1.630425  153.749  30.1112  5.771361
  6951.997  6952.000  0.500  1.620511  153.76  30.4133  5.871539
  6962.002  6962.000  0.500  1.610645  153.767  30.7163  5.970431
  6972.006  6972.000  0.500  1.601054  153.791  31.0171  6.070640
  6982.019  6982.000  0.500  1.591424  153.773  31.3135  6.169752
  6992.020  6992.000  0.500  1.581713  153.772  31.619  6.272233
  7002.013  7002.000  0.500  1.572293  153.812  31.9266  6.376202
  7012.010  7012.000  0.500  1.562886  153.811  32.2281  6.478700
  7022.014  7022.000  0.500  1.553440  153.736  32.5181  6.580904
  7032.012  7032.000  0.500  1.544346  153.94  32.8588  6.691699
  7042.013  7042.000  0.500  1.534726  153.849  33.1567  6.794415
  7052.009  7052.000  0.500  1.525556  153.79  33.4494  6.895766
  7062.008  7062.000  0.500  1.516307  153.01  33.5889  6.962148
  7072.011  7072.000  0.500  1.507366  153.586  34.0182  7.086453
  7082.577  7082.000  0.500  1.497836  152.703  34.1465  7.139588
  7083.978  7084.000  0.500  1.496901  153.437  34.3427  7.181750
  7085.985  7086.000  0.500  1.495024  153.569  34.4367  7.203859
  7087.985  7088.000  0.500  1.493442  153.574  34.4924  7.216593
  7089.979  7090.000  0.500  1.491790  153.552  34.5446  7.227242
  7091.984  7092.000  0.500  1.489661  153.553  34.6184  7.238777
  7093.980  7094.000  0.500  1.488438  153.545  34.6589  7.243154
  7095.965  7096.000  0.500  1.486412  153.526  34.7249  7.248867
  7097.993  7098.000  0.500  1.484762  153.447  34.7644  7.244110
  7099.986  7100.000  0.500  1.483148  153.464  34.8244  7.237465
  7101.997  7102.000  0.500  1.481890  153.423  34.8588  7.213953
  7102.290  7102.300  0.500  1.481589  153.378  34.8593  7.208788
  7102.585  7102.600  0.500  1.481168  153.414  34.882  7.206911
  7102.884  7102.900  0.500  1.480837  153.388  34.8877  7.201230
  7103.186  7103.200  0.500  1.480910  153.382  34.8837  7.193518
  7103.483  7103.500  0.500  1.480514  153.375  34.8961  7.187883
  7103.783  7103.800  0.500  1.480374  153.36  34.8975  7.179081
  7104.089  7104.100  0.500  1.480049  153.343  34.905  7.172501
  7104.384  7104.400  0.500  1.479747  153.328  34.912  7.165258
  7104.681  7104.700  0.500  1.479500  153.347  34.9251  7.156487
  7104.985  7105.000  0.500  1.479274  153.34  34.9312  7.145944
  7105.283  7105.300  0.500  1.479344  153.329  34.9264  7.131886
  7105.587  7105.600  0.500  1.479075  153.315  34.9325  7.119272
  7105.888  7105.900  0.500  1.478910  153.305  34.936  7.105151
  7106.188  7106.200  0.500  1.478525  153.292  34.9466  7.090186
  7106.490  7106.500  0.500  1.478507  153.289  34.9464  7.072771
  7106.790  7106.800  0.500  1.478116  153.295  34.9616  7.054170
  7107.089  7107.100  0.500  1.477763  153.276  34.9695  7.033707
  7107.387  7107.400  0.500  1.477667  153.266  34.9705  7.008546
  7107.689  7107.700  0.500  1.477440  153.243  34.9734  6.978443
  7107.989  7108.000  0.500  1.477197  153.248  34.9829  6.945136
  7108.284  7108.300  0.500  1.477060  153.243  34.9866  6.904543
  7108.593  7108.600  0.500  1.476959  153.252  34.9922  6.857355
  7108.884  7108.900  0.500  1.477039  153.225  34.9832  6.799056
  7109.191  7109.200  0.500  1.476634  153.22  34.9962  6.729766
  7109.486  7109.500  0.500  1.476428  153.21  35.0011  6.639417
  7109.793  7109.800  0.500  1.476438  153.2  34.9984  6.516761
  7110.097  7110.100  0.500  1.476227  153.179  35.0012  6.345638
  7110.397  7110.400  0.500  1.476209  153.138  34.9924  6.103968
  7110.699  7110.700  0.500  1.476189  153.129  34.991  5.768267
  7110.993  7111.000  0.500  1.476161  153.098  34.9849  5.337494
  7111.295  7111.300  0.500  1.476298  153.062  34.972  4.827529
  7111.597  7111.600  0.500  1.476593  153.03  34.9542  4.305605
  7111.891  7111.900  0.500  1.477331  152.982  34.9176  3.848494
  7112.189  7112.200  0.500  1.478149  152.969  34.886  3.492054
  7112.492  7112.500  0.500  1.479713  152.943  34.8256  3.220082
  7112.790  7112.800  0.500  1.481376  152.937  34.7662  3.012485
  7113.094  7113.100  0.500  1.482693  152.894  34.7109  2.841261
  7113.395  7113.400  0.500  1.482916  152.873  34.6982  2.698309
  7113.693  7113.700  0.500  1.482307  152.863  34.7173  2.569595
  7113.995  7114.000  0.500  1.481960  152.841  34.7242  2.452075
  7114.298  7114.300  0.500  1.482033  152.83  34.7192  2.349346
  7114.603  7114.600  0.500  1.481923  152.81  34.7185  2.263292
  7114.903  7114.900  0.500  1.481445  152.822  34.7379  2.200481
  7115.199  7115.200  0.500  1.480524  152.836  34.7729  2.155854
  7115.498  7115.500  0.500  1.479804  152.834  34.7975  2.123742
  7115.802  7115.800  0.500  1.479596  152.816  34.8007  2.099757
  7116.101  7116.100  0.500  1.479751  152.807  34.7932  2.079533
  7116.393  7116.400  0.500  1.480438  152.779  34.7631  2.057101
  7116.693  7116.700  0.500  1.480865  152.771  34.7463  2.026326
  7116.990  7117.000  0.500  1.481165  152.766  34.7349  1.980705
  7117.299  7117.300  0.500  1.481669  152.745  34.7125  1.914583
  7117.602  7117.600  0.500  1.482200  152.733  34.6913  1.826735
  7117.898  7117.900  0.500  1.482691  152.7  34.667  1.724488
  7118.201  7118.200  0.500  1.483209  152.707  34.6504  1.608921
  7118.502  7118.500  0.500  1.483801  152.69  34.6262  1.490888
  7118.801  7118.800  0.500  1.484626  152.686  34.5967  1.377375
  7119.104  7119.100  0.500  1.485248  152.664  34.5701  1.270047
  7119.402  7119.400  0.500  1.486245  152.648  34.5322  1.171807
  7119.701  7119.700  0.500  1.487774  152.647  34.4792  1.080230
  7120.000  7120.000  0.500  1.489629  152.641  34.4139  0.991335
  7120.301  7120.300  0.500  1.492007  152.632  34.3302  0.905514
  7120.599  7120.600  0.500  1.495057  152.621  34.2231  0.826270
  7120.894  7120.900  0.500  1.498930  152.6  34.086  0.754831
  7121.197  7121.200  0.500  1.503418  152.565  33.9258  0.692618
  7121.500  7121.500  0.500  1.508931  152.544  33.7346  0.638220
  7121.799  7121.800  0.500  1.515533  152.507  33.5044  0.592214
  7122.102  7122.100  0.500  1.523400  152.506  33.2416  0.551652
  7122.401  7122.400  0.500  1.532613  152.499  32.9352  0.516537
  7122.700  7122.700  0.500  1.542669  152.492  32.6043  0.484886
  7123.006  7123.000  0.500  1.553441  152.466  32.2494  0.456559
  7123.305  7123.300  0.500  1.564192  152.455  31.9024  0.431620
  7123.604  7123.600  0.500  1.574376  152.422  31.5722  0.410006
  7123.903  7123.900  0.500  1.583839  152.393  31.2688  0.390951
  7124.202  7124.200  0.500  1.593136  152.379  30.9767  0.373819
  7124.503  7124.500  0.500  1.602848  152.375  30.6765  0.357428
  7124.803  7124.800  0.500  1.613046  152.336  30.3574  0.342066
  7125.095  7125.100  0.500  1.624302  152.338  30.0181  0.327831
  7125.397  7125.400  0.500  1.636697  152.32  29.6448  0.313811
  7125.698  7125.700  0.500  1.649835  152.308  29.2555  0.300319
  7126.002  7126.000  0.500  1.664212  152.272  28.8311  0.287021
  7126.299  7126.300  0.500  1.680010  152.275  28.3799  0.273771
  7126.602  7126.600  0.500  1.697481  152.242  27.8823  0.260305
  7126.897  7126.900  0.500  1.716336  152.204  27.3546  0.246563
  7127.201  7127.200  0.500  1.736866  152.178  26.7941  0.232546
  7127.505  7127.500  0.500  1.759047  152.175  26.2058  0.218203
  7127.802  7127.800  0.500  1.780753  152.169  25.6423  0.204437
  7128.099  7128.100  0.500  1.802226  152.144  25.0934  0.191355
  7128.401  7128.400  0.500  1.822459  152.115  24.5861  0.178782
  7128.698  7128.700  0.500  1.840805  152.078  24.1332  0.166870
  7129.000  7129.000  0.500  1.857023  152.054  23.7413  0.155935
  7129.300  7129.300  0.500  1.870247  152.052  23.429  0.146164
  7129.595  7129.600  0.500  1.880744  152.024  23.1802  0.137867
  7129.895  7129.900  0.500  1.889058  152.005  22.9854  0.130903
  7130.201  7130.200  0.500  1.895852  151.974  22.825  0.125165
  7130.502  7130.500  0.500  1.900950  151.925  22.7017  0.121197
  7130.802  7130.800  0.500  1.905340  151.89  22.5969  0.118364
  7131.104  7131.100  0.500  1.908945  151.887  22.5152  0.117200
  7131.402  7131.400  0.500  1.910933  151.835  22.4628  0.117666
  7131.706  7131.700  0.500  1.911481  151.803  22.4458  0.119907
  7132.008  7132.000  0.500  1.910250  151.798  22.4727  0.123659
  7132.303  7132.300  0.500  1.907236  151.788  22.539  0.128151
  7132.603  7132.600  0.500  1.903085  151.803  22.6351  0.133818
  7132.901  7132.900  0.500  1.897864  151.797  22.7527  0.140588
  7133.201  7133.200  0.500  1.891635  151.789  22.8936  0.147689
  7133.496  7133.500  0.500  1.885291  151.782  23.0382  0.155043
  7133.796  7133.800  0.500  1.879114  151.763  23.1781  0.162645
  7134.094  7134.100  0.500  1.873395  151.759  23.3103  0.169931
  7134.398  7134.400  0.500  1.868268  151.758  23.43  0.176834
  7134.705  7134.700  0.500  1.863896  151.741  23.5301  0.182875
  7135.001  7135.000  0.500  1.860214  151.756  23.6193  0.188296
  7135.303  7135.300  0.500  1.856499  151.754  23.7068  0.193363
  7135.601  7135.600  0.500  1.853122  152.121  23.8446  0.197737
  7135.907  7135.900  0.500  1.850233  152.154  23.9187  0.201321
  7136.203  7136.200  0.500  1.847332  152.126  23.9838  0.203802
  7136.506  7136.500  0.500  1.844528  152.139  24.0532  0.205654
  7136.799  7136.800  0.500  1.841771  152.126  24.1175  0.206722
  7137.002  7137.000  0.500  1.839817  152.137  24.1664  0.207488
  7137.998  7137.990  0.500  1.829327  152.116  24.4179  0.205317
  7139.003  7138.990  0.500  1.817026  152.121  24.721  0.198797
  7140.026  7140.010  0.500  1.803386  152.112  25.0589  0.191975
  7141.072  7141.060  0.500  1.790957  152.128  25.3751  0.188119
  7142.138  7142.120  0.500  1.780183  152.106  25.6463  0.189374
  7143.218  7143.200  0.500  1.770486  152.118  25.8981  0.194027
  7144.318  7144.300  0.500  1.762750  152.119  26.0995  0.198842
  7145.437  7145.420  0.500  1.757205  152.111  26.2431  0.198505
  7146.585  7146.560  0.500  1.753603  152.111  26.3378  0.191611
  7147.703  7147.710  0.500  1.748486  152.072  26.4662  0.180716
  7148.875  7148.890  0.500  1.738356  152.074  26.736  0.170657
  7150.070  7150.080  0.500  1.724345  152.077  27.1137  0.164808
  7151.295  7151.300  0.500  1.709532  152.067  27.5165  0.162663
  7152.523  7152.530  0.500  1.696487  152.051  27.8749  0.161463
  7153.775  7153.780  0.500  1.685726  152.045  28.1754  0.161459
  7155.047  7155.050  0.500  1.677408  152.012  28.4046  0.164408
  7156.335  7156.340  0.500  1.671232  152.007  28.5796  0.168509
  7157.652  7157.650  0.500  1.666772  151.961  28.6988  0.171576
  7158.984  7158.980  0.500  1.664026  151.99  28.783  0.173057
  7160.337  7160.330  0.500  1.662286  151.951  28.8258  0.173725
  7161.709  7161.700  0.500  1.660718  151.92  28.8652  0.175658
  7163.095  7163.080  0.500  1.660789  151.885  28.8564  0.178493
  7164.493  7164.490  0.500  1.663092  151.853  28.7841  0.181685
  7165.915  7165.910  0.500  1.667331  151.807  28.6537  0.183976
  7167.360  7167.350  0.500  1.672789  151.784  28.4933  0.185292
  7168.809  7168.810  0.500  1.679906  151.735  28.2822  0.186104
  7170.294  7170.290  0.500  1.688904  151.715  28.0252  0.187760
  7171.799  7171.790  0.500  1.698863  151.689  27.7427  0.191422
  7173.312  7173.310  0.500  1.708349  151.639  27.4716  0.198123
  7174.851  7174.850  0.500  1.717204  151.601  27.2226  0.207122
  7176.411  7176.410  0.500  1.723598  151.593  27.0477  0.217799
  7177.987  7177.980  0.500  1.726617  151.558  26.9598  0.228675
  7179.585  7179.580  0.500  1.728408  151.548  26.9099  0.235840
  7181.195  7181.190  0.500  1.728706  151.525  26.8979  0.237499
  7182.841  7182.830  0.500  1.726817  151.491  26.9426  0.235436
  7184.483  7184.480  0.500  1.723430  151.467  27.0297  0.231368
  7186.161  7186.150  0.500  1.718993  151.457  27.1481  0.223270
  7187.846  7187.840  0.500  1.714629  151.39  27.2548  0.212629
  7189.557  7189.550  0.500  1.709689  151.356  27.3836  0.202211
  7191.292  7191.280  0.500  1.704451  149.653  27.2178  0.189105
  7193.033  7193.030  0.500  1.699471  151.016  27.6028  0.181483
  7194.803  7194.790  0.500  1.695064  151.163  27.7516  0.179138
  7196.587  7196.580  0.500  1.691382  151.156  27.8528  0.183867
  7198.390  7198.380  0.500  1.688394  151.123  27.93  0.194036
  7200.217  7200.210  0.500  1.685802  151.085  27.9954  0.207763
  7202.061  7202.050  0.500  1.683219  151.031  28.0578  0.224686
  7203.918  7203.910  0.500  1.680641  151.012  28.1267  0.243838
  7205.797  7205.790  0.500  1.677870  150.957  28.1944  0.262481
  7207.699  7207.690  0.500  1.675308  150.917  28.2594  0.270745
  7209.622  7209.610  0.500  1.672734  150.844  28.3184  0.262110
  7211.555  7211.550  0.500  1.670259  150.818  28.3837  0.235994
  7213.527  7213.510  0.500  1.667936  150.768  28.4403  0.199668
  7215.486  7215.480  0.500  1.665733  150.717  28.4933  0.167368
  7217.491  7217.480  0.500  1.663119  150.669  28.5589  0.144083
  7219.497  7219.490  0.500  1.660240  150.617  28.6313  0.131721
  7221.536  7221.520  0.500  1.657746  150.562  28.6923  0.129906
  7223.588  7223.580  0.500  1.655329  150.502  28.7502  0.138913
  7225.662  7225.650  0.500  1.652597  150.393  28.808  0.157019
  7227.748  7227.740  0.500  1.648570  147.779  28.4216  0.179164
  7229.860  7229.850  0.500  1.643825  150.565  29.095  0.212658
  7231.995  7231.980  0.500  1.638744  150.505  29.2317  0.246753
  7234.130  7234.120  0.500  1.633753  150.453  29.3677  0.278019
  7236.308  7236.290  0.500  1.629699  150.404  29.4774  0.300634
  7238.489  7238.480  0.500  1.626942  150.375  29.5531  0.311082
  7240.697  7240.680  0.500  1.625204  150.325  29.5948  0.309688
  7242.910  7242.900  0.500  1.624748  150.299  29.6032  0.298658
  7245.165  7245.150  0.500  1.625317  147.513  29.0379  0.278073
  7247.419  7247.410  0.500  1.626371  150.055  29.507  0.270017
  7249.701  7249.690  0.500  1.627873  150.075  29.4667  0.264466
  7252.000  7251.990  0.500  1.629180  149.982  29.41  0.266835
  7254.315  7254.310  0.500  1.630151  147.495  28.8943  0.270256
  7256.666  7256.650  0.500  1.630072  150.054  29.3978  0.280740
  7259.010  7259.000  0.500  1.629995  149.908  29.3715  0.278056
  7261.392  7261.380  0.500  1.630120  149.454  29.2789  0.269286
  7263.789  7263.770  0.500  1.630404  136.033  26.642  0.237996
  7266.198  7266.190  0.500  1.630428  149.783  29.3344  0.256574
  7268.634  7268.620  0.500  1.629622  150.297  29.4587  0.250388
  7271.085  7271.070  0.500  1.627743  150.229  29.5008  0.239008
  7273.558  7273.550  0.500  1.625135  148.738  29.2842  0.224739
  7276.053  7276.040  0.500  1.622108  150.277  29.6769  0.220793
  7278.564  7278.550  0.500  1.618273  150.223  29.7803  0.217362
  7281.080  7281.070  0.500  1.613216  150.169  29.9205  0.212346
  7283.637  7283.620  0.500  1.607403  148.856  29.8319  0.203612
  7286.205  7286.190  0.500  1.601043  149.815  30.2156  0.198859
  7288.779  7288.770  0.500  1.595378  149.916  30.4077  0.197692
  7291.398  7291.380  0.500  1.590040  149.885  30.5641  0.206198
  7294.012  7294.000  0.500  1.585217  149.852  30.7052  0.225496
  7296.661  7296.650  0.500  1.580978  149.743  30.8132  0.249904
  7299.322  7299.310  0.500  1.577610  149.667  30.9015  0.274721
  7302.006  7301.990  0.500  1.575142  148.32  30.699  0.293228
  7304.700  7304.690  0.500  1.573372  149.803  31.0608  0.312850
  7307.424  7307.410  0.500  1.572201  149.725  31.081  0.323911
  7310.166  7310.150  0.500  1.571290  149.676  31.0991  0.328367
  7312.914  7312.900  0.500  1.571122  149.598  31.0883  0.327875
  7315.690  7315.680  0.500  1.570431  149.538  31.0972  0.327842
  7318.483  7318.470  0.500  1.569260  149.484  31.1224  0.329634
  7321.307  7321.290  0.500  1.567258  149.456  31.179  0.331910
  7324.132  7324.120  0.500  1.564848  149.387  31.2399  0.333438
  7326.981  7326.970  0.500  1.561861  149.332  31.3217  0.335038
  7329.859  7329.850  0.500  1.558703  149.269  31.4075  0.337831
  7332.755  7332.740  0.500  1.555648  149.231  31.4955  0.344802
  7335.665  7335.650  0.500  1.552379  149.149  31.5813  0.354041
  7338.580  7338.570  0.500  1.548740  147.711  31.3908  0.356172
  7341.529  7341.520  0.500  1.544948  148.917  31.7674  0.356747
  7344.504  7344.490  0.500  1.541169  148.922  31.8888  0.345251
  7347.484  7347.470  0.500  1.537793  148.874  31.9863  0.327735
  7350.491  7350.480  0.500  1.534784  148.82  32.0711  0.310898
  7353.510  7353.500  0.500  1.532491  148.782  32.1366  0.296767
  7356.562  7356.550  0.500  1.530578  148.691  32.1783  0.284975
  7359.625  7359.610  0.500  1.528443  148.62  32.2316  0.274856
  7362.703  7362.690  0.500  1.525762  148.503  32.2928  0.267992
  7365.804  7365.790  0.500  1.522591  148.473  32.3887  0.265857
  7368.919  7368.910  0.500  1.519354  148.4  32.4779  0.270287
  7372.058  7372.050  0.500  1.516454  148.354  32.5621  0.282255
  7375.209  7375.200  0.500  1.514143  148.29  32.6233  0.303977
  7378.393  7378.380  0.500  1.512029  148.204  32.6733  0.336253
  7381.581  7381.570  0.500  1.509942  148.115  32.7219  0.372764
  7384.801  7384.790  0.500  1.508100  148.037  32.7651  0.401112
  7388.033  7388.020  0.500  1.506168  147.992  32.8184  0.413000
  7391.277  7391.270  0.500  1.504091  147.945  32.8763  0.411750
  7394.556  7394.550  0.500  1.501495  147.864  32.9437  0.404836
  7397.846  7397.840  0.500  1.498518  147.774  33.0218  0.400870
  7401.157  7401.150  0.500  1.495213  147.682  33.1104  0.401429
  7404.481  7404.470  0.500  1.491900  147.597  33.2012  0.403961
  7407.829  7407.820  0.500  1.488236  147.521  33.306  0.404937
  7411.198  7411.190  0.500  1.484415  147.422  33.4109  0.405366
  7414.573  7414.570  0.500  1.480311  147.347  33.5313  0.406637
  7417.987  7417.980  0.500  1.476245  147.241  33.6437  0.409301
  7421.408  7421.400  0.500  1.472478  147.163  33.7527  0.416015
  7424.856  7424.850  0.500  1.468720  147.082  33.8613  0.425885
  7428.322  7428.310  0.500  1.464987  146.981  33.9644  0.433554
  7431.798  7431.790  0.500  1.461524  146.941  34.073  0.435743
  7435.301  7435.290  0.500  1.458483  147.342  34.2702  0.435809
  7438.812  7438.810  0.500  1.455231  147.279  34.367  0.430302
  7442.359  7442.350  0.500  1.452097  147.131  34.4402  0.419578
  7445.910  7445.900  0.500  1.449019  143.179  33.6185  0.397166
  7449.493  7449.480  0.500  1.446118  147.081  34.635  0.400751
  7453.088  7453.080  0.500  1.443077  145.656  34.4039  0.395158
  7456.700  7456.690  0.500  1.440270  146.872  34.7886  0.400302
  7460.331  7460.320  0.500  1.437948  146.321  34.7388  0.402333
  7463.985  7463.980  0.500  1.435780  146.674  34.8982  0.410368
  7467.657  7467.650  0.500  1.433758  142.647  34.0087  0.410621
  7471.345  7471.340  0.500  1.431188  146.612  35.0439  0.437564
  7475.055  7475.050  0.500  1.428802  146.471  35.0937  0.452135
  7478.794  7478.780  0.500  1.425953  146.357  35.1666  0.463730
  7482.533  7482.520  0.500  1.422914  146.235  35.2443  0.475219
  7486.305  7486.290  0.500  1.419298  146.116  35.3431  0.489388
  7490.088  7490.080  0.500  1.415858  145.999  35.4364  0.504278
  7493.892  7493.880  0.500  1.412077  145.898  35.5461  0.515847
  7497.724  7497.710  0.500  1.408405  145.799  35.6527  0.521067
  7501.558  7501.550  0.500  1.405007  145.682  35.7453  0.520301
  7505.422  7505.410  0.500  1.401485  145.553  35.8395  0.518510
  7509.309  7509.290  0.500  1.398023  145.419  35.9309  0.519234
  7513.206  7513.190  0.500  1.394537  145.296  36.0259  0.523235
  7517.128  7517.110  0.500  1.390981  145.155  36.1191  0.528515
  7521.061  7521.050  0.500  1.387439  145.04  36.2185  0.533596
  7525.035  7525.010  0.500  1.383832  144.878  36.3089  0.535868
  7529.012  7528.980  0.500  1.380567  144.787  36.4046  0.536683
  7532.999  7532.980  0.500  1.377589  144.64  36.4761  0.537610
  7537.013  7536.990  0.500  1.374689  144.495  36.5455  0.540572
  7541.038  7541.030  0.500  1.371815  144.362  36.6168  0.545490
  7545.098  7545.080  0.500  1.368800  144.22  36.6914  0.550833
  7549.164  7549.150  0.500  1.365652  144.094  36.7749  0.555299
  7553.261  7553.240  0.500  1.362569  143.95  36.8516  0.555772
  7557.368  7557.350  0.500  1.359303  143.828  36.9408  0.552935
  7561.491  7561.480  0.500  1.356290  143.66  37.0089  0.549730
  7565.651  7565.630  0.500  1.353179  143.526  37.0897  0.549835
  7569.792  7569.790  0.500  1.349720  143.355  37.1739  0.555059
  7573.966  7573.980  0.500  1.346117  143.248  37.2801  0.566255
  7578.191  7578.180  0.500  1.342520  143.073  37.3686  0.580831
  7582.424  7582.410  0.500  1.338847  142.904  37.4619  0.596395
  7586.662  7586.650  0.500  1.335396  142.732  37.5461  0.608225
  7590.930  7590.910  0.500  1.331600  142.538  37.6378  0.616892
  7595.212  7595.190  0.500  1.327895  142.334  37.7235  0.621945
  7599.504  7599.490  0.500  1.324303  142.069  37.7887  0.625074
  7603.833  7603.810  0.500  1.320869  141.476  37.7605  0.627830
  7608.172  7608.150  0.500  1.317419  141.293  37.8418  0.635675
  7612.519  7612.510  0.500  1.314047  141.042  37.9024  0.644882
  7616.908  7616.890  0.500  1.310702  141.037  38.0278  0.652632
  7621.294  7621.280  0.500  1.307499  141.123  38.1732  0.657036
  7625.714  7625.700  0.500  1.304127  141.129  38.3038  0.659734
  7630.146  7630.130  0.500  1.300691  141.028  38.4082  0.664268
  7634.596  7634.580  0.500  1.297535  140.868  38.4857  0.671693
  7639.071  7639.050  0.500  1.294513  140.698  38.5556  0.681963
  7643.556  7643.540  0.500  1.291320  140.553  38.6392  0.692455
  7648.072  7648.050  0.500  1.288197  140.382  38.7128  0.701846
  7652.604  7652.580  0.500  1.285045  140.203  38.7855  0.708077
  7657.148  7657.130  0.500  1.281753  140.021  38.8628  0.714001
  7661.713  7661.700  0.500  1.278593  139.823  38.9307  0.717064
  7666.294  7666.280  0.500  1.274734  139.665  39.0372  0.719585
  7670.908  7670.890  0.500  1.271006  139.475  39.1296  0.721244
  7675.526  7675.510  0.500  1.267763  139.281  39.202  0.722327
  7680.176  7680.160  0.500  1.264095  139.079  39.2892  0.724165
  7684.836  7684.820  0.500  1.260199  138.785  39.3591  0.727873
  7689.511  7689.500  0.500  1.256603  138.925  39.5407  0.737154
  7694.212  7694.200  0.500  1.253123  138.659  39.6026  0.745826
  7698.924  7698.920  0.500  1.249535  138.429  39.6791  0.755228
  7703.672  7703.660  0.500  1.245812  138.159  39.7494  0.763906
  7708.419  7708.410  0.500  1.242271  138.067  39.8639  0.773681
  7713.198  7713.190  0.500  1.238750  137.797  39.9262  0.783607
  7718.003  7717.990  0.500  1.235223  137.544  39.9937  0.793938
  7722.811  7722.800  0.500  1.231683  137.427  40.1014  0.804035
  7727.649  7727.630  0.500  1.228144  137.116  40.1523  0.811000
  7732.506  7732.490  0.500  1.224614  136.99  40.2575  0.818149
  7737.374  7737.360  0.500  1.221112  136.716  40.3179  0.824601
  7742.264  7742.250  0.500  1.217670  136.78  40.4758  0.832995
  7747.180  7747.160  0.500  1.214078  136.524  40.5454  0.840267
  7752.106  7752.090  0.500  1.210576  136.283  40.6158  0.846664
  7757.049  7757.030  0.500  1.207146  136.071  40.6919  0.853813
  7762.021  7762.000  0.500  1.203737  135.87  40.7707  0.863296
  7766.987  7766.990  0.500  1.200401  135.648  40.84  0.872889
  7772.008  7771.990  0.500  1.196657  135.452  40.9338  0.883574
  7777.024  7777.020  0.500  1.193096  135.237  41.0147  0.893324
  7782.058  7782.060  0.500  1.189551  134.921  41.0642  0.901332
  7787.118  7787.120  0.500  1.186010  134.831  41.1825  0.910285
  7792.206  7792.200  0.500  1.182346  134.632  41.2726  0.918190
  7797.300  7797.300  0.500  1.178662  134.424  41.361  0.925951
  7802.422  7802.420  0.500  1.175172  134.225  41.4442  0.932449
  7807.558  7807.560  0.500  1.171582  134.017  41.5287  0.938583
  7812.723  7812.720  0.500  1.167828  133.812  41.6211  0.945434
  7817.900  7817.900  0.500  1.164065  133.593  41.7097  0.951947
  7823.094  7823.090  0.500  1.160551  133.386  41.7918  0.960749
  7828.319  7828.310  0.500  1.157222  133.175  41.8645  0.968328
  7833.549  7833.540  0.500  1.153463  132.957  41.9534  0.975809
  7838.796  7838.790  0.500  1.149828  132.438  41.9419  0.982130
  7844.077  7844.060  0.500  1.146319  132.518  42.1147  0.993049
  7849.360  7849.350  0.500  1.142583  132.263  42.191  1.002177
  7854.669  7854.660  0.500  1.138969  131.134  41.9824  1.004815
  7860.001  7859.990  0.500  1.135371  131.83  42.3574  1.021898
  7865.357  7865.340  0.500  1.131969  131.618  42.4333  1.032812
  7870.725  7870.710  0.500  1.128619  131.371  42.496  1.043286
  7876.098  7876.090  0.500  1.124941  131.152  42.5814  1.054535
  7881.529  7881.500  0.500  1.121303  130.91  42.6577  1.065074
  7886.931  7886.920  0.500  1.117496  130.714  42.7564  1.076581
  7892.391  7892.370  0.500  1.114105  130.485  42.8264  1.086382
  7897.851  7897.830  0.500  1.110398  130.155  42.8766  1.095593
  7903.329  7903.310  0.500  1.106632  129.953  42.9715  1.107137
  7908.824  7908.810  0.500  1.103076  129.725  43.049  1.117440
  7914.347  7914.330  0.500  1.099418  129.484  43.1266  1.127421
  7919.884  7919.870  0.500  1.096042  129.23  43.1875  1.137364
  7925.432  7925.420  0.500  1.092150  128.975  43.2705  1.147649
  7931.022  7931.000  0.500  1.088591  128.625  43.3068  1.156826
  7936.623  7936.600  0.500  1.084944  128.271  43.3455  1.164861
  7942.233  7942.210  0.500  1.081177  128.291  43.516  1.176280
  7947.862  7947.850  0.500  1.077440  127.975  43.5711  1.184202
  7953.525  7953.500  0.500  1.073748  127.63  43.6144  1.193008
  7959.154  7959.170  0.500  1.070284  127.338  43.6658  1.202485
  7964.840  7964.860  0.500  1.066765  127.037  43.7158  1.211474