File: xdidata/Fe/Fe-Magnetite.xdi
# XDI/1.0 BlueSky/1.10.0 BMM/2023-1.0-py310-tiled
# Beamline.name: BMM (06BM) -- Beamline for Materials Measurement (NIST)
# Beamline.xray_source: NSLS-II three-pole wiggler
# Beamline.collimation: paraboloid mirror, 5 nm Rh on 30 nm Pt
# Beamline.focusing: not in use
# Beamline.harmonic_rejection: flat mirror, Si stripe, pitch = 7.0 mrad relative to beam
# Beamline.software: Bluesky 1.10.0, Ophyd 1.7.0, DataBroker 2.0.0b13, Python 3.10.8, 2023-1.0-py310-tiled
# Detector.I0: 10 cm N2
# Detector.I1: 25 cm N2
# Detector.I2: 25 cm N2
# Element.symbol: Fe
# Element.edge: K
# Element.reference: Fe
# Element.reference_material: Fe foil
# Facility.name: NSLS-II
# Facility.energy: 3.0
# Facility.current: 400.0
# Facility.mode: top-off
# Facility.GUP: 123456
# Facility.SAF: 301027
# Facility.cycle: 2023-2
# Mono.name: Si(111)
# Mono.d_spacing: 3.13519
# Mono.encoder_resolution: 0.0000050 deg/ct
# Mono.angle_offset: 16.0754 deg
# Mono.scan_mode: pseudo channel cut
# Mono.scan_type: step
# Mono.direction: forward in energy
# Sample.name: Fe3O4
# Sample.prep: powder on tape
# Sample.x: 116.329 mm
# Sample.y: 114.126 mm
# Sample.SDD_position: 205.000 mm
# Scan.experimenters: Bruce Ravel
# Scan.edge_energy: 7112.0
# Scan.start_time: 2023-05-05T17:30:42
# Scan.end_time: 2023-05-05T17:38:36
# Scan.transient_id: 74521
# Scan.uid: 27664e0f-6faa-46b6-91c9-850807772a93
# Scan.plot_hint: ln(I0/It)  --  ln($5/$6)
# Column.1: energy eV
# Column.2: requested_energy eV
# Column.3: measurement_time seconds
# Column.4: xmu
# Column.5: I0 nA
# Column.6: It nA
# Column.7: Ir nA
# ///////////
# Welcome to BMM
# -----------
# energy  requested_energy  measurement_time  xmu  I0  It  Ir
  6912.007  6912.000  0.500  2.208323  153.451  16.8619  3.165042
  6922.013  6922.000  0.500  2.196386  153.303  17.0479  3.222868
  6932.017  6932.000  0.500  2.184598  153.26  17.2453  3.283764
  6942.013  6942.000  0.500  2.173438  153.272  17.4401  3.343732
  6952.002  6952.000  0.500  2.161164  153.254  17.6535  3.408345
  6962.002  6962.000  0.500  2.149682  153.253  17.8572  3.470987
  6972.012  6972.000  0.500  2.137825  153.262  18.0712  3.536995
  6982.023  6982.000  0.500  2.126515  153.205  18.27  3.600896
  6992.012  6992.000  0.500  2.114937  153.181  18.4799  3.666822
  7002.009  7002.000  0.500  2.103791  153.121  18.6797  3.731888
  7012.010  7012.000  0.500  2.092082  153.075  18.894  3.798804
  7022.016  7022.000  0.500  2.080847  153.013  19.0998  3.865723
  7032.016  7032.000  0.500  2.069732  152.954  19.3058  3.931790
  7042.013  7042.000  0.500  2.058969  152.872  19.5042  3.997788
  7052.009  7052.000  0.500  2.048183  152.791  19.7053  4.061944
  7062.014  7062.000  0.500  2.037937  152.041  19.8105  4.106692
  7072.015  7072.000  0.500  2.027752  152.577  20.0839  4.183796
  7081.988  7082.000  0.500  2.018706  152.507  20.257  4.235219
  7083.991  7084.000  0.500  2.017082  152.276  20.2593  4.238010
  7085.989  7086.000  0.500  2.015533  152.39  20.3058  4.248472
  7087.992  7088.000  0.500  2.013991  152.393  20.3376  4.255474
  7089.994  7090.000  0.500  2.012740  152.386  20.3622  4.260902
  7091.997  7092.000  0.500  2.011629  152.38  20.384  4.263546
  7093.987  7094.000  0.500  2.010240  152.398  20.4147  4.267477
  7096.191  7096.000  0.500  2.009227  152.317  20.4246  4.263721
  7098.008  7098.000  0.500  2.008683  152.258  20.4277  4.257813
  7099.994  7100.000  0.500  2.008296  152.289  20.4398  4.248259
  7101.999  7102.000  0.500  2.008474  152.252  20.4312  4.228573
  7102.290  7102.300  0.500  2.008294  152.237  20.4329  4.225401
  7102.594  7102.600  0.500  2.008736  152.262  20.4272  4.220869
  7102.889  7102.900  0.500  2.008914  152.247  20.4216  4.215927
  7103.190  7103.200  0.500  2.008697  152.239  20.4249  4.212300
  7103.488  7103.500  0.500  2.008779  152.222  20.4209  4.206849
  7103.787  7103.800  0.500  2.008928  152.207  20.4158  4.200818
  7104.091  7104.100  0.500  2.009244  152.428  20.4391  4.200948
  7104.384  7104.400  0.500  2.009482  152.692  20.4696  4.201311
  7104.688  7104.700  0.500  2.009766  152.688  20.4632  4.193410
  7104.987  7105.000  0.500  2.010167  152.685  20.4546  4.185613
  7105.287  7105.300  0.500  2.010406  152.673  20.4482  4.176597
  7105.587  7105.600  0.500  2.010622  152.684  20.4453  4.167295
  7105.884  7105.900  0.500  2.010984  152.66  20.4346  4.156340
  7106.190  7106.200  0.500  2.011475  152.654  20.4237  4.144774
  7106.492  7106.500  0.500  2.011913  152.647  20.4139  4.131697
  7106.790  7106.800  0.500  2.012447  152.615  20.3987  4.117635
  7107.092  7107.100  0.500  2.013083  152.533  20.3748  4.099842
  7107.387  7107.400  0.500  2.013591  152.609  20.3746  4.083859
  7107.689  7107.700  0.500  2.014550  152.591  20.3527  4.062434
  7107.991  7108.000  0.500  2.015213  152.584  20.3383  4.038984
  7108.287  7108.300  0.500  2.016159  152.569  20.317  4.010451
  7108.586  7108.600  0.500  2.017321  152.567  20.2932  3.979291
  7108.891  7108.900  0.500  2.018506  152.547  20.2664  3.941208
  7109.193  7109.200  0.500  2.019773  152.551  20.2413  3.894010
  7109.493  7109.500  0.500  2.021088  152.524  20.2112  3.836825
  7109.793  7109.800  0.500  2.023195  152.503  20.1658  3.759372
  7110.093  7110.100  0.500  2.025646  152.487  20.1143  3.654902
  7110.395  7110.400  0.500  2.028787  152.465  20.0484  3.508225
  7110.701  7110.700  0.500  2.032816  152.439  19.9644  3.303709
  7110.997  7111.000  0.500  2.038343  152.43  19.8531  3.044695
  7111.293  7111.300  0.500  2.045535  152.373  19.7035  2.741109
  7111.595  7111.600  0.500  2.054744  152.374  19.5231  2.425762
  7111.889  7111.900  0.500  2.066136  152.332  19.2966  2.145587
  7112.198  7112.200  0.500  2.081767  152.287  18.9916  1.909907
  7112.492  7112.500  0.500  2.101576  152.278  18.6181  1.730482
  7112.788  7112.800  0.500  2.126792  152.239  18.1498  1.580455
  7113.090  7113.100  0.500  2.152883  152.223  17.6805  1.454584
  7113.395  7113.400  0.500  2.173766  152.208  17.3134  1.350278
  7113.697  7113.700  0.500  2.183560  152.185  17.1421  1.270859
  7114.002  7114.000  0.500  2.181915  152.178  17.1695  1.213117
  7114.296  7114.300  0.500  2.173486  152.16  17.3128  1.172995
  7114.596  7114.600  0.500  2.163824  152.137  17.4783  1.140979
  7114.899  7114.900  0.500  2.154940  152.146  17.6353  1.117908
  7115.204  7115.200  0.500  2.148394  152.16  17.7528  1.100630
  7115.498  7115.500  0.500  2.143897  152.143  17.8308  1.088482
  7115.798  7115.800  0.500  2.141818  152.114  17.8644  1.078273
  7116.090  7116.100  0.500  2.142176  152.114  17.858  1.067595
  7116.391  7116.400  0.500  2.145321  152.089  17.799  1.053606
  7116.700  7116.700  0.500  2.151339  152.086  17.6919  1.031895
  7116.998  7117.000  0.500  2.160027  152.08  17.5382  1.001081
  7117.297  7117.300  0.500  2.171112  152.062  17.3427  0.958685
  7117.598  7117.600  0.500  2.185190  152.039  17.0978  0.903862
  7117.900  7117.900  0.500  2.202131  152.022  16.8086  0.839005
  7118.201  7118.200  0.500  2.222537  152.009  16.4677  0.767818
  7118.502  7118.500  0.500  2.246380  152  16.0788  0.695893
  7118.801  7118.800  0.500  2.273638  151.984  15.6447  0.626799
  7119.099  7119.100  0.500  2.304998  151.954  15.1587  0.561267
  7119.404  7119.400  0.500  2.340401  151.942  14.6304  0.499771
  7119.705  7119.700  0.500  2.377984  151.936  14.0901  0.444360
  7119.998  7120.000  0.500  2.418269  151.918  13.5322  0.393093
  7120.294  7120.300  0.500  2.461124  151.89  12.9622  0.345182
  7120.593  7120.600  0.500  2.505126  151.883  12.4035  0.301957
  7120.894  7120.900  0.500  2.546279  151.823  11.8988  0.265435
  7121.199  7121.200  0.500  2.585970  151.844  11.4374  0.234403
  7121.498  7121.500  0.500  2.621349  151.855  11.0406  0.209976
  7121.795  7121.800  0.500  2.655184  151.827  10.6713  0.189388
  7122.102  7122.100  0.500  2.688798  151.808  10.3173  0.171903
  7122.403  7122.400  0.500  2.723187  151.802  9.968124  0.156595
  7122.702  7122.700  0.500  2.758690  151.785  9.619332  0.143465
  7123.004  7123.000  0.500  2.794908  151.767  9.276080  0.131566
  7123.301  7123.300  0.500  2.832029  151.772  8.938320  0.121228
  7123.600  7123.600  0.500  2.867532  151.737  8.624582  0.112019
  7123.903  7123.900  0.500  2.902523  151.704  8.326214  0.104190
  7124.204  7124.200  0.500  2.936042  151.699  8.051492  0.097075
  7124.497  7124.500  0.500  2.967755  151.69  7.799668  0.091040
  7124.798  7124.800  0.500  2.998143  151.657  7.564611  0.085363
  7125.095  7125.100  0.500  3.026027  151.663  7.356888  0.080331
  7125.401  7125.400  0.500  3.050700  151.625  7.175766  0.075928
  7125.696  7125.700  0.500  3.072596  151.611  7.019711  0.071913
  7125.997  7126.000  0.500  3.092075  151.582  6.882998  0.068494
  7126.297  7126.300  0.500  3.110427  151.562  6.756933  0.065105
  7126.605  7126.600  0.500  3.129432  151.526  6.628143  0.061875
  7126.908  7126.900  0.500  3.148526  151.526  6.502778  0.058703
  7127.199  7127.200  0.500  3.168051  151.496  6.375797  0.055391
  7127.505  7127.500  0.500  3.189409  151.48  6.240383  0.051913
  7127.800  7127.800  0.500  3.212246  151.453  6.098400  0.048673
  7128.102  7128.100  0.500  3.236036  151.431  5.954177  0.045463
  7128.401  7128.400  0.500  3.259907  151.394  5.812311  0.042358
  7128.701  7128.700  0.500  3.283720  151.374  5.674769  0.039328
  7128.994  7129.000  0.500  3.305801  151.359  5.550309  0.036659
  7129.297  7129.300  0.500  3.325673  151.331  5.440082  0.033982
  7129.601  7129.600  0.500  3.341807  151.294  5.351726  0.031937
  7129.899  7129.900  0.500  3.352955  151.273  5.291666  0.030255
  7130.201  7130.200  0.500  3.359471  151.26  5.256820  0.028864
  7130.502  7130.500  0.500  3.361497  151.222  5.244870  0.028087
  7130.800  7130.800  0.500  3.360735  151.193  5.247869  0.027614
  7131.106  7131.100  0.500  3.357686  151.139  5.262021  0.027372
  7131.406  7131.400  0.500  3.352860  151.133  5.287248  0.027695
  7131.701  7131.700  0.500  3.347698  151.116  5.314042  0.028283
  7132.003  7132.000  0.500  3.342340  151.098  5.341946  0.029324
  7132.301  7132.300  0.500  3.336655  151.092  5.372182  0.030582
  7132.601  7132.600  0.500  3.330218  151.086  5.406649  0.031973
  7132.894  7132.900  0.500  3.323020  151.092  5.445922  0.033548
  7133.194  7133.200  0.500  3.314676  151.077  5.491008  0.035232
  7133.496  7133.500  0.500  3.305640  151.086  5.541183  0.037251
  7133.798  7133.800  0.500  3.295947  151.062  5.594274  0.039209
  7134.100  7134.100  0.500  3.286643  151.072  5.646956  0.041151
  7134.400  7134.400  0.500  3.277248  151.054  5.699551  0.042996
  7134.703  7134.700  0.500  3.268583  151.048  5.748950  0.044534
  7135.005  7135.000  0.500  3.260249  151.037  5.796628  0.046045
  7135.305  7135.300  0.500  3.252709  151.037  5.840514  0.047641
  7135.603  7135.600  0.500  3.245828  151.022  5.880260  0.048765
  7135.899  7135.900  0.500  3.239734  151.021  5.916139  0.049624
  7136.201  7136.200  0.500  3.234279  150.95  5.945706  0.050341
  7136.501  7136.500  0.500  3.229453  151.008  5.976767  0.050953
  7136.801  7136.800  0.500  3.225660  150.985  5.998555  0.051493
  7136.998  7137.000  0.500  3.223261  150.996  6.013416  0.051536
  7137.996  7137.990  0.500  3.210366  151.01  6.092020  0.051207
  7139.003  7138.990  0.500  3.194498  150.991  6.188672  0.049771
  7140.023  7140.010  0.500  3.176244  151.015  6.303673  0.048275
  7141.076  7141.060  0.500  3.160357  150.975  6.402947  0.047405
  7142.130  7142.120  0.500  3.151809  151.004  6.459132  0.047560
  7143.220  7143.200  0.500  3.150818  150.928  6.462300  0.048387
  7144.318  7144.300  0.500  3.152121  150.957  6.455122  0.048999
  7145.439  7145.420  0.500  3.150616  150.972  6.465478  0.048934
  7146.578  7146.560  0.500  3.143389  150.985  6.512926  0.047280
  7147.729  7147.710  0.500  3.126955  150.97  6.620220  0.045205
  7148.901  7148.890  0.500  3.102267  150.979  6.786078  0.043335
  7150.093  7150.080  0.500  3.078902  150.969  6.946049  0.042193
  7151.314  7151.300  0.500  3.060035  150.969  7.078356  0.041897
  7152.540  7152.530  0.500  3.046459  150.976  7.175423  0.041345
  7153.792  7153.780  0.500  3.035157  150.946  7.255553  0.041522
  7155.065  7155.050  0.500  3.023880  150.949  7.337968  0.042394
  7156.348  7156.340  0.500  3.012201  150.883  7.420907  0.043777
  7157.656  7157.650  0.500  3.001020  150.885  7.504469  0.044855
  7158.999  7158.980  0.500  2.993736  150.86  7.558096  0.045556
  7160.341  7160.330  0.500  2.991202  150.828  7.575632  0.045524
  7161.716  7161.700  0.500  2.992543  150.805  7.564345  0.045903
  7163.098  7163.080  0.500  2.996055  150.777  7.536397  0.046587
  7164.506  7164.490  0.500  3.000799  150.722  7.497999  0.047349
  7165.924  7165.910  0.500  3.006722  150.697  7.452495  0.047769
  7167.366  7167.350  0.500  3.014628  150.649  7.391433  0.047932
  7168.816  7168.810  0.500  3.024614  150.628  7.316997  0.048136
  7170.299  7170.290  0.500  3.036728  150.598  7.227446  0.048315
  7171.802  7171.790  0.500  3.050321  150.571  7.128611  0.049235
  7173.321  7173.310  0.500  3.064322  150.528  7.027457  0.050557
  7174.864  7174.850  0.500  3.076551  150.47  6.939398  0.052803
  7176.415  7176.410  0.500  3.086257  150.455  6.871648  0.055181
  7177.998  7177.980  0.500  3.094850  150.424  6.811475  0.057472
  7179.589  7179.580  0.500  3.104128  150.397  6.747362  0.058975
  7181.202  7181.190  0.500  3.110636  150.974  6.729327  0.059259
  7182.843  7182.830  0.500  3.112696  150.98  6.715705  0.058759
  7184.496  7184.480  0.500  3.111073  150.915  6.723758  0.057535
  7186.161  7186.150  0.500  3.106621  150.925  6.754187  0.055568
  7187.846  7187.840  0.500  3.101414  150.902  6.788396  0.053012
  7189.561  7189.550  0.500  3.096439  150.871  6.820874  0.050311
  7191.290  7191.280  0.500  3.090376  149.199  6.786274  0.047301
  7193.048  7193.030  0.500  3.082794  150.531  6.898967  0.045425
  7194.798  7194.790  0.500  3.073750  150.67  6.968096  0.044984
  7196.591  7196.580  0.500  3.063912  150.652  7.036123  0.046550
  7198.390  7198.380  0.500  3.054387  150.597  7.100911  0.049238
  7200.226  7200.210  0.500  3.044420  150.556  7.170092  0.052979
  7202.066  7202.050  0.500  3.034688  150.533  7.239080  0.057782
  7203.922  7203.910  0.500  3.024995  150.483  7.307153  0.063234
  7205.806  7205.790  0.500  3.017123  150.435  7.362562  0.068167
  7207.699  7207.690  0.500  3.011553  150.411  7.402503  0.070783
  7209.627  7209.610  0.500  3.008469  150.322  7.420965  0.068794
  7211.557  7211.550  0.500  3.007321  150.268  7.426820  0.061735
  7213.525  7213.510  0.500  3.007609  150.207  7.421689  0.052141
  7215.489  7215.480  0.500  3.009064  150.173  7.409217  0.043439
  7217.489  7217.480  0.500  3.012141  150.119  7.383819  0.037275
  7219.504  7219.490  0.500  3.015821  150.043  7.352952  0.033838
  7221.533  7221.520  0.500  3.019310  149.999  7.325182  0.033169
  7223.586  7223.580  0.500  3.021900  149.932  7.302983  0.035176
  7225.667  7225.650  0.500  3.022782  149.833  7.291737  0.039657
  7227.748  7227.740  0.500  3.021242  147.215  7.175367  0.045093
  7229.867  7229.850  0.500  3.017813  150.003  7.336376  0.053540
  7231.995  7231.980  0.500  3.012735  149.955  7.371337  0.061959
  7234.134  7234.120  0.500  3.006934  149.887  7.410853  0.069857
  7236.308  7236.290  0.500  3.000068  149.863  7.460755  0.075870
  7238.487  7238.480  0.500  2.991498  149.812  7.522367  0.079053
  7240.694  7240.680  0.500  2.981810  149.753  7.592628  0.079271
  7242.912  7242.900  0.500  2.971813  149.749  7.668682  0.077131
  7245.160  7245.150  0.500  2.963314  146.908  7.587432  0.072595
  7247.425  7247.410  0.500  2.958061  149.47  7.760419  0.070999
  7249.703  7249.690  0.500  2.956494  149.497  7.773963  0.069705
  7252.003  7251.990  0.500  2.957534  149.413  7.761533  0.070261
  7254.321  7254.310  0.500  2.960967  146.964  7.608140  0.071073
  7256.664  7256.650  0.500  2.965545  149.465  7.702286  0.073304
  7259.015  7259.000  0.500  2.970425  149.331  7.657901  0.072217
  7261.390  7261.380  0.500  2.975575  148.884  7.595783  0.069619
  7263.791  7263.770  0.500  2.980216  136.321  6.922626  0.061737
  7266.196  7266.190  0.500  2.981698  149.161  7.563442  0.066028
  7268.632  7268.620  0.500  2.981421  149.679  7.591848  0.064467
  7271.081  7271.070  0.500  2.979144  149.617  7.605972  0.061387
  7273.561  7273.550  0.500  2.976379  148.261  7.557906  0.057903
  7276.058  7276.040  0.500  2.973225  149.667  7.653707  0.056762
  7278.566  7278.550  0.500  2.970128  149.614  7.674701  0.055851
  7281.083  7281.070  0.500  2.966532  149.559  7.699499  0.054581
  7283.639  7283.620  0.500  2.961239  148.318  7.676139  0.052372
  7286.200  7286.190  0.500  2.954384  149.171  7.773421  0.051279
  7288.783  7288.770  0.500  2.946161  149.267  7.842669  0.050683
  7291.400  7291.380  0.500  2.937840  149.238  7.906606  0.053182
  7294.009  7294.000  0.500  2.930647  149.199  7.961627  0.058132
  7296.657  7296.650  0.500  2.924802  149.151  8.005743  0.064600
  7299.329  7299.310  0.500  2.919681  149.018  8.039664  0.071176
  7302.003  7301.990  0.500  2.914353  147.519  8.001282  0.076217
  7304.707  7304.690  0.500  2.908561  149.152  8.136866  0.081657
  7307.424  7307.410  0.500  2.902886  149.058  8.177990  0.085028
  7310.168  7310.150  0.500  2.898053  149.003  8.214580  0.086369
  7312.912  7312.900  0.500  2.895545  148.942  8.231868  0.086583
  7315.692  7315.680  0.500  2.894420  148.865  8.236854  0.086493
  7318.488  7318.470  0.500  2.894042  148.825  8.237747  0.086847
  7321.302  7321.290  0.500  2.894223  148.775  8.233532  0.087262
  7324.128  7324.120  0.500  2.894880  148.723  8.225241  0.087534
  7326.981  7326.970  0.500  2.895359  148.661  8.217847  0.087499
  7329.863  7329.850  0.500  2.894953  148.589  8.217234  0.088205
  7332.755  7332.740  0.500  2.892279  148.527  8.235754  0.089869
  7335.658  7335.650  0.500  2.888636  148.463  8.262289  0.092139
  7338.580  7338.570  0.500  2.884550  147.116  8.220811  0.092833
  7341.534  7341.520  0.500  2.880082  148.205  8.318778  0.093103
  7344.502  7344.490  0.500  2.874788  148.212  8.363314  0.090106
  7347.486  7347.470  0.500  2.868530  148.158  8.412776  0.086054
  7350.491  7350.480  0.500  2.863110  148.098  8.455044  0.081866
  7353.510  7353.500  0.500  2.858386  148.007  8.489898  0.077990
  7356.562  7356.550  0.500  2.854134  147.955  8.523063  0.075237
  7359.623  7359.610  0.500  2.850079  147.867  8.552597  0.072600
  7362.703  7362.690  0.500  2.846524  147.839  8.581425  0.071016
  7365.799  7365.790  0.500  2.843559  147.761  8.602385  0.070279
  7368.914  7368.910  0.500  2.841177  147.699  8.619246  0.071305
  7372.060  7372.050  0.500  2.838373  147.631  8.639500  0.074767
  7375.211  7375.200  0.500  2.835018  147.56  8.664334  0.080288
  7378.395  7378.380  0.500  2.831152  147.456  8.691783  0.089171
  7381.581  7381.570  0.500  2.826585  147.385  8.727375  0.098999
  7384.801  7384.790  0.500  2.822523  147.305  8.758150  0.106837
  7388.031  7388.020  0.500  2.819336  147.24  8.782183  0.110226
  7391.279  7391.270  0.500  2.816374  147.151  8.802906  0.109733
  7394.561  7394.550  0.500  2.813721  147.067  8.821281  0.108160
  7397.853  7397.840  0.500  2.811161  146.999  8.839798  0.106992
  7401.160  7401.150  0.500  2.807942  146.913  8.863116  0.107114
  7404.481  7404.470  0.500  2.804072  146.844  8.893319  0.107739
  7407.831  7407.820  0.500  2.800136  146.746  8.922405  0.107938
  7411.198  7411.190  0.500  2.796114  146.669  8.953669  0.108359
  7414.573  7414.570  0.500  2.791640  146.558  8.987015  0.108658
  7417.985  7417.980  0.500  2.786962  146.459  9.023063  0.109315
  7421.408  7421.400  0.500  2.782131  146.373  9.061447  0.111223
  7424.859  7424.850  0.500  2.778135  146.216  9.087946  0.113789
  7428.322  7428.310  0.500  2.773613  146.168  9.126159  0.116123
  7431.802  7431.790  0.500  2.768769  146.102  9.166294  0.116619
  7435.296  7435.290  0.500  2.764131  146.014  9.203368  0.116664
  7438.823  7438.810  0.500  2.759633  145.909  9.238196  0.115278
  7442.354  7442.350  0.500  2.755857  145.734  9.262060  0.112487
  7445.910  7445.900  0.500  2.752806  141.847  9.042597  0.106509
  7449.495  7449.480  0.500  2.750137  145.659  9.310372  0.107245
  7453.093  7453.080  0.500  2.747205  144.358  9.254329  0.105923
  7456.700  7456.690  0.500  2.743696  145.432  9.355947  0.107238
  7460.338  7460.320  0.500  2.739411  144.856  9.358900  0.107929
  7463.992  7463.980  0.500  2.734934  145.213  9.424073  0.110449
  7467.660  7467.650  0.500  2.729662  141.243  9.214871  0.110842
  7471.350  7471.340  0.500  2.725010  145.139  9.513243  0.118247
  7475.055  7475.050  0.500  2.721224  144.985  9.539186  0.122382
  7478.794  7478.780  0.500  2.717637  144.862  9.565323  0.125637
  7482.533  7482.520  0.500  2.714026  144.736  9.591590  0.128887
  7486.310  7486.290  0.500  2.710063  144.617  9.621751  0.132692
  7490.098  7490.080  0.500  2.705786  144.476  9.653540  0.137098
  7493.892  7493.880  0.500  2.701151  144.378  9.691811  0.140103
  7497.729  7497.710  0.500  2.697259  144.263  9.721892  0.141542
  7501.563  7501.550  0.500  2.693651  144.159  9.749995  0.141345
  7505.422  7505.410  0.500  2.689932  144.003  9.775699  0.141022
  7509.309  7509.290  0.500  2.686186  143.878  9.803886  0.141215
  7513.201  7513.190  0.500  2.681817  143.743  9.837554  0.142256
  7517.120  7517.110  0.500  2.677545  143.63  9.871936  0.143919
  7521.081  7521.050  0.500  2.673523  143.505  9.903108  0.145176
  7525.004  7525.010  0.500  2.669684  143.384  9.932775  0.146081
  7529.014  7528.980  0.500  2.665665  143.258  9.964027  0.146345
  7532.980  7532.980  0.500  2.661296  143.149  10  0.146734
  7537.011  7536.990  0.500  2.657138  142.994  10.0309  0.147823
  7541.034  7541.030  0.500  2.652611  142.871  10.0677  0.149440
  7545.076  7545.080  0.500  2.647990  142.752  10.1059  0.151122
  7549.144  7549.150  0.500  2.643358  142.59  10.1413  0.152649
  7553.229  7553.240  0.500  2.638698  142.467  10.1799  0.152793
  7557.343  7557.350  0.500  2.634062  142.346  10.2185  0.152351
  7561.472  7561.480  0.500  2.630021  142.202  10.2495  0.151641
  7565.622  7565.630  0.500  2.625880  142.053  10.2812  0.151786
  7569.779  7569.790  0.500  2.621759  141.994  10.3194  0.153444
  7573.990  7573.980  0.500  2.618050  141.802  10.3437  0.156327
  7578.174  7578.180  0.500  2.613792  141.654  10.3771  0.160679
  7582.417  7582.410  0.500  2.609251  141.556  10.4171  0.165284
  7586.640  7586.650  0.500  2.605154  141.36  10.4454  0.168572
  7590.932  7590.910  0.500  2.601333  141.17  10.4712  0.171089
  7595.185  7595.190  0.500  2.597252  141.001  10.5015  0.172637
  7599.489  7599.490  0.500  2.593357  140.776  10.5256  0.173368
  7603.840  7603.810  0.500  2.589445  140.436  10.5413  0.174555
  7608.147  7608.150  0.500  2.585353  140.242  10.57  0.177005
  7612.499  7612.510  0.500  2.581156  140.031  10.5984  0.179592
  7616.890  7616.890  0.500  2.576858  139.991  10.6411  0.181935
  7621.299  7621.280  0.500  2.572011  140.083  10.6998  0.183613
  7625.719  7625.700  0.500  2.567537  140.125  10.751  0.184403
  7630.148  7630.130  0.500  2.562892  140.041  10.7945  0.185932
  7634.576  7634.580  0.500  2.557932  139.934  10.84  0.188431
  7639.041  7639.050  0.500  2.553466  139.734  10.8729  0.191609
  7643.536  7643.540  0.500  2.548893  139.589  10.9114  0.194957
  7648.060  7648.050  0.500  2.544151  139.453  10.9526  0.198007
  7652.589  7652.580  0.500  2.539572  139.313  10.9918  0.199896
  7657.143  7657.130  0.500  2.535079  139.191  11.0317  0.201561
  7661.723  7661.700  0.500  2.530602  139.021  11.0676  0.203146
  7666.267  7666.280  0.500  2.526468  138.842  11.0991  0.203681
  7670.888  7670.890  0.500  2.522221  138.649  11.1309  0.204589
  7675.496  7675.510  0.500  2.517877  138.472  11.1651  0.204826
  7680.141  7680.160  0.500  2.513868  138.267  11.1933  0.205450
  7684.810  7684.820  0.500  2.509880  137.971  11.214  0.206569
  7689.518  7689.500  0.500  2.506007  138.147  11.2719  0.209206
  7694.222  7694.200  0.500  2.501684  137.846  11.296  0.212214
  7698.942  7698.920  0.500  2.497357  137.619  11.3264  0.214609
  7703.655  7703.660  0.500  2.493128  137.399  11.3562  0.217329
  7708.432  7708.410  0.500  2.488742  137.231  11.3921  0.220081
  7713.213  7713.190  0.500  2.483813  137.084  11.4362  0.223368
  7717.977  7717.990  0.500  2.479182  136.869  11.4712  0.226880
  7722.791  7722.800  0.500  2.474892  136.758  11.5112  0.230120
  7727.652  7727.630  0.500  2.470220  136.502  11.5435  0.232297
  7732.511  7732.490  0.500  2.465659  136.302  11.5792  0.234276
  7737.348  7737.360  0.500  2.461022  135.998  11.6071  0.236252
  7742.238  7742.250  0.500  2.456515  135.972  11.6573  0.239167
  7747.145  7747.160  0.500  2.451831  135.815  11.6985  0.241716
  7752.081  7752.090  0.500  2.447279  135.609  11.7341  0.243669
  7757.015  7757.030  0.500  2.442469  135.443  11.7762  0.246282
  7761.987  7762.000  0.500  2.438081  135.188  11.8058  0.249039
  7767.007  7766.990  0.500  2.433611  135.014  11.8434  0.252561
  7772.003  7771.990  0.500  2.429061  134.817  11.8801  0.255475
  7777.031  7777.020  0.500  2.424518  134.644  11.9188  0.258484
  7782.069  7782.060  0.500  2.420243  134.396  11.9478  0.261404
  7787.139  7787.120  0.500  2.415862  134.245  11.9867  0.264211
  7792.226  7792.200  0.500  2.411230  134.044  12.0244  0.266648
  7797.318  7797.300  0.500  2.406903  133.783  12.053  0.268811
  7802.443  7802.420  0.500  2.402121  133.617  12.0958  0.271216
  7807.543  7807.560  0.500  2.397508  133.416  12.1335  0.273210
  7812.741  7812.720  0.500  2.392949  133.202  12.1693  0.275344
  7817.926  7817.900  0.500  2.388202  132.997  12.2084  0.278017
  7823.086  7823.090  0.500  2.383507  132.758  12.2439  0.280410
  7828.335  7828.310  0.500  2.378610  132.57  12.2865  0.283219
  7833.565  7833.540  0.500  2.373983  132.348  12.3228  0.285881
  7838.812  7838.790  0.500  2.368934  131.877  12.3411  0.288050
  7844.067  7844.060  0.500  2.364245  131.958  12.4067  0.291648
  7849.379  7849.350  0.500  2.359663  131.625  12.4322  0.294367
  7854.648  7854.660  0.500  2.354805  130.549  12.3907  0.295625
  7859.988  7859.990  0.500  2.350260  131.201  12.5092  0.300679
  7865.325  7865.340  0.500  2.345681  130.975  12.545  0.304290
  7870.706  7870.710  0.500  2.340951  130.771  12.5849  0.307952
  7876.069  7876.090  0.500  2.336387  130.572  12.6232  0.311403
  7881.521  7881.500  0.500  2.331710  130.352  12.661  0.315150
  7886.894  7886.920  0.500  2.327361  130.127  12.6943  0.318590
  7892.357  7892.370  0.500  2.322704  129.888  12.7301  0.321768
  7897.808  7897.830  0.500  2.318198  129.558  12.7551  0.325017
  7903.295  7903.310  0.500  2.313536  129.36  12.7951  0.328685
  7908.789  7908.810  0.500  2.308917  129.115  12.83  0.331819
  7914.350  7914.330  0.500  2.304397  128.859  12.8625  0.335112
  7919.852  7919.870  0.500  2.299680  128.63  12.9004  0.338412
  7925.402  7925.420  0.500  2.295045  128.424  12.9396  0.342083
  7930.995  7931.000  0.500  2.290406  128.052  12.9621  0.345353
  7936.578  7936.600  0.500  2.285829  127.703  12.9861  0.347902
  7942.190  7942.210  0.500  2.281193  127.73  13.0492  0.351641
  7947.856  7947.850  0.500  2.276371  127.444  13.0829  0.354477
  7953.477  7953.500  0.500  2.271994  127.051  13.0998  0.357159
  7959.152  7959.170  0.500  2.267484  126.76  13.1288  0.360413
  7964.846  7964.860  0.500  2.262818  126.417  13.1545  0.363419