File: xdidata/Fe/Fe-Neotocite.xdi
# XDI/1.0 BlueSky/1.10.0 BMM/2023-1.0-py310-tiled
# Beamline.name: BMM (06BM) -- Beamline for Materials Measurement (NIST)
# Beamline.xray_source: NSLS-II three-pole wiggler
# Beamline.collimation: paraboloid mirror, 5 nm Rh on 30 nm Pt
# Beamline.focusing: not in use
# Beamline.harmonic_rejection: flat mirror, Si stripe, pitch = 7.0 mrad relative to beam
# Beamline.software: Bluesky 1.10.0, Ophyd 1.7.0, DataBroker 2.0.0b13, Python 3.10.8, 2023-1.0-py310-tiled
# Detector.I0: 10 cm N2
# Detector.I1: 25 cm N2
# Detector.I2: 25 cm N2
# Element.symbol: Fe
# Element.edge: K
# Element.reference: Fe
# Element.reference_material: Fe foil
# Facility.name: NSLS-II
# Facility.energy: 3.0
# Facility.current: 400.4
# Facility.mode: top-off
# Facility.GUP: 123456
# Facility.SAF: 301027
# Facility.cycle: 2023-2
# Mono.name: Si(111)
# Mono.d_spacing: 3.13519
# Mono.encoder_resolution: 0.0000050 deg/ct
# Mono.angle_offset: 16.0754 deg
# Mono.scan_mode: pseudo channel cut
# Mono.scan_type: step
# Mono.direction: forward in energy
# Sample.name: (Mn,Fe,Mg)SiO3.H2O
# Sample.prep: PEG pellet
# Sample.x: 142.329 mm
# Sample.y: 114.126 mm
# Sample.SDD_position: 205.000 mm
# Scan.experimenters: Bruce Ravel
# Scan.edge_energy: 7112.0
# Scan.start_time: 2023-05-05T20:56:36
# Scan.end_time: 2023-05-05T21:04:49
# Scan.transient_id: 74636
# Scan.uid: 92be5678-a391-4e04-9d22-f8db80202ee6
# Scan.plot_hint: ln(I0/It)  --  ln($5/$6)
# Column.1: energy eV
# Column.2: requested_energy eV
# Column.3: measurement_time seconds
# Column.4: xmu
# Column.5: I0 nA
# Column.6: It nA
# Column.7: Ir nA
# ///////////
# courtesy Martin Stennett, University of Sheffield
# -----------
# energy  requested_energy  measurement_time  xmu  I0  It  Ir
  6912.005  6912.000  0.500  2.163444  155.08  17.8232  3.338636
  6922.009  6922.000  0.500  2.151820  154.928  18.0138  3.397622
  6932.017  6932.000  0.500  2.140636  154.861  18.2085  3.458445
  6942.029  6942.000  0.500  2.128829  154.858  18.4245  3.524946
  6951.995  6952.000  0.500  2.116115  154.822  18.6559  3.594025
  6962.004  6962.000  0.500  2.104102  154.812  18.8802  3.662575
  6972.014  6972.000  0.500  2.092326  154.782  19.1  3.730779
  6982.019  6982.000  0.500  2.080904  154.774  19.3185  3.799460
  6992.014  6992.000  0.500  2.069644  154.752  19.5345  3.867045
  7002.011  7002.000  0.500  2.059004  154.699  19.7367  3.933480
  7012.008  7012.000  0.500  2.047691  154.653  19.9553  4.003324
  7022.012  7022.000  0.500  2.036127  154.585  20.1785  4.075325
  7032.010  7032.000  0.500  2.024517  154.522  20.4058  4.146554
  7042.011  7042.000  0.500  2.013092  154.439  20.6292  4.218786
  7052.003  7052.000  0.500  2.001855  154.33  20.8476  4.289932
  7062.008  7062.000  0.500  1.990525  153.603  20.9858  4.341568
  7072.007  7072.000  0.500  1.979490  154.128  21.2912  4.424894
  7081.982  7082.000  0.500  1.968869  154.049  21.5075  4.486610
  7083.987  7084.000  0.500  1.966877  153.797  21.5152  4.490325
  7085.982  7086.000  0.500  1.964625  153.923  21.5814  4.505175
  7087.985  7088.000  0.500  1.962512  153.924  21.627  4.516416
  7089.990  7090.000  0.500  1.960417  153.898  21.6688  4.524125
  7091.993  7092.000  0.500  1.958323  153.879  21.7115  4.531994
  7093.995  7094.000  0.500  1.956273  153.843  21.7509  4.536865
  7095.975  7096.000  0.500  1.954123  153.872  21.8019  4.542232
  7098.063  7098.000  0.500  1.951910  153.791  21.8387  4.542033
  7099.994  7100.000  0.500  1.950363  153.759  21.868  4.536056
  7101.999  7102.000  0.500  1.948258  153.732  21.9102  4.525023
  7102.292  7102.300  0.500  1.947893  153.726  21.9173  4.523010
  7102.587  7102.600  0.500  1.947403  153.707  21.9253  4.520994
  7102.887  7102.900  0.500  1.947223  153.698  21.928  4.518191
  7103.197  7103.200  0.500  1.946905  153.693  21.9343  4.514181
  7103.490  7103.500  0.500  1.946732  153.687  21.9373  4.511390
  7103.785  7103.800  0.500  1.946371  153.681  21.9444  4.507359
  7104.087  7104.100  0.500  1.946135  153.66  21.9466  4.502100
  7104.384  7104.400  0.500  1.945725  153.66  21.9556  4.496661
  7104.692  7104.700  0.500  1.945510  153.648  21.9585  4.491351
  7104.985  7105.000  0.500  1.945108  153.646  21.967  4.486228
  7105.285  7105.300  0.500  1.944875  153.631  21.97  4.479152
  7105.584  7105.600  0.500  1.944802  153.612  21.9689  4.469754
  7105.893  7105.900  0.500  1.944530  153.614  21.9751  4.461858
  7106.190  7106.200  0.500  1.944167  153.598  21.9808  4.451810
  7106.490  7106.500  0.500  1.943717  153.582  21.9885  4.442905
  7106.787  7106.800  0.500  1.943220  153.576  21.9985  4.432061
  7107.089  7107.100  0.500  1.942995  153.568  22.0024  4.418588
  7107.389  7107.400  0.500  1.942717  153.558  22.0071  4.403695
  7107.691  7107.700  0.500  1.942499  153.555  22.0114  4.386096
  7107.987  7108.000  0.500  1.942079  153.537  22.018  4.366593
  7108.287  7108.300  0.500  1.942061  153.528  22.0171  4.340136
  7108.586  7108.600  0.500  1.941720  153.496  22.0201  4.311540
  7108.891  7108.900  0.500  1.941357  153.523  22.0319  4.279696
  7109.193  7109.200  0.500  1.941367  153.501  22.0286  4.234399
  7109.495  7109.500  0.500  1.941255  153.481  22.0282  4.178781
  7109.788  7109.800  0.500  1.941004  153.489  22.0348  4.108412
  7110.091  7110.100  0.500  1.940392  153.459  22.044  4.007399
  7110.393  7110.400  0.500  1.939912  153.437  22.0514  3.864864
  7110.699  7110.700  0.500  1.939825  153.425  22.0517  3.661849
  7110.999  7111.000  0.500  1.939430  153.39  22.0553  3.400626
  7111.291  7111.300  0.500  1.939137  153.362  22.0577  3.091723
  7111.595  7111.600  0.500  1.939084  153.866  22.1314  2.771907
  7111.893  7111.900  0.500  1.939084  153.831  22.1264  2.473870
  7112.198  7112.200  0.500  1.939009  153.799  22.1235  2.236702
  7112.492  7112.500  0.500  1.938865  153.772  22.1227  2.062653
  7112.790  7112.800  0.500  1.938948  153.739  22.1161  1.931211
  7113.092  7113.100  0.500  1.939072  153.709  22.1091  1.822413
  7113.397  7113.400  0.500  1.939024  153.695  22.1081  1.728810
  7113.701  7113.700  0.500  1.939011  153.68  22.1063  1.644473
  7114.000  7114.000  0.500  1.938752  153.68  22.112  1.568951
  7114.294  7114.300  0.500  1.938665  153.656  22.1105  1.503003
  7114.596  7114.600  0.500  1.938356  153.655  22.1171  1.447026
  7114.899  7114.900  0.500  1.937922  153.659  22.1274  1.405041
  7115.204  7115.200  0.500  1.937307  153.63  22.1367  1.374163
  7115.498  7115.500  0.500  1.936730  153.62  22.1481  1.352838
  7115.800  7115.800  0.500  1.936220  153.603  22.1569  1.336889
  7116.094  7116.100  0.500  1.935828  153.604  22.1658  1.325364
  7116.395  7116.400  0.500  1.935461  153.584  22.1711  1.311993
  7116.696  7116.700  0.500  1.935261  153.572  22.1737  1.294564
  7116.996  7117.000  0.500  1.935200  153.556  22.1728  1.267251
  7117.295  7117.300  0.500  1.934959  153.543  22.1763  1.229635
  7117.598  7117.600  0.500  1.934986  153.522  22.1726  1.176171
  7117.898  7117.900  0.500  1.935392  153.511  22.1621  1.111395
  7118.203  7118.200  0.500  1.935602  153.487  22.1539  1.038072
  7118.502  7118.500  0.500  1.935230  153.475  22.1604  0.964956
  7118.798  7118.800  0.500  1.935506  153.466  22.153  0.892680
  7119.101  7119.100  0.500  1.935892  153.45  22.1421  0.823952
  7119.402  7119.400  0.500  1.936241  153.435  22.1322  0.760920
  7119.701  7119.700  0.500  1.937034  153.429  22.1139  0.701611
  7120.000  7120.000  0.500  1.937907  153.416  22.0926  0.645107
  7120.296  7120.300  0.500  1.939024  153.399  22.0656  0.590944
  7120.602  7120.600  0.500  1.939844  153.386  22.0456  0.539761
  7120.894  7120.900  0.500  1.940955  153.366  22.0182  0.493815
  7121.206  7121.200  0.500  1.942570  153.342  21.9793  0.453841
  7121.498  7121.500  0.500  1.944121  153.331  21.9437  0.420219
  7121.797  7121.800  0.500  1.945600  153.312  21.9085  0.391479
  7122.100  7122.100  0.500  1.946936  153.276  21.8741  0.366897
  7122.403  7122.400  0.500  1.949011  153.277  21.8289  0.345230
  7122.702  7122.700  0.500  1.951000  153.264  21.7837  0.326607
  7123.004  7123.000  0.500  1.953228  153.234  21.7309  0.309993
  7123.303  7123.300  0.500  1.955856  153.22  21.6719  0.295275
  7123.600  7123.600  0.500  1.958530  153.213  21.6131  0.282456
  7123.903  7123.900  0.500  1.960997  153.191  21.5568  0.271273
  7124.200  7124.200  0.500  1.963620  153.202  21.5018  0.261273
  7124.497  7124.500  0.500  1.966245  153.182  21.4426  0.251593
  7124.798  7124.800  0.500  1.969200  153.152  21.3752  0.242420
  7125.095  7125.100  0.500  1.972016  153.13  21.312  0.234042
  7125.401  7125.400  0.500  1.974711  153.114  21.2525  0.226120
  7125.702  7125.700  0.500  1.977680  153.091  21.1863  0.218575
  7125.997  7126.000  0.500  1.980505  153.072  21.1239  0.211673
  7126.299  7126.300  0.500  1.983743  153.055  21.0532  0.204257
  7126.605  7126.600  0.500  1.986966  153.036  20.9828  0.197078
  7126.904  7126.900  0.500  1.990498  153.012  20.9056  0.189348
  7127.203  7127.200  0.500  1.994531  152.997  20.8194  0.181764
  7127.503  7127.500  0.500  1.998245  152.972  20.7388  0.174071
  7127.798  7127.800  0.500  2.002266  152.957  20.6537  0.166216
  7128.102  7128.100  0.500  2.006259  152.922  20.5666  0.158059
  7128.403  7128.400  0.500  2.009906  152.901  20.4889  0.150296
  7128.698  7128.700  0.500  2.013075  152.859  20.4185  0.142696
  7128.994  7129.000  0.500  2.016321  152.847  20.3507  0.135098
  7129.295  7129.300  0.500  2.018942  152.809  20.2924  0.127889
  7129.601  7129.600  0.500  2.021294  152.799  20.2435  0.121393
  7129.899  7129.900  0.500  2.023009  152.772  20.2051  0.115925
  7130.203  7130.200  0.500  2.024166  152.744  20.1781  0.111519
  7130.500  7130.500  0.500  2.025180  152.709  20.153  0.108220
  7130.800  7130.800  0.500  2.025784  152.683  20.1375  0.106009
  7131.104  7131.100  0.500  2.026182  152.639  20.1237  0.104988
  7131.406  7131.400  0.500  2.026108  152.624  20.1231  0.105427
  7131.701  7131.700  0.500  2.026104  152.61  20.1213  0.107255
  7132.001  7132.000  0.500  2.025690  152.593  20.1274  0.110122
  7132.295  7132.300  0.500  2.025053  152.589  20.1397  0.113905
  7132.601  7132.600  0.500  2.023757  152.573  20.1638  0.118557
  7132.896  7132.900  0.500  2.022263  152.579  20.1947  0.123800
  7133.196  7133.200  0.500  2.020425  152.565  20.2299  0.129382
  7133.496  7133.500  0.500  2.018694  152.563  20.2648  0.135439
  7133.796  7133.800  0.500  2.016801  152.541  20.3003  0.141308
  7134.105  7134.100  0.500  2.014768  152.551  20.3428  0.147307
  7134.398  7134.400  0.500  2.013186  152.54  20.3736  0.152799
  7134.701  7134.700  0.500  2.011481  152.537  20.408  0.157707
  7134.998  7135.000  0.500  2.010038  152.536  20.4374  0.162035
  7135.301  7135.300  0.500  2.008761  152.526  20.4621  0.166089
  7135.607  7135.600  0.500  2.007609  152.516  20.4843  0.169410
  7135.901  7135.900  0.500  2.006495  152.524  20.5082  0.172250
  7136.205  7136.200  0.500  2.005818  152.505  20.5195  0.174213
  7136.501  7136.500  0.500  2.005100  152.499  20.5336  0.175266
  7136.795  7136.800  0.500  2.004536  152.495  20.5446  0.176189
  7136.996  7137.000  0.500  2.004003  152.496  20.5556  0.176336
  7138.003  7137.990  0.500  2.001824  152.498  20.6008  0.173542
  7139.001  7138.990  0.500  1.999496  152.485  20.6471  0.166642
  7140.030  7140.010  0.500  1.996510  152.442  20.703  0.158864
  7141.085  7141.060  0.500  1.993397  152.476  20.7721  0.154296
  7142.104  7142.120  0.500  1.990199  152.421  20.8312  0.153655
  7143.184  7143.200  0.500  1.987072  152.43  20.8975  0.156452
  7144.292  7144.300  0.500  1.984392  152.433  20.9541  0.159751
  7145.413  7145.420  0.500  1.981812  152.423  21.0068  0.159174
  7146.561  7146.560  0.500  1.978665  152.43  21.074  0.154217
  7147.707  7147.710  0.500  1.975040  152.405  21.1471  0.145267
  7148.890  7148.890  0.500  1.971084  152.401  21.2303  0.136034
  7150.083  7150.080  0.500  1.967405  152.382  21.306  0.130087
  7151.301  7151.300  0.500  1.964009  152.392  21.3798  0.126750
  7152.532  7152.530  0.500  1.960810  152.375  21.4459  0.124512
  7153.786  7153.780  0.500  1.957760  152.356  21.5088  0.123569
  7155.052  7155.050  0.500  1.955111  152.327  21.5618  0.124886
  7156.342  7156.340  0.500  1.952349  152.316  21.6198  0.127515
  7157.652  7157.650  0.500  1.950384  152.293  21.6591  0.129599
  7158.975  7158.980  0.500  1.948305  152.283  21.7027  0.130724
  7160.332  7160.330  0.500  1.946415  152.25  21.739  0.131487
  7161.703  7161.700  0.500  1.945302  152.219  21.7588  0.132442
  7163.080  7163.080  0.500  1.944561  152.178  21.769  0.134837
  7164.495  7164.490  0.500  1.944395  152.139  21.767  0.137643
  7165.922  7165.910  0.500  1.944706  152.088  21.753  0.139724
  7167.353  7167.350  0.500  1.944931  152.058  21.7438  0.141439
  7168.811  7168.810  0.500  1.945283  152.025  21.7315  0.142892
  7170.292  7170.290  0.500  1.945797  151.995  21.716  0.145581
  7171.791  7171.790  0.500  1.946370  151.973  21.7005  0.149690
  7173.318  7173.310  0.500  1.946413  151.932  21.6937  0.156366
  7174.853  7174.850  0.500  1.946826  151.897  21.6797  0.164569
  7176.420  7176.410  0.500  1.946485  151.872  21.6835  0.174256
  7177.985  7177.980  0.500  1.945247  151.843  21.7063  0.183530
  7179.594  7179.580  0.500  1.943811  151.808  21.7324  0.190338
  7181.193  7181.190  0.500  1.942164  151.788  21.7654  0.192073
  7182.836  7182.830  0.500  1.940166  151.757  21.8045  0.190925
  7184.494  7184.480  0.500  1.938367  151.712  21.8372  0.187211
  7186.157  7186.150  0.500  1.936422  151.683  21.8755  0.180451
  7187.849  7187.840  0.500  1.934506  151.636  21.9107  0.171566
  7189.552  7189.550  0.500  1.932762  151.611  21.9454  0.162692
  7191.290  7191.280  0.500  1.930959  150.07  21.7616  0.151918
  7193.039  7193.030  0.500  1.929109  151.22  21.9689  0.145060
  7194.798  7194.790  0.500  1.927100  151.414  22.0413  0.142610
  7196.591  7196.580  0.500  1.925053  151.389  22.0828  0.145847
  7198.390  7198.380  0.500  1.922954  151.351  22.1237  0.153442
  7200.224  7200.210  0.500  1.920641  151.303  22.1678  0.164134
  7202.059  7202.050  0.500  1.918238  151.259  22.2147  0.177328
  7203.920  7203.910  0.500  1.915921  151.215  22.2598  0.192362
  7205.790  7205.790  0.500  1.913207  151.173  22.3141  0.206733
  7207.699  7207.690  0.500  1.910622  151.098  22.3607  0.214089
  7209.618  7209.610  0.500  1.908175  151.302  22.4458  0.208634
  7211.562  7211.550  0.500  1.905873  151.341  22.5033  0.188349
  7213.514  7213.510  0.500  1.903246  151.283  22.5539  0.160147
  7215.498  7215.480  0.500  1.900894  151.242  22.6008  0.134106
  7217.485  7217.480  0.500  1.898601  151.171  22.6421  0.115077
  7219.504  7219.490  0.500  1.896387  151.061  22.6757  0.104890
  7221.531  7221.520  0.500  1.894364  151.058  22.7213  0.103018
  7223.595  7223.580  0.500  1.892018  150.987  22.7639  0.109861
  7225.662  7225.650  0.500  1.890130  150.856  22.7871  0.123650
  7227.748  7227.740  0.500  1.887999  148.212  22.4355  0.140743
  7229.856  7229.850  0.500  1.885801  151.025  22.9116  0.166553
  7231.993  7231.980  0.500  1.883804  150.963  22.948  0.192567
  7234.128  7234.120  0.500  1.881847  150.892  22.9822  0.216327
  7236.305  7236.290  0.500  1.879893  150.849  23.0206  0.234410
  7238.489  7238.480  0.500  1.877951  150.809  23.0592  0.242632
  7240.694  7240.680  0.500  1.875965  150.748  23.0956  0.241946
  7242.912  7242.900  0.500  1.874079  150.719  23.1348  0.233870
  7245.167  7245.150  0.500  1.872156  147.875  22.742  0.218360
  7247.425  7247.410  0.500  1.870210  150.44  23.1815  0.212655
  7249.701  7249.690  0.500  1.868201  150.444  23.2288  0.208780
  7252.003  7251.990  0.500  1.866197  150.368  23.2636  0.210942
  7254.324  7254.310  0.500  1.864206  148.021  22.946  0.214291
  7256.664  7256.650  0.500  1.862273  150.424  23.3638  0.222995
  7259.004  7259.000  0.500  1.860107  150.262  23.3891  0.221563
  7261.394  7261.380  0.500  1.857685  149.828  23.3781  0.215136
  7263.782  7263.770  0.500  1.855635  139.372  21.7914  0.194958
  7266.201  7266.190  0.500  1.852993  149.97  23.5104  0.205694
  7268.630  7268.620  0.500  1.850657  150.561  23.6582  0.201541
  7271.079  7271.070  0.500  1.848258  150.529  23.7101  0.192378
  7273.570  7273.550  0.500  1.845746  149.381  23.5884  0.181435
  7276.049  7276.040  0.500  1.843493  150.548  23.8263  0.177522
  7278.562  7278.550  0.500  1.841067  150.498  23.8762  0.174495
  7281.080  7281.070  0.500  1.838479  150.457  23.9316  0.170314
  7283.630  7283.620  0.500  1.835914  149.459  23.8339  0.163173
  7286.205  7286.190  0.500  1.833374  150.08  23.9937  0.158339
  7288.781  7288.770  0.500  1.830966  150.175  24.0668  0.156405
  7291.391  7291.380  0.500  1.828231  150.146  24.1281  0.162531
  7294.014  7294.000  0.500  1.825579  150.097  24.1843  0.176975
  7296.664  7296.650  0.500  1.822966  150.031  24.2369  0.196074
  7299.320  7299.310  0.500  1.820367  149.916  24.2814  0.215239
  7302.008  7301.990  0.500  1.817916  148.177  24.0585  0.229583
  7304.705  7304.690  0.500  1.815192  150.037  24.4271  0.245617
  7307.422  7307.410  0.500  1.812315  149.944  24.4821  0.254931
  7310.163  7310.150  0.500  1.809566  149.897  24.5419  0.259116
  7312.916  7312.900  0.500  1.806872  149.833  24.5975  0.259405
  7315.694  7315.680  0.500  1.804044  149.756  24.6547  0.259921
  7318.483  7318.470  0.500  1.801084  149.711  24.7202  0.261941
  7321.302  7321.290  0.500  1.798371  149.656  24.7783  0.263607
  7324.134  7324.120  0.500  1.795557  149.587  24.8367  0.265047
  7326.983  7326.970  0.500  1.792985  149.506  24.8872  0.266071
  7329.861  7329.850  0.500  1.790321  149.448  24.9438  0.268247
  7332.757  7332.740  0.500  1.787517  149.398  25.0056  0.273634
  7335.665  7335.650  0.500  1.784946  149.341  25.0603  0.280704
  7338.582  7338.570  0.500  1.782582  148.108  24.9123  0.282526
  7341.532  7341.520  0.500  1.779635  149.095  25.1523  0.282619
  7344.497  7344.490  0.500  1.777202  149.075  25.2102  0.273280
  7347.486  7347.470  0.500  1.774653  149.031  25.267  0.259219
  7350.496  7350.480  0.500  1.771872  148.971  25.3273  0.245805
  7353.515  7353.500  0.500  1.769097  148.905  25.3863  0.234692
  7356.559  7356.550  0.500  1.765951  148.845  25.4561  0.225621
  7359.623  7359.610  0.500  1.763121  148.771  25.5155  0.217925
  7362.700  7362.690  0.500  1.760061  148.693  25.5803  0.212399
  7365.804  7365.790  0.500  1.757429  148.621  25.6353  0.210738
  7368.928  7368.910  0.500  1.754641  148.545  25.6937  0.213953
  7372.065  7372.050  0.500  1.751409  148.493  25.7678  0.223378
  7375.220  7375.200  0.500  1.748333  148.408  25.8325  0.240575
  7378.395  7378.380  0.500  1.745260  148.3  25.8932  0.265994
  7381.586  7381.570  0.500  1.742233  148.256  25.9639  0.295648
  7384.803  7384.790  0.500  1.739360  148.137  26.0177  0.318605
  7388.033  7388.020  0.500  1.736461  148.096  26.086  0.328041
  7391.277  7391.270  0.500  1.733458  148.012  26.1496  0.327132
  7394.559  7394.550  0.500  1.730388  147.937  26.2167  0.322055
  7397.846  7397.840  0.500  1.727276  147.849  26.2829  0.318852
  7401.160  7401.150  0.500  1.724312  147.77  26.3467  0.319302
  7404.479  7404.470  0.500  1.721349  147.682  26.4092  0.321323
  7407.829  7407.820  0.500  1.718105  147.599  26.4801  0.322290
  7411.203  7411.190  0.500  1.715145  147.51  26.5426  0.322037
  7414.580  7414.570  0.500  1.712118  147.415  26.6059  0.322575
  7417.987  7417.980  0.500  1.708944  147.307  26.6709  0.324603
  7421.411  7421.400  0.500  1.706173  147.22  26.7292  0.329167
  7424.856  7424.850  0.500  1.702965  147.128  26.7984  0.337015
  7428.312  7428.310  0.500  1.699656  147.028  26.8689  0.342928
  7431.798  7431.790  0.500  1.696638  146.935  26.9331  0.344177
  7435.303  7435.290  0.500  1.693350  146.83  27.0025  0.343304
  7438.821  7438.810  0.500  1.690220  146.705  27.064  0.338730
  7442.357  7442.350  0.500  1.687181  146.552  27.118  0.330717
  7445.910  7445.900  0.500  1.683817  142.64  26.483  0.313184
  7449.486  7449.480  0.500  1.680502  146.466  27.2838  0.315834
  7453.091  7453.080  0.500  1.677256  145.166  27.1295  0.311469
  7456.695  7456.690  0.500  1.674127  146.279  27.4231  0.315548
  7460.331  7460.320  0.500  1.670909  145.693  27.4014  0.317454
  7463.992  7463.980  0.500  1.667725  146.041  27.5545  0.324056
  7467.662  7467.650  0.500  1.664465  142.025  26.8841  0.324884
  7471.352  7471.340  0.500  1.661369  145.979  27.7183  0.346151
  7475.065  7475.050  0.500  1.658102  145.847  27.7839  0.357803
  7478.789  7478.780  0.500  1.654699  145.713  27.8529  0.367405
  7482.533  7482.520  0.500  1.651500  145.596  27.9198  0.376142
  7486.300  7486.290  0.500  1.648209  145.478  27.9892  0.387378
  7490.088  7490.080  0.500  1.645030  145.352  28.054  0.398970
  7493.895  7493.880  0.500  1.641896  145.248  28.1217  0.408139
  7497.727  7497.710  0.500  1.638261  145.136  28.2024  0.411658
  7501.565  7501.550  0.500  1.634754  145.013  28.2776  0.411475
  7505.419  7505.410  0.500  1.631344  144.849  28.342  0.410048
  7509.304  7509.290  0.500  1.627900  144.746  28.4197  0.410475
  7513.225  7513.190  0.500  1.624775  144.642  28.4881  0.413565
  7517.128  7517.110  0.500  1.621448  144.507  28.5563  0.417905
  7521.069  7521.050  0.500  1.618075  144.353  28.6224  0.421169
  7525.026  7525.010  0.500  1.614615  144.24  28.699  0.423576
  7529.002  7528.980  0.500  1.611059  144.106  28.7745  0.424308
  7532.992  7532.980  0.500  1.607666  143.976  28.8464  0.424973
  7537.003  7536.990  0.500  1.604128  143.84  28.9211  0.427726
  7541.043  7541.030  0.500  1.600848  143.7  28.9878  0.431951
  7545.100  7545.080  0.500  1.597361  143.542  29.0572  0.436310
  7549.171  7549.150  0.500  1.593959  143.41  29.1295  0.439426
  7553.256  7553.240  0.500  1.590632  143.269  29.1979  0.440509
  7557.365  7557.350  0.500  1.587227  143.118  29.2665  0.438245
  7561.508  7561.480  0.500  1.583673  142.945  29.3352  0.435462
  7565.661  7565.630  0.500  1.580148  142.805  29.4098  0.435908
  7569.806  7569.790  0.500  1.576611  142.664  29.4851  0.440538
  7574.015  7573.980  0.500  1.573148  142.513  29.5559  0.448816
  7578.213  7578.180  0.500  1.569735  142.343  29.6216  0.460218
  7582.424  7582.410  0.500  1.566266  142.204  29.6955  0.472527
  7586.674  7586.650  0.500  1.562534  142.02  29.7679  0.482080
  7590.912  7590.910  0.500  1.558984  141.813  29.8303  0.489033
  7595.207  7595.190  0.500  1.555426  141.612  29.8942  0.492957
  7599.523  7599.490  0.500  1.551800  141.35  29.9472  0.495485
  7603.830  7603.810  0.500  1.548284  140.804  29.9368  0.497766
  7608.172  7608.150  0.500  1.544848  140.573  29.9905  0.503653
  7612.511  7612.510  0.500  1.541094  140.355  30.0566  0.511055
  7616.910  7616.890  0.500  1.537558  140.319  30.1553  0.517528
  7621.297  7621.280  0.500  1.533981  140.38  30.2766  0.520893
  7625.726  7625.700  0.500  1.530370  140.398  30.3899  0.523289
  7630.153  7630.130  0.500  1.526826  140.319  30.4807  0.526657
  7634.603  7634.580  0.500  1.523327  140.166  30.554  0.533257
  7639.073  7639.050  0.500  1.519651  139.985  30.6271  0.541645
  7643.564  7643.540  0.500  1.516009  139.818  30.7022  0.550186
  7648.072  7648.050  0.500  1.512299  139.641  30.7772  0.557720
  7652.564  7652.580  0.500  1.508846  139.485  30.8493  0.563034
  7657.138  7657.130  0.500  1.504922  139.303  30.9302  0.567628
  7661.718  7661.700  0.500  1.501404  139.123  30.999  0.571148
  7666.277  7666.280  0.500  1.497705  139.286  31.1502  0.574377
  7670.911  7670.890  0.500  1.494056  139.258  31.2578  0.576032
  7675.498  7675.510  0.500  1.490560  139.088  31.329  0.576886
  7680.146  7680.160  0.500  1.486665  138.853  31.3981  0.578335
  7684.813  7684.820  0.500  1.483043  138.602  31.4551  0.581661
  7689.516  7689.500  0.500  1.479315  138.733  31.6024  0.588913
  7694.184  7694.200  0.500  1.475672  138.43  31.6485  0.596033
  7698.906  7698.920  0.500  1.471892  138.196  31.7147  0.603701
  7703.645  7703.660  0.500  1.468118  137.966  31.7816  0.610635
  7708.427  7708.410  0.500  1.464390  137.867  31.8776  0.618705
  7713.188  7713.190  0.500  1.460712  137.615  31.9366  0.626803
  7717.975  7717.990  0.500  1.457067  137.385  31.9995  0.634860
  7722.793  7722.800  0.500  1.453602  137.293  32.089  0.642956
  7727.618  7727.630  0.500  1.450119  137.06  32.1463  0.648961
  7732.513  7732.490  0.500  1.446450  136.83  32.2105  0.654394
  7737.351  7737.360  0.500  1.442575  136.521  32.2623  0.659502
  7742.271  7742.250  0.500  1.438698  136.591  32.4045  0.667041
  7747.175  7747.160  0.500  1.434846  136.262  32.4511  0.672761
  7752.111  7752.090  0.500  1.431099  136.082  32.5299  0.677958
  7757.049  7757.030  0.500  1.427384  135.877  32.6017  0.684035
  7762.013  7762.000  0.500  1.423517  135.672  32.6786  0.691657
  7767.005  7766.990  0.500  1.419703  135.436  32.7465  0.700142
  7772.011  7771.990  0.500  1.415938  135.242  32.8229  0.708234
  7777.036  7777.020  0.500  1.412117  135.053  32.9026  0.716454
  7782.040  7782.060  0.500  1.408368  134.838  32.9735  0.723307
  7787.142  7787.120  0.500  1.404660  134.591  33.0355  0.730277
  7792.177  7792.200  0.500  1.400871  134.439  33.1233  0.736876
  7797.279  7797.300  0.500  1.397183  134.231  33.1942  0.743104
  7802.406  7802.420  0.500  1.393267  134.034  33.2756  0.748192
  7807.556  7807.560  0.500  1.389362  133.798  33.347  0.753495
  7812.705  7812.720  0.500  1.385716  133.581  33.4145  0.758986
  7817.887  7817.900  0.500  1.381958  133.361  33.4852  0.764545
  7823.078  7823.090  0.500  1.377951  133.136  33.5627  0.771335
  7828.293  7828.310  0.500  1.373964  132.941  33.6475  0.777931
  7833.530  7833.540  0.500  1.370320  132.728  33.7164  0.784031
  7838.775  7838.790  0.500  1.366510  132.176  33.7043  0.789003
  7844.048  7844.060  0.500  1.362503  132.327  33.8782  0.798803
  7849.363  7849.350  0.500  1.358645  132.006  33.9267  0.805675
  7854.640  7854.660  0.500  1.354766  130.958  33.7882  0.808112
  7859.988  7859.990  0.500  1.350866  131.613  34.0898  0.821979
  7865.320  7865.340  0.500  1.347058  131.399  34.1642  0.831155
  7870.696  7870.710  0.500  1.343100  131.169  34.2397  0.840073
  7876.064  7876.090  0.500  1.339308  130.966  34.3167  0.849541
  7881.471  7881.500  0.500  1.335154  130.702  34.3901  0.858329
  7886.897  7886.920  0.500  1.331384  130.495  34.4652  0.867106
  7892.349  7892.370  0.500  1.327603  130.258  34.533  0.875703
  7897.806  7897.830  0.500  1.323736  129.946  34.5838  0.883356
  7903.289  7903.310  0.500  1.319902  129.749  34.664  0.892438
  7908.786  7908.810  0.500  1.316235  129.535  34.7338  0.901454
  7914.310  7914.330  0.500  1.312354  129.287  34.8022  0.909433
  7919.854  7919.870  0.500  1.308087  129.016  34.8778  0.918287
  7925.434  7925.420  0.500  1.304391  128.774  34.9413  0.926368
  7930.982  7931.000  0.500  1.300482  128.42  34.9816  0.934460
  7936.591  7936.600  0.500  1.296631  128.069  35.0207  0.940980
  7942.182  7942.210  0.500  1.292720  128.095  35.1651  0.949906
  7947.829  7947.850  0.500  1.288824  127.744  35.2056  0.956734
  7953.477  7953.500  0.500  1.284916  127.372  35.2405  0.963278
  7959.149  7959.170  0.500  1.281000  127.108  35.3054  0.971573
  7964.832  7964.860  0.500  1.277274  126.786  35.3473  0.979232