File: xdidata/Fe/Fe-NiFerrite.xdi
# XDI/1.0 BlueSky/1.10.0 BMM/2023-1.0-py310-tiled
# Beamline.name: BMM (06BM) -- Beamline for Materials Measurement (NIST)
# Beamline.xray_source: NSLS-II three-pole wiggler
# Beamline.collimation: paraboloid mirror, 5 nm Rh on 30 nm Pt
# Beamline.focusing: not in use
# Beamline.harmonic_rejection: flat mirror, Si stripe, pitch = 7.0 mrad relative to beam
# Beamline.software: Bluesky 1.10.0, Ophyd 1.7.0, DataBroker 2.0.0b13, Python 3.10.8, 2023-1.0-py310-tiled
# Detector.I0: 10 cm N2
# Detector.I1: 25 cm N2
# Detector.I2: 25 cm N2
# Element.symbol: Fe
# Element.edge: K
# Element.reference: Fe
# Element.reference_material: Fe foil
# Facility.name: NSLS-II
# Facility.energy: 3.0
# Facility.current: 400.2
# Facility.mode: top-off
# Facility.GUP: 123456
# Facility.SAF: 301027
# Facility.cycle: 2023-2
# Mono.name: Si(111)
# Mono.d_spacing: 3.13519
# Mono.encoder_resolution: 0.0000050 deg/ct
# Mono.angle_offset: 16.0754 deg
# Mono.scan_mode: pseudo channel cut
# Mono.scan_type: step
# Mono.direction: forward in energy
# Sample.name: NiFe2O4
# Sample.prep: PEG pellet
# Sample.x: 116.329 mm
# Sample.y: 114.126 mm
# Sample.SDD_position: 205.000 mm
# Scan.experimenters: Bruce Ravel
# Scan.edge_energy: 7112.0
# Scan.start_time: 2023-05-05T17:48:11
# Scan.end_time: 2023-05-05T17:56:23
# Scan.transient_id: 74531
# Scan.uid: 2f81a31a-4a77-4168-9e74-123fd3d817ea
# Scan.plot_hint: ln(I0/It)  --  ln($5/$6)
# Column.1: energy eV
# Column.2: requested_energy eV
# Column.3: measurement_time seconds
# Column.4: xmu
# Column.5: I0 nA
# Column.6: It nA
# Column.7: Ir nA
# ///////////
# courtesy Martin Stennett, University of Sheffield
# -----------
# energy  requested_energy  measurement_time  xmu  I0  It  Ir
  6912.001  6912.000  0.500  2.672943  153.607  10.6063  1.973867
  6922.011  6922.000  0.500  2.658508  153.459  10.7502  2.015118
  6932.015  6932.000  0.500  2.644309  153.417  10.901  2.057478
  6942.019  6942.000  0.500  2.630358  153.439  11.0557  2.102144
  6951.999  6952.000  0.500  2.616134  153.428  11.2133  2.147536
  6962.008  6962.000  0.500  2.602056  153.432  11.3726  2.193023
  6972.026  6972.000  0.500  2.588340  153.405  11.5276  2.238474
  6982.006  6982.000  0.500  2.574558  153.332  11.682  2.284225
  6992.008  6992.000  0.500  2.560779  153.308  11.8422  2.331163
  7002.013  7002.000  0.500  2.547241  153.257  11.9996  2.378085
  7012.008  7012.000  0.500  2.533699  153.195  12.1583  2.425738
  7022.014  7022.000  0.500  2.520297  153.134  12.3174  2.473686
  7032.010  7032.000  0.500  2.507368  153.074  12.4728  2.521170
  7042.008  7042.000  0.500  2.494099  152.987  12.6322  2.568889
  7052.005  7052.000  0.500  2.481204  152.884  12.7876  2.616787
  7062.008  7062.000  0.500  2.468464  152.153  12.8896  2.652141
  7072.011  7072.000  0.500  2.456170  152.664  13.0929  2.707257
  7081.969  7082.000  0.500  2.444717  152.725  13.249  2.749217
  7083.978  7084.000  0.500  2.442964  152.461  13.2493  2.751480
  7085.978  7086.000  0.500  2.440613  152.597  13.2923  2.760597
  7087.983  7088.000  0.500  2.438693  152.582  13.3165  2.766299
  7089.981  7090.000  0.500  2.436779  152.561  13.3403  2.771203
  7091.984  7092.000  0.500  2.434655  152.537  13.3665  2.776267
  7094.494  7094.000  0.500  2.432672  152.48  13.388  2.778282
  7096.112  7096.000  0.500  2.431452  152.477  13.4041  2.778499
  7097.997  7098.000  0.500  2.430310  152.475  13.4192  2.777464
  7099.990  7100.000  0.500  2.429023  152.439  13.4334  2.772613
  7101.997  7102.000  0.500  2.428256  152.398  13.44  2.762783
  7102.290  7102.300  0.500  2.428283  152.384  13.4384  2.759998
  7102.585  7102.600  0.500  2.428156  152.372  13.4391  2.757697
  7102.884  7102.900  0.500  2.427974  152.379  13.4421  2.755265
  7103.188  7103.200  0.500  2.428049  152.361  13.4396  2.752056
  7103.485  7103.500  0.500  2.428237  152.331  13.4344  2.749155
  7103.787  7103.800  0.500  2.428033  152.343  13.4382  2.746014
  7104.087  7104.100  0.500  2.428042  152.332  13.4371  2.742827
  7104.382  7104.400  0.500  2.428143  152.317  13.4345  2.738755
  7104.688  7104.700  0.500  2.428221  152.316  13.4333  2.734493
  7104.987  7105.000  0.500  2.428316  152.3  13.4306  2.729194
  7105.287  7105.300  0.500  2.428672  152.283  13.4243  2.723505
  7105.587  7105.600  0.500  2.428607  152.283  13.4252  2.718359
  7105.884  7105.900  0.500  2.428856  152.273  13.421  2.710781
  7106.188  7106.200  0.500  2.428952  152.262  13.4187  2.704838
  7106.488  7106.500  0.500  2.429272  152.256  13.4139  2.697146
  7106.792  7106.800  0.500  2.429684  152.243  13.4072  2.688465
  7107.089  7107.100  0.500  2.429830  152.233  13.4044  2.678979
  7107.385  7107.400  0.500  2.430239  152.232  13.3988  2.668375
  7107.691  7107.700  0.500  2.430838  152.194  13.3875  2.654435
  7107.989  7108.000  0.500  2.431251  152.217  13.3839  2.640706
  7108.291  7108.300  0.500  2.431685  152.198  13.3764  2.623914
  7108.589  7108.600  0.500  2.432333  152.207  13.3686  2.603789
  7108.884  7108.900  0.500  2.432987  152.171  13.3567  2.581369
  7109.191  7109.200  0.500  2.434159  152.171  13.3411  2.552034
  7109.497  7109.500  0.500  2.435112  152.148  13.3263  2.515136
  7109.797  7109.800  0.500  2.436463  152.152  13.3087  2.467494
  7110.093  7110.100  0.500  2.438143  152.112  13.2829  2.401716
  7110.395  7110.400  0.500  2.440257  152.083  13.2523  2.310134
  7110.695  7110.700  0.500  2.442752  152.052  13.2166  2.183906
  7110.995  7111.000  0.500  2.446038  152.052  13.1732  2.019392
  7111.295  7111.300  0.500  2.450237  152.011  13.1145  1.824790
  7111.591  7111.600  0.500  2.456909  151.977  13.0243  1.623501
  7111.889  7111.900  0.500  2.466444  151.963  12.8996  1.435844
  7112.196  7112.200  0.500  2.481633  151.924  12.7019  1.278168
  7112.494  7112.500  0.500  2.504137  151.896  12.4169  1.153111
  7112.792  7112.800  0.500  2.533962  151.86  12.0492  1.048078
  7113.097  7113.100  0.500  2.568303  151.858  11.6423  0.955963
  7113.393  7113.400  0.500  2.599723  151.832  11.2802  0.879183
  7113.699  7113.700  0.500  2.618885  151.799  11.0638  0.818209
  7114.002  7114.000  0.500  2.618111  151.794  11.0719  0.780374
  7114.298  7114.300  0.500  2.601297  151.793  11.2596  0.759994
  7114.600  7114.600  0.500  2.579841  151.795  11.5039  0.747884
  7114.897  7114.900  0.500  2.562210  151.761  11.7059  0.739072
  7115.199  7115.200  0.500  2.551301  151.757  11.834  0.730620
  7115.498  7115.500  0.500  2.546477  151.744  11.8902  0.722470
  7115.798  7115.800  0.500  2.545538  151.738  11.901  0.714350
  7116.094  7116.100  0.500  2.546658  151.72  11.8862  0.707208
  7116.395  7116.400  0.500  2.549137  151.712  11.8562  0.698136
  7116.696  7116.700  0.500  2.551910  151.692  11.8217  0.686640
  7116.996  7117.000  0.500  2.555209  151.696  11.7831  0.669735
  7117.295  7117.300  0.500  2.558238  151.661  11.7448  0.646777
  7117.595  7117.600  0.500  2.561055  151.651  11.711  0.617801
  7117.896  7117.900  0.500  2.565597  151.641  11.6571  0.581476
  7118.203  7118.200  0.500  2.571637  151.638  11.5867  0.539425
  7118.508  7118.500  0.500  2.580053  151.612  11.4877  0.496837
  7118.803  7118.800  0.500  2.591648  151.603  11.3545  0.454803
  7119.101  7119.100  0.500  2.606732  151.589  11.1835  0.414276
  7119.402  7119.400  0.500  2.626267  151.561  10.9651  0.375135
  7119.703  7119.700  0.500  2.650479  151.541  10.7014  0.338161
  7119.998  7120.000  0.500  2.680894  151.538  10.3807  0.302024
  7120.296  7120.300  0.500  2.719439  151.523  9.987154  0.266782
  7120.595  7120.600  0.500  2.766844  151.5  9.523305  0.233249
  7120.894  7120.900  0.500  2.824476  151.488  8.989279  0.201801
  7121.201  7121.200  0.500  2.891396  151.471  8.406450  0.173715
  7121.498  7121.500  0.500  2.963222  151.464  7.823438  0.149878
  7121.797  7121.800  0.500  3.038556  151.446  7.254848  0.129908
  7122.100  7122.100  0.500  3.115535  151.423  6.716357  0.112785
  7122.397  7122.400  0.500  3.187925  151.408  6.246720  0.098913
  7122.707  7122.700  0.500  3.256948  151.413  5.830257  0.087312
  7123.001  7123.000  0.500  3.315954  151.376  5.494847  0.078356
  7123.301  7123.300  0.500  3.370502  151.345  5.202076  0.070676
  7123.600  7123.600  0.500  3.419228  151.342  4.954585  0.064540
  7123.903  7123.900  0.500  3.466151  151.324  4.726919  0.059544
  7124.202  7124.200  0.500  3.513936  151.317  4.506145  0.054684
  7124.497  7124.500  0.500  3.565222  151.299  4.280349  0.050125
  7124.800  7124.800  0.500  3.624756  151.274  4.032301  0.045681
  7125.095  7125.100  0.500  3.693139  151.253  3.765244  0.041255
  7125.403  7125.400  0.500  3.772841  151.244  3.476603  0.037056
  7125.700  7125.700  0.500  3.857995  151.217  3.192225  0.033059
  7125.997  7126.000  0.500  3.947515  151.415  2.922705  0.029351
  7126.301  7126.300  0.500  4.040510  151.784  2.669648  0.026083
  7126.605  7126.600  0.500  4.131684  151.748  2.436445  0.022990
  7126.904  7126.900  0.500  4.215861  151.727  2.239425  0.020417
  7127.201  7127.200  0.500  4.289539  151.693  2.079906  0.018476
  7127.501  7127.500  0.500  4.352457  151.676  1.952848  0.016503
  7127.800  7127.800  0.500  4.403730  151.645  1.854869  0.015093
  7128.104  7128.100  0.500  4.447067  151.617  1.775871  0.013746
  7128.405  7128.400  0.500  4.486642  151.602  1.706790  0.012720
  7128.701  7128.700  0.500  4.524881  151.563  1.642338  0.011629
  7128.996  7129.000  0.500  4.566978  151.547  1.574470  0.010661
  7129.295  7129.300  0.500  4.614350  151.506  1.501211  0.009718
  7129.599  7129.600  0.500  4.671363  151.491  1.417881  0.008763
  7129.901  7129.900  0.500  4.734183  151.425  1.330970  0.007785
  7130.198  7130.200  0.500  4.803418  151.443  1.242088  0.007108
  7130.500  7130.500  0.500  4.876065  151.407  1.154779  0.006421
  7130.800  7130.800  0.500  4.951481  151.369  1.070624  0.005890
  7131.106  7131.100  0.500  5.028055  151.336  0.991485  0.005376
  7131.406  7131.400  0.500  5.097727  151.302  0.924548  0.005102
  7131.704  7131.700  0.500  5.157677  151.275  0.870598  0.004858
  7131.999  7132.000  0.500  5.202427  151.254  0.832382  0.004800
  7132.299  7132.300  0.500  5.231640  151.27  0.808502  0.004745
  7132.603  7132.600  0.500  5.243053  151.247  0.799204  0.004986
  7132.896  7132.900  0.500  5.237002  151.218  0.803903  0.005186
  7133.194  7133.200  0.500  5.215449  151.24  0.821536  0.005481
  7133.496  7133.500  0.500  5.179888  151.228  0.851209  0.005933
  7133.798  7133.800  0.500  5.135741  151.192  0.889414  0.006547
  7134.100  7134.100  0.500  5.087465  151.247  0.933745  0.006915
  7134.400  7134.400  0.500  5.038222  151.225  0.980736  0.007485
  7134.701  7134.700  0.500  4.991732  151.217  1.027350  0.008153
  7135.001  7135.000  0.500  4.948238  151.22  1.073039  0.008673
  7135.305  7135.300  0.500  4.909698  151.209  1.115126  0.009119
  7135.607  7135.600  0.500  4.876539  151.197  1.152628  0.009758
  7135.901  7135.900  0.500  4.851210  151.176  1.182028  0.010099
  7136.199  7136.200  0.500  4.831450  151.158  1.205474  0.010406
  7136.503  7136.500  0.500  4.816894  151.16  1.223171  0.010590
  7136.801  7136.800  0.500  4.806516  151.148  1.235833  0.010744
  7136.989  7137.000  0.500  4.800815  151.15  1.242916  0.010989
  7137.996  7137.990  0.500  4.779642  151.141  1.269434  0.010851
  7139.001  7138.990  0.500  4.754865  151.146  1.301323  0.010579
  7140.023  7140.010  0.500  4.714004  151.131  1.355464  0.010686
  7141.079  7141.060  0.500  4.648076  151.13  1.447826  0.010877
  7142.138  7142.120  0.500  4.570517  151.141  1.564705  0.011675
  7143.225  7143.200  0.500  4.513256  151.132  1.656816  0.012592
  7144.289  7144.300  0.500  4.498212  151.071  1.681248  0.012961
  7145.409  7145.420  0.500  4.519379  151.056  1.645869  0.012688
  7146.550  7146.560  0.500  4.544026  151.063  1.605876  0.011919
  7147.696  7147.710  0.500  4.531759  151.057  1.625634  0.011262
  7148.879  7148.890  0.500  4.474354  151.022  1.721289  0.011219
  7150.074  7150.080  0.500  4.395158  151.042  1.863398  0.011492
  7151.299  7151.300  0.500  4.319244  151.038  2.010308  0.012100
  7152.532  7152.530  0.500  4.266561  151.019  2.118789  0.012450
  7153.782  7153.780  0.500  4.230296  150.988  2.196588  0.012764
  7155.060  7155.050  0.500  4.197224  150.979  2.270317  0.013353
  7156.344  7156.340  0.500  4.160425  150.981  2.355442  0.014038
  7157.661  7157.650  0.500  4.120581  150.949  2.450674  0.014821
  7158.984  7158.980  0.500  4.082250  150.93  2.546102  0.015461
  7160.332  7160.330  0.500  4.052163  150.907  2.623483  0.015932
  7161.703  7161.700  0.500  4.037308  150.868  2.662060  0.016291
  7163.080  7163.080  0.500  4.036343  150.832  2.663982  0.016614
  7164.489  7164.490  0.500  4.043168  150.763  2.644649  0.016761
  7165.909  7165.910  0.500  4.054188  150.674  2.614137  0.016936
  7167.360  7167.350  0.500  4.068611  150.683  2.576857  0.016813
  7168.809  7168.810  0.500  4.088437  150.651  2.525724  0.016725
  7170.290  7170.290  0.500  4.115994  150.628  2.456697  0.016497
  7171.786  7171.790  0.500  4.151937  150.594  2.369427  0.016474
  7173.314  7173.310  0.500  4.196105  150.552  2.266423  0.016525
  7174.853  7174.850  0.500  4.241542  150.522  2.165317  0.016466
  7176.415  7176.410  0.500  4.272960  150.482  2.097793  0.016878
  7177.989  7177.980  0.500  4.294226  150.449  2.053201  0.017441
  7179.585  7179.580  0.500  4.318691  150.425  2.003254  0.017565
  7181.193  7181.190  0.500  4.348030  150.402  1.945033  0.017205
  7182.834  7182.830  0.500  4.373443  150.368  1.895802  0.016586
  7184.483  7184.480  0.500  4.386521  150.321  1.870583  0.016049
  7186.157  7186.150  0.500  4.389572  150.274  1.864303  0.015378
  7187.844  7187.840  0.500  4.390086  150.228  1.862772  0.014649
  7189.559  7189.550  0.500  4.389271  150.216  1.864145  0.014057
  7191.290  7191.280  0.500  4.386022  148.578  1.849815  0.013054
  7193.033  7193.030  0.500  4.379521  149.859  1.877936  0.012599
  7194.794  7194.790  0.500  4.367026  150.031  1.903730  0.012316
  7196.587  7196.580  0.500  4.348615  150.021  1.938982  0.012885
  7198.387  7198.380  0.500  4.327183  149.977  1.980396  0.013867
  7200.219  7200.210  0.500  4.304494  149.912  2.024970  0.015044
  7202.064  7202.050  0.500  4.279976  149.889  2.074913  0.016684
  7203.920  7203.910  0.500  4.255957  149.836  2.124598  0.018474
  7205.799  7205.790  0.500  4.234288  149.779  2.170310  0.020155
  7207.697  7207.690  0.500  4.216654  149.727  2.208162  0.021105
  7209.618  7209.610  0.500  4.202819  149.673  2.238107  0.020903
  7211.555  7211.550  0.500  4.194358  149.621  2.256346  0.018856
  7213.520  7213.510  0.500  4.191720  149.585  2.261760  0.016101
  7215.495  7215.480  0.500  4.194252  149.521  2.255075  0.013518
  7217.491  7217.480  0.500  4.198830  149.4  2.242963  0.011622
  7219.502  7219.490  0.500  4.204960  149.403  2.229293  0.010427
  7221.531  7221.520  0.500  4.211233  149.377  2.214974  0.010233
  7223.593  7223.580  0.500  4.216844  149.307  2.201546  0.010672
  7225.660  7225.650  0.500  4.220710  149.185  2.191262  0.012027
  7227.750  7227.740  0.500  4.221807  146.568  2.150456  0.013690
  7229.862  7229.850  0.500  4.217580  149.351  2.200579  0.016039
  7231.989  7231.980  0.500  4.208059  149.299  2.220849  0.018744
  7234.132  7234.120  0.500  4.194899  149.256  2.249628  0.021274
  7236.303  7236.290  0.500  4.179693  149.204  2.283305  0.023205
  7238.489  7238.480  0.500  4.162282  149.161  2.322734  0.024429
  7240.701  7240.680  0.500  4.142263  149.118  2.369015  0.024653
  7242.910  7242.900  0.500  4.119361  149.089  2.423432  0.024442
  7245.158  7245.150  0.500  4.094733  146.282  2.437082  0.023423
  7247.423  7247.410  0.500  4.074478  148.819  2.530084  0.023234
  7249.701  7249.690  0.500  4.062313  148.821  2.561079  0.023004
  7252.000  7251.990  0.500  4.060506  148.748  2.564465  0.023241
  7254.324  7254.310  0.500  4.065151  146.351  2.511440  0.023471
  7256.657  7256.650  0.500  4.076845  148.855  2.524709  0.024166
  7259.010  7259.000  0.500  4.093237  148.72  2.481413  0.023454
  7261.394  7261.380  0.500  4.112750  148.266  2.426035  0.022336
  7263.782  7263.770  0.500  4.126361  136.415  2.201943  0.019698
  7266.198  7266.190  0.500  4.149197  148.513  2.343095  0.020625
  7268.634  7268.620  0.500  4.160960  149.072  2.324410  0.019787
  7271.085  7271.070  0.500  4.166222  149.027  2.311520  0.018826
  7273.565  7273.550  0.500  4.165624  147.747  2.293032  0.017758
  7276.051  7276.040  0.500  4.164679  149.075  2.315840  0.017295
  7278.557  7278.550  0.500  4.161586  149.019  2.322134  0.017104
  7281.083  7281.070  0.500  4.155196  148.989  2.336549  0.016624
  7283.637  7283.620  0.500  4.146001  147.819  2.339624  0.015983
  7286.196  7286.190  0.500  4.134422  148.623  2.379735  0.015808
  7288.781  7288.770  0.500  4.118674  148.706  2.418859  0.015910
  7291.402  7291.380  0.500  4.099979  148.687  2.464198  0.016635
  7294.009  7294.000  0.500  4.080927  148.694  2.511717  0.018415
  7296.661  7296.650  0.500  4.064406  148.63  2.552447  0.020682
  7299.327  7299.310  0.500  4.050886  148.503  2.584975  0.022881
  7302.001  7301.990  0.500  4.040985  146.926  2.582976  0.024597
  7304.700  7304.690  0.500  4.030686  148.62  2.639808  0.026462
  7307.424  7307.410  0.500  4.020975  148.549  2.664292  0.027766
  7310.163  7310.150  0.500  4.010573  148.482  2.690941  0.028204
  7312.907  7312.900  0.500  4.001475  148.372  2.713516  0.028490
  7315.694  7315.680  0.500  3.995376  148.346  2.729638  0.028799
  7318.483  7318.470  0.500  3.993993  148.326  2.733047  0.028682
  7321.302  7321.290  0.500  3.995973  148.27  2.726625  0.029008
  7324.134  7324.120  0.500  3.998863  148.21  2.717658  0.028908
  7326.983  7326.970  0.500  4.003355  148.558  2.711826  0.028929
  7329.865  7329.850  0.500  4.006975  148.662  2.703908  0.029054
  7332.755  7332.740  0.500  4.007930  148.557  2.699423  0.029490
  7335.658  7335.650  0.500  4.004028  148.546  2.709772  0.030262
  7338.585  7338.570  0.500  3.995121  147.193  2.709127  0.030751
  7341.532  7341.520  0.500  3.986340  148.266  2.752936  0.030879
  7344.506  7344.490  0.500  3.975655  148.267  2.782531  0.030113
  7347.484  7347.470  0.500  3.963756  148.228  2.815094  0.028748
  7350.491  7350.480  0.500  3.950756  148.186  2.851114  0.027657
  7353.517  7353.500  0.500  3.938314  148.123  2.885590  0.026721
  7356.564  7356.550  0.500  3.928412  148.02  2.912280  0.025801
  7359.630  7359.610  0.500  3.920214  147.955  2.934955  0.025076
  7362.703  7362.690  0.500  3.913766  147.862  2.952088  0.024461
  7365.799  7365.790  0.500  3.908660  147.775  2.965463  0.024315
  7368.917  7368.910  0.500  3.905843  147.725  2.972812  0.024739
  7372.060  7372.050  0.500  3.903572  147.685  2.978758  0.025683
  7375.216  7375.200  0.500  3.901574  147.607  2.983155  0.027717
  7378.393  7378.380  0.500  3.898700  147.528  2.990126  0.030610
  7381.584  7381.570  0.500  3.893661  147.487  3.004398  0.034087
  7384.801  7384.790  0.500  3.887212  147.398  3.022008  0.036712
  7388.026  7388.020  0.500  3.880908  147.335  3.039819  0.038139
  7391.279  7391.270  0.500  3.876217  147.254  3.052438  0.037988
  7394.563  7394.550  0.500  3.873167  147.174  3.060108  0.037582
  7397.846  7397.840  0.500  3.871870  147.091  3.062348  0.037108
  7401.157  7401.150  0.500  3.869227  147.012  3.068808  0.037021
  7404.479  7404.470  0.500  3.865373  146.914  3.078594  0.037207
  7407.831  7407.820  0.500  3.859174  146.832  3.096014  0.037493
  7411.201  7411.190  0.500  3.851464  146.775  3.118755  0.037822
  7414.580  7414.570  0.500  3.842999  146.689  3.143431  0.037861
  7417.982  7417.980  0.500  3.834044  146.576  3.169276  0.038299
  7421.401  7421.400  0.500  3.824954  146.476  3.196018  0.039126
  7424.859  7424.850  0.500  3.816127  146.406  3.222813  0.040233
  7428.322  7428.310  0.500  3.808119  146.324  3.246915  0.041211
  7431.798  7431.790  0.500  3.799718  146.241  3.272445  0.041700
  7435.298  7435.290  0.500  3.790868  146.113  3.298650  0.041746
  7438.819  7438.810  0.500  3.782254  145.998  3.324571  0.041437
  7442.359  7442.350  0.500  3.774482  145.845  3.347002  0.040647
  7445.907  7445.900  0.500  3.768101  141.886  3.276985  0.038604
  7449.493  7449.480  0.500  3.763683  145.763  3.381425  0.039004
  7453.095  7453.080  0.500  3.759121  144.493  3.367305  0.038532
  7456.702  7456.690  0.500  3.756328  145.56  3.401657  0.038859
  7460.331  7460.320  0.500  3.752343  144.909  3.399952  0.039230
  7463.990  7463.980  0.500  3.745105  145.347  3.435004  0.040269
  7467.657  7467.650  0.500  3.737010  141.35  3.367693  0.040422
  7471.350  7471.340  0.500  3.728224  145.27  3.491632  0.043154
  7475.058  7475.050  0.500  3.719010  145.161  3.521325  0.045172
  7478.794  7478.780  0.500  3.711479  145.018  3.544441  0.046473
  7482.533  7482.520  0.500  3.705727  144.878  3.561434  0.047676
  7486.305  7486.290  0.500  3.700729  144.772  3.576662  0.049125
  7490.091  7490.080  0.500  3.695823  144.623  3.590562  0.050781
  7493.897  7493.880  0.500  3.689804  144.532  3.609967  0.052145
  7497.722  7497.710  0.500  3.683209  144.446  3.631696  0.052735
  7501.558  7501.550  0.500  3.677154  144.303  3.650117  0.052838
  7505.431  7505.410  0.500  3.671277  144.186  3.668663  0.052646
  7509.304  7509.290  0.500  3.665682  144.034  3.685350  0.052855
  7513.206  7513.190  0.500  3.659354  143.911  3.705575  0.053367
  7517.130  7517.110  0.500  3.652618  143.804  3.727848  0.054142
  7521.066  7521.050  0.500  3.645951  143.641  3.748534  0.054893
  7525.043  7525.010  0.500  3.639311  143.513  3.770158  0.055158
  7528.980  7528.980  0.500  3.633485  143.386  3.788829  0.055441
  7532.994  7532.980  0.500  3.627185  143.232  3.808677  0.055780
  7537.011  7536.990  0.500  3.621328  143.085  3.827116  0.056104
  7541.048  7541.030  0.500  3.615076  142.963  3.847837  0.056889
  7545.083  7545.080  0.500  3.608909  142.84  3.868304  0.057671
  7549.168  7549.150  0.500  3.602093  142.666  3.890022  0.058318
  7553.256  7553.240  0.500  3.594402  142.536  3.916466  0.058707
  7557.343  7557.350  0.500  3.586012  142.396  3.945593  0.058631
  7561.506  7561.480  0.500  3.577868  142.262  3.974118  0.058656
  7565.622  7565.630  0.500  3.570477  142.105  3.999184  0.058715
  7569.777  7569.790  0.500  3.563651  141.965  4.022616  0.059663
  7573.973  7573.980  0.500  3.557159  141.825  4.044821  0.060907
  7578.165  7578.180  0.500  3.551124  141.572  4.062037  0.062807
  7582.405  7582.410  0.500  3.544744  141.456  4.084680  0.064627
  7586.645  7586.650  0.500  3.538103  141.255  4.106065  0.066090
  7590.902  7590.910  0.500  3.531546  141.073  4.127743  0.067254
  7595.185  7595.190  0.500  3.525403  140.869  4.147170  0.067947
  7599.477  7599.490  0.500  3.519555  140.598  4.163472  0.068308
  7603.808  7603.810  0.500  3.513301  140.034  4.172777  0.068927
  7608.174  7608.150  0.500  3.507602  139.82  4.190235  0.069883
  7612.509  7612.510  0.500  3.501456  139.585  4.208968  0.071091
  7616.908  7616.890  0.500  3.494413  139.552  4.237702  0.072350
  7621.299  7621.280  0.500  3.487599  139.613  4.268547  0.072896
  7625.731  7625.700  0.500  3.480170  139.65  4.301510  0.073572
  7630.153  7630.130  0.500  3.472737  139.5  4.328950  0.074227
  7634.603  7634.580  0.500  3.464858  139.342  4.358272  0.075518
  7639.041  7639.050  0.500  3.457149  139.169  4.386524  0.077040
  7643.534  7643.540  0.500  3.449833  139.015  4.413867  0.078361
  7648.055  7648.050  0.500  3.442677  138.854  4.440408  0.079841
  7652.574  7652.580  0.500  3.435759  138.688  4.465875  0.081026
  7657.148  7657.130  0.500  3.428989  138.523  4.490862  0.081937
  7661.711  7661.700  0.500  3.422094  138.343  4.516075  0.082625
  7666.264  7666.280  0.500  3.415346  138.152  4.540361  0.083149
  7670.873  7670.890  0.500  3.408604  137.937  4.563983  0.083606
  7675.506  7675.510  0.500  3.401748  137.738  4.588735  0.083938
  7680.146  7680.160  0.500  3.395211  137.52  4.611523  0.084407
  7684.800  7684.820  0.500  3.388949  137.239  4.630996  0.085151
  7689.483  7689.500  0.500  3.382650  137.351  4.664080  0.086301
  7694.217  7694.200  0.500  3.376688  137.101  4.683425  0.087595
  7698.944  7698.920  0.500  3.370714  136.908  4.704863  0.088876
  7703.672  7703.660  0.500  3.364510  136.648  4.725131  0.090029
  7708.432  7708.410  0.500  3.357851  136.545  4.753115  0.091566
  7713.170  7713.190  0.500  3.351219  136.281  4.775498  0.093183
  7717.975  7717.990  0.500  3.344358  136.057  4.800468  0.094636
  7722.799  7722.800  0.500  3.337318  135.915  4.829331  0.096174
  7727.644  7727.630  0.500  3.329963  135.696  4.857165  0.097384
  7732.488  7732.490  0.500  3.322315  135.47  4.886285  0.098599
  7737.374  7737.360  0.500  3.314816  135.167  4.912080  0.099723
  7742.238  7742.250  0.500  3.307581  135.309  4.952922  0.101156
  7747.145  7747.160  0.500  3.300178  135.009  4.978686  0.102572
  7752.088  7752.090  0.500  3.292593  134.748  5.006890  0.103652
  7757.010  7757.030  0.500  3.285730  134.537  5.033481  0.104815
  7761.977  7762.000  0.500  3.278576  134.352  5.062645  0.106568
  7766.966  7766.990  0.500  3.271710  134.149  5.089807  0.107933
  7772.006  7771.990  0.500  3.265023  133.995  5.118095  0.109652
  7777.034  7777.020  0.500  3.258117  133.792  5.145748  0.111352
  7782.077  7782.060  0.500  3.251311  133.595  5.173244  0.112819
  7787.142  7787.120  0.500  3.244523  133.388  5.200410  0.114200
  7792.193  7792.200  0.500  3.237693  133.2  5.228685  0.115560
  7797.302  7797.300  0.500  3.230914  132.986  5.255790  0.116867
  7802.419  7802.420  0.500  3.224011  132.799  5.284737  0.118075
  7807.582  7807.560  0.500  3.217270  132.565  5.311104  0.119302
  7812.712  7812.720  0.500  3.210334  132.353  5.339548  0.120483
  7817.889  7817.900  0.500  3.203221  132.167  5.370095  0.121871
  7823.099  7823.090  0.500  3.196227  131.997  5.400834  0.123413
  7828.322  7828.310  0.500  3.189270  131.795  5.430213  0.124775
  7833.530  7833.540  0.500  3.181863  131.586  5.461894  0.126082
  7838.780  7838.790  0.500  3.174396  131.135  5.483992  0.127563
  7844.067  7844.060  0.500  3.167177  131.205  5.526666  0.129532
  7849.334  7849.350  0.500  3.160064  130.905  5.553368  0.130956
  7854.645  7854.660  0.500  3.152895  129.858  5.548595  0.131833
  7859.967  7859.990  0.500  3.145491  130.562  5.620148  0.134655
  7865.317  7865.340  0.500  3.138181  130.379  5.653428  0.136644
  7870.698  7870.710  0.500  3.130854  130.192  5.686839  0.138675
  7876.109  7876.090  0.500  3.123846  130.015  5.719038  0.140762
  7881.482  7881.500  0.500  3.117069  129.808  5.748781  0.142614
  7886.899  7886.920  0.500  3.110100  129.597  5.779581  0.144567
  7892.351  7892.370  0.500  3.103206  129.37  5.809360  0.146437
  7897.819  7897.830  0.500  3.096389  129.045  5.834420  0.148132
  7903.297  7903.310  0.500  3.089240  128.904  5.869837  0.150143
  7908.797  7908.810  0.500  3.082428  128.731  5.902033  0.152135
  7914.310  7914.330  0.500  3.075325  128.929  5.953267  0.154675
  7919.860  7919.870  0.500  3.068399  128.716  5.984713  0.156579
  7925.413  7925.420  0.500  3.061262  128.516  6.018226  0.158434
  7931.025  7931.000  0.500  3.054201  128.157  6.043923  0.160371
  7936.586  7936.600  0.500  3.047136  127.8  6.069836  0.162025
  7942.206  7942.210  0.500  3.040146  127.837  6.114182  0.164115
  7947.835  7947.850  0.500  3.033283  127.589  6.144354  0.165944
  7953.485  7953.500  0.500  3.025973  127.251  6.173022  0.167804
  7959.146  7959.170  0.500  3.019118  126.992  6.202813  0.169649
  7964.851  7964.860  0.500  3.011934  126.724  6.234365  0.171699