File: xdidata/Fe/Fe-Staurolite.xdi
# XDI/1.0 BlueSky/1.10.0 BMM/2023-1.0-py310-tiled
# Beamline.name: BMM (06BM) -- Beamline for Materials Measurement (NIST)
# Beamline.xray_source: NSLS-II three-pole wiggler
# Beamline.collimation: paraboloid mirror, 5 nm Rh on 30 nm Pt
# Beamline.focusing: not in use
# Beamline.harmonic_rejection: flat mirror, Si stripe, pitch = 7.0 mrad relative to beam
# Beamline.software: Bluesky 1.10.0, Ophyd 1.7.0, DataBroker 2.0.0b13, Python 3.10.8, 2023-1.0-py310-tiled
# Detector.I0: 10 cm N2
# Detector.I1: 25 cm N2
# Detector.I2: 25 cm N2
# Element.symbol: Fe
# Element.edge: K
# Element.reference: Fe
# Element.reference_material: Fe foil
# Facility.name: NSLS-II
# Facility.energy: 3.0
# Facility.current: 400.0
# Facility.mode: top-off
# Facility.GUP: 123456
# Facility.SAF: 301027
# Facility.cycle: 2023-2
# Mono.name: Si(111)
# Mono.d_spacing: 3.13519
# Mono.encoder_resolution: 0.0000050 deg/ct
# Mono.angle_offset: 16.0754 deg
# Mono.scan_mode: pseudo channel cut
# Mono.scan_type: step
# Mono.direction: forward in energy
# Sample.name: Fe2Al9O6(SiO4)4(O,OH)2
# Sample.prep: PEG pellet
# Sample.x: 116.329 mm
# Sample.y: 114.126 mm
# Sample.SDD_position: 205.000 mm
# Scan.experimenters: Bruce Ravel
# Scan.edge_energy: 7112.0
# Scan.start_time: 2023-05-05T18:23:37
# Scan.end_time: 2023-05-05T18:31:45
# Scan.transient_id: 74551
# Scan.uid: a1a016e6-d5ef-4944-9a33-8460f1c36667
# Scan.plot_hint: ln(I0/It)  --  ln($5/$6)
# Column.1: energy eV
# Column.2: requested_energy eV
# Column.3: measurement_time seconds
# Column.4: xmu
# Column.5: I0 nA
# Column.6: It nA
# Column.7: Ir nA
# ///////////
# courtesy Martin Stennett, University of Sheffield
# -----------
# energy  requested_energy  measurement_time  xmu  I0  It  Ir
  6912.005  6912.000  0.500  2.946137  153.884  8.085431  1.518561
  6922.013  6922.000  0.500  2.931031  153.713  8.199387  1.550347
  6932.013  6932.000  0.500  2.916297  153.681  8.319303  1.584537
  6942.013  6942.000  0.500  2.901359  153.688  8.444928  1.619747
  6952.014  6952.000  0.500  2.886784  153.672  8.567991  1.654540
  6962.016  6962.000  0.500  2.872282  153.663  8.692683  1.690244
  6972.030  6972.000  0.500  2.858049  153.642  8.816063  1.726179
  6982.002  6982.000  0.500  2.844192  153.612  8.937321  1.761810
  6992.006  6992.000  0.500  2.829570  153.588  9.067554  1.799958
  7002.009  7002.000  0.500  2.815217  153.521  9.194609  1.837166
  7012.012  7012.000  0.500  2.801485  153.444  9.317065  1.874060
  7022.010  7022.000  0.500  2.788025  153.383  9.439605  1.910642
  7032.008  7032.000  0.500  2.774018  153.312  9.568310  1.949794
  7042.011  7042.000  0.500  2.760052  153.222  9.697192  1.988356
  7052.011  7052.000  0.500  2.745977  153.152  9.830130  2.026281
  7062.008  7062.000  0.500  2.732682  152.397  9.912582  2.055416
  7072.011  7072.000  0.500  2.719295  152.906  10.0798  2.100214
  7081.976  7082.000  0.500  2.706276  152.832  10.2069  2.134003
  7083.978  7084.000  0.500  2.703933  152.663  10.2195  2.138056
  7085.976  7086.000  0.500  2.701311  152.793  10.2551  2.146421
  7087.985  7088.000  0.500  2.698879  152.808  10.281  2.152154
  7089.983  7090.000  0.500  2.696783  152.779  10.3007  2.156167
  7091.989  7092.000  0.500  2.694164  152.785  10.3281  2.161004
  7094.439  7094.000  0.500  2.690961  152.74  10.3582  2.164690
  7095.990  7096.000  0.500  2.689438  152.708  10.3718  2.166124
  7098.001  7098.000  0.500  2.686741  152.685  10.3982  2.167771
  7099.988  7100.000  0.500  2.684514  152.665  10.4201  2.166197
  7101.997  7102.000  0.500  2.682417  152.634  10.4398  2.161137
  7102.292  7102.300  0.500  2.682210  152.642  10.4425  2.160186
  7102.585  7102.600  0.500  2.682314  152.62  10.4399  2.158391
  7102.884  7102.900  0.500  2.681538  152.63  10.4487  2.157500
  7103.190  7103.200  0.500  2.681416  152.616  10.449  2.155329
  7103.485  7103.500  0.500  2.681070  152.547  10.4479  2.153203
  7103.787  7103.800  0.500  2.680741  152.588  10.4542  2.151919
  7104.084  7104.100  0.500  2.680461  152.589  10.4571  2.149819
  7104.384  7104.400  0.500  2.680209  152.569  10.4584  2.146867
  7104.686  7104.700  0.500  2.679801  152.583  10.4636  2.144842
  7104.987  7105.000  0.500  2.679717  152.582  10.4645  2.141912
  7105.289  7105.300  0.500  2.679361  152.564  10.4669  2.138831
  7105.584  7105.600  0.500  2.679241  152.562  10.4681  2.134863
  7105.884  7105.900  0.500  2.679190  152.553  10.468  2.130306
  7106.186  7106.200  0.500  2.678991  152.549  10.4698  2.125742
  7106.488  7106.500  0.500  2.678938  152.529  10.469  2.119991
  7106.787  7106.800  0.500  2.678832  152.502  10.4682  2.113868
  7107.089  7107.100  0.500  2.679080  152.481  10.4642  2.106378
  7107.389  7107.400  0.500  2.678738  152.472  10.4672  2.098542
  7107.687  7107.700  0.500  2.678909  152.476  10.4656  2.089815
  7107.987  7108.000  0.500  2.678948  152.484  10.4658  2.079467
  7108.293  7108.300  0.500  2.678968  152.466  10.4644  2.067096
  7108.586  7108.600  0.500  2.679144  152.478  10.4633  2.053275
  7108.888  7108.900  0.500  2.679526  152.445  10.4571  2.034825
  7109.191  7109.200  0.500  2.679658  152.439  10.4553  2.013692
  7109.493  7109.500  0.500  2.679984  152.425  10.4509  1.986082
  7109.793  7109.800  0.500  2.680954  152.425  10.4408  1.948933
  7110.097  7110.100  0.500  2.682327  152.388  10.4239  1.896437
  7110.391  7110.400  0.500  2.684347  152.395  10.4034  1.824933
  7110.695  7110.700  0.500  2.687900  152.382  10.3656  1.723101
  7110.997  7111.000  0.500  2.693106  152.315  10.3072  1.588010
  7111.299  7111.300  0.500  2.700929  152.295  10.2256  1.430063
  7111.593  7111.600  0.500  2.709815  152.259  10.1327  1.267985
  7111.891  7111.900  0.500  2.717136  152.194  10.0545  1.123568
  7112.191  7112.200  0.500  2.718955  152.176  10.035  1.014392
  7112.490  7112.500  0.500  2.715337  152.158  10.0702  0.938319
  7112.794  7112.800  0.500  2.710161  152.146  10.1217  0.882383
  7113.092  7113.100  0.500  2.706186  152.129  10.1608  0.837323
  7113.397  7113.400  0.500  2.703704  152.117  10.1853  0.796974
  7113.701  7113.700  0.500  2.700955  152.097  10.212  0.760116
  7114.000  7114.000  0.500  2.697529  152.065  10.2449  0.726932
  7114.302  7114.300  0.500  2.694143  152.066  10.2797  0.698622
  7114.598  7114.600  0.500  2.691988  152.066  10.3018  0.675084
  7114.899  7114.900  0.500  2.691293  152.052  10.3081  0.655754
  7115.197  7115.200  0.500  2.691494  152.027  10.3044  0.641215
  7115.502  7115.500  0.500  2.692352  151.999  10.2936  0.630358
  7115.802  7115.800  0.500  2.694587  152.02  10.2721  0.621662
  7116.092  7116.100  0.500  2.697045  152.015  10.2465  0.614150
  7116.393  7116.400  0.500  2.700682  152.01  10.209  0.605777
  7116.693  7116.700  0.500  2.705592  151.991  10.1577  0.594448
  7116.998  7117.000  0.500  2.712500  151.964  10.086  0.577593
  7117.297  7117.300  0.500  2.720973  151.944  9.999560  0.554968
  7117.598  7117.600  0.500  2.731299  151.938  9.896429  0.525733
  7117.896  7117.900  0.500  2.744243  151.931  9.768685  0.490180
  7118.199  7118.200  0.500  2.760276  151.935  9.613577  0.451230
  7118.504  7118.500  0.500  2.780893  151.905  9.415573  0.410077
  7118.803  7118.800  0.500  2.807593  151.876  9.165710  0.369608
  7119.101  7119.100  0.500  2.841354  151.887  8.862078  0.330695
  7119.398  7119.400  0.500  2.882862  151.85  8.499703  0.293367
  7119.701  7119.700  0.500  2.932015  151.873  8.093251  0.258061
  7120.004  7120.000  0.500  2.986865  151.815  7.658384  0.224482
  7120.298  7120.300  0.500  3.041521  151.806  7.250579  0.194975
  7120.593  7120.600  0.500  3.091436  151.803  6.897430  0.169737
  7120.894  7120.900  0.500  3.131314  151.819  6.628484  0.149399
  7121.199  7121.200  0.500  3.156896  151.772  6.459059  0.133408
  7121.500  7121.500  0.500  3.167369  151.759  6.391227  0.122465
  7121.799  7121.800  0.500  3.166242  151.728  6.397135  0.114152
  7122.100  7122.100  0.500  3.157375  151.711  6.453387  0.108352
  7122.397  7122.400  0.500  3.145888  151.697  6.527307  0.103324
  7122.705  7122.700  0.500  3.135922  151.688  6.592314  0.098941
  7123.008  7123.000  0.500  3.130671  151.673  6.626363  0.094842
  7123.301  7123.300  0.500  3.130194  151.637  6.627946  0.090587
  7123.600  7123.600  0.500  3.134418  151.619  6.599209  0.086455
  7123.899  7123.900  0.500  3.142360  151.61  6.546640  0.082776
  7124.204  7124.200  0.500  3.152624  151.561  6.477686  0.078957
  7124.501  7124.500  0.500  3.163167  151.585  6.410780  0.075456
  7124.798  7124.800  0.500  3.171676  151.565  6.355631  0.072341
  7125.095  7125.100  0.500  3.176344  152.14  6.350016  0.070114
  7125.397  7125.400  0.500  3.175408  152.136  6.355795  0.068045
  7125.702  7125.700  0.500  3.170398  152.111  6.386686  0.066129
  7126.002  7126.000  0.500  3.162673  152.086  6.435131  0.064559
  7126.301  7126.300  0.500  3.153937  152.063  6.490619  0.063095
  7126.602  7126.600  0.500  3.146086  152.037  6.540671  0.061708
  7126.902  7126.900  0.500  3.139178  152.014  6.585008  0.060103
  7127.203  7127.200  0.500  3.133993  151.996  6.618453  0.058119
  7127.503  7127.500  0.500  3.130963  151.955  6.636759  0.055728
  7127.800  7127.800  0.500  3.130795  151.915  6.636115  0.053539
  7128.095  7128.100  0.500  3.133729  151.885  6.615355  0.050999
  7128.397  7128.400  0.500  3.140225  151.851  6.571046  0.048396
  7128.701  7128.700  0.500  3.150406  151.828  6.503526  0.045633
  7128.996  7129.000  0.500  3.162926  151.822  6.422330  0.042814
  7129.297  7129.300  0.500  3.177244  151.817  6.330822  0.040141
  7129.597  7129.600  0.500  3.191704  151.794  6.238996  0.037568
  7129.901  7129.900  0.500  3.205142  151.764  6.154504  0.035588
  7130.207  7130.200  0.500  3.216056  151.742  6.086815  0.033847
  7130.502  7130.500  0.500  3.224055  151.687  6.036134  0.032660
  7130.802  7130.800  0.500  3.229965  151.655  5.999303  0.031799
  7131.102  7131.100  0.500  3.234293  151.62  5.972020  0.031511
  7131.397  7131.400  0.500  3.236838  151.577  5.955146  0.031545
  7131.706  7131.700  0.500  3.237055  151.58  5.953964  0.032053
  7132.001  7132.000  0.500  3.235961  151.566  5.959957  0.032958
  7132.297  7132.300  0.500  3.233031  151.559  5.977141  0.034234
  7132.597  7132.600  0.500  3.229137  151.553  6.000221  0.035600
  7132.896  7132.900  0.500  3.224152  151.513  6.028607  0.037456
  7133.201  7133.200  0.500  3.217141  151.493  6.070258  0.039366
  7133.496  7133.500  0.500  3.209306  151.516  6.118924  0.041417
  7133.798  7133.800  0.500  3.201661  151.499  6.165182  0.043434
  7134.103  7134.100  0.500  3.194741  151.484  6.207380  0.045436
  7134.403  7134.400  0.500  3.189887  151.487  6.237702  0.047175
  7134.703  7134.700  0.500  3.185574  151.475  6.264177  0.048925
  7134.998  7135.000  0.500  3.182146  151.489  6.286258  0.050315
  7135.305  7135.300  0.500  3.178668  151.501  6.308654  0.051762
  7135.609  7135.600  0.500  3.174379  151.465  6.334275  0.052790
  7135.903  7135.900  0.500  3.168802  151.456  6.369331  0.053858
  7136.201  7136.200  0.500  3.162153  151.453  6.411669  0.054768
  7136.497  7136.500  0.500  3.155319  151.444  6.455263  0.055554
  7136.797  7136.800  0.500  3.148230  151.429  6.500535  0.056166
  7137.000  7137.000  0.500  3.143731  151.428  6.529837  0.056465
  7137.996  7137.990  0.500  3.127709  151.396  6.633885  0.056241
  7139.007  7138.990  0.500  3.125984  151.39  6.645063  0.053953
  7140.030  7140.010  0.500  3.133063  151.417  6.599361  0.051168
  7141.079  7141.060  0.500  3.139808  151.408  6.554612  0.048977
  7142.138  7142.120  0.500  3.142119  151.395  6.538927  0.048641
  7143.218  7143.200  0.500  3.139872  151.394  6.553589  0.049544
  7144.318  7144.300  0.500  3.129337  151.38  6.622389  0.050822
  7145.446  7145.420  0.500  3.109346  151.365  6.755462  0.051608
  7146.559  7146.560  0.500  3.086963  151.353  6.907814  0.050837
  7147.700  7147.710  0.500  3.064108  151.346  7.067194  0.048793
  7148.882  7148.890  0.500  3.043810  151.325  7.211100  0.046518
  7150.078  7150.080  0.500  3.027179  151.297  7.330640  0.045029
  7151.299  7151.300  0.500  3.012318  151.296  7.440371  0.044458
  7152.527  7152.530  0.500  3.001094  151.279  7.523515  0.044009
  7153.782  7153.780  0.500  2.994619  151.287  7.572789  0.043832
  7155.052  7155.050  0.500  2.992713  151.282  7.586983  0.044209
  7156.346  7156.340  0.500  2.997519  151.279  7.550445  0.044861
  7157.654  7157.650  0.500  3.009092  151.258  7.462520  0.045052
  7158.989  7158.980  0.500  3.022295  151.234  7.363479  0.044735
  7160.337  7160.330  0.500  3.032934  151.191  7.283492  0.044327
  7161.705  7161.700  0.500  3.040173  151.12  7.227575  0.044315
  7163.091  7163.080  0.500  3.045832  151.1  7.185813  0.044873
  7164.495  7164.490  0.500  3.049508  151.063  7.157715  0.045479
  7165.915  7165.910  0.500  3.050745  151.045  7.147995  0.046290
  7167.353  7167.350  0.500  3.051594  150.957  7.137793  0.046755
  7168.811  7168.810  0.500  3.053478  150.952  7.124100  0.047133
  7170.301  7170.290  0.500  3.055826  150.924  7.106081  0.047964
  7171.797  7171.790  0.500  3.059061  150.891  7.081563  0.049222
  7173.316  7173.310  0.500  3.060046  150.857  7.072991  0.051282
  7174.853  7174.850  0.500  3.059893  150.822  7.072466  0.054136
  7176.418  7176.410  0.500  3.058494  150.8  7.081298  0.057305
  7177.987  7177.980  0.500  3.056142  150.792  7.097609  0.060547
  7179.581  7179.580  0.500  3.053161  150.767  7.117650  0.062769
  7181.199  7181.190  0.500  3.051296  150.729  7.129108  0.063357
  7182.832  7182.830  0.500  3.051455  150.659  7.124678  0.062699
  7184.494  7184.480  0.500  3.051911  150.641  7.120568  0.061380
  7186.159  7186.150  0.500  3.051111  150.601  7.124386  0.059043
  7187.844  7187.840  0.500  3.049220  150.563  7.136066  0.056054
  7189.559  7189.550  0.500  3.045200  150.535  7.163487  0.053351
  7191.283  7191.280  0.500  3.038753  148.97  7.134873  0.050078
  7193.037  7193.030  0.500  3.031599  150.18  7.244438  0.048142
  7194.794  7194.790  0.500  3.026039  150.346  7.292895  0.047354
  7196.587  7196.580  0.500  3.022462  150.354  7.319398  0.048696
  7198.390  7198.380  0.500  3.020344  150.312  7.332874  0.051137
  7200.222  7200.210  0.500  3.018472  150.241  7.343161  0.054774
  7202.059  7202.050  0.500  3.016663  150.218  7.355314  0.058992
  7203.922  7203.910  0.500  3.013328  150.16  7.377064  0.064123
  7205.806  7205.790  0.500  3.010011  150.088  7.397992  0.068995
  7207.701  7207.690  0.500  3.007178  150.033  7.416256  0.071575
  7209.622  7209.610  0.500  3.003625  149.986  7.440324  0.069388
  7211.562  7211.550  0.500  3.000105  149.934  7.463965  0.062677
  7213.523  7213.510  0.500  2.996984  149.886  7.484906  0.053321
  7215.495  7215.480  0.500  2.993331  149.827  7.509338  0.044792
  7217.489  7217.480  0.500  2.987706  149.767  7.548680  0.038543
  7219.504  7219.490  0.500  2.981385  149.703  7.593314  0.035156
  7221.533  7221.520  0.500  2.975080  149.643  7.638306  0.034948
  7223.590  7223.580  0.500  2.969773  149.586  7.676024  0.037355
  7225.662  7225.650  0.500  2.965507  149.499  7.704316  0.042161
  7227.750  7227.740  0.500  2.962564  146.856  7.590454  0.047892
  7229.862  7229.850  0.500  2.959889  149.682  7.757204  0.056984
  7231.991  7231.980  0.500  2.957582  149.608  7.771271  0.065468
  7234.130  7234.120  0.500  2.955381  149.554  7.785601  0.073869
  7236.308  7236.290  0.500  2.953809  149.489  7.794455  0.079798
  7238.489  7238.480  0.500  2.952361  149.443  7.803333  0.082388
  7240.692  7240.680  0.500  2.951424  149.392  7.808025  0.082147
  7242.912  7242.900  0.500  2.950409  149.372  7.814878  0.079286
  7245.165  7245.150  0.500  2.949078  146.546  7.677249  0.074121
  7247.421  7247.410  0.500  2.947363  149.086  7.823738  0.072140
  7249.703  7249.690  0.500  2.945145  149.131  7.843456  0.070789
  7252.003  7251.990  0.500  2.943210  149.045  7.854131  0.071609
  7254.324  7254.310  0.500  2.941608  146.649  7.740262  0.072517
  7256.659  7256.650  0.500  2.940280  149.089  7.879488  0.075502
  7259.008  7259.000  0.500  2.939239  148.915  7.878472  0.075035
  7261.394  7261.380  0.500  2.937459  148.448  7.867764  0.072713
  7263.787  7263.770  0.500  2.935910  137.158  7.280692  0.065491
  7266.198  7266.190  0.500  2.931013  148.663  7.930126  0.069704
  7268.632  7268.620  0.500  2.927039  149.244  7.992811  0.068290
  7271.081  7271.070  0.500  2.923415  149.224  8.020766  0.065344
  7273.565  7273.550  0.500  2.919733  148.008  7.984741  0.061768
  7276.060  7276.040  0.500  2.915374  149.274  8.088226  0.060390
  7278.559  7278.550  0.500  2.910581  149.212  8.123728  0.059630
  7281.080  7281.070  0.500  2.905679  149.164  8.161002  0.058367
  7283.628  7283.620  0.500  2.900501  148.038  8.141428  0.055985
  7286.205  7286.190  0.500  2.894778  148.764  8.228360  0.054567
  7288.781  7288.770  0.500  2.890002  148.897  8.275114  0.054206
  7291.386  7291.380  0.500  2.886018  148.855  8.305803  0.056272
  7294.014  7294.000  0.500  2.882272  148.832  8.335676  0.061372
  7296.659  7296.650  0.500  2.878938  148.764  8.359698  0.067993
  7299.327  7299.310  0.500  2.876193  148.654  8.376510  0.074636
  7301.997  7301.990  0.500  2.872723  146.986  8.311261  0.079675
  7304.709  7304.690  0.500  2.869747  148.743  8.435687  0.085221
  7307.424  7307.410  0.500  2.866369  148.66  8.459548  0.088456
  7310.161  7310.150  0.500  2.862673  148.601  8.487480  0.090123
  7312.912  7312.900  0.500  2.858611  148.529  8.517911  0.090138
  7315.696  7315.680  0.500  2.853563  148.473  8.557745  0.090669
  7318.481  7318.470  0.500  2.848918  148.421  8.594605  0.091365
  7321.300  7321.290  0.500  2.844569  148.366  8.628846  0.091993
  7324.137  7324.120  0.500  2.840424  148.831  8.691865  0.093191
  7326.990  7326.970  0.500  2.836836  148.746  8.718115  0.093463
  7329.861  7329.850  0.500  2.833187  148.672  8.745667  0.094319
  7332.750  7332.740  0.500  2.829369  148.613  8.775644  0.096497
  7335.661  7335.650  0.500  2.825204  148.568  8.809568  0.099216
  7338.589  7338.570  0.500  2.821210  147.278  8.768039  0.099935
  7341.534  7341.520  0.500  2.817025  148.328  8.867542  0.100049
  7344.500  7344.490  0.500  2.813255  148.324  8.900841  0.096758
  7347.481  7347.470  0.500  2.809642  148.258  8.929060  0.091885
  7350.491  7350.480  0.500  2.805805  148.203  8.960052  0.087234
  7353.515  7353.500  0.500  2.801707  148.165  8.994539  0.083476
  7356.559  7356.550  0.500  2.797982  148.085  9.023258  0.080180
  7359.621  7359.610  0.500  2.794275  147.984  9.050553  0.077596
  7362.703  7362.690  0.500  2.790802  147.91  9.077549  0.075674
  7365.799  7365.790  0.500  2.787396  147.814  9.102575  0.075074
  7368.926  7368.910  0.500  2.784136  147.747  9.128169  0.076305
  7372.065  7372.050  0.500  2.780403  147.702  9.159547  0.079637
  7375.218  7375.200  0.500  2.776306  147.586  9.189894  0.085823
  7378.395  7378.380  0.500  2.772350  147.547  9.223898  0.095099
  7381.581  7381.570  0.500  2.767874  147.479  9.260990  0.105796
  7384.801  7384.790  0.500  2.763248  147.415  9.299896  0.114205
  7388.031  7388.020  0.500  2.758645  147.354  9.338912  0.117854
  7391.279  7391.270  0.500  2.754327  147.252  9.372842  0.117603
  7394.561  7394.550  0.500  2.749803  147.15  9.408854  0.116061
  7397.848  7397.840  0.500  2.745343  147.064  9.445347  0.115062
  7401.160  7401.150  0.500  2.740518  146.894  9.480095  0.115350
  7404.486  7404.470  0.500  2.735778  146.909  9.526080  0.116253
  7407.829  7407.820  0.500  2.731234  146.864  9.566588  0.116824
  7411.198  7411.190  0.500  2.726359  146.789  9.608369  0.116852
  7414.578  7414.570  0.500  2.721539  146.675  9.647332  0.117371
  7417.989  7417.980  0.500  2.717016  146.573  9.684322  0.118375
  7421.408  7421.400  0.500  2.712633  146.469  9.719946  0.120074
  7424.859  7424.850  0.500  2.708723  146.39  9.752798  0.122951
  7428.324  7428.310  0.500  2.704137  146.302  9.791725  0.125329
  7431.802  7431.790  0.500  2.699726  146.201  9.828225  0.126144
  7435.301  7435.290  0.500  2.695507  146.101  9.863041  0.125917
  7438.819  7438.810  0.500  2.691003  146.014  9.901627  0.124585
  7442.354  7442.350  0.500  2.686550  145.844  9.934260  0.121499
  7445.907  7445.900  0.500  2.682274  141.963  9.711320  0.115033
  7449.490  7449.480  0.500  2.677746  145.773  10.0172  0.116369
  7453.093  7453.080  0.500  2.673393  144.497  9.972857  0.115084
  7456.697  7456.690  0.500  2.668870  145.532  10.0898  0.116445
  7460.333  7460.320  0.500  2.664164  144.905  10.0937  0.117431
  7463.990  7463.980  0.500  2.659918  145.301  10.1644  0.119955
  7467.662  7467.650  0.500  2.655471  141.352  9.932180  0.120341
  7471.345  7471.340  0.500  2.650869  145.257  10.2537  0.128430
  7475.060  7475.050  0.500  2.645998  145.102  10.2928  0.133054
  7478.789  7478.780  0.500  2.641566  144.977  10.3296  0.136600
  7482.533  7482.520  0.500  2.637009  144.827  10.366  0.140172
  7486.310  7486.290  0.500  2.632519  144.677  10.4019  0.144427
  7490.096  7490.080  0.500  2.628106  144.532  10.4374  0.148993
  7493.897  7493.880  0.500  2.623427  144.463  10.4813  0.152496
  7497.736  7497.710  0.500  2.618614  144.361  10.5245  0.154219
  7501.565  7501.550  0.500  2.614229  144.25  10.5626  0.154172
  7505.427  7505.410  0.500  2.609609  144.116  10.6017  0.153989
  7509.304  7509.290  0.500  2.604832  143.981  10.6424  0.154074
  7513.215  7513.190  0.500  2.600017  143.84  10.6833  0.155415
  7517.142  7517.110  0.500  2.595343  143.701  10.723  0.157200
  7521.047  7521.050  0.500  2.590601  143.585  10.7653  0.158831
  7525.016  7525.010  0.500  2.585933  143.431  10.8041  0.159998
  7528.987  7528.980  0.500  2.581416  143.316  10.8442  0.160327
  7532.999  7532.980  0.500  2.576662  143.16  10.8841  0.160740
  7537.020  7536.990  0.500  2.571723  143.016  10.927  0.162071
  7541.060  7541.030  0.500  2.567158  142.873  10.966  0.163693
  7545.098  7545.080  0.500  2.562375  142.73  11.0076  0.165826
  7549.142  7549.150  0.500  2.557736  142.574  11.0466  0.167374
  7553.261  7553.240  0.500  2.552790  142.456  11.0922  0.167932
  7557.338  7557.350  0.500  2.547832  142.296  11.1348  0.167073
  7561.472  7561.480  0.500  2.542784  142.171  11.1814  0.166632
  7565.612  7565.630  0.500  2.537804  141.961  11.2205  0.166647
  7569.782  7569.790  0.500  2.532879  141.883  11.2698  0.168856
  7573.966  7573.980  0.500  2.527854  141.733  11.3145  0.172400
  7578.177  7578.180  0.500  2.522608  141.556  11.3599  0.176954
  7582.402  7582.410  0.500  2.517732  141.414  11.404  0.181982
  7586.645  7586.650  0.500  2.512819  141.26  11.4477  0.186165
  7590.925  7590.910  0.500  2.508175  141.047  11.4836  0.188757
  7595.182  7595.190  0.500  2.503502  140.829  11.5195  0.190322
  7599.479  7599.490  0.500  2.498530  140.572  11.5558  0.191659
  7603.833  7603.810  0.500  2.493704  139.973  11.5623  0.192847
  7608.174  7608.150  0.500  2.488923  139.736  11.5979  0.195185
  7612.531  7612.510  0.500  2.483843  139.503  11.6376  0.198503
  7616.910  7616.890  0.500  2.478661  139.524  11.6998  0.201244
  7621.267  7621.280  0.500  2.473748  139.569  11.7613  0.202898
  7625.704  7625.700  0.500  2.468732  139.596  11.8227  0.204135
  7630.124  7630.130  0.500  2.463506  139.485  11.8752  0.206026
  7634.571  7634.580  0.500  2.458721  139.293  11.9158  0.208420
  7639.039  7639.050  0.500  2.453909  139.158  11.9616  0.212105
  7643.527  7643.540  0.500  2.448823  138.971  12.0064  0.215675
  7648.040  7648.050  0.500  2.443756  138.803  12.0528  0.219006
  7652.579  7652.580  0.500  2.438669  138.65  12.1009  0.221559
  7657.143  7657.130  0.500  2.433597  138.466  12.1463  0.223765
  7661.716  7661.700  0.500  2.428629  138.267  12.1893  0.225302
  7666.269  7666.280  0.500  2.423840  138.095  12.2326  0.226192
  7670.878  7670.890  0.500  2.418814  137.882  12.2753  0.226734
  7675.488  7675.510  0.500  2.414107  137.705  12.3173  0.227541
  7680.139  7680.160  0.500  2.409244  137.508  12.3597  0.228319
  7684.800  7684.820  0.500  2.403939  137.204  12.3979  0.229708
  7689.488  7689.500  0.500  2.398409  137.348  12.4798  0.233283
  7694.187  7694.200  0.500  2.393276  137.08  12.5195  0.236534
  7698.901  7698.920  0.500  2.388136  136.835  12.5616  0.239565
  7703.662  7703.660  0.500  2.383167  136.583  12.6009  0.242815
  7708.392  7708.410  0.500  2.378013  136.47  12.6555  0.246056
  7713.178  7713.190  0.500  2.373069  136.232  12.696  0.249714
  7718.000  7717.990  0.500  2.367917  135.972  12.7373  0.253299
  7722.791  7722.800  0.500  2.363182  135.878  12.7889  0.256936
  7727.654  7727.630  0.500  2.357992  135.671  12.8358  0.259801
  7732.475  7732.490  0.500  2.352759  135.467  12.8838  0.262348
  7737.346  7737.360  0.500  2.347221  135.146  12.9246  0.264841
  7742.238  7742.250  0.500  2.342246  135.232  12.9973  0.268228
  7747.147  7747.160  0.500  2.337487  134.93  13.0302  0.270926
  7752.081  7752.090  0.500  2.331892  134.722  13.0831  0.273441
  7757.020  7757.030  0.500  2.326640  134.524  13.1326  0.276386
  7761.975  7762.000  0.500  2.321518  134.3  13.1781  0.279352
  7766.979  7766.990  0.500  2.316587  134.097  13.2233  0.283286
  7772.013  7771.990  0.500  2.311279  133.934  13.2775  0.287263
  7777.044  7777.020  0.500  2.305853  133.724  13.3288  0.290723
  7782.048  7782.060  0.500  2.300715  133.511  13.3761  0.294369
  7787.116  7787.120  0.500  2.295367  133.233  13.4198  0.297485
  7792.203  7792.200  0.500  2.289921  133.111  13.4808  0.300762
  7797.295  7797.300  0.500  2.285127  132.908  13.5249  0.303428
  7802.406  7802.420  0.500  2.279765  132.744  13.5808  0.305799
  7807.551  7807.560  0.500  2.274689  132.553  13.6302  0.309031
  7812.705  7812.720  0.500  2.269516  132.295  13.6743  0.311079
  7817.902  7817.900  0.500  2.264405  132.031  13.7169  0.313885
  7823.094  7823.090  0.500  2.258975  131.881  13.776  0.317276
  7828.314  7828.310  0.500  2.253336  131.616  13.826  0.320519
  7833.565  7833.540  0.500  2.248248  131.423  13.8761  0.323584
  7838.770  7838.790  0.500  2.243154  130.916  13.8933  0.326131
  7844.080  7844.060  0.500  2.237851  131.032  13.9795  0.330379
  7849.326  7849.350  0.500  2.232841  130.708  14.0149  0.333489
  7854.672  7854.660  0.500  2.227561  129.611  13.9709  0.335249
  7859.972  7859.990  0.500  2.222314  130.285  14.1174  0.341180
  7865.320  7865.340  0.500  2.216912  130.048  14.1681  0.345368
  7870.691  7870.710  0.500  2.211787  129.819  14.2158  0.349764
  7876.088  7876.090  0.500  2.206280  129.609  14.2712  0.354139
  7881.484  7881.500  0.500  2.200960  129.393  14.3234  0.358459
  7886.905  7886.920  0.500  2.195443  129.148  14.3754  0.362582
  7892.365  7892.370  0.500  2.190397  128.921  14.4226  0.366522
  7897.822  7897.830  0.500  2.185062  128.624  14.4664  0.370174
  7903.284  7903.310  0.500  2.179755  128.823  14.5659  0.375835
  7908.810  7908.810  0.500  2.174344  128.564  14.6155  0.379961
  7914.315  7914.330  0.500  2.168946  128.331  14.668  0.384022
  7919.865  7919.870  0.500  2.163930  128.084  14.7134  0.388160
  7925.399  7925.420  0.500  2.158648  127.831  14.7621  0.392101
  7930.974  7931.000  0.500  2.153130  127.506  14.806  0.396496
  7936.578  7936.600  0.500  2.147585  127.175  14.8497  0.399987
  7942.193  7942.210  0.500  2.142204  127.188  14.9314  0.404316
  7947.824  7947.850  0.500  2.136971  126.83  14.9674  0.407600
  7953.474  7953.500  0.500  2.131723  126.465  15.0029  0.410997
  7959.135  7959.170  0.500  2.126261  126.17  15.0499  0.415145
  7964.835  7964.860  0.500  2.120947  125.879  15.0951  0.418841