File: xdidata/Fe/Fe-Siderite.xdi
# XDI/1.0 BlueSky/1.10.0 BMM/2023-1.0-py310-tiled
# Beamline.name: BMM (06BM) -- Beamline for Materials Measurement (NIST)
# Beamline.xray_source: NSLS-II three-pole wiggler
# Beamline.collimation: paraboloid mirror, 5 nm Rh on 30 nm Pt
# Beamline.focusing: not in use
# Beamline.harmonic_rejection: flat mirror, Si stripe, pitch = 7.0 mrad relative to beam
# Beamline.software: Bluesky 1.10.0, Ophyd 1.7.0, DataBroker 2.0.0b13, Python 3.10.8, 2023-1.0-py310-tiled
# Detector.I0: 10 cm N2
# Detector.I1: 25 cm N2
# Detector.I2: 25 cm N2
# Element.symbol: Fe
# Element.edge: K
# Element.reference: Fe
# Element.reference_material: Fe foil
# Facility.name: NSLS-II
# Facility.energy: 3.0
# Facility.current: 399.9
# Facility.mode: top-off
# Facility.GUP: 123456
# Facility.SAF: 301027
# Facility.cycle: 2023-2
# Mono.name: Si(111)
# Mono.d_spacing: 3.13519
# Mono.encoder_resolution: 0.0000050 deg/ct
# Mono.angle_offset: 16.0754 deg
# Mono.scan_mode: pseudo channel cut
# Mono.scan_type: step
# Mono.direction: forward in energy
# Sample.name: FeCO3
# Sample.prep: PEG pellet
# Sample.x: 116.329 mm
# Sample.y: 114.126 mm
# Sample.SDD_position: 205.000 mm
# Scan.experimenters: Bruce Ravel
# Scan.edge_energy: 7112.0
# Scan.start_time: 2023-05-05T18:41:20
# Scan.end_time: 2023-05-05T18:49:30
# Scan.transient_id: 74561
# Scan.uid: 837c2c31-b5ca-400b-811b-e4341530b407
# Scan.plot_hint: ln(I0/It)  --  ln($5/$6)
# Column.1: energy eV
# Column.2: requested_energy eV
# Column.3: measurement_time seconds
# Column.4: xmu
# Column.5: I0 nA
# Column.6: It nA
# Column.7: Ir nA
# ///////////
# courtesy Martin Stennett, University of Sheffield
# -----------
# energy  requested_energy  measurement_time  xmu  I0  It  Ir
  6912.005  6912.000  0.500  2.287491  153.743  15.6081  2.929076
  6922.009  6922.000  0.500  2.275149  153.6  15.7872  2.983745
  6932.015  6932.000  0.500  2.262616  153.527  15.9788  3.041263
  6942.031  6942.000  0.500  2.250513  153.531  16.1738  3.099426
  6951.987  6952.000  0.500  2.237971  153.492  16.3737  3.160245
  6961.996  6962.000  0.500  2.225994  153.471  16.5687  3.219824
  6972.003  6972.000  0.500  2.214372  153.459  16.7611  3.280471
  6982.017  6982.000  0.500  2.202296  153.431  16.9617  3.341497
  6992.010  6992.000  0.500  2.190275  153.393  17.1626  3.404582
  7002.015  7002.000  0.500  2.178667  153.331  17.3558  3.466904
  7012.014  7012.000  0.500  2.166913  153.267  17.5537  3.528666
  7022.005  7022.000  0.500  2.155157  153.203  17.7539  3.591738
  7032.014  7032.000  0.500  2.143465  153.104  17.9511  3.655671
  7042.013  7042.000  0.500  2.132128  153.026  18.1465  3.717884
  7052.011  7052.000  0.500  2.120873  152.95  18.3428  3.781018
  7062.002  7062.000  0.500  2.110029  152.217  18.4539  3.824732
  7072.011  7072.000  0.500  2.099635  152.716  18.7079  3.896363
  7081.978  7082.000  0.500  2.089672  152.894  18.9172  3.954244
  7083.978  7084.000  0.500  2.087799  152.632  18.9202  3.956341
  7085.978  7086.000  0.500  2.085709  152.764  18.9762  3.970117
  7087.985  7088.000  0.500  2.083955  152.748  19.0075  3.976731
  7089.979  7090.000  0.500  2.082256  152.731  19.0378  3.982716
  7091.989  7092.000  0.500  2.080690  152.724  19.0667  3.987439
  7093.978  7094.000  0.500  2.079122  152.7  19.0936  3.989537
  7096.347  7096.000  0.500  2.077895  152.624  19.1075  3.989043
  7097.991  7098.000  0.500  2.076948  152.567  19.1185  3.983531
  7099.984  7100.000  0.500  2.076161  152.606  19.1384  3.977557
  7101.991  7102.000  0.500  2.075604  152.568  19.1443  3.961986
  7102.288  7102.300  0.500  2.075562  152.562  19.1443  3.957468
  7102.585  7102.600  0.500  2.075785  152.545  19.138  3.954161
  7102.887  7102.900  0.500  2.075827  152.664  19.1522  3.953258
  7103.188  7103.200  0.500  2.075764  153.145  19.2137  3.961796
  7103.481  7103.500  0.500  2.075803  153.135  19.2116  3.957142
  7103.783  7103.800  0.500  2.076185  153.126  19.2032  3.951321
  7104.084  7104.100  0.500  2.076244  153.121  19.2014  3.946412
  7104.386  7104.400  0.500  2.075983  153.119  19.2061  3.940674
  7104.686  7104.700  0.500  2.076338  153.099  19.1969  3.933946
  7104.989  7105.000  0.500  2.076352  153.088  19.1952  3.928026
  7105.287  7105.300  0.500  2.076410  153.078  19.1928  3.920534
  7105.589  7105.600  0.500  2.076597  153.073  19.1886  3.912122
  7105.886  7105.900  0.500  2.076923  153.058  19.1805  3.902198
  7106.186  7106.200  0.500  2.077005  153.06  19.1792  3.891901
  7106.488  7106.500  0.500  2.077491  153.044  19.1679  3.879905
  7106.792  7106.800  0.500  2.077772  153.047  19.1629  3.867797
  7107.087  7107.100  0.500  2.078325  153.049  19.1525  3.852855
  7107.389  7107.400  0.500  2.078741  153.029  19.142  3.837724
  7107.687  7107.700  0.500  2.079055  153.01  19.1336  3.819361
  7107.985  7108.000  0.500  2.079441  152.998  19.1247  3.799111
  7108.293  7108.300  0.500  2.079960  152.998  19.1148  3.775056
  7108.589  7108.600  0.500  2.080552  152.982  19.1015  3.746080
  7108.886  7108.900  0.500  2.081272  152.955  19.0844  3.713132
  7109.186  7109.200  0.500  2.082171  152.982  19.0706  3.672601
  7109.491  7109.500  0.500  2.083368  152.968  19.046  3.619359
  7109.793  7109.800  0.500  2.084805  152.951  19.0166  3.548261
  7110.097  7110.100  0.500  2.086873  152.905  18.9717  3.451688
  7110.395  7110.400  0.500  2.089852  152.9  18.9146  3.319492
  7110.693  7110.700  0.500  2.094055  152.884  18.8333  3.131688
  7110.997  7111.000  0.500  2.099682  152.856  18.7242  2.887014
  7111.299  7111.300  0.500  2.106349  152.879  18.6026  2.601495
  7111.591  7111.600  0.500  2.112155  152.822  18.4879  2.314228
  7111.893  7111.900  0.500  2.115379  152.778  18.4231  2.058810
  7112.189  7112.200  0.500  2.115974  152.737  18.4072  1.863134
  7112.487  7112.500  0.500  2.115142  152.719  18.4203  1.717135
  7112.796  7112.800  0.500  2.114365  152.699  18.4322  1.607382
  7113.094  7113.100  0.500  2.114167  152.659  18.4311  1.518691
  7113.397  7113.400  0.500  2.115456  152.653  18.4067  1.440011
  7113.695  7113.700  0.500  2.117207  152.633  18.372  1.367282
  7114.000  7114.000  0.500  2.118056  152.63  18.3561  1.302592
  7114.300  7114.300  0.500  2.118145  152.611  18.3521  1.246888
  7114.600  7114.600  0.500  2.118229  152.6  18.3493  1.201393
  7114.899  7114.900  0.500  2.119455  152.589  18.3255  1.164615
  7115.195  7115.200  0.500  2.122139  152.585  18.2759  1.135984
  7115.500  7115.500  0.500  2.126103  152.571  18.2019  1.112840
  7115.802  7115.800  0.500  2.131866  152.559  18.0959  1.093467
  7116.097  7116.100  0.500  2.139378  152.546  17.959  1.074881
  7116.395  7116.400  0.500  2.149680  152.542  17.7744  1.053572
  7116.691  7116.700  0.500  2.163498  152.543  17.5307  1.024859
  7116.996  7117.000  0.500  2.182603  152.524  17.1967  0.984232
  7117.301  7117.300  0.500  2.206178  152.504  16.7939  0.931430
  7117.600  7117.600  0.500  2.234816  152.476  16.3168  0.867090
  7117.896  7117.900  0.500  2.268317  152.453  15.7768  0.793316
  7118.199  7118.200  0.500  2.307058  152.462  15.1781  0.713823
  7118.504  7118.500  0.500  2.348452  152.461  14.5626  0.635528
  7118.803  7118.800  0.500  2.391548  152.432  13.9457  0.562779
  7119.099  7119.100  0.500  2.435132  152.407  13.3488  0.498080
  7119.398  7119.400  0.500  2.479086  152.388  12.7732  0.440721
  7119.699  7119.700  0.500  2.525395  152.367  12.1934  0.388276
  7120.000  7120.000  0.500  2.577014  152.369  11.5802  0.339395
  7120.301  7120.300  0.500  2.637055  152.371  10.9055  0.293302
  7120.597  7120.600  0.500  2.707047  152.325  10.1652  0.250611
  7120.896  7120.900  0.500  2.789536  152.307  9.359211  0.211547
  7121.197  7121.200  0.500  2.883046  152.279  8.522155  0.177460
  7121.502  7121.500  0.500  2.985614  152.281  7.691462  0.148306
  7121.801  7121.800  0.500  3.093128  152.261  6.906551  0.124093
  7122.098  7122.100  0.500  3.207179  152.255  6.161866  0.104281
  7122.399  7122.400  0.500  3.326718  152.223  5.466437  0.087135
  7122.702  7122.700  0.500  3.448890  152.229  4.837966  0.073092
  7123.001  7123.000  0.500  3.564742  152.216  4.308358  0.061658
  7123.301  7123.300  0.500  3.664898  152.23  3.898129  0.053285
  7123.602  7123.600  0.500  3.741551  152.215  3.610130  0.047447
  7123.899  7123.900  0.500  3.796689  152.176  3.415579  0.043297
  7124.202  7124.200  0.500  3.837615  152.154  3.278139  0.039970
  7124.503  7124.500  0.500  3.865415  152.119  3.187540  0.037416
  7124.796  7124.800  0.500  3.881003  152.098  3.137809  0.035798
  7125.095  7125.100  0.500  3.884380  152.058  3.126403  0.034439
  7125.394  7125.400  0.500  3.877857  152.089  3.147500  0.033571
  7125.702  7125.700  0.500  3.864136  152.074  3.190667  0.032933
  7125.997  7126.000  0.500  3.846364  152.055  3.247485  0.032575
  7126.303  7126.300  0.500  3.825542  152.033  3.315321  0.032102
  7126.600  7126.600  0.500  3.801536  152.01  3.395365  0.031989
  7126.902  7126.900  0.500  3.772103  151.955  3.495520  0.031814
  7127.203  7127.200  0.500  3.735629  151.966  3.625631  0.031631
  7127.503  7127.500  0.500  3.692880  151.922  3.782897  0.031761
  7127.800  7127.800  0.500  3.645347  151.878  3.965896  0.031907
  7128.102  7128.100  0.500  3.596554  151.885  4.164390  0.032088
  7128.395  7128.400  0.500  3.550965  151.863  4.357990  0.032104
  7128.701  7128.700  0.500  3.506811  151.825  4.553601  0.031734
  7129.000  7129.000  0.500  3.469198  151.827  4.728207  0.031420
  7129.300  7129.300  0.500  3.436861  151.802  4.882798  0.030710
  7129.597  7129.600  0.500  3.409538  151.773  5.017075  0.030118
  7129.901  7129.900  0.500  3.385861  151.752  5.136566  0.029612
  7130.203  7130.200  0.500  3.364692  151.688  5.244252  0.029120
  7130.502  7130.500  0.500  3.347153  151.674  5.336559  0.028713
  7130.806  7130.800  0.500  3.332730  151.622  5.412222  0.028487
  7131.102  7131.100  0.500  3.322951  151.595  5.464449  0.028628
  7131.399  7131.400  0.500  3.318497  151.577  5.488179  0.028896
  7131.708  7131.700  0.500  3.320256  151.579  5.478595  0.029449
  7132.003  7132.000  0.500  3.327899  151.559  5.436183  0.029878
  7132.303  7132.300  0.500  3.340734  151.568  5.367170  0.030486
  7132.597  7132.600  0.500  3.357471  151.578  5.278429  0.031165
  7132.901  7132.900  0.500  3.377859  151.566  5.171498  0.031813
  7133.201  7133.200  0.500  3.400123  151.548  5.057037  0.032526
  7133.501  7133.500  0.500  3.423109  151.533  4.941609  0.033175
  7133.796  7133.800  0.500  3.444427  151.528  4.837249  0.033827
  7134.098  7134.100  0.500  3.463513  151.522  4.745612  0.034488
  7134.403  7134.400  0.500  3.478715  151.529  4.674205  0.035306
  7134.705  7134.700  0.500  3.489905  151.548  4.622788  0.035919
  7135.003  7135.000  0.500  3.497944  151.527  4.585146  0.036601
  7135.301  7135.300  0.500  3.503995  151.514  4.557080  0.037200
  7135.601  7135.600  0.500  3.508391  151.518  4.537218  0.037830
  7135.901  7135.900  0.500  3.511122  151.5  4.524300  0.038039
  7136.201  7136.200  0.500  3.511451  151.465  4.521782  0.038579
  7136.501  7136.500  0.500  3.509730  151.473  4.529793  0.038954
  7136.793  7136.800  0.500  3.505448  151.476  4.549320  0.039116
  7137.002  7137.000  0.500  3.501469  151.488  4.567823  0.039278
  7138.000  7137.990  0.500  3.466897  151.48  4.728257  0.040023
  7139.005  7138.990  0.500  3.406042  151.473  5.024685  0.040660
  7140.021  7140.010  0.500  3.319054  151.48  5.481630  0.042132
  7141.076  7141.060  0.500  3.240872  151.484  5.927517  0.044112
  7142.136  7142.120  0.500  3.179345  151.478  6.303440  0.046628
  7143.216  7143.200  0.500  3.116934  151.483  6.709612  0.050471
  7144.315  7144.300  0.500  3.053629  151.409  7.144601  0.054376
  7145.437  7145.420  0.500  3.003374  151.425  7.513623  0.056960
  7146.583  7146.560  0.500  2.973827  151.405  7.737929  0.056485
  7147.722  7147.710  0.500  2.957969  151.431  7.862948  0.053991
  7148.914  7148.890  0.500  2.951553  151.41  7.912461  0.050720
  7150.080  7150.080  0.500  2.956167  151.435  7.877314  0.048199
  7151.291  7151.300  0.500  2.969090  151.409  7.774854  0.046221
  7152.521  7152.530  0.500  2.985950  151.381  7.643465  0.044408
  7153.784  7153.780  0.500  3.008506  151.375  7.472687  0.043034
  7155.047  7155.050  0.500  3.039635  151.357  7.242796  0.041987
  7156.342  7156.340  0.500  3.082075  151.323  6.940270  0.041095
  7157.656  7157.650  0.500  3.133633  151.332  6.591902  0.039546
  7158.978  7158.980  0.500  3.180917  151.298  6.286062  0.037923
  7160.339  7160.330  0.500  3.213462  151.261  6.083273  0.036786
  7161.711  7161.700  0.500  3.228698  151.551  6.002803  0.036658
  7163.098  7163.080  0.500  3.240258  151.704  5.939779  0.036799
  7164.504  7164.490  0.500  3.258220  151.675  5.832918  0.037099
  7165.920  7165.910  0.500  3.278538  151.627  5.713796  0.036766
  7167.362  7167.350  0.500  3.297002  151.568  5.607089  0.036679
  7168.820  7168.810  0.500  3.313713  151.531  5.512834  0.036475
  7170.299  7170.290  0.500  3.326412  151.491  5.441831  0.036475
  7171.795  7171.790  0.500  3.333162  151.466  5.404336  0.037439
  7173.321  7173.310  0.500  3.321554  151.432  5.466195  0.039484
  7174.858  7174.850  0.500  3.296855  151.403  5.601802  0.042725
  7176.415  7176.410  0.500  3.269697  151.382  5.755231  0.046346
  7177.989  7177.980  0.500  3.246960  151.345  5.886132  0.049875
  7179.594  7179.580  0.500  3.230836  151.337  5.981509  0.052429
  7181.202  7181.190  0.500  3.221571  151.298  6.035651  0.053319
  7182.834  7182.830  0.500  3.216835  151.252  6.062431  0.053160
  7184.490  7184.480  0.500  3.216457  151.232  6.063927  0.052005
  7186.157  7186.150  0.500  3.217826  151.196  6.054198  0.050128
  7187.846  7187.840  0.500  3.215090  151.179  6.070106  0.047555
  7189.557  7189.550  0.500  3.207985  151.13  6.111410  0.045389
  7191.286  7191.280  0.500  3.196746  149.54  6.115431  0.042669
  7193.046  7193.030  0.500  3.180449  150.767  6.266949  0.041435
  7194.796  7194.790  0.500  3.160098  150.929  6.402636  0.041468
  7196.587  7196.580  0.500  3.138849  150.899  6.538857  0.043210
  7198.385  7198.380  0.500  3.122533  150.835  6.643614  0.046160
  7200.217  7200.210  0.500  3.113664  150.826  6.702369  0.049719
  7202.059  7202.050  0.500  3.112007  150.784  6.711636  0.053681
  7203.922  7203.910  0.500  3.116260  150.727  6.680597  0.057859
  7205.799  7205.790  0.500  3.122022  150.68  6.640150  0.061601
  7207.703  7207.690  0.500  3.123373  150.633  6.629148  0.063544
  7209.624  7209.610  0.500  3.119850  150.589  6.650590  0.061748
  7211.562  7211.550  0.500  3.114306  150.546  6.685645  0.055920
  7213.523  7213.510  0.500  3.112304  150.483  6.696220  0.047358
  7215.493  7215.480  0.500  3.115578  150.427  6.671865  0.039517
  7217.494  7217.480  0.500  3.121271  150.381  6.631946  0.033781
  7219.500  7219.490  0.500  3.125082  150.336  6.604763  0.030748
  7221.536  7221.520  0.500  3.124686  150.271  6.604536  0.030070
  7223.595  7223.580  0.500  3.122095  150.228  6.619762  0.032161
  7225.669  7225.650  0.500  3.120330  150.091  6.625427  0.036254
  7227.748  7227.740  0.500  3.121767  147.447  6.499328  0.040890
  7229.862  7229.850  0.500  3.125054  150.245  6.600950  0.048136
  7231.989  7231.980  0.500  3.127330  150.169  6.582590  0.055296
  7234.132  7234.120  0.500  3.126433  150.112  6.586024  0.062091
  7236.303  7236.290  0.500  3.124727  150.067  6.595303  0.067238
  7238.487  7238.480  0.500  3.123249  150.03  6.603391  0.069543
  7240.692  7240.680  0.500  3.121687  149.988  6.611888  0.069214
  7242.910  7242.900  0.500  3.120893  149.995  6.617434  0.066949
  7245.162  7245.150  0.500  3.121201  147.167  6.490656  0.062218
  7247.419  7247.410  0.500  3.122975  149.725  6.591772  0.060488
  7249.703  7249.690  0.500  3.127406  149.726  6.562695  0.058858
  7252.007  7251.990  0.500  3.132197  149.614  6.526454  0.059409
  7254.317  7254.310  0.500  3.134352  147.265  6.410136  0.059761
  7256.668  7256.650  0.500  3.131152  149.7  6.536999  0.062481
  7259.006  7259.000  0.500  3.121774  149.52  6.590689  0.062446
  7261.394  7261.380  0.500  3.108575  149.095  6.659239  0.061395
  7263.784  7263.770  0.500  3.093979  137.944  6.251790  0.056041
  7266.203  7266.190  0.500  3.078866  149.284  6.868790  0.060239
  7268.639  7268.620  0.500  3.065736  149.891  6.987843  0.059664
  7271.076  7271.070  0.500  3.054403  149.832  7.064701  0.057228
  7273.565  7273.550  0.500  3.045175  148.622  7.072614  0.054332
  7276.053  7276.040  0.500  3.039488  149.858  7.172094  0.053434
  7278.564  7278.550  0.500  3.039315  149.809  7.171015  0.052436
  7281.087  7281.070  0.500  3.043512  149.757  7.138499  0.050788
  7283.630  7283.620  0.500  3.047673  148.675  7.057477  0.048343
  7286.198  7286.190  0.500  3.048140  149.357  7.086531  0.046790
  7288.786  7288.770  0.500  3.044635  149.483  7.117445  0.046386
  7291.391  7291.380  0.500  3.039052  149.453  7.155832  0.048355
  7294.012  7294.000  0.500  3.033836  149.408  7.191093  0.052677
  7296.664  7296.650  0.500  3.030685  149.351  7.211055  0.058447
  7299.322  7299.310  0.500  3.027453  149.242  7.229136  0.064078
  7302.001  7301.990  0.500  3.022585  147.545  7.181766  0.068355
  7304.705  7304.690  0.500  3.016821  149.366  7.312443  0.073604
  7307.426  7307.410  0.500  3.011101  149.265  7.349440  0.076568
  7310.161  7310.150  0.500  3.005111  149.219  7.391316  0.078137
  7312.912  7312.900  0.500  2.999127  149.129  7.431176  0.078313
  7315.694  7315.680  0.500  2.993737  149.063  7.468047  0.078884
  7318.481  7318.470  0.500  2.991339  149.009  7.483271  0.079293
  7321.298  7321.290  0.500  2.991396  148.942  7.479484  0.079616
  7324.134  7324.120  0.500  2.992080  148.88  7.471227  0.079783
  7326.990  7326.970  0.500  2.990679  148.813  7.478359  0.079997
  7329.863  7329.850  0.500  2.987240  148.746  7.500708  0.080517
  7332.748  7332.740  0.500  2.983742  148.671  7.523207  0.082343
  7335.661  7335.650  0.500  2.982029  148.625  7.533798  0.084289
  7338.587  7338.570  0.500  2.981778  147.351  7.471055  0.084719
  7341.534  7341.520  0.500  2.982003  148.375  7.521310  0.084469
  7344.500  7344.490  0.500  2.981415  148.361  7.525004  0.081388
  7347.481  7347.470  0.500  2.978830  148.298  7.541295  0.077481
  7350.493  7350.480  0.500  2.973962  148.245  7.575389  0.073448
  7353.512  7353.500  0.500  2.967845  148.17  7.617993  0.070423
  7356.564  7356.550  0.500  2.960439  148.092  7.670588  0.067932
  7359.625  7359.610  0.500  2.951426  148.035  7.737090  0.065899
  7362.698  7362.690  0.500  2.941596  147.95  7.808985  0.064866
  7365.797  7365.790  0.500  2.932072  147.876  7.879805  0.064620
  7368.926  7368.910  0.500  2.924446  147.8  7.936022  0.066089
  7372.060  7372.050  0.500  2.919219  147.739  7.974336  0.069144
  7375.218  7375.200  0.500  2.915154  147.659  8.002475  0.074617
  7378.395  7378.380  0.500  2.911426  147.568  8.027415  0.082466
  7381.586  7381.570  0.500  2.907616  147.501  8.054404  0.091741
  7384.806  7384.790  0.500  2.903865  147.381  8.078085  0.098782
  7388.031  7388.020  0.500  2.899683  147.334  8.109347  0.102074
  7391.282  7391.270  0.500  2.894418  147.251  8.147555  0.102034
  7394.563  7394.550  0.500  2.888964  147.169  8.187560  0.100509
  7397.848  7397.840  0.500  2.884427  147.106  8.221271  0.099696
  7401.160  7401.150  0.500  2.880919  147.013  8.244952  0.099883
  7404.479  7404.470  0.500  2.878597  146.936  8.259782  0.100456
  7407.829  7407.820  0.500  2.876517  146.852  8.272284  0.100590
  7411.196  7411.190  0.500  2.874319  146.763  8.285429  0.100525
  7414.583  7414.570  0.500  2.871654  146.674  8.302489  0.100591
  7417.987  7417.980  0.500  2.868345  146.559  8.323493  0.101282
  7421.408  7421.400  0.500  2.864269  146.463  8.352015  0.102766
  7424.859  7424.850  0.500  2.858659  146.333  8.391571  0.105362
  7428.319  7428.310  0.500  2.852225  146.271  8.442139  0.107872
  7431.802  7431.790  0.500  2.845565  146.164  8.492316  0.108562
  7435.301  7435.290  0.500  2.839401  146.087  8.540313  0.108566
  7438.823  7438.810  0.500  2.834184  145.955  8.577248  0.107276
  7442.354  7442.350  0.500  2.829927  145.811  8.605338  0.104849
  7445.907  7445.900  0.500  2.826298  141.912  8.405719  0.099450
  7449.490  7449.480  0.500  2.822587  145.699  8.662106  0.100022
  7453.095  7453.080  0.500  2.818858  144.465  8.620812  0.098900
  7456.707  7456.690  0.500  2.815031  145.541  8.718302  0.100063
  7460.336  7460.320  0.500  2.811537  144.891  8.709785  0.100598
  7463.990  7463.980  0.500  2.808083  145.295  8.764258  0.103040
  7467.660  7467.650  0.500  2.803754  141.319  8.561401  0.103340
  7471.350  7471.340  0.500  2.798691  145.223  8.842568  0.110301
  7475.058  7475.050  0.500  2.793617  145.081  8.878864  0.114303
  7478.794  7478.780  0.500  2.788354  144.969  8.918822  0.117747
  7482.531  7482.520  0.500  2.782897  144.832  8.959170  0.120720
  7486.298  7486.290  0.500  2.777081  144.691  9.002639  0.124366
  7490.096  7490.080  0.500  2.771237  144.553  9.046758  0.128448
  7493.902  7493.880  0.500  2.765799  144.441  9.089066  0.131742
  7497.727  7497.710  0.500  2.760917  144.34  9.127130  0.133183
  7501.567  7501.550  0.500  2.756117  144.237  9.164545  0.133306
  7505.448  7505.410  0.500  2.751073  144.089  9.201434  0.132973
  7509.288  7509.290  0.500  2.745850  143.957  9.241128  0.133301
  7513.186  7513.190  0.500  2.740447  143.83  9.282987  0.134655
  7517.106  7517.110  0.500  2.735408  143.667  9.319334  0.136276
  7521.047  7521.050  0.500  2.730396  143.572  9.359945  0.137723
  7525.035  7525.010  0.500  2.725887  143.461  9.394989  0.138602
  7528.983  7528.980  0.500  2.721562  143.312  9.425882  0.138776
  7532.997  7532.980  0.500  2.717317  143.164  9.456205  0.139251
  7536.986  7536.990  0.500  2.712854  143.013  9.488507  0.140185
  7541.051  7541.030  0.500  2.708655  142.896  9.520642  0.141706
  7545.100  7545.080  0.500  2.704119  142.765  9.555145  0.143411
  7549.139  7549.150  0.500  2.699276  142.869  9.608542  0.144909
  7553.239  7553.240  0.500  2.694267  142.723  9.646940  0.145258
  7557.380  7557.350  0.500  2.689002  142.591  9.688867  0.145037
  7561.511  7561.480  0.500  2.683534  142.431  9.731039  0.144352
  7565.622  7565.630  0.500  2.678191  142.262  9.771610  0.144648
  7569.774  7569.790  0.500  2.673643  142.155  9.808765  0.146389
  7574.000  7573.980  0.500  2.669144  142.005  9.842608  0.149261
  7578.174  7578.180  0.500  2.665004  141.846  9.872361  0.153179
  7582.424  7582.410  0.500  2.661004  141.686  9.900713  0.157573
  7586.643  7586.650  0.500  2.656555  141.508  9.932415  0.160783
  7590.890  7590.910  0.500  2.651657  141.294  9.966065  0.163235
  7595.214  7595.190  0.500  2.646653  141.113  10.0032  0.164788
  7599.479  7599.490  0.500  2.641102  140.87  10.0416  0.166048
  7603.833  7603.810  0.500  2.635706  140.271  10.053  0.166913
  7608.140  7608.150  0.500  2.630406  140.065  10.0915  0.169243
  7612.499  7612.510  0.500  2.625403  139.864  10.1276  0.172017
  7616.913  7616.890  0.500  2.620326  139.827  10.1765  0.174456
  7621.265  7621.280  0.500  2.615108  139.918  10.2364  0.175977
  7625.716  7625.700  0.500  2.609904  139.905  10.2888  0.176822
  7630.114  7630.130  0.500  2.604305  139.832  10.3412  0.178586
  7634.603  7634.580  0.500  2.599092  139.707  10.386  0.180946
  7639.046  7639.050  0.500  2.593932  139.547  10.4278  0.184377
  7643.559  7643.540  0.500  2.588980  139.352  10.4648  0.187326
  7648.030  7648.050  0.500  2.583881  139.207  10.5074  0.190099
  7652.561  7652.580  0.500  2.578855  139.08  10.5507  0.192420
  7657.108  7657.130  0.500  2.573444  138.826  10.5886  0.194297
  7661.696  7661.700  0.500  2.568008  138.677  10.6349  0.195614
  7666.299  7666.280  0.500  2.562873  138.549  10.6798  0.196529
  7670.866  7670.890  0.500  2.557817  138.391  10.7217  0.197379
  7675.501  7675.510  0.500  2.552812  138.198  10.7604  0.198106
  7680.141  7680.160  0.500  2.548165  138.009  10.7957  0.198691
  7684.808  7684.820  0.500  2.543225  137.727  10.827  0.199947
  7689.478  7689.500  0.500  2.538354  137.875  10.8916  0.202761
  7694.187  7694.200  0.500  2.533378  137.573  10.922  0.205483
  7698.909  7698.920  0.500  2.528154  137.23  10.9518  0.208308
  7703.655  7703.660  0.500  2.523200  137.152  10.9999  0.211160
  7708.394  7708.410  0.500  2.518117  137.054  11.0481  0.214002
  7713.180  7713.190  0.500  2.512886  136.832  11.0881  0.217319
  7717.980  7717.990  0.500  2.507631  136.59  11.1268  0.220512
  7722.811  7722.800  0.500  2.502468  136.486  11.1758  0.223783
  7727.618  7727.630  0.500  2.497229  136.264  11.2163  0.226301
  7732.488  7732.490  0.500  2.492064  136.043  11.256  0.228471
  7737.346  7737.360  0.500  2.486747  135.759  11.2925  0.230560
  7742.236  7742.250  0.500  2.481606  135.852  11.3584  0.233379
  7747.145  7747.160  0.500  2.476403  135.573  11.3942  0.235921
  7752.091  7752.090  0.500  2.471235  135.359  11.4352  0.238245
  7757.041  7757.030  0.500  2.465791  135.159  11.4806  0.240894
  7761.982  7762.000  0.500  2.460434  134.952  11.5246  0.243724
  7767.000  7766.990  0.500  2.455341  134.783  11.569  0.247005
  7771.988  7771.990  0.500  2.450126  134.567  11.6108  0.250478
  7777.013  7777.020  0.500  2.444795  134.375  11.6562  0.253660
  7782.056  7782.060  0.500  2.439663  134.164  11.6978  0.256563
  7787.108  7787.120  0.500  2.434294  133.966  11.7434  0.259203
  7792.193  7792.200  0.500  2.429252  133.801  11.7883  0.262369
  7797.289  7797.300  0.500  2.423740  133.589  11.8346  0.264776
  7802.409  7802.420  0.500  2.418449  133.379  11.8786  0.266889
  7807.548  7807.560  0.500  2.412986  133.188  11.9266  0.269034
  7812.699  7812.720  0.500  2.407512  132.985  11.9738  0.271669
  7817.887  7817.900  0.500  2.402427  132.764  12.0149  0.274236
  7823.112  7823.090  0.500  2.396994  132.608  12.0662  0.277112
  7828.290  7828.310  0.500  2.391589  132.352  12.1081  0.279891
  7833.517  7833.540  0.500  2.386191  132.14  12.1541  0.282318
  7838.770  7838.790  0.500  2.380950  131.678  12.1753  0.284818
  7844.032  7844.060  0.500  2.375846  131.773  12.2465  0.288585
  7849.337  7849.350  0.500  2.370386  131.473  12.2855  0.291546
  7854.640  7854.660  0.500  2.365193  130.405  12.2491  0.292546
  7859.975  7859.990  0.500  2.359881  131.042  12.3744  0.298398
  7865.328  7865.340  0.500  2.354629  130.835  12.42  0.301865
  7870.706  7870.710  0.500  2.349470  130.62  12.4637  0.305727
  7876.082  7876.090  0.500  2.344258  130.41  12.5087  0.309540
  7881.516  7881.500  0.500  2.338655  130.125  12.5515  0.312936
  7886.899  7886.920  0.500  2.333678  129.941  12.5963  0.316771
  7892.351  7892.370  0.500  2.328389  129.688  12.6384  0.320160
  7897.808  7897.830  0.500  2.323046  129.38  12.676  0.323650
  7903.289  7903.310  0.500  2.317509  129.194  12.728  0.327525
  7908.802  7908.810  0.500  2.312434  128.943  12.7679  0.330954
  7914.307  7914.330  0.500  2.307207  128.703  12.8109  0.334678
  7919.844  7919.870  0.500  2.302029  128.473  12.8545  0.338003
  7925.389  7925.420  0.500  2.296572  128.208  12.8981  0.341555
  7930.984  7931.000  0.500  2.291143  127.841  12.9312  0.345091
  7936.572  7936.600  0.500  2.285928  127.455  12.9596  0.347764
  7942.187  7942.210  0.500  2.280381  127.495  13.0358  0.351720
  7947.816  7947.850  0.500  2.275192  127.177  13.0709  0.354998
  7953.471  7953.500  0.500  2.269741  126.816  13.105  0.358335
  7959.149  7959.170  0.500  2.264562  126.529  13.1433  0.361300
  7964.832  7964.860  0.500  2.259354  126.264  13.1842  0.364927