File: xdidata/Fe/Fe-Vivianite.xdi
# XDI/1.0 BlueSky/1.10.0 BMM/2023-1.0-py310-tiled
# Beamline.name: BMM (06BM) -- Beamline for Materials Measurement (NIST)
# Beamline.xray_source: NSLS-II three-pole wiggler
# Beamline.collimation: paraboloid mirror, 5 nm Rh on 30 nm Pt
# Beamline.focusing: not in use
# Beamline.harmonic_rejection: flat mirror, Si stripe, pitch = 7.0 mrad relative to beam
# Beamline.software: Bluesky 1.10.0, Ophyd 1.7.0, DataBroker 2.0.0b13, Python 3.10.8, 2023-1.0-py310-tiled
# Detector.I0: 10 cm N2
# Detector.I1: 25 cm N2
# Detector.I2: 25 cm N2
# Element.symbol: Fe
# Element.edge: K
# Element.reference: Fe
# Element.reference_material: Fe foil
# Facility.name: NSLS-II
# Facility.energy: 3.0
# Facility.current: 400.3
# Facility.mode: top-off
# Facility.GUP: 123456
# Facility.SAF: 301027
# Facility.cycle: 2023-2
# Mono.name: Si(111)
# Mono.d_spacing: 3.13519
# Mono.encoder_resolution: 0.0000050 deg/ct
# Mono.angle_offset: 16.0754 deg
# Mono.scan_mode: pseudo channel cut
# Mono.scan_type: step
# Mono.direction: forward in energy
# Sample.name: Fe3(PO4)2
# Sample.prep: PEG pellet
# Sample.x: 116.329 mm
# Sample.y: 114.126 mm
# Sample.SDD_position: 205.000 mm
# Scan.experimenters: Bruce Ravel
# Scan.edge_energy: 7112.0
# Scan.start_time: 2023-05-05T18:32:27
# Scan.end_time: 2023-05-05T18:40:35
# Scan.transient_id: 74556
# Scan.uid: c56555d7-415b-4074-89aa-fb0bbff20d1d
# Scan.plot_hint: ln(I0/It)  --  ln($5/$6)
# Column.1: energy eV
# Column.2: requested_energy eV
# Column.3: measurement_time seconds
# Column.4: xmu
# Column.5: I0 nA
# Column.6: It nA
# Column.7: Ir nA
# ///////////
# courtesy Martin Stennett, University of Sheffield
# -----------
# energy  requested_energy  measurement_time  xmu  I0  It  Ir
  6912.001  6912.000  0.500  3.177783  153.921  6.415103  1.204403
  6922.009  6922.000  0.500  3.162010  153.777  6.510991  1.231302
  6932.036  6932.000  0.500  3.145804  153.753  6.616337  1.260689
  6942.019  6942.000  0.500  3.129301  153.721  6.725032  1.289196
  6952.002  6952.000  0.500  3.113380  153.692  6.831698  1.319588
  6962.014  6962.000  0.500  3.097617  153.68  6.939673  1.349140
  6972.018  6972.000  0.500  3.081828  153.678  7.050020  1.380179
  6982.027  6982.000  0.500  3.066300  153.648  7.158936  1.411325
  6992.016  6992.000  0.500  3.050649  153.634  7.271218  1.443113
  7002.013  7002.000  0.500  3.035445  153.566  7.379361  1.474811
  7012.014  7012.000  0.500  3.020201  153.492  7.489084  1.506652
  7022.016  7022.000  0.500  3.005237  153.412  7.598028  1.537814
  7032.014  7032.000  0.500  2.990238  153.336  7.709015  1.570455
  7042.017  7042.000  0.500  2.975450  153.263  7.820180  1.602761
  7052.011  7052.000  0.500  2.961138  153.181  7.928671  1.634959
  7062.012  7062.000  0.500  2.946931  152.451  8.003751  1.659427
  7072.011  7072.000  0.500  2.934075  152.966  8.134700  1.695265
  7081.984  7082.000  0.500  2.921731  152.888  8.231573  1.721107
  7083.991  7084.000  0.500  2.919788  152.656  8.235066  1.722919
  7085.985  7086.000  0.500  2.917785  152.787  8.258646  1.728034
  7087.996  7088.000  0.500  2.915691  152.78  8.275599  1.732073
  7089.992  7090.000  0.500  2.913844  152.794  8.291616  1.734934
  7091.995  7092.000  0.500  2.912444  152.77  8.301920  1.737062
  7093.991  7094.000  0.500  2.911091  152.748  8.311986  1.737237
  7096.317  7096.000  0.500  2.910197  152.681  8.315760  1.736296
  7098.294  7098.000  0.500  2.909777  152.656  8.317879  1.733746
  7099.994  7100.000  0.500  2.909932  152.633  8.315338  1.728516
  7101.999  7102.000  0.500  2.910755  152.636  8.308693  1.720013
  7102.288  7102.300  0.500  2.910975  152.623  8.306154  1.718216
  7102.589  7102.600  0.500  2.911287  152.623  8.303548  1.716838
  7102.889  7102.900  0.500  2.911444  152.588  8.300353  1.713795
  7103.190  7103.200  0.500  2.911817  152.601  8.297954  1.711930
  7103.481  7103.500  0.500  2.912521  152.592  8.291609  1.708529
  7103.785  7103.800  0.500  2.912520  152.595  8.291778  1.706979
  7104.087  7104.100  0.500  2.912799  152.58  8.288673  1.703948
  7104.386  7104.400  0.500  2.913432  152.59  8.283974  1.700329
  7104.688  7104.700  0.500  2.913880  152.581  8.279754  1.697412
  7104.989  7105.000  0.500  2.914187  152.555  8.275797  1.693710
  7105.285  7105.300  0.500  2.914990  152.549  8.268839  1.689762
  7105.584  7105.600  0.500  2.915315  152.542  8.265773  1.685634
  7105.888  7105.900  0.500  2.915908  152.533  8.260414  1.680776
  7106.192  7106.200  0.500  2.917004  152.519  8.250611  1.674842
  7106.488  7106.500  0.500  2.917677  152.522  8.245221  1.669682
  7106.792  7106.800  0.500  2.918257  152.513  8.239949  1.663913
  7107.092  7107.100  0.500  2.919231  152.537  8.233226  1.657064
  7107.383  7107.400  0.500  2.920162  152.544  8.225946  1.649903
  7107.689  7107.700  0.500  2.921380  152.52  8.214615  1.640691
  7107.989  7108.000  0.500  2.922717  152.499  8.202515  1.629255
  7108.287  7108.300  0.500  2.924043  152.491  8.191208  1.618824
  7108.589  7108.600  0.500  2.925499  152.468  8.178079  1.604368
  7108.884  7108.900  0.500  2.927253  152.468  8.163738  1.588816
  7109.188  7109.200  0.500  2.929175  152.414  8.145162  1.568673
  7109.497  7109.500  0.500  2.931676  152.422  8.125240  1.544554
  7109.795  7109.800  0.500  2.934966  152.414  8.098154  1.511492
  7110.093  7110.100  0.500  2.938672  152.397  8.067262  1.468690
  7110.393  7110.400  0.500  2.943990  152.38  8.023623  1.407721
  7110.697  7110.700  0.500  2.951562  152.369  7.962524  1.322306
  7110.995  7111.000  0.500  2.961922  152.379  7.880964  1.214208
  7111.297  7111.300  0.500  2.973833  152.366  7.786999  1.088122
  7111.593  7111.600  0.500  2.985178  152.304  7.695970  0.962186
  7111.889  7111.900  0.500  2.993641  152.258  7.628855  0.851774
  7112.196  7112.200  0.500  2.998896  152.213  7.586625  0.766153
  7112.494  7112.500  0.500  3.002577  152.186  7.557382  0.704272
  7112.792  7112.800  0.500  3.006519  152.164  7.526560  0.657234
  7113.094  7113.100  0.500  3.011167  152.167  7.491827  0.618422
  7113.397  7113.400  0.500  3.016210  152.154  7.453487  0.583726
  7113.699  7113.700  0.500  3.020476  152.126  7.420382  0.552904
  7114.000  7114.000  0.500  3.022911  152.323  7.411944  0.526459
  7114.298  7114.300  0.500  3.023918  152.54  7.415032  0.505091
  7114.600  7114.600  0.500  3.024320  152.534  7.411744  0.486249
  7114.899  7114.900  0.500  3.024677  152.498  7.407383  0.472148
  7115.201  7115.200  0.500  3.025213  152.536  7.405224  0.461245
  7115.500  7115.500  0.500  3.027121  152.505  7.389597  0.453253
  7115.800  7115.800  0.500  3.032011  152.508  7.353701  0.445386
  7116.094  7116.100  0.500  3.040384  152.503  7.292188  0.437946
  7116.393  7116.400  0.500  3.053046  152.514  7.200929  0.428058
  7116.698  7116.700  0.500  3.070610  152.52  7.075856  0.414838
  7116.998  7117.000  0.500  3.093501  152.5  6.914814  0.396704
  7117.297  7117.300  0.500  3.122759  152.46  6.713668  0.373563
  7117.598  7117.600  0.500  3.160773  152.441  6.462448  0.344600
  7117.896  7117.900  0.500  3.210492  152.425  6.148341  0.310246
  7118.201  7118.200  0.500  3.275119  152.382  5.761906  0.271940
  7118.506  7118.500  0.500  3.355019  152.369  5.319004  0.233139
  7118.798  7118.800  0.500  3.448692  152.363  4.843203  0.197358
  7119.099  7119.100  0.500  3.559150  152.37  4.336918  0.163448
  7119.400  7119.400  0.500  3.682964  152.347  3.831261  0.133692
  7119.703  7119.700  0.500  3.822122  152.344  3.333489  0.107693
  7120.000  7120.000  0.500  3.975128  152.313  2.859962  0.085091
  7120.296  7120.300  0.500  4.147511  152.31  2.407068  0.065848
  7120.593  7120.600  0.500  4.335639  152.289  1.994000  0.050020
  7120.892  7120.900  0.500  4.530060  152.264  1.641414  0.037818
  7121.204  7121.200  0.500  4.727368  152.247  1.347347  0.028487
  7121.494  7121.500  0.500  4.898821  152.252  1.135097  0.022257
  7121.801  7121.800  0.500  5.051089  152.229  0.974625  0.017904
  7122.102  7122.100  0.500  5.185157  152.23  0.852343  0.014685
  7122.399  7122.400  0.500  5.307306  152.219  0.754284  0.012329
  7122.705  7122.700  0.500  5.431445  152.176  0.666038  0.010341
  7123.004  7123.000  0.500  5.557904  152.109  0.586663  0.008755
  7123.303  7123.300  0.500  5.696325  152.131  0.510899  0.007342
  7123.602  7123.600  0.500  5.842161  152.135  0.441582  0.006132
  7123.899  7123.900  0.500  5.999963  152.109  0.377055  0.005078
  7124.202  7124.200  0.500  6.164029  152.089  0.319959  0.004054
  7124.497  7124.500  0.500  6.325404  152.06  0.272224  0.003591
  7124.798  7124.800  0.500  6.483876  152.07  0.232344  0.003003
  7125.097  7125.100  0.500  6.632098  152.037  0.200293  0.002509
  7125.399  7125.400  0.500  6.774313  152.025  0.173727  0.002126
  7125.704  7125.700  0.500  6.899191  152.008  0.153315  0.001885
  7126.004  7126.000  0.500  7.004626  151.98  0.137948  0.001639
  7126.301  7126.300  0.500  7.089856  151.949  0.126652  0.001443
  7126.605  7126.600  0.500  7.146032  151.894  0.119690  0.001400
  7126.904  7126.900  0.500  7.166356  151.922  0.117303  0.001391
  7127.203  7127.200  0.500  7.154821  151.914  0.118659  0.001286
  7127.505  7127.500  0.500  7.111593  151.883  0.123875  0.001288
  7127.800  7127.800  0.500  7.052162  151.871  0.131450  0.001396
  7128.099  7128.100  0.500  6.985471  151.816  0.140464  0.001350
  7128.403  7128.400  0.500  6.921170  151.793  0.149770  0.001438
  7128.705  7128.700  0.500  6.863627  151.763  0.158609  0.001450
  7128.994  7129.000  0.500  6.818162  151.756  0.165980  0.001373
  7129.295  7129.300  0.500  6.781722  151.701  0.172077  0.001404
  7129.599  7129.600  0.500  6.755540  151.684  0.176622  0.001426
  7129.903  7129.900  0.500  6.738987  151.646  0.179525  0.001373
  7130.203  7130.200  0.500  6.725462  151.597  0.181911  0.001290
  7130.502  7130.500  0.500  6.716146  151.561  0.183570  0.001213
  7130.802  7130.800  0.500  6.703013  151.545  0.185977  0.001339
  7131.104  7131.100  0.500  6.683991  151.529  0.189528  0.001273
  7131.406  7131.400  0.500  6.658805  151.506  0.194334  0.001267
  7131.704  7131.700  0.500  6.626735  151.477  0.200628  0.001343
  7132.001  7132.000  0.500  6.589907  151.48  0.208158  0.001430
  7132.297  7132.300  0.500  6.548135  151.513  0.217085  0.001520
  7132.601  7132.600  0.500  6.504885  151.484  0.226636  0.001737
  7132.903  7132.900  0.500  6.457902  151.454  0.237493  0.001759
  7133.196  7133.200  0.500  6.412094  151.453  0.248623  0.001870
  7133.494  7133.500  0.500  6.366943  151.449  0.260098  0.002064
  7133.800  7133.800  0.500  6.326294  151.444  0.270881  0.002224
  7134.100  7134.100  0.500  6.291032  151.429  0.280575  0.002394
  7134.398  7134.400  0.500  6.262820  151.448  0.288638  0.002568
  7134.701  7134.700  0.500  6.241452  151.457  0.294891  0.002558
  7135.003  7135.000  0.500  6.226059  151.458  0.299467  0.002723
  7135.301  7135.300  0.500  6.213507  151.463  0.303260  0.002696
  7135.607  7135.600  0.500  6.205964  151.444  0.305517  0.002794
  7135.901  7135.900  0.500  6.201501  151.451  0.306898  0.002808
  7136.203  7136.200  0.500  6.199731  151.444  0.307428  0.002908
  7136.499  7136.500  0.500  6.199257  151.431  0.307546  0.002988
  7136.799  7136.800  0.500  6.199567  151.426  0.307441  0.002963
  7136.998  7137.000  0.500  6.198817  151.396  0.307611  0.002995
  7137.996  7137.990  0.500  6.184801  151.384  0.311928  0.003009
  7139.005  7138.990  0.500  6.143356  151.379  0.325118  0.003003
  7140.026  7140.010  0.500  6.088931  151.372  0.343287  0.002948
  7141.083  7141.060  0.500  6.043316  151.363  0.359287  0.003080
  7142.115  7142.120  0.500  6.000186  151.344  0.375074  0.003116
  7143.190  7143.200  0.500  5.938281  151.327  0.398982  0.003282
  7144.296  7144.300  0.500  5.863747  151.321  0.429838  0.003605
  7145.422  7145.420  0.500  5.777209  151.36  0.468814  0.003819
  7146.563  7146.560  0.500  5.686184  151.344  0.513437  0.004057
  7147.713  7147.710  0.500  5.599698  151.344  0.559820  0.004100
  7148.884  7148.890  0.500  5.522230  151.297  0.604724  0.004139
  7150.078  7150.080  0.500  5.459607  151.319  0.643897  0.004241
  7151.301  7151.300  0.500  5.410480  151.31  0.676281  0.004344
  7152.527  7152.530  0.500  5.386084  151.26  0.692751  0.004317
  7153.782  7153.780  0.500  5.387598  151.282  0.691804  0.004288
  7155.058  7155.050  0.500  5.411343  151.26  0.675472  0.004328
  7156.340  7156.340  0.500  5.450897  151.239  0.649187  0.004129
  7157.652  7157.650  0.500  5.495827  151.216  0.620571  0.003972
  7158.984  7158.980  0.500  5.543302  151.194  0.591712  0.003890
  7160.328  7160.330  0.500  5.595491  151.144  0.561436  0.003698
  7161.703  7161.700  0.500  5.650388  151.107  0.531314  0.003542
  7163.084  7163.080  0.500  5.705959  151.049  0.502402  0.003319
  7164.493  7164.490  0.500  5.760691  151.001  0.475494  0.003301
  7165.913  7165.910  0.500  5.809722  150.936  0.452545  0.003132
  7167.351  7167.350  0.500  5.854286  150.933  0.432811  0.003121
  7168.814  7168.810  0.500  5.891335  150.893  0.416960  0.003031
  7170.301  7170.290  0.500  5.924628  150.87  0.403246  0.002892
  7171.793  7171.790  0.500  5.960991  150.827  0.388736  0.002891
  7173.316  7173.310  0.500  5.983397  150.803  0.380061  0.002919
  7174.864  7174.850  0.500  5.991262  150.769  0.376998  0.003214
  7176.413  7176.410  0.500  5.988388  150.732  0.377991  0.003244
  7177.991  7177.980  0.500  5.975014  150.683  0.382955  0.003524
  7179.581  7179.580  0.500  5.958529  150.689  0.389338  0.003799
  7181.199  7181.190  0.500  5.946701  150.65  0.393867  0.003761
  7182.839  7182.830  0.500  5.937653  150.6  0.397316  0.003780
  7184.485  7184.480  0.500  5.928619  150.568  0.400836  0.003828
  7186.159  7186.150  0.500  5.915192  150.544  0.406189  0.003590
  7187.849  7187.840  0.500  5.894146  150.51  0.414734  0.003616
  7189.561  7189.550  0.500  5.869773  150.478  0.424877  0.003485
  7191.288  7191.280  0.500  5.842876  148.907  0.431904  0.003191
  7193.037  7193.030  0.500  5.814846  150.131  0.447831  0.003080
  7194.796  7194.790  0.500  5.785329  150.285  0.461721  0.003286
  7196.591  7196.580  0.500  5.756577  150.263  0.475120  0.003457
  7198.390  7198.380  0.500  5.731019  150.211  0.487250  0.003611
  7200.222  7200.210  0.500  5.707810  150.173  0.498566  0.003974
  7202.057  7202.050  0.500  5.687642  150.126  0.508563  0.004281
  7203.924  7203.910  0.500  5.672084  150.077  0.516367  0.004642
  7205.803  7205.790  0.500  5.661595  150.028  0.521641  0.005198
  7207.697  7207.690  0.500  5.653665  149.974  0.525608  0.005344
  7209.622  7209.610  0.500  5.647749  149.873  0.528370  0.005175
  7211.555  7211.550  0.500  5.645245  149.86  0.529647  0.004486
  7213.529  7213.510  0.500  5.647708  149.816  0.528190  0.003944
  7215.486  7215.480  0.500  5.653819  149.767  0.524799  0.003365
  7217.494  7217.480  0.500  5.662278  149.707  0.520171  0.002913
  7219.506  7219.490  0.500  5.671342  149.649  0.515279  0.002606
  7221.536  7221.520  0.500  5.679661  149.566  0.510724  0.002543
  7223.590  7223.580  0.500  5.685188  149.55  0.507855  0.002707
  7225.664  7225.650  0.500  5.688232  149.411  0.505841  0.002983
  7227.750  7227.740  0.500  5.688125  146.766  0.496942  0.003388
  7229.864  7229.850  0.500  5.686309  149.556  0.507307  0.004062
  7231.995  7231.980  0.500  5.680954  149.783  0.510805  0.004531
  7234.130  7234.120  0.500  5.674081  149.728  0.514140  0.005119
  7236.299  7236.290  0.500  5.666208  149.677  0.518027  0.005540
  7238.489  7238.480  0.500  5.657924  149.651  0.522246  0.005760
  7240.692  7240.680  0.500  5.649604  149.595  0.526413  0.005802
  7242.912  7242.900  0.500  5.645341  149.579  0.528605  0.005596
  7245.167  7245.150  0.500  5.644884  146.806  0.519039  0.005238
  7247.425  7247.410  0.500  5.649849  149.318  0.525308  0.005068
  7249.694  7249.690  0.500  5.658686  149.319  0.520691  0.004923
  7252.003  7251.990  0.500  5.667867  149.215  0.515571  0.004887
  7254.324  7254.310  0.500  5.673104  146.872  0.504825  0.004928
  7256.668  7256.650  0.500  5.673973  149.285  0.512674  0.005125
  7259.015  7259.000  0.500  5.669793  149.158  0.514382  0.005084
  7261.392  7261.380  0.500  5.662724  148.73  0.516544  0.004963
  7263.789  7263.770  0.500  5.655468  137.506  0.481043  0.004350
  7266.196  7266.190  0.500  5.643113  148.933  0.527493  0.004824
  7268.632  7268.620  0.500  5.632151  149.526  0.535432  0.004811
  7271.083  7271.070  0.500  5.620333  149.449  0.541517  0.004634
  7273.565  7273.550  0.500  5.607032  148.224  0.544271  0.004531
  7276.053  7276.040  0.500  5.595258  149.452  0.555281  0.004385
  7278.557  7278.550  0.500  5.584796  149.412  0.560969  0.004299
  7281.083  7281.070  0.500  5.574338  149.369  0.566702  0.004215
  7283.633  7283.620  0.500  5.564382  148.286  0.568226  0.004166
  7286.198  7286.190  0.500  5.553781  149.003  0.577056  0.004009
  7288.783  7288.770  0.500  5.542278  149.091  0.584076  0.004106
  7291.393  7291.380  0.500  5.531676  149.065  0.590199  0.004263
  7294.012  7294.000  0.500  5.520513  149.018  0.596635  0.004562
  7296.659  7296.650  0.500  5.510840  148.953  0.602176  0.005084
  7299.320  7299.310  0.500  5.500834  148.814  0.607661  0.005548
  7302.001  7301.990  0.500  5.491960  147.166  0.606288  0.005995
  7304.702  7304.690  0.500  5.484890  148.954  0.618010  0.006372
  7307.419  7307.410  0.500  5.479092  148.847  0.621157  0.006750
  7310.159  7310.150  0.500  5.475013  148.814  0.623556  0.006795
  7312.912  7312.900  0.500  5.471390  148.749  0.625548  0.006830
  7315.694  7315.680  0.500  5.467567  148.691  0.627699  0.006791
  7318.481  7318.470  0.500  5.464223  148.634  0.629556  0.006913
  7321.300  7321.290  0.500  5.461520  148.542  0.630872  0.006956
  7324.137  7324.120  0.500  5.458716  148.472  0.632344  0.006899
  7326.981  7326.970  0.500  5.455837  148.41  0.633903  0.007089
  7329.865  7329.850  0.500  5.451796  148.35  0.636211  0.007013
  7332.748  7332.740  0.500  5.447050  148.278  0.638928  0.007273
  7335.667  7335.650  0.500  5.442421  148.204  0.641575  0.007556
  7338.587  7338.570  0.500  5.436595  146.945  0.639840  0.007522
  7341.532  7341.520  0.500  5.428396  148.021  0.649832  0.007435
  7344.497  7344.490  0.500  5.419639  147.99  0.655410  0.007348
  7347.484  7347.470  0.500  5.409068  147.933  0.662122  0.007016
  7350.498  7350.480  0.500  5.399283  147.848  0.668245  0.006648
  7353.519  7353.500  0.500  5.390333  147.759  0.673850  0.006466
  7356.564  7356.550  0.500  5.381936  147.652  0.679036  0.006298
  7359.623  7359.610  0.500  5.374257  147.579  0.683932  0.005986
  7362.700  7362.690  0.500  5.366754  147.528  0.688849  0.005985
  7365.802  7365.790  0.500  5.358986  147.448  0.693844  0.006030
  7368.926  7368.910  0.500  5.350524  147.403  0.699526  0.006061
  7372.063  7372.050  0.500  5.341943  147.375  0.705418  0.006406
  7375.213  7375.200  0.500  5.333792  147.292  0.710791  0.006857
  7378.397  7378.380  0.500  5.325200  147.186  0.716408  0.007487
  7381.579  7381.570  0.500  5.317033  147.131  0.722016  0.008528
  7384.799  7384.790  0.500  5.309169  147.012  0.727124  0.009178
  7388.031  7388.020  0.500  5.300643  146.998  0.733282  0.009335
  7391.279  7391.270  0.500  5.292879  146.918  0.738598  0.009429
  7394.559  7394.550  0.500  5.284765  146.839  0.744211  0.009377
  7397.848  7397.840  0.500  5.277126  146.727  0.749346  0.009342
  7401.164  7401.150  0.500  5.269609  146.621  0.754459  0.009212
  7404.483  7404.470  0.500  5.262546  146.555  0.759460  0.009435
  7407.833  7407.820  0.500  5.254764  146.47  0.764951  0.009503
  7411.201  7411.190  0.500  5.246435  146.381  0.770880  0.009653
  7414.578  7414.570  0.500  5.237509  146.293  0.777322  0.009622
  7417.987  7417.980  0.500  5.228922  146.2  0.783528  0.009748
  7421.406  7421.400  0.500  5.220257  146.152  0.790090  0.009978
  7424.866  7424.850  0.500  5.212738  146.053  0.795514  0.010323
  7428.319  7428.310  0.500  5.205834  145.965  0.800541  0.010315
  7431.805  7431.790  0.500  5.198298  145.841  0.805915  0.010596
  7435.298  7435.290  0.500  5.190994  145.757  0.811350  0.010583
  7438.823  7438.810  0.500  5.183790  145.634  0.816531  0.010360
  7442.354  7442.350  0.500  5.175925  145.476  0.822082  0.010142
  7445.912  7445.900  0.500  5.167746  141.592  0.806707  0.009815
  7449.486  7449.480  0.500  5.158752  145.355  0.835628  0.009869
  7453.098  7453.080  0.500  5.150743  144.088  0.835003  0.009741
  7456.707  7456.690  0.500  5.142786  145.17  0.847994  0.009960
  7460.331  7460.320  0.500  5.134547  144.527  0.851221  0.009959
  7463.992  7463.980  0.500  5.127862  144.938  0.859369  0.010334
  7467.660  7467.650  0.500  5.120238  141.041  0.842665  0.010392
  7471.345  7471.340  0.500  5.112996  144.907  0.872055  0.011161
  7475.060  7475.050  0.500  5.105735  144.732  0.877351  0.011542
  7478.796  7478.780  0.500  5.098341  144.606  0.883088  0.011787
  7482.528  7482.520  0.500  5.090331  144.474  0.889377  0.012080
  7486.310  7486.290  0.500  5.081417  144.371  0.896702  0.012547
  7490.098  7490.080  0.500  5.072659  144.221  0.903649  0.013027
  7493.890  7493.880  0.500  5.064110  144.12  0.910772  0.013385
  7497.743  7497.710  0.500  5.054558  143.987  0.918661  0.013586
  7501.570  7501.550  0.500  5.045611  143.855  0.926073  0.013685
  7505.443  7505.410  0.500  5.037666  143.728  0.932632  0.013591
  7509.319  7509.290  0.500  5.028126  143.584  0.940627  0.013777
  7513.210  7513.190  0.500  5.020246  143.463  0.947274  0.013807
  7517.111  7517.110  0.500  5.011844  143.376  0.954684  0.014203
  7521.052  7521.050  0.500  5.003184  143.246  0.962119  0.014478
  7525.014  7525.010  0.500  4.995054  143.118  0.969101  0.014540
  7528.990  7528.980  0.500  4.987414  142.979  0.975589  0.014548
  7532.980  7532.980  0.500  4.979299  142.853  0.982672  0.014751
  7536.984  7536.990  0.500  4.971090  142.695  0.989674  0.014811
  7541.070  7541.030  0.500  4.962845  142.545  0.996819  0.014968
  7545.112  7545.080  0.500  4.954948  142.409  1.003760  0.015225
  7549.142  7549.150  0.500  4.946496  142.285  1.011402  0.015399
  7553.239  7553.240  0.500  4.938179  142.131  1.018745  0.015536
  7557.336  7557.350  0.500  4.930271  141.999  1.025879  0.015588
  7561.477  7561.480  0.500  4.921722  141.815  1.033348  0.015578
  7565.615  7565.630  0.500  4.913416  141.676  1.040944  0.015623
  7569.779  7569.790  0.500  4.904916  141.583  1.049139  0.015937
  7573.963  7573.980  0.500  4.896842  141.423  1.056451  0.016306
  7578.194  7578.180  0.500  4.888117  141.237  1.064304  0.016777
  7582.429  7582.410  0.500  4.880151  141.081  1.071634  0.017235
  7586.635  7586.650  0.500  4.872240  140.866  1.078498  0.017628
  7590.932  7590.910  0.500  4.863158  140.71  1.087136  0.018104
  7595.185  7595.190  0.500  4.855137  140.478  1.094083  0.018340
  7599.511  7599.490  0.500  4.846388  140.216  1.101634  0.018425
  7603.835  7603.810  0.500  4.837453  139.614  1.106753  0.018609
  7608.177  7608.150  0.500  4.829242  139.429  1.114397  0.018853
  7612.511  7612.510  0.500  4.820449  139.235  1.122672  0.019334
  7616.913  7616.890  0.500  4.811706  139.201  1.132254  0.019648
  7621.270  7621.280  0.500  4.803602  139.296  1.142249  0.019903
  7625.716  7625.700  0.500  4.794990  139.24  1.151664  0.019860
  7630.153  7630.130  0.500  4.786944  139.137  1.160107  0.020266
  7634.608  7634.580  0.500  4.777797  138.963  1.169307  0.020498
  7639.073  7639.050  0.500  4.769654  138.771  1.177241  0.021086
  7643.541  7643.540  0.500  4.761117  138.596  1.185830  0.021512
  7648.057  7648.050  0.500  4.752635  138.409  1.194323  0.021914
  7652.591  7652.580  0.500  4.744058  138.293  1.203603  0.022143
  7657.111  7657.130  0.500  4.735132  138.109  1.212771  0.022468
  7661.688  7661.700  0.500  4.726658  137.918  1.221401  0.022764
  7666.274  7666.280  0.500  4.718020  137.726  1.230284  0.022792
  7670.873  7670.890  0.500  4.709471  137.52  1.238991  0.023190
  7675.503  7675.510  0.500  4.700730  137.337  1.248207  0.023209
  7680.151  7680.160  0.500  4.692074  137.137  1.257222  0.023338
  7684.846  7684.820  0.500  4.683956  136.873  1.265034  0.023622
  7689.523  7689.500  0.500  4.675175  136.983  1.277220  0.024018
  7694.181  7694.200  0.500  4.666856  136.651  1.284759  0.024346
  7698.906  7698.920  0.500  4.657726  136.406  1.294222  0.024763
  7703.657  7703.660  0.500  4.648959  136.148  1.303145  0.025275
  7708.404  7708.410  0.500  4.640900  136.052  1.312764  0.025688
  7713.172  7713.190  0.500  4.631713  135.793  1.322358  0.026168
  7717.972  7717.990  0.500  4.623128  135.532  1.331200  0.026708
  7722.796  7722.800  0.500  4.614599  136.097  1.348200  0.027185
  7727.636  7727.630  0.500  4.606191  135.896  1.357575  0.027706
  7732.508  7732.490  0.500  4.597126  135.707  1.368031  0.027959
  7737.351  7737.360  0.500  4.588510  135.393  1.376678  0.028238
  7742.236  7742.250  0.500  4.579675  135.463  1.389606  0.028781
  7747.145  7747.160  0.500  4.571060  135.176  1.398664  0.029277
  7752.081  7752.090  0.500  4.562524  134.948  1.408279  0.029507
  7757.054  7757.030  0.500  4.553942  134.751  1.418339  0.029994
  7761.985  7762.000  0.500  4.545161  134.519  1.428389  0.030375
  7767.000  7766.990  0.500  4.536557  134.339  1.438797  0.031054
  7771.982  7771.990  0.500  4.527750  134.145  1.449430  0.031559
  7777.013  7777.020  0.500  4.519015  133.928  1.459786  0.031925
  7782.048  7782.060  0.500  4.510060  133.716  1.470583  0.032381
  7787.113  7787.120  0.500  4.500940  133.503  1.481694  0.033084
  7792.180  7792.200  0.500  4.492343  133.277  1.491952  0.033442
  7797.282  7797.300  0.500  4.483545  133.049  1.502568  0.033896
  7802.409  7802.420  0.500  4.474987  132.875  1.513499  0.034308
  7807.545  7807.560  0.500  4.465867  132.677  1.525081  0.034822
  7812.705  7812.720  0.500  4.457481  132.462  1.535434  0.035136
  7817.889  7817.900  0.500  4.448630  132.26  1.546727  0.035544
  7823.068  7823.090  0.500  4.439671  132.034  1.557972  0.036017
  7828.301  7828.310  0.500  4.431393  131.817  1.568350  0.036582
  7833.523  7833.540  0.500  4.422598  131.591  1.579482  0.037078
  7838.770  7838.790  0.500  4.413406  131.056  1.587589  0.037386
  7844.032  7844.060  0.500  4.404898  131.143  1.602218  0.037863
  7849.371  7849.350  0.500  4.396450  130.845  1.612136  0.038569
  7854.645  7854.660  0.500  4.387442  129.785  1.613553  0.038939
  7859.970  7859.990  0.500  4.378717  130.403  1.635439  0.039678
  7865.325  7865.340  0.500  4.369582  130.179  1.647612  0.040426
  7870.688  7870.710  0.500  4.360893  129.983  1.659490  0.041087
  7876.082  7876.090  0.500  4.352477  129.792  1.671060  0.041674
  7881.484  7881.500  0.500  4.343338  129.549  1.683240  0.042288
  7886.907  7886.920  0.500  4.334760  129.285  1.694285  0.042822
  7892.354  7892.370  0.500  4.325320  129.042  1.707139  0.043596
  7897.814  7897.830  0.500  4.317124  128.722  1.716923  0.044070
  7903.295  7903.310  0.500  4.308470  128.529  1.729249  0.044684
  7908.818  7908.810  0.500  4.299488  128.285  1.741540  0.045440
  7914.304  7914.330  0.500  4.290491  128.005  1.753433  0.046148
  7919.854  7919.870  0.500  4.282022  127.77  1.765104  0.046691
  7925.394  7925.420  0.500  4.273188  127.469  1.776572  0.047431
  7930.976  7931.000  0.500  4.264418  127.175  1.788087  0.048086
  7936.572  7936.600  0.500  4.255813  126.795  1.798151  0.048647
  7942.187  7942.210  0.500  4.247031  126.826  1.814460  0.049304
  7947.821  7947.850  0.500  4.238457  126.474  1.824996  0.049841
  7953.474  7953.500  0.500  4.229761  126.123  1.835835  0.050543
  7959.154  7959.170  0.500  4.220961  125.852  1.848072  0.051151
  7964.827  7964.860  0.500  4.212215  125.542  1.859713  0.051791