File: xdidata/Fe/Fe-Vesuvianite.xdi
# XDI/1.0 BlueSky/1.10.0 BMM/2023-1.0-py310-tiled
# Beamline.name: BMM (06BM) -- Beamline for Materials Measurement (NIST)
# Beamline.xray_source: NSLS-II three-pole wiggler
# Beamline.collimation: paraboloid mirror, 5 nm Rh on 30 nm Pt
# Beamline.focusing: not in use
# Beamline.harmonic_rejection: flat mirror, Si stripe, pitch = 7.0 mrad relative to beam
# Beamline.software: Bluesky 1.10.0, Ophyd 1.7.0, DataBroker 2.0.0b13, Python 3.10.8, 2023-1.0-py310-tiled
# Detector.I0: 10 cm N2
# Detector.I1: 25 cm N2
# Detector.I2: 25 cm N2
# Element.symbol: Fe
# Element.edge: K
# Element.reference: Fe
# Element.reference_material: Fe foil
# Facility.name: NSLS-II
# Facility.energy: 3.0
# Facility.current: 400.5
# Facility.mode: top-off
# Facility.GUP: 123456
# Facility.SAF: 301027
# Facility.cycle: 2023-2
# Mono.name: Si(111)
# Mono.d_spacing: 3.13519
# Mono.encoder_resolution: 0.0000050 deg/ct
# Mono.angle_offset: 16.0754 deg
# Mono.scan_mode: pseudo channel cut
# Mono.scan_type: step
# Mono.direction: forward in energy
# Sample.name: Ca10(Mg,Fe)Al4(Si2O7)2(SiO4)4(OH)4
# Sample.prep: PEG pellet
# Sample.x: 142.329 mm
# Sample.y: 114.126 mm
# Sample.SDD_position: 205.000 mm
# Scan.experimenters: Bruce Ravel
# Scan.edge_energy: 7112.0
# Scan.start_time: 2023-05-05T21:14:38
# Scan.end_time: 2023-05-05T21:23:24
# Scan.transient_id: 74646
# Scan.uid: 0f1055d8-354b-4513-905f-9a6c776ac77b
# Scan.plot_hint: ln(I0/It)  --  ln($5/$6)
# Column.1: energy eV
# Column.2: requested_energy eV
# Column.3: measurement_time seconds
# Column.4: xmu
# Column.5: I0 nA
# Column.6: It nA
# Column.7: Ir nA
# ///////////
# courtesy Martin Stennett, University of Sheffield
# -----------
# energy  requested_energy  measurement_time  xmu  I0  It  Ir
  6911.999  6912.000  0.500  2.171947  155.234  17.6898  3.317986
  6922.009  6922.000  0.500  2.161324  155.07  17.8598  3.373763
  6932.015  6932.000  0.500  2.151516  155.007  18.0285  3.429848
  6942.011  6942.000  0.500  2.141232  155.033  18.2179  3.490371
  6952.010  6952.000  0.500  2.131279  154.997  18.3959  3.549301
  6962.012  6962.000  0.500  2.121132  154.993  18.583  3.609521
  6972.018  6972.000  0.500  2.110654  154.989  18.7783  3.672633
  6982.025  6982.000  0.500  2.100831  154.951  18.959  3.733126
  6992.018  6992.000  0.500  2.091032  154.938  19.1441  3.795695
  7002.023  7002.000  0.500  2.081186  154.893  19.3279  3.857538
  7012.016  7012.000  0.500  2.071367  154.847  19.5128  3.920532
  7022.014  7022.000  0.500  2.061560  154.782  19.6969  3.983205
  7032.020  7032.000  0.500  2.051656  154.705  19.8829  4.046888
  7042.017  7042.000  0.500  2.042143  154.622  20.0623  4.108326
  7052.018  7052.000  0.500  2.032425  154.536  20.2468  4.171200
  7062.014  7062.000  0.500  2.022833  153.78  20.3421  4.214478
  7072.007  7072.000  0.500  2.013442  154.306  20.6042  4.289783
  7082.003  7082.000  0.500  2.004498  154.221  20.7779  4.341166
  7084.004  7084.000  0.500  2.002475  154.009  20.7913  4.345541
  7086.010  7086.000  0.500  2.000743  154.145  20.8457  4.357982
  7088.000  7088.000  0.500  1.998608  154.144  20.8902  4.368388
  7090.005  7090.000  0.500  1.996739  154.124  20.9265  4.375809
  7092.010  7092.000  0.500  1.995015  154.097  20.9589  4.380889
  7094.004  7094.000  0.500  1.993342  154.064  20.9895  4.384434
  7096.001  7096.000  0.500  1.991113  154.063  21.0363  4.389318
  7097.982  7098.000  0.500  1.989020  154.075  21.082  4.390701
  7100.225  7100.000  0.500  1.987171  154.021  21.1136  4.384362
  7101.997  7102.000  0.500  1.985665  153.981  21.1399  4.372159
  7102.292  7102.300  0.500  1.985247  153.992  21.1502  4.370470
  7102.591  7102.600  0.500  1.985173  153.993  21.152  4.367808
  7102.897  7102.900  0.500  1.984823  153.98  21.1576  4.364830
  7103.239  7103.200  0.500  1.984708  153.978  21.1598  4.360729
  7103.479  7103.500  0.500  1.984326  153.988  21.1692  4.358477
  7103.781  7103.800  0.500  1.984035  153.978  21.174  4.353744
  7104.082  7104.100  0.500  1.983775  153.966  21.1779  4.349696
  7104.386  7104.400  0.500  1.983456  153.969  21.185  4.344353
  7104.694  7104.700  0.500  1.983301  153.951  21.1859  4.339684
  7104.992  7105.000  0.500  1.983039  153.951  21.1914  4.333245
  7105.291  7105.300  0.500  1.982799  153.953  21.1967  4.326833
  7105.597  7105.600  0.500  1.982427  153.949  21.2042  4.319716
  7105.935  7105.900  0.500  1.982022  153.934  21.2107  4.311298
  7106.218  7106.200  0.500  1.981896  153.935  21.2134  4.301915
  7106.520  7106.500  0.500  1.981668  153.919  21.2161  4.290934
  7106.824  7106.800  0.500  1.981343  153.919  21.2229  4.279673
  7107.096  7107.100  0.500  1.981101  153.901  21.2256  4.269017
  7107.426  7107.400  0.500  1.981141  153.89  21.2233  4.249918
  7107.693  7107.700  0.500  1.980951  153.855  21.2225  4.233565
  7107.989  7108.000  0.500  1.980593  153.843  21.2284  4.214426
  7108.304  7108.300  0.500  1.980326  153.819  21.2307  4.188999
  7108.597  7108.600  0.500  1.979967  153.819  21.2384  4.162394
  7108.893  7108.900  0.500  1.979720  153.82  21.2437  4.130307
  7109.195  7109.200  0.500  1.979447  153.829  21.2507  4.090237
  7109.495  7109.500  0.500  1.979485  153.809  21.2472  4.035662
  7109.793  7109.800  0.500  1.979030  153.787  21.2539  3.965779
  7110.103  7110.100  0.500  1.978782  153.754  21.2546  3.864829
  7110.401  7110.400  0.500  1.978638  153.739  21.2555  3.726797
  7110.697  7110.700  0.500  1.978526  153.721  21.2554  3.535789
  7110.999  7111.000  0.500  1.978466  153.697  21.2534  3.278712
  7111.302  7111.300  0.500  1.978503  153.655  21.2468  2.975462
  7111.600  7111.600  0.500  1.978679  153.663  21.2442  2.656166
  7111.898  7111.900  0.500  1.978476  153.633  21.2443  2.375796
  7112.194  7112.200  0.500  1.978443  153.604  21.241  2.150222
  7112.492  7112.500  0.500  1.978745  153.571  21.23  1.981083
  7112.790  7112.800  0.500  1.979534  153.546  21.2098  1.852270
  7113.099  7113.100  0.500  1.980264  153.528  21.1919  1.745269
  7113.397  7113.400  0.500  1.980443  153.49  21.1829  1.656742
  7113.699  7113.700  0.500  1.981188  153.484  21.1663  1.574002
  7113.995  7114.000  0.500  1.981605  153.471  21.1557  1.500897
  7114.298  7114.300  0.500  1.981405  153.481  21.1613  1.436320
  7114.607  7114.600  0.500  1.980629  153.465  21.1754  1.382922
  7114.901  7114.900  0.500  1.979620  153.492  21.2006  1.344627
  7115.201  7115.200  0.500  1.978685  153.475  21.218  1.315585
  7115.500  7115.500  0.500  1.977969  153.467  21.2321  1.295045
  7115.800  7115.800  0.500  1.977315  153.455  21.2444  1.281027
  7116.101  7116.100  0.500  1.977153  153.441  21.2459  1.268601
  7116.395  7116.400  0.500  1.977358  153.426  21.2394  1.255882
  7116.696  7116.700  0.500  1.978070  153.422  21.2237  1.237970
  7116.996  7117.000  0.500  1.979104  153.394  21.1979  1.210887
  7117.297  7117.300  0.500  1.980662  153.395  21.1651  1.171351
  7117.598  7117.600  0.500  1.982219  153.378  21.1298  1.119278
  7117.898  7117.900  0.500  1.983177  153.798  21.1673  1.060368
  7118.201  7118.200  0.500  1.984367  153.864  21.1513  0.990610
  7118.498  7118.500  0.500  1.985277  153.869  21.1327  0.918827
  7118.801  7118.800  0.500  1.986705  153.85  21.1  0.848746
  7119.104  7119.100  0.500  1.988252  153.843  21.0664  0.781811
  7119.402  7119.400  0.500  1.990239  153.823  21.0219  0.721040
  7119.701  7119.700  0.500  1.991861  153.809  20.9859  0.664630
  7119.995  7120.000  0.500  1.993508  153.765  20.9453  0.610597
  7120.298  7120.300  0.500  1.994655  153.78  20.9235  0.558721
  7120.604  7120.600  0.500  1.996068  153.763  20.8915  0.510026
  7120.896  7120.900  0.500  1.997653  153.737  20.8549  0.466811
  7121.199  7121.200  0.500  1.999647  153.736  20.8132  0.428320
  7121.496  7121.500  0.500  2.001275  153.704  20.7751  0.396403
  7121.803  7121.800  0.500  2.003011  153.694  20.7377  0.368649
  7122.105  7122.100  0.500  2.004913  153.675  20.6957  0.345479
  7122.401  7122.400  0.500  2.006868  153.668  20.6544  0.325388
  7122.702  7122.700  0.500  2.009529  153.646  20.5965  0.307468
  7123.001  7123.000  0.500  2.012523  153.628  20.5325  0.291865
  7123.298  7123.300  0.500  2.016187  153.606  20.4545  0.277617
  7123.604  7123.600  0.500  2.020209  153.597  20.3713  0.265030
  7123.905  7123.900  0.500  2.024093  153.594  20.2919  0.254136
  7124.200  7124.200  0.500  2.027789  153.562  20.2128  0.244158
  7124.497  7124.500  0.500  2.031289  153.545  20.14  0.235196
  7124.796  7124.800  0.500  2.034667  153.531  20.0702  0.226465
  7125.097  7125.100  0.500  2.037930  153.511  20.0022  0.218565
  7125.399  7125.400  0.500  2.041697  153.491  19.9243  0.210708
  7125.698  7125.700  0.500  2.045539  153.462  19.8442  0.203574
  7125.997  7126.000  0.500  2.050486  153.448  19.7445  0.196543
  7126.301  7126.300  0.500  2.056170  153.429  19.6302  0.189488
  7126.602  7126.600  0.500  2.062657  153.403  19.5  0.181744
  7126.902  7126.900  0.500  2.069543  153.382  19.3634  0.174647
  7127.201  7127.200  0.500  2.076170  153.35  19.2316  0.167024
  7127.503  7127.500  0.500  2.082928  153.319  19.0982  0.159342
  7127.802  7127.800  0.500  2.089035  153.302  18.9798  0.151514
  7128.106  7128.100  0.500  2.095012  153.27  18.8627  0.144015
  7128.403  7128.400  0.500  2.100706  153.258  18.7541  0.136581
  7128.698  7128.700  0.500  2.105798  153.231  18.6557  0.129444
  7128.996  7129.000  0.500  2.110959  153.22  18.5583  0.122226
  7129.295  7129.300  0.500  2.114969  153.188  18.4802  0.115652
  7129.599  7129.600  0.500  2.117553  153.159  18.429  0.109502
  7129.901  7129.900  0.500  2.119004  153.113  18.3967  0.104665
  7130.198  7130.200  0.500  2.119166  153.066  18.3881  0.100814
  7130.500  7130.500  0.500  2.118272  153.049  18.4025  0.097808
  7130.800  7130.800  0.500  2.116401  153.001  18.4312  0.096209
  7131.104  7131.100  0.500  2.113850  152.968  18.4743  0.095456
  7131.404  7131.400  0.500  2.111137  152.956  18.523  0.096185
  7131.706  7131.700  0.500  2.108538  152.932  18.5683  0.097967
  7132.003  7132.000  0.500  2.106204  152.912  18.6092  0.100834
  7132.299  7132.300  0.500  2.104366  152.888  18.6405  0.104478
  7132.607  7132.600  0.500  2.102843  152.869  18.6666  0.108987
  7132.903  7132.900  0.500  2.101997  152.851  18.6802  0.113443
  7133.198  7133.200  0.500  2.101536  152.846  18.6882  0.118578
  7133.496  7133.500  0.500  2.101427  152.84  18.6895  0.123838
  7133.798  7133.800  0.500  2.101424  152.841  18.6897  0.129236
  7134.103  7134.100  0.500  2.101570  152.829  18.6855  0.134369
  7134.405  7134.400  0.500  2.101932  152.807  18.6761  0.139190
  7134.701  7134.700  0.500  2.101931  152.8  18.6752  0.143350
  7135.003  7135.000  0.500  2.101717  152.787  18.6776  0.147281
  7135.305  7135.300  0.500  2.101435  152.772  18.6811  0.150509
  7135.607  7135.600  0.500  2.100746  152.746  18.6908  0.153509
  7135.903  7135.900  0.500  2.099596  152.739  18.7114  0.156185
  7136.199  7136.200  0.500  2.098079  152.746  18.7407  0.157843
  7136.497  7136.500  0.500  2.096612  152.707  18.7635  0.159345
  7136.795  7136.800  0.500  2.094978  152.695  18.7926  0.159861
  7137.002  7137.000  0.500  2.094141  152.694  18.8083  0.160311
  7137.996  7137.990  0.500  2.090762  152.668  18.8687  0.157997
  7139.007  7138.990  0.500  2.087623  152.668  18.928  0.151746
  7140.023  7140.010  0.500  2.084967  152.636  18.9743  0.144714
  7141.079  7141.060  0.500  2.082333  152.648  19.0259  0.140160
  7142.138  7142.120  0.500  2.079137  152.627  19.0842  0.139691
  7143.214  7143.200  0.500  2.074970  152.604  19.161  0.142683
  7144.320  7144.300  0.500  2.069948  152.617  19.2591  0.145475
  7145.446  7145.420  0.500  2.065636  152.59  19.3389  0.145686
  7146.554  7146.560  0.500  2.062301  152.52  19.3946  0.140762
  7147.696  7147.710  0.500  2.058639  152.525  19.4664  0.132789
  7148.882  7148.890  0.500  2.054190  152.488  19.5485  0.124610
  7150.070  7150.080  0.500  2.049371  152.481  19.6419  0.119037
  7151.291  7151.300  0.500  2.044800  152.467  19.7302  0.115913
  7152.525  7152.530  0.500  2.040956  152.456  19.8047  0.114195
  7153.779  7153.780  0.500  2.037618  152.432  19.8678  0.113228
  7155.045  7155.050  0.500  2.034231  152.416  19.9332  0.114412
  7156.342  7156.340  0.500  2.031440  152.395  19.986  0.116707
  7157.650  7157.650  0.500  2.028675  152.368  20.0379  0.119232
  7158.982  7158.980  0.500  2.026339  152.355  20.083  0.119962
  7160.341  7160.330  0.500  2.024449  152.319  20.1163  0.120494
  7161.709  7161.700  0.500  2.023229  152.276  20.1351  0.121606
  7163.089  7163.080  0.500  2.022704  152.232  20.1399  0.123648
  7164.495  7164.490  0.500  2.022309  152.188  20.1419  0.126203
  7165.913  7165.910  0.500  2.022598  152.127  20.1281  0.128240
  7167.351  7167.350  0.500  2.023300  152.092  20.1094  0.129600
  7168.816  7168.810  0.500  2.024485  152.063  20.0817  0.131377
  7170.294  7170.290  0.500  2.026140  152.021  20.043  0.133096
  7171.804  7171.790  0.500  2.028131  151.995  19.9997  0.136879
  7173.312  7173.310  0.500  2.030336  151.96  19.951  0.142701
  7174.856  7174.850  0.500  2.032120  151.932  19.9118  0.150078
  7176.422  7176.410  0.500  2.032798  151.91  19.8955  0.158737
  7177.987  7177.980  0.500  2.032299  151.873  19.9005  0.167387
  7179.594  7179.580  0.500  2.031236  151.852  19.919  0.173201
  7181.195  7181.190  0.500  2.029357  151.816  19.9517  0.175019
  7182.839  7182.830  0.500  2.027368  151.796  19.9887  0.173883
  7184.496  7184.480  0.500  2.025658  151.762  20.0184  0.170417
  7186.152  7186.150  0.500  2.024034  151.713  20.0446  0.164121
  7187.849  7187.840  0.500  2.022593  151.682  20.0694  0.156317
  7189.555  7189.550  0.500  2.020761  151.647  20.1015  0.148151
  7191.292  7191.280  0.500  2.018979  150.093  19.931  0.137863
  7193.035  7193.030  0.500  2.017827  151.261  20.1092  0.131726
  7194.796  7194.790  0.500  2.016518  151.453  20.1611  0.129274
  7196.593  7196.580  0.500  2.015042  151.442  20.1894  0.132186
  7198.392  7198.380  0.500  2.013561  151.413  20.2155  0.139077
  7200.224  7200.210  0.500  2.011427  151.349  20.2501  0.148875
  7202.059  7202.050  0.500  2.009001  151.301  20.2929  0.160640
  7203.918  7203.910  0.500  2.006698  151.254  20.3334  0.174445
  7205.801  7205.790  0.500  2.004060  151.207  20.3807  0.187813
  7207.708  7207.690  0.500  2.001364  151.16  20.4295  0.194328
  7209.618  7209.610  0.500  1.998559  151.105  20.4793  0.189220
  7211.557  7211.550  0.500  1.995915  151.043  20.5252  0.170767
  7213.514  7213.510  0.500  1.993516  150.986  20.5667  0.145049
  7215.493  7215.480  0.500  1.991268  150.946  20.6075  0.121118
  7217.491  7217.480  0.500  1.988961  150.881  20.6461  0.104152
  7219.502  7219.490  0.500  1.986737  150.836  20.686  0.094685
  7221.529  7221.520  0.500  1.984592  150.783  20.7231  0.092977
  7223.590  7223.580  0.500  1.982444  150.704  20.7569  0.099058
  7225.664  7225.650  0.500  1.980514  150.58  20.7797  0.111683
  7227.750  7227.740  0.500  1.978265  147.955  20.4635  0.127190
  7229.858  7229.850  0.500  1.975882  150.747  20.8994  0.150741
  7231.998  7231.980  0.500  1.973594  150.693  20.9398  0.174381
  7234.130  7234.120  0.500  1.971717  150.635  20.971  0.196324
  7236.303  7236.290  0.500  1.969800  150.592  21.0054  0.212294
  7238.491  7238.480  0.500  1.967942  150.551  21.0387  0.220038
  7240.694  7240.680  0.500  1.966448  150.508  21.0641  0.219267
  7242.914  7242.900  0.500  1.965113  150.491  21.0898  0.211874
  7245.165  7245.150  0.500  1.963747  147.664  20.7219  0.197738
  7247.425  7247.410  0.500  1.962537  150.212  21.1049  0.192410
  7249.699  7249.690  0.500  1.961371  150.218  21.1304  0.188603
  7252.000  7251.990  0.500  1.959964  150.143  21.1496  0.190659
  7254.319  7254.310  0.500  1.958112  147.807  20.8591  0.193748
  7256.664  7256.650  0.500  1.956620  150.212  21.2303  0.201360
  7259.015  7259.000  0.500  1.954709  150.194  21.2683  0.200330
  7261.392  7261.380  0.500  1.952852  150.097  21.2941  0.194749
  7263.784  7263.770  0.500  1.949617  139.407  19.8416  0.176312
  7266.198  7266.190  0.500  1.948873  150.267  21.4032  0.186238
  7268.637  7268.620  0.500  1.946750  150.903  21.5395  0.182312
  7271.079  7271.070  0.500  1.944936  150.836  21.5689  0.173856
  7273.563  7273.550  0.500  1.942368  149.691  21.4603  0.163985
  7276.049  7276.040  0.500  1.940146  150.858  21.6758  0.160245
  7278.562  7278.550  0.500  1.938075  150.818  21.7149  0.157610
  7281.080  7281.070  0.500  1.936114  150.76  21.7491  0.153391
  7283.628  7283.620  0.500  1.933847  149.722  21.6484  0.147119
  7286.198  7286.190  0.500  1.931062  150.364  21.8018  0.142920
  7288.786  7288.770  0.500  1.928532  150.455  21.8703  0.141231
  7291.391  7291.380  0.500  1.925705  150.424  21.9278  0.146662
  7294.012  7294.000  0.500  1.922787  150.384  21.986  0.159607
  7296.664  7296.650  0.500  1.920310  150.312  22.0299  0.176859
  7299.320  7299.310  0.500  1.917615  150.196  22.0724  0.194396
  7302.006  7301.990  0.500  1.915305  148.473  21.8696  0.207237
  7304.707  7304.690  0.500  1.912539  150.334  22.2051  0.222170
  7307.419  7307.410  0.500  1.910153  150.252  22.246  0.230162
  7310.168  7310.150  0.500  1.907892  150.187  22.2867  0.234102
  7312.914  7312.900  0.500  1.905363  150.094  22.3294  0.234305
  7315.694  7315.680  0.500  1.902479  150.039  22.3855  0.234842
  7318.481  7318.470  0.500  1.899901  149.982  22.4348  0.236307
  7321.307  7321.290  0.500  1.897427  149.918  22.4808  0.237801
  7324.134  7324.120  0.500  1.894973  149.865  22.5281  0.238954
  7326.983  7326.970  0.500  1.892317  149.781  22.5753  0.240155
  7329.863  7329.850  0.500  1.889864  149.712  22.6204  0.241691
  7332.755  7332.740  0.500  1.887274  149.662  22.6714  0.246681
  7335.667  7335.650  0.500  1.884954  149.595  22.7139  0.252932
  7338.582  7338.570  0.500  1.882255  148.367  22.5883  0.254825
  7341.532  7341.520  0.500  1.880040  149.39  22.7946  0.254523
  7344.504  7344.490  0.500  1.877511  149.383  22.8512  0.246258
  7347.486  7347.470  0.500  1.875183  149.326  22.8957  0.233398
  7350.498  7350.480  0.500  1.872701  149.262  22.9427  0.221424
  7353.512  7353.500  0.500  1.870164  149.192  22.9902  0.211323
  7356.562  7356.550  0.500  1.867598  149.131  23.0399  0.202953
  7359.621  7359.610  0.500  1.865003  149.05  23.0873  0.195972
  7362.698  7362.690  0.500  1.862565  148.97  23.1311  0.190824
  7365.802  7365.790  0.500  1.859907  148.897  23.1813  0.189335
  7368.926  7368.910  0.500  1.857382  148.825  23.2287  0.191991
  7372.063  7372.050  0.500  1.854615  148.777  23.2855  0.200663
  7375.216  7375.200  0.500  1.851908  148.684  23.334  0.215978
  7378.399  7378.380  0.500  1.849490  148.612  23.3792  0.238791
  7381.588  7381.570  0.500  1.846830  148.535  23.4294  0.265264
  7384.806  7384.790  0.500  1.843996  148.445  23.4816  0.285727
  7388.033  7388.020  0.500  1.841164  148.376  23.5373  0.294444
  7391.279  7391.270  0.500  1.838560  148.296  23.5859  0.293642
  7394.556  7394.550  0.500  1.835891  148.214  23.6359  0.289229
  7397.844  7397.840  0.500  1.832969  148.138  23.6929  0.285974
  7401.153  7401.150  0.500  1.830120  148.053  23.7469  0.286404
  7404.479  7404.470  0.500  1.827527  147.948  23.7916  0.287884
  7407.833  7407.820  0.500  1.824538  147.887  23.853  0.288539
  7411.198  7411.190  0.500  1.821502  147.799  23.9113  0.288708
  7414.583  7414.570  0.500  1.818857  147.709  23.96  0.288987
  7417.992  7417.980  0.500  1.815936  147.618  24.0153  0.290686
  7421.404  7421.400  0.500  1.812866  147.503  24.0704  0.294776
  7424.861  7424.850  0.500  1.809730  147.397  24.1287  0.301940
  7428.310  7428.310  0.500  1.807018  147.309  24.1797  0.307366
  7431.800  7431.790  0.500  1.803811  147.206  24.2405  0.308403
  7435.305  7435.290  0.500  1.801127  147.114  24.2904  0.307216
  7438.826  7438.810  0.500  1.797993  146.987  24.3456  0.303277
  7442.359  7442.350  0.500  1.795016  146.828  24.3918  0.295729
  7445.910  7445.900  0.500  1.792027  142.917  23.8131  0.279888
  7449.488  7449.480  0.500  1.789281  146.792  24.526  0.282161
  7453.088  7453.080  0.500  1.786299  145.417  24.3689  0.278277
  7456.704  7456.690  0.500  1.783457  146.524  24.6243  0.281987
  7460.331  7460.320  0.500  1.781003  145.974  24.5922  0.283337
  7463.992  7463.980  0.500  1.777692  146.344  24.7362  0.289203
  7467.662  7467.650  0.500  1.774673  142.345  24.133  0.289851
  7471.347  7471.340  0.500  1.771511  146.279  24.8785  0.309092
  7475.055  7475.050  0.500  1.768749  146.146  24.9246  0.319488
  7478.789  7478.780  0.500  1.765766  146.005  24.975  0.327878
  7482.528  7482.520  0.500  1.762862  145.9  25.0296  0.335502
  7486.303  7486.290  0.500  1.759905  145.778  25.0827  0.345655
  7490.088  7490.080  0.500  1.757063  145.661  25.1339  0.355791
  7493.888  7493.880  0.500  1.753997  145.544  25.1909  0.363707
  7497.724  7497.710  0.500  1.751037  145.449  25.249  0.367040
  7501.565  7501.550  0.500  1.747848  145.336  25.31  0.366604
  7505.429  7505.410  0.500  1.744775  145.196  25.3634  0.365011
  7509.307  7509.290  0.500  1.741789  145.04  25.412  0.365236
  7513.208  7513.190  0.500  1.738794  144.941  25.4707  0.367634
  7517.133  7517.110  0.500  1.735857  144.829  25.526  0.371694
  7521.071  7521.050  0.500  1.732609  144.69  25.5845  0.374826
  7525.035  7525.010  0.500  1.729645  144.563  25.6378  0.376820
  7528.995  7528.980  0.500  1.726479  144.442  25.6976  0.377125
  7532.997  7532.980  0.500  1.723334  144.305  25.7541  0.377838
  7537.006  7536.990  0.500  1.720160  144.144  25.8072  0.380017
  7541.038  7541.030  0.500  1.717032  144.02  25.8658  0.383449
  7545.093  7545.080  0.500  1.713956  143.855  25.9157  0.387261
  7549.171  7549.150  0.500  1.710579  143.739  25.9824  0.390248
  7553.278  7553.240  0.500  1.707434  143.577  26.0349  0.391105
  7557.365  7557.350  0.500  1.704324  143.435  26.0901  0.388571
  7561.513  7561.480  0.500  1.701232  143.296  26.1456  0.386308
  7565.666  7565.630  0.500  1.698169  143.135  26.1964  0.386394
  7569.826  7569.790  0.500  1.694739  142.995  26.2606  0.390271
  7574.003  7573.980  0.500  1.691399  142.844  26.3206  0.397906
  7578.218  7578.180  0.500  1.688407  142.686  26.3704  0.407887
  7582.442  7582.410  0.500  1.685135  142.523  26.4266  0.418876
  7586.667  7586.650  0.500  1.681745  142.328  26.48  0.427095
  7590.942  7590.910  0.500  1.678594  142.143  26.529  0.433060
  7595.221  7595.190  0.500  1.675678  141.927  26.5661  0.436148
  7599.511  7599.490  0.500  1.672383  141.666  26.6048  0.438142
  7603.830  7603.810  0.500  1.669020  141.099  26.5875  0.440147
  7608.177  7608.150  0.500  1.665623  140.885  26.6376  0.445425
  7612.526  7612.510  0.500  1.662457  140.685  26.684  0.451793
  7616.903  7616.890  0.500  1.659263  140.632  26.7594  0.457361
  7621.297  7621.280  0.500  1.656219  140.707  26.8552  0.460354
  7625.709  7625.700  0.500  1.652835  140.715  26.9477  0.461891
  7630.146  7630.130  0.500  1.649663  140.602  27.0117  0.464936
  7634.601  7634.580  0.500  1.646143  140.456  27.0788  0.470750
  7639.048  7639.050  0.500  1.642930  140.302  27.1362  0.477930
  7643.534  7643.540  0.500  1.639830  140.142  27.1893  0.485264
  7648.062  7648.050  0.500  1.636612  139.966  27.2427  0.491761
  7652.564  7652.580  0.500  1.633112  139.814  27.3086  0.496718
  7657.111  7657.130  0.500  1.629779  139.622  27.362  0.500387
  7661.698  7661.700  0.500  1.626556  139.445  27.4157  0.502910
  7666.302  7666.280  0.500  1.623051  139.256  27.4745  0.504221
  7670.876  7670.890  0.500  1.619845  139.081  27.5282  0.505035
  7675.538  7675.510  0.500  1.616175  138.889  27.5913  0.506037
  7680.174  7680.160  0.500  1.612665  138.681  27.6468  0.507289
  7684.841  7684.820  0.500  1.609067  138.388  27.6878  0.509883
  7689.485  7689.500  0.500  1.606030  138.526  27.7998  0.516015
  7694.219  7694.200  0.500  1.602667  138.224  27.8326  0.522121
  7698.942  7698.920  0.500  1.599355  138.035  27.8867  0.528352
  7703.680  7703.660  0.500  1.596178  137.785  27.9249  0.534448
  7708.392  7708.410  0.500  1.592494  137.704  28.0114  0.541322
  7713.170  7713.190  0.500  1.589102  137.453  28.0553  0.548275
  7718.005  7717.990  0.500  1.585583  137.178  28.0979  0.555518
  7722.786  7722.800  0.500  1.582028  137.09  28.1798  0.563091
  7727.631  7727.630  0.500  1.578655  136.873  28.2303  0.567873
  7732.478  7732.490  0.500  1.575142  136.674  28.2885  0.572642
  7737.371  7737.360  0.500  1.571451  136.376  28.3313  0.577102
  7742.266  7742.250  0.500  1.568170  136.443  28.4384  0.583193
  7747.173  7747.160  0.500  1.564555  136.156  28.4813  0.587713
  7752.098  7752.090  0.500  1.561154  135.939  28.5327  0.592550
  7757.044  7757.030  0.500  1.557719  135.69  28.5784  0.597411
  7762.008  7762.000  0.500  1.553767  135.504  28.6524  0.603959
  7767.005  7766.990  0.500  1.550550  135.321  28.7058  0.611414
  7772.003  7771.990  0.500  1.547145  135.304  28.8001  0.619047
  7777.036  7777.020  0.500  1.543756  135.307  28.8985  0.626785
  7782.084  7782.060  0.500  1.540425  135.126  28.9561  0.632943
  7787.144  7787.120  0.500  1.536980  134.895  29.0065  0.638630
  7792.177  7792.200  0.500  1.533615  134.706  29.0634  0.644262
  7797.289  7797.300  0.500  1.530056  134.504  29.1233  0.649413
  7802.406  7802.420  0.500  1.526039  134.288  29.1936  0.654167
  7807.548  7807.560  0.500  1.522381  134.055  29.2496  0.658690
  7812.731  7812.720  0.500  1.518851  133.833  29.3045  0.663337
  7817.881  7817.900  0.500  1.515319  133.622  29.3619  0.668351
  7823.091  7823.090  0.500  1.511746  133.404  29.4189  0.673713
  7828.296  7828.310  0.500  1.508284  133.194  29.4743  0.679183
  7833.533  7833.540  0.500  1.504617  132.971  29.5333  0.684515
  7838.780  7838.790  0.500  1.501156  132.45  29.5194  0.688525
  7844.048  7844.060  0.500  1.497522  132.539  29.6468  0.696296
  7849.326  7849.350  0.500  1.493997  132.259  29.6887  0.702442
  7854.640  7854.660  0.500  1.490551  131.154  29.5422  0.704454
  7859.980  7859.990  0.500  1.486887  131.828  29.8031  0.716026
  7865.365  7865.340  0.500  1.483268  131.614  29.8625  0.723986
  7870.685  7870.710  0.500  1.479870  131.395  29.9143  0.731542
  7876.069  7876.090  0.500  1.476263  131.186  29.9746  0.739706
  7881.471  7881.500  0.500  1.472677  130.947  30.0275  0.747292
  7886.897  7886.920  0.500  1.469099  130.728  30.0849  0.754664
  7892.349  7892.370  0.500  1.465268  130.466  30.1397  0.761472
  7897.814  7897.830  0.500  1.461492  130.178  30.187  0.768647
  7903.319  7903.310  0.500  1.457968  129.982  30.2479  0.776762
  7908.802  7908.810  0.500  1.454319  129.753  30.3051  0.783830
  7914.312  7914.330  0.500  1.450655  129.49  30.3547  0.791027
  7919.852  7919.870  0.500  1.447003  129.242  30.4072  0.797732
  7925.402  7925.420  0.500  1.443441  128.978  30.4535  0.805155
  7930.987  7931.000  0.500  1.439979  128.593  30.4678  0.810970
  7936.583  7936.600  0.500  1.436246  128.246  30.4994  0.817014
  7942.190  7942.210  0.500  1.432663  128.268  30.6139  0.824230
  7947.826  7947.850  0.500  1.429067  127.935  30.6447  0.830400
  7953.474  7953.500  0.500  1.425394  127.566  30.6687  0.835992
  7959.143  7959.170  0.500  1.421606  127.292  30.719  0.842978
  7964.832  7964.860  0.500  1.417759  126.973  30.7599  0.849359