File: xdidata/Fe/Fe-Wustite.xdi
# XDI/1.0 BlueSky/1.10.0 BMM/2023-1.0-py310-tiled
# Beamline.name: BMM (06BM) -- Beamline for Materials Measurement (NIST)
# Beamline.xray_source: NSLS-II three-pole wiggler
# Beamline.collimation: paraboloid mirror, 5 nm Rh on 30 nm Pt
# Beamline.focusing: not in use
# Beamline.harmonic_rejection: flat mirror, Si stripe, pitch = 7.0 mrad relative to beam
# Beamline.software: Bluesky 1.10.0, Ophyd 1.7.0, DataBroker 2.0.0b13, Python 3.10.8, 2023-1.0-py310-tiled
# Detector.I0: 10 cm N2
# Detector.I1: 25 cm N2
# Detector.I2: 25 cm N2
# Element.symbol: Fe
# Element.edge: K
# Element.reference: Fe
# Element.reference_material: Fe foil
# Facility.name: NSLS-II
# Facility.energy: 3.0
# Facility.current: 400.9
# Facility.mode: top-off
# Facility.GUP: 123456
# Facility.SAF: 301027
# Facility.cycle: 2023-2
# Mono.name: Si(111)
# Mono.d_spacing: 3.13519
# Mono.encoder_resolution: 0.0000050 deg/ct
# Mono.angle_offset: 16.0754 deg
# Mono.scan_mode: pseudo channel cut
# Mono.scan_type: step
# Mono.direction: forward in energy
# Sample.name: FeO
# Sample.prep: powder on tape
# Sample.x: 116.329 mm
# Sample.y: 114.126 mm
# Sample.SDD_position: 205.000 mm
# Scan.experimenters: Bruce Ravel
# Scan.edge_energy: 7112.0
# Scan.start_time: 2023-05-05T16:37:45
# Scan.end_time: 2023-05-05T16:45:53
# Scan.transient_id: 74491
# Scan.uid: ba5b3a2f-e3db-4bac-b267-aafd91d0e1f6
# Scan.plot_hint: ln(I0/It)  --  ln($5/$6)
# Column.1: energy eV
# Column.2: requested_energy eV
# Column.3: measurement_time seconds
# Column.4: xmu
# Column.5: I0 nA
# Column.6: It nA
# Column.7: Ir nA
# ///////////
# Welcome to BMM
# -----------
# energy  requested_energy  measurement_time  xmu  I0  It  Ir
  6912.034  6912.000  0.500  2.385215  153.943  14.1734  2.661995
  6922.003  6922.000  0.500  2.373003  153.795  14.3338  2.712119
  6932.011  6932.000  0.500  2.360039  153.741  14.5157  2.765716
  6942.019  6942.000  0.500  2.347863  153.821  14.7012  2.820404
  6952.018  6952.000  0.500  2.335185  153.836  14.8902  2.876838
  6962.022  6962.000  0.500  2.322621  153.822  15.0771  2.932579
  6972.003  6972.000  0.500  2.310384  153.852  15.2656  2.990062
  6982.006  6982.000  0.500  2.298135  153.815  15.4501  3.046435
  6992.012  6992.000  0.500  2.286165  153.832  15.6378  3.104665
  7002.011  7002.000  0.500  2.274203  153.794  15.8222  3.162531
  7012.014  7012.000  0.500  2.262395  153.781  16.0087  3.220418
  7022.012  7022.000  0.500  2.250762  153.735  16.1912  3.278733
  7032.008  7032.000  0.500  2.239356  153.683  16.3714  3.336973
  7041.880  7042.000  0.500  2.228599  153.648  16.5447  3.392925
  7052.007  7052.000  0.500  2.217520  153.519  16.7149  3.448182
  7061.998  7062.000  0.500  2.207289  152.773  16.8048  3.485644
  7072.007  7072.000  0.500  2.198030  153.358  17.0261  3.548883
  7082.001  7082.000  0.500  2.190690  153.26  17.1405  3.586091
  7083.995  7084.000  0.500  2.189326  153.098  17.1457  3.588898
  7085.995  7086.000  0.500  2.188183  153.212  17.1782  3.595957
  7087.985  7088.000  0.500  2.187372  153.199  17.1906  3.598998
  7089.990  7090.000  0.500  2.186897  153.204  17.1994  3.601212
  7091.991  7092.000  0.500  2.186533  153.189  17.204  3.599864
  7093.993  7094.000  0.500  2.186833  153.167  17.1964  3.597208
  7095.990  7096.000  0.500  2.187380  153.13  17.1827  3.589032
  7097.993  7098.000  0.500  2.188663  153.137  17.1615  3.578678
  7099.990  7100.000  0.500  2.190771  153.126  17.1241  3.559900
  7101.993  7102.000  0.500  2.194401  153.098  17.059  3.532125
  7102.286  7102.300  0.500  2.194680  153.1  17.0545  3.528916
  7102.583  7102.600  0.500  2.195385  153.087  17.0409  3.523233
  7102.880  7102.900  0.500  2.196067  153.095  17.0303  3.517512
  7103.182  7103.200  0.500  2.197348  153.079  17.0067  3.508917
  7103.479  7103.500  0.500  2.198308  153.056  16.9878  3.501708
  7103.785  7103.800  0.500  2.199067  153.046  16.9738  3.493687
  7104.082  7104.100  0.500  2.199633  153.048  16.9644  3.488423
  7104.384  7104.400  0.500  2.200681  153.046  16.9464  3.479237
  7104.686  7104.700  0.500  2.201777  153.033  16.9265  3.470555
  7104.985  7105.000  0.500  2.202844  153.031  16.9082  3.460751
  7105.287  7105.300  0.500  2.204179  153.03  16.8855  3.450174
  7105.593  7105.600  0.500  2.205439  153.032  16.8645  3.439277
  7105.890  7105.900  0.500  2.206775  153.033  16.842  3.426089
  7106.188  7106.200  0.500  2.208441  153.01  16.8115  3.412942
  7106.490  7106.500  0.500  2.210008  153.002  16.7843  3.397523
  7106.792  7106.800  0.500  2.211853  152.996  16.7527  3.381497
  7107.089  7107.100  0.500  2.214169  152.991  16.7134  3.363492
  7107.389  7107.400  0.500  2.216374  152.988  16.6763  3.343120
  7107.685  7107.700  0.500  2.218562  152.97  16.6378  3.320856
  7107.993  7108.000  0.500  2.221140  152.967  16.5947  3.295281
  7108.293  7108.300  0.500  2.223910  152.951  16.547  3.265629
  7108.591  7108.600  0.500  2.227030  152.946  16.495  3.232907
  7108.893  7108.900  0.500  2.230680  152.929  16.433  3.193157
  7109.197  7109.200  0.500  2.235219  152.917  16.3573  3.144234
  7109.499  7109.500  0.500  2.240333  152.897  16.2718  3.083512
  7109.797  7109.800  0.500  2.247144  152.899  16.1615  3.005305
  7110.097  7110.100  0.500  2.256272  152.889  16.0136  2.898819
  7110.397  7110.400  0.500  2.268387  152.874  15.8192  2.751918
  7110.697  7110.700  0.500  2.285678  152.835  15.5441  2.551357
  7110.997  7111.000  0.500  2.308248  152.819  15.1956  2.304391
  7111.295  7111.300  0.500  2.334929  152.792  14.7929  2.031030
  7111.591  7111.600  0.500  2.361512  152.748  14.4007  1.765159
  7111.896  7111.900  0.500  2.384227  152.708  14.0736  1.541084
  7112.194  7112.200  0.500  2.401630  152.694  13.8295  1.375241
  7112.494  7112.500  0.500  2.416166  152.676  13.6283  1.252743
  7112.792  7112.800  0.500  2.429076  152.642  13.4506  1.160345
  7113.092  7113.100  0.500  2.442171  152.636  13.275  1.083175
  7113.403  7113.400  0.500  2.455884  152.619  13.0928  1.014274
  7113.701  7113.700  0.500  2.468088  152.588  12.9313  0.954089
  7113.998  7114.000  0.500  2.478299  152.583  12.7995  0.900695
  7114.300  7114.300  0.500  2.488904  152.561  12.6627  0.855654
  7114.603  7114.600  0.500  2.503775  152.558  12.4755  0.812782
  7114.905  7114.900  0.500  2.524709  152.544  12.216  0.773938
  7115.199  7115.200  0.500  2.551526  152.559  11.8939  0.737640
  7115.498  7115.500  0.500  2.583780  152.559  11.5164  0.703722
  7115.798  7115.800  0.500  2.623912  152.55  11.0627  0.668367
  7116.092  7116.100  0.500  2.672585  152.528  10.5356  0.630833
  7116.404  7116.400  0.500  2.731981  152.505  9.926609  0.588346
  7116.700  7116.700  0.500  2.799958  152.479  9.272675  0.541565
  7116.998  7117.000  0.500  2.876951  152.484  8.585819  0.490478
  7117.297  7117.300  0.500  2.962463  152.487  7.882262  0.435821
  7117.602  7117.600  0.500  3.057370  152.475  7.168025  0.378892
  7117.903  7117.900  0.500  3.160697  152.451  6.463355  0.322689
  7118.203  7118.200  0.500  3.273901  152.451  5.771571  0.269239
  7118.498  7118.500  0.500  3.392948  152.439  5.123395  0.222111
  7118.798  7118.800  0.500  3.516904  152.407  4.525147  0.181473
  7119.104  7119.100  0.500  3.640537  152.407  3.998879  0.148172
  7119.400  7119.400  0.500  3.757521  152.371  3.556561  0.121743
  7119.699  7119.700  0.500  3.865233  152.363  3.193226  0.100914
  7120.002  7120.000  0.500  3.968040  152.356  2.881122  0.083627
  7120.296  7120.300  0.500  4.064213  152.329  2.616483  0.069565
  7120.597  7120.600  0.500  4.155178  152.313  2.388717  0.058106
  7120.896  7120.900  0.500  4.241831  152.309  2.190390  0.048851
  7121.201  7121.200  0.500  4.327969  152.318  2.009735  0.041447
  7121.502  7121.500  0.500  4.414828  152.274  1.842006  0.035180
  7121.799  7121.800  0.500  4.504538  152.281  1.684024  0.030210
  7122.102  7122.100  0.500  4.601462  152.256  1.528221  0.025793
  7122.403  7122.400  0.500  4.707593  152.241  1.374201  0.021775
  7122.700  7122.700  0.500  4.820778  152.218  1.226955  0.018649
  7122.997  7123.000  0.500  4.941723  152.21  1.087129  0.015725
  7123.301  7123.300  0.500  5.064823  152.184  0.961046  0.013331
  7123.597  7123.600  0.500  5.180416  152.198  0.856213  0.011451
  7123.899  7123.900  0.500  5.286376  152.177  0.770024  0.009924
  7124.198  7124.200  0.500  5.379293  152.165  0.701646  0.008816
  7124.501  7124.500  0.500  5.456814  152.148  0.649233  0.007846
  7124.800  7124.800  0.500  5.520289  152.127  0.609221  0.007114
  7125.104  7125.100  0.500  5.572796  152.303  0.578726  0.006730
  7125.405  7125.400  0.500  5.617171  152.372  0.553859  0.006126
  7125.709  7125.700  0.500  5.657269  152.333  0.531953  0.005693
  7126.008  7126.000  0.500  5.697797  152.319  0.510777  0.005451
  7126.303  7126.300  0.500  5.740246  152.305  0.489505  0.005016
  7126.600  7126.600  0.500  5.787692  152.294  0.466788  0.004739
  7126.897  7126.900  0.500  5.838831  152.274  0.443460  0.004253
  7127.195  7127.200  0.500  5.892849  152.279  0.420155  0.004004
  7127.496  7127.500  0.500  5.947279  152.243  0.397801  0.003558
  7127.796  7127.800  0.500  5.996403  152.215  0.378663  0.003304
  7128.102  7128.100  0.500  6.033962  152.185  0.364632  0.003146
  7128.405  7128.400  0.500  6.058511  152.167  0.355748  0.002874
  7128.705  7128.700  0.500  6.065045  152.141  0.353371  0.002864
  7129.004  7129.000  0.500  6.051432  152.148  0.358230  0.002755
  7129.302  7129.300  0.500  6.019848  152.122  0.369662  0.002645
  7129.606  7129.600  0.500  5.969529  152.121  0.388737  0.002700
  7129.901  7129.900  0.500  5.908512  152.094  0.413121  0.002607
  7130.201  7130.200  0.500  5.838593  152.059  0.442937  0.002795
  7130.494  7130.500  0.500  5.764614  152.031  0.476863  0.002758
  7130.798  7130.800  0.500  5.686187  151.986  0.515614  0.003102
  7131.100  7131.100  0.500  5.607517  151.973  0.557766  0.003340
  7131.399  7131.400  0.500  5.531661  151.968  0.601704  0.003438
  7131.706  7131.700  0.500  5.461950  151.993  0.645251  0.003826
  7132.005  7132.000  0.500  5.399237  151.977  0.686940  0.004208
  7132.305  7132.300  0.500  5.344745  151.983  0.725442  0.004545
  7132.605  7132.600  0.500  5.299210  151.998  0.759310  0.004775
  7132.903  7132.900  0.500  5.259597  152.01  0.790059  0.005284
  7133.205  7133.200  0.500  5.224615  152.001  0.818135  0.005638
  7133.503  7133.500  0.500  5.195113  152.011  0.842687  0.005974
  7133.798  7133.800  0.500  5.169251  152.04  0.864931  0.006527
  7134.103  7134.100  0.500  5.145991  152.066  0.885432  0.006749
  7134.403  7134.400  0.500  5.124762  152.08  0.904518  0.007164
  7134.694  7134.700  0.500  5.104892  152.124  0.922933  0.007483
  7134.998  7135.000  0.500  5.083446  152.145  0.943071  0.007867
  7135.298  7135.300  0.500  5.062506  152.163  0.963143  0.008082
  7135.601  7135.600  0.500  5.040572  152.179  0.984608  0.008573
  7135.903  7135.900  0.500  5.019101  152.175  1.005947  0.008811
  7136.203  7136.200  0.500  4.998700  152.196  1.026823  0.009055
  7136.510  7136.500  0.500  4.981343  152.212  1.044912  0.009317
  7136.806  7136.800  0.500  4.966233  152.205  1.060772  0.009624
  7136.998  7137.000  0.500  4.958151  152.224  1.069514  0.009540
  7137.998  7137.990  0.500  4.934072  152.238  1.095681  0.009571
  7139.003  7138.990  0.500  4.947331  152.265  1.081435  0.009047
  7140.026  7140.010  0.500  5.001003  152.284  1.025056  0.008215
  7141.079  7141.060  0.500  5.080349  152.308  0.947010  0.007235
  7142.128  7142.120  0.500  5.143649  152.332  0.889067  0.006932
  7143.214  7143.200  0.500  5.158668  152.348  0.875900  0.006873
  7144.328  7144.300  0.500  5.120710  152.369  0.909913  0.007240
  7145.409  7145.420  0.500  5.054083  152.436  0.973030  0.007665
  7146.546  7146.560  0.500  4.980353  152.449  1.047575  0.007904
  7147.703  7147.710  0.500  4.917792  152.455  1.115251  0.007801
  7148.875  7148.890  0.500  4.873136  152.451  1.166151  0.007709
  7150.072  7150.080  0.500  4.841519  152.453  1.203629  0.007615
  7151.299  7151.300  0.500  4.818904  152.474  1.231323  0.007609
  7152.527  7152.530  0.500  4.803166  152.478  1.250884  0.007468
  7153.777  7153.780  0.500  4.792091  152.469  1.264747  0.007549
  7155.058  7155.050  0.500  4.788798  152.456  1.268808  0.007600
  7156.344  7156.340  0.500  4.796948  152.428  1.258275  0.007671
  7157.658  7157.650  0.500  4.815015  152.44  1.235848  0.007709
  7159.006  7158.980  0.500  4.839066  152.422  1.206337  0.007612
  7160.330  7160.330  0.500  4.863999  152.425  1.176650  0.007439
  7161.703  7161.700  0.500  4.886978  152.387  1.149633  0.007276
  7163.080  7163.080  0.500  4.913344  152.357  1.119500  0.007281
  7164.491  7164.490  0.500  4.962270  152.317  1.065762  0.006976
  7165.904  7165.910  0.500  5.034883  152.292  0.990958  0.006719
  7167.351  7167.350  0.500  5.115935  152.257  0.913598  0.006215
  7168.811  7168.810  0.500  5.188026  152.229  0.849896  0.005975
  7170.296  7170.290  0.500  5.239388  152.194  0.807160  0.005760
  7171.795  7171.790  0.500  5.276245  152.183  0.777896  0.005571
  7173.305  7173.310  0.500  5.294436  152.173  0.763824  0.005724
  7174.853  7174.850  0.500  5.297788  152.137  0.761089  0.006062
  7176.418  7176.410  0.500  5.282088  152.122  0.773054  0.006506
  7177.980  7177.980  0.500  5.245938  152.108  0.801437  0.007132
  7179.587  7179.580  0.500  5.196616  152.103  0.841931  0.007696
  7181.193  7181.190  0.500  5.145226  152.067  0.886116  0.008147
  7182.839  7182.830  0.500  5.096221  152.01  0.930275  0.008356
  7184.490  7184.480  0.500  5.056531  152.002  0.967886  0.008574
  7186.150  7186.150  0.500  5.025101  151.96  0.998519  0.008429
  7187.842  7187.840  0.500  4.995120  151.923  1.028653  0.008352
  7189.555  7189.550  0.500  4.962675  151.909  1.062482  0.008094
  7191.294  7191.280  0.500  4.932232  150.112  1.082369  0.007945
  7193.030  7193.030  0.500  4.910440  151.542  1.116752  0.007726
  7194.794  7194.790  0.500  4.900243  151.722  1.129536  0.007669
  7196.589  7196.580  0.500  4.903006  151.722  1.126417  0.007773
  7198.396  7198.380  0.500  4.916176  151.684  1.111404  0.008038
  7200.219  7200.210  0.500  4.936201  151.651  1.089133  0.008399
  7202.059  7202.050  0.500  4.955024  151.601  1.068467  0.008895
  7203.922  7203.910  0.500  4.965122  151.576  1.057561  0.009442
  7205.806  7205.790  0.500  4.964684  151.527  1.057684  0.010094
  7207.701  7207.690  0.500  4.958946  151.476  1.063412  0.010436
  7209.611  7209.610  0.500  4.955435  151.404  1.066640  0.010232
  7211.562  7211.550  0.500  4.957112  151.361  1.064555  0.009098
  7213.525  7213.510  0.500  4.965658  151.322  1.055224  0.007714
  7215.495  7215.480  0.500  4.983081  151.284  1.036734  0.006371
  7217.485  7217.480  0.500  5.005307  151.245  1.013687  0.005419
  7219.508  7219.490  0.500  5.026143  151.197  0.992472  0.004949
  7221.538  7221.520  0.500  5.035497  151.124  0.982754  0.004795
  7223.588  7223.580  0.500  5.028347  151.083  0.989538  0.005200
  7225.662  7225.650  0.500  5.007850  150.953  1.009160  0.005721
  7227.746  7227.740  0.500  4.978462  148.36  1.021407  0.006795
  7229.862  7229.850  0.500  4.943162  151.129  1.077850  0.008279
  7231.991  7231.980  0.500  4.906756  151.068  1.117363  0.009707
  7234.130  7234.120  0.500  4.872442  151.015  1.155970  0.011149
  7236.301  7236.290  0.500  4.848859  150.975  1.183242  0.012340
  7238.496  7238.480  0.500  4.844154  150.954  1.188655  0.012818
  7240.692  7240.680  0.500  4.860999  150.898  1.168365  0.012412
  7242.912  7242.900  0.500  4.891071  150.877  1.133593  0.011693
  7245.160  7245.150  0.500  4.923772  148.13  1.077149  0.010494
  7247.414  7247.410  0.500  4.947010  150.644  1.070266  0.010144
  7249.705  7249.690  0.500  4.956160  150.657  1.060615  0.009924
  7252.005  7251.990  0.500  4.951666  150.556  1.064672  0.009930
  7254.324  7254.310  0.500  4.940475  148.034  1.058622  0.010179
  7256.664  7256.650  0.500  4.930035  150.646  1.088604  0.010582
  7259.010  7259.000  0.500  4.926245  150.471  1.091470  0.010519
  7261.394  7261.380  0.500  4.928863  149.988  1.085119  0.010291
  7263.787  7263.770  0.500  4.937209  135.524  0.972333  0.008856
  7266.205  7266.190  0.500  4.940471  150.339  1.075109  0.009728
  7268.637  7268.620  0.500  4.945487  150.869  1.073503  0.009362
  7271.085  7271.070  0.500  4.947163  150.812  1.071300  0.009010
  7273.565  7273.550  0.500  4.944135  149.155  1.062740  0.008539
  7276.056  7276.040  0.500  4.933331  150.864  1.086597  0.008360
  7278.562  7278.550  0.500  4.916498  150.735  1.104097  0.008271
  7281.083  7281.070  0.500  4.894720  150.721  1.128298  0.008346
  7283.637  7283.620  0.500  4.868361  149.318  1.147649  0.008053
  7286.202  7286.190  0.500  4.838521  150.428  1.191201  0.008100
  7288.783  7288.770  0.500  4.810235  150.474  1.225750  0.008314
  7291.398  7291.380  0.500  4.784707  150.465  1.257368  0.008767
  7294.014  7294.000  0.500  4.767183  150.425  1.279264  0.009672
  7296.659  7296.650  0.500  4.758526  150.365  1.289867  0.010796
  7299.322  7299.310  0.500  4.759354  150.241  1.287736  0.011651
  7302.003  7301.990  0.500  4.768673  149.041  1.265598  0.012462
  7304.702  7304.690  0.500  4.782072  150.38  1.259973  0.012891
  7307.426  7307.410  0.500  4.795917  150.293  1.241931  0.013206
  7310.168  7310.150  0.500  4.807478  150.703  1.231011  0.013166
  7312.916  7312.900  0.500  4.816731  150.623  1.219022  0.013142
  7315.692  7315.680  0.500  4.820729  150.562  1.213670  0.013104
  7318.483  7318.470  0.500  4.820852  150.517  1.213156  0.013118
  7321.304  7321.290  0.500  4.818319  150.459  1.215763  0.013171
  7324.137  7324.120  0.500  4.814089  150.44  1.220760  0.013371
  7326.978  7326.970  0.500  4.808754  150.377  1.226781  0.013490
  7329.865  7329.850  0.500  4.801877  150.317  1.234754  0.013502
  7332.750  7332.740  0.500  4.793826  150.271  1.244354  0.013935
  7335.667  7335.650  0.500  4.785001  150.21  1.254875  0.014322
  7338.578  7338.570  0.500  4.775365  148.638  1.253759  0.014621
  7341.532  7341.520  0.500  4.764240  149.948  1.278963  0.014569
  7344.502  7344.490  0.500  4.752985  149.961  1.293551  0.014075
  7347.488  7347.470  0.500  4.742672  149.93  1.306686  0.013581
  7350.491  7350.480  0.500  4.734629  149.866  1.316680  0.012994
  7353.510  7353.500  0.500  4.729376  149.815  1.323160  0.012444
  7356.557  7356.550  0.500  4.724944  149.757  1.328523  0.011995
  7359.625  7359.610  0.500  4.718712  149.661  1.335979  0.011742
  7362.705  7362.690  0.500  4.710936  149.58  1.345677  0.011311
  7365.802  7365.790  0.500  4.701495  149.497  1.357686  0.011401
  7368.919  7368.910  0.500  4.692437  149.457  1.369674  0.011740
  7372.063  7372.050  0.500  4.685458  149.399  1.378729  0.012223
  7375.211  7375.200  0.500  4.680427  149.35  1.385232  0.013028
  7378.393  7378.380  0.500  4.675603  149.253  1.391021  0.014449
  7381.575  7381.570  0.500  4.672687  149.209  1.394677  0.016239
  7384.799  7384.790  0.500  4.671096  149.113  1.395999  0.017268
  7388.021  7388.020  0.500  4.670724  149.047  1.395899  0.017959
  7391.275  7391.270  0.500  4.670775  148.984  1.395233  0.017713
  7394.561  7394.550  0.500  4.670068  148.886  1.395300  0.017370
  7397.851  7397.840  0.500  4.667689  148.821  1.398019  0.017214
  7401.155  7401.150  0.500  4.663070  148.753  1.403849  0.017236
  7404.474  7404.470  0.500  4.656677  148.651  1.411888  0.017440
  7407.824  7407.820  0.500  4.648398  148.598  1.423110  0.017628
  7411.198  7411.190  0.500  4.637861  148.508  1.437317  0.017669
  7414.578  7414.570  0.500  4.625458  148.416  1.454353  0.017874
  7417.987  7417.980  0.500  4.613573  148.307  1.470662  0.018154
  7421.406  7421.400  0.500  4.602603  148.195  1.485762  0.018483
  7424.859  7424.850  0.500  4.593731  148.113  1.498166  0.019078
  7428.312  7428.310  0.500  4.587867  147.998  1.505811  0.019552
  7431.798  7431.790  0.500  4.582828  147.915  1.512569  0.019488
  7435.301  7435.290  0.500  4.578154  147.819  1.518667  0.019490
  7438.823  7438.810  0.500  4.573670  147.728  1.524550  0.019422
  7442.366  7442.350  0.500  4.568290  147.585  1.531291  0.018973
  7445.910  7445.900  0.500  4.563493  143.603  1.497146  0.017883
  7449.490  7449.480  0.500  4.559379  147.501  1.544123  0.018082
  7453.086  7453.080  0.500  4.556562  145.907  1.531749  0.017925
  7456.697  7456.690  0.500  4.554213  147.284  1.549833  0.017963
  7460.333  7460.320  0.500  4.551295  146.856  1.549850  0.018130
  7463.992  7463.980  0.500  4.549109  147.104  1.555867  0.018392
  7467.660  7467.650  0.500  4.545592  143.111  1.518966  0.018615
  7471.350  7471.340  0.500  4.541539  147.064  1.567259  0.019668
  7475.063  7475.050  0.500  4.536270  146.97  1.574535  0.020348
  7478.794  7478.780  0.500  4.529160  146.863  1.584616  0.021034
  7482.531  7482.520  0.500  4.521479  146.698  1.595037  0.021728
  7486.298  7486.290  0.500  4.511504  146.584  1.609780  0.022381
  7490.084  7490.080  0.500  4.501506  146.456  1.624529  0.023367
  7493.890  7493.880  0.500  4.489957  146.324  1.641921  0.024003
  7497.717  7497.710  0.500  4.480592  146.28  1.656866  0.024498
  7501.570  7501.550  0.500  4.472283  146.155  1.669265  0.024528
  7505.424  7505.410  0.500  4.465719  146.048  1.679027  0.024551
  7509.302  7509.290  0.500  4.460650  145.901  1.685865  0.024499
  7513.203  7513.190  0.500  4.455651  145.783  1.692939  0.024820
  7517.128  7517.110  0.500  4.450328  145.648  1.700398  0.024911
  7521.066  7521.050  0.500  4.444387  145.509  1.708905  0.025351
  7525.028  7525.010  0.500  4.438141  145.386  1.718159  0.025703
  7528.995  7528.980  0.500  4.431966  145.239  1.727049  0.025735
  7532.989  7532.980  0.500  4.426427  145.098  1.734961  0.025808
  7537.015  7536.990  0.500  4.420438  144.949  1.743583  0.025991
  7541.051  7541.030  0.500  4.414569  144.81  1.752172  0.026213
  7545.093  7545.080  0.500  4.409071  144.666  1.760069  0.026730
  7549.171  7549.150  0.500  4.403664  144.492  1.767490  0.026772
  7553.273  7553.240  0.500  4.398651  144.357  1.774714  0.026932
  7557.368  7557.350  0.500  4.393817  144.216  1.781569  0.026953
  7561.501  7561.480  0.500  4.389340  144.049  1.787490  0.026617
  7565.666  7565.630  0.500  4.384517  143.903  1.794315  0.026817
  7569.806  7569.790  0.500  4.378781  143.738  1.802569  0.027188
  7574.000  7573.980  0.500  4.372568  143.581  1.811826  0.027697
  7578.189  7578.180  0.500  4.364877  143.414  1.823684  0.028465
  7582.422  7582.410  0.500  4.357370  143.27  1.835582  0.029503
  7586.672  7586.650  0.500  4.349870  143.08  1.846940  0.030216
  7590.925  7590.910  0.500  4.342275  142.878  1.858402  0.030757
  7595.202  7595.190  0.500  4.334875  142.678  1.869587  0.030896
  7599.509  7599.490  0.500  4.328153  142.401  1.878540  0.031264
  7603.820  7603.810  0.500  4.320994  141.794  1.883973  0.031609
  7608.157  7608.150  0.500  4.314067  141.596  1.894415  0.032031
  7612.516  7612.510  0.500  4.307237  141.374  1.904416  0.032514
  7616.898  7616.890  0.500  4.300392  141.325  1.916827  0.033060
  7621.290  7621.280  0.500  4.294163  141.407  1.929926  0.033368
  7625.701  7625.700  0.500  4.288222  141.419  1.941582  0.033623
  7630.133  7630.130  0.500  4.281140  141.286  1.953550  0.034047
  7634.601  7634.580  0.500  4.275118  141.14  1.963311  0.034464
  7639.063  7639.050  0.500  4.268936  140.959  1.972962  0.035051
  7643.554  7643.540  0.500  4.262943  140.782  1.982317  0.035666
  7648.062  7648.050  0.500  4.257678  140.612  1.990377  0.036198
  7652.596  7652.580  0.500  4.252175  140.468  1.999319  0.036532
  7657.141  7657.130  0.500  4.246383  140.271  2.008103  0.037089
  7661.711  7661.700  0.500  4.240202  140.097  2.018048  0.037340
  7666.292  7666.280  0.500  4.233440  139.922  2.029204  0.037534
  7670.903  7670.890  0.500  4.227012  139.733  2.039531  0.037789
  7675.528  7675.510  0.500  4.219889  139.515  2.050908  0.037978
  7680.176  7680.160  0.500  4.213300  139.31  2.061430  0.038170
  7684.828  7684.820  0.500  4.206286  139.053  2.072119  0.038588
  7689.511  7689.500  0.500  4.199275  139.178  2.088564  0.039127
  7694.214  7694.200  0.500  4.192392  138.889  2.098622  0.039815
  7698.934  7698.920  0.500  4.185458  138.664  2.109803  0.040358
  7703.675  7703.660  0.500  4.178161  138.406  2.121308  0.040953
  7708.425  7708.410  0.500  4.171487  138.345  2.134562  0.041620
  7713.198  7713.190  0.500  4.164814  138.095  2.144980  0.042247
  7718.005  7717.990  0.500  4.158264  137.851  2.155256  0.042947
  7722.816  7722.800  0.500  4.151451  137.743  2.168282  0.043645
  7727.641  7727.630  0.500  4.144780  137.533  2.179476  0.044227
  7732.506  7732.490  0.500  4.138551  137.326  2.189786  0.044537
  7737.371  7737.360  0.500  4.132054  137.026  2.199258  0.044998
  7742.264  7742.250  0.500  4.125896  137.072  2.213578  0.045807
  7747.175  7747.160  0.500  4.119633  136.814  2.223288  0.046206
  7752.114  7752.090  0.500  4.113248  136.617  2.234305  0.046713
  7757.049  7757.030  0.500  4.107007  136.386  2.244496  0.047233
  7762.018  7762.000  0.500  4.100406  136.195  2.256203  0.047931
  7766.984  7766.990  0.500  4.093452  136.025  2.269107  0.048777
  7772.006  7771.990  0.500  4.086703  135.812  2.280894  0.049477
  7777.036  7777.020  0.500  4.079549  135.584  2.293422  0.050185
  7782.069  7782.060  0.500  4.072827  135.377  2.305357  0.050824
  7787.126  7787.120  0.500  4.065908  135.166  2.317749  0.051485
  7792.213  7792.200  0.500  4.059324  134.983  2.329902  0.052128
  7797.308  7797.300  0.500  4.052285  134.807  2.343297  0.052608
  7802.424  7802.420  0.500  4.045691  134.595  2.355086  0.053313
  7807.564  7807.560  0.500  4.039150  134.392  2.366975  0.053776
  7812.723  7812.720  0.500  4.032383  134.163  2.378986  0.054297
  7817.900  7817.900  0.500  4.025717  133.948  2.391060  0.055034
  7823.097  7823.090  0.500  4.018539  133.765  2.404984  0.055447
  7828.319  7828.310  0.500  4.011781  133.553  2.417453  0.056109
  7833.544  7833.540  0.500  4.004775  133.343  2.430631  0.056786
  7838.794  7838.790  0.500  3.998208  132.802  2.436707  0.057202
  7844.072  7844.060  0.500  3.991081  132.937  2.456644  0.057964
  7849.368  7849.350  0.500  3.984785  132.666  2.467110  0.058690
  7854.674  7854.660  0.500  3.978170  131.589  2.463323  0.059010
  7860.006  7859.990  0.500  3.971169  132.285  2.493758  0.060421
  7865.359  7865.340  0.500  3.964890  132.061  2.505216  0.061183
  7870.722  7870.710  0.500  3.958264  132.213  2.524773  0.062100
  7876.111  7876.090  0.500  3.951441  132.175  2.541330  0.063160
  7881.516  7881.500  0.500  3.944346  131.964  2.555329  0.064066
  7886.939  7886.920  0.500  3.937455  131.727  2.568391  0.064821
  7892.391  7892.370  0.500  3.930563  131.513  2.581943  0.065515
  7897.848  7897.830  0.500  3.923741  131.193  2.593297  0.066465
  7903.332  7903.310  0.500  3.917047  131.018  2.607238  0.067428
  7908.837  7908.810  0.500  3.910041  130.787  2.620926  0.068249
  7914.344  7914.330  0.500  3.903413  130.528  2.633134  0.069010
  7919.889  7919.870  0.500  3.896502  130.294  2.646638  0.069862
  7925.434  7925.420  0.500  3.889709  130.061  2.659912  0.070878
  7931.014  7931.000  0.500  3.882687  129.681  2.670836  0.071559
  7936.623  7936.600  0.500  3.876254  129.331  2.680823  0.072175
  7942.222  7942.210  0.500  3.869482  129.347  2.699358  0.073123
  7947.870  7947.850  0.500  3.862876  129.033  2.710666  0.073936
  7953.479  7953.500  0.500  3.855624  128.685  2.723033  0.074578
  7959.146  7959.170  0.500  3.848753  128.419  2.736131  0.075664
  7964.881  7964.860  0.500  3.842281  128.114  2.747355  0.076364