File: xdidata/Fe/Fe-ZnFerrite.xdi
# XDI/1.0 BlueSky/1.10.0 BMM/2023-1.0-py310-tiled
# Beamline.name: BMM (06BM) -- Beamline for Materials Measurement (NIST)
# Beamline.xray_source: NSLS-II three-pole wiggler
# Beamline.collimation: paraboloid mirror, 5 nm Rh on 30 nm Pt
# Beamline.focusing: not in use
# Beamline.harmonic_rejection: flat mirror, Si stripe, pitch = 7.0 mrad relative to beam
# Beamline.software: Bluesky 1.10.0, Ophyd 1.7.0, DataBroker 2.0.0b13, Python 3.10.8, 2023-1.0-py310-tiled
# Detector.I0: 10 cm N2
# Detector.I1: 25 cm N2
# Detector.I2: 25 cm N2
# Element.symbol: Fe
# Element.edge: K
# Element.reference: Fe
# Element.reference_material: Fe foil
# Facility.name: NSLS-II
# Facility.energy: 3.0
# Facility.current: 400.2
# Facility.mode: top-off
# Facility.GUP: 123456
# Facility.SAF: 301027
# Facility.cycle: 2023-2
# Mono.name: Si(111)
# Mono.d_spacing: 3.13519
# Mono.encoder_resolution: 0.0000050 deg/ct
# Mono.angle_offset: 16.0754 deg
# Mono.scan_mode: pseudo channel cut
# Mono.scan_type: step
# Mono.direction: forward in energy
# Sample.name: ZnFe2O4
# Sample.prep: PEG pellet
# Sample.x: 116.329 mm
# Sample.y: 114.126 mm
# Sample.SDD_position: 205.000 mm
# Scan.experimenters: Bruce Ravel
# Scan.edge_energy: 7112.0
# Scan.start_time: 2023-05-05T17:57:09
# Scan.end_time: 2023-05-05T18:05:18
# Scan.transient_id: 74536
# Scan.uid: 80fc001b-9195-4483-97c3-cb5da880062f
# Scan.plot_hint: ln(I0/It)  --  ln($5/$6)
# Column.1: energy eV
# Column.2: requested_energy eV
# Column.3: measurement_time seconds
# Column.4: xmu
# Column.5: I0 nA
# Column.6: It nA
# Column.7: Ir nA
# ///////////
# courtesy Martin Stennett, University of Sheffield
# -----------
# energy  requested_energy  measurement_time  xmu  I0  It  Ir
  6912.003  6912.000  0.500  2.337933  154.472  14.9107  2.798244
  6921.815  6922.000  0.500  2.325681  154.326  15.0803  2.850322
  6932.034  6932.000  0.500  2.312684  154.284  15.2733  2.907539
  6942.009  6942.000  0.500  2.300169  154.275  15.4649  2.964476
  6951.999  6952.000  0.500  2.287412  154.241  15.66  3.022793
  6962.014  6962.000  0.500  2.275148  154.242  15.8532  3.082158
  6972.012  6972.000  0.500  2.262646  154.23  16.0514  3.142053
  6982.019  6982.000  0.500  2.250193  154.185  16.2479  3.202094
  6992.014  6992.000  0.500  2.238062  154.186  16.4462  3.262844
  7002.019  7002.000  0.500  2.225877  154.089  16.6374  3.322900
  7012.014  7012.000  0.500  2.214025  154.057  16.8322  3.384550
  7022.020  7022.000  0.500  2.202132  153.994  17.0267  3.446404
  7032.016  7032.000  0.500  2.190245  153.931  17.2233  3.508448
  7042.015  7042.000  0.500  2.178294  153.845  17.4205  3.570271
  7052.009  7052.000  0.500  2.166612  153.757  17.6152  3.631282
  7062.010  7062.000  0.500  2.155408  152.99  17.7248  3.674420
  7072.011  7072.000  0.500  2.144607  153.535  17.9811  3.746303
  7081.973  7082.000  0.500  2.133449  152.828  18.0991  3.784579
  7083.991  7084.000  0.500  2.132205  153.178  18.1632  3.799702
  7085.989  7086.000  0.500  2.130471  153.309  18.2103  3.810182
  7087.992  7088.000  0.500  2.128816  153.322  18.242  3.817547
  7089.992  7090.000  0.500  2.126638  153.317  18.2811  3.825133
  7091.991  7092.000  0.500  2.125035  153.29  18.3073  3.829185
  7094.006  7094.000  0.500  2.123527  153.238  18.3287  3.830329
  7096.116  7096.000  0.500  2.122173  153.218  18.3511  3.831476
  7098.006  7098.000  0.500  2.120933  153.183  18.3697  3.828822
  7099.994  7100.000  0.500  2.119854  153.157  18.3863  3.821975
  7101.995  7102.000  0.500  2.119109  153.133  18.3972  3.808010
  7102.290  7102.300  0.500  2.119098  153.129  18.3969  3.805062
  7102.587  7102.600  0.500  2.119044  153.104  18.3949  3.800806
  7102.889  7102.900  0.500  2.118852  153.074  18.3948  3.798829
  7103.190  7103.200  0.500  2.119293  153.068  18.386  3.791609
  7103.483  7103.500  0.500  2.118978  153.04  18.3884  3.788391
  7103.781  7103.800  0.500  2.118917  153.066  18.3926  3.785669
  7104.084  7104.100  0.500  2.118789  153.063  18.3946  3.780642
  7104.384  7104.400  0.500  2.118763  153.012  18.389  3.774641
  7104.690  7104.700  0.500  2.118954  153.007  18.3848  3.768405
  7104.987  7105.000  0.500  2.118901  153.013  18.3866  3.762918
  7105.287  7105.300  0.500  2.118828  152.987  18.3849  3.755966
  7105.582  7105.600  0.500  2.119299  152.992  18.3768  3.746360
  7105.890  7105.900  0.500  2.119464  152.98  18.3723  3.737563
  7106.188  7106.200  0.500  2.119388  152.982  18.3739  3.729084
  7106.490  7106.500  0.500  2.119239  152.961  18.3741  3.719902
  7106.790  7106.800  0.500  2.119446  152.94  18.3678  3.707611
  7107.087  7107.100  0.500  2.119632  152.945  18.3649  3.696526
  7107.387  7107.400  0.500  2.120008  152.93  18.3563  3.680105
  7107.693  7107.700  0.500  2.120275  152.915  18.3495  3.662976
  7107.989  7108.000  0.500  2.120412  152.9  18.3452  3.643105
  7108.289  7108.300  0.500  2.120698  152.887  18.3384  3.621883
  7108.586  7108.600  0.500  2.121121  152.897  18.3319  3.595303
  7108.888  7108.900  0.500  2.121487  152.895  18.3249  3.564742
  7109.193  7109.200  0.500  2.122034  152.882  18.3134  3.524139
  7109.491  7109.500  0.500  2.122677  152.858  18.2987  3.475465
  7109.791  7109.800  0.500  2.123497  152.836  18.2811  3.409993
  7110.093  7110.100  0.500  2.124502  152.823  18.2612  3.319439
  7110.395  7110.400  0.500  2.125636  152.816  18.2397  3.193503
  7110.699  7110.700  0.500  2.127073  152.772  18.2083  3.015559
  7110.999  7111.000  0.500  2.129120  152.751  18.1685  2.786862
  7111.293  7111.300  0.500  2.131214  152.744  18.1297  2.523138
  7111.591  7111.600  0.500  2.134596  152.713  18.0648  2.248310
  7111.893  7111.900  0.500  2.140181  152.686  17.961  1.996115
  7112.191  7112.200  0.500  2.147882  152.66  17.8202  1.794619
  7112.494  7112.500  0.500  2.159090  152.635  17.6187  1.638844
  7112.788  7112.800  0.500  2.171075  152.606  17.4055  1.517330
  7113.094  7113.100  0.500  2.180255  152.581  17.2435  1.419272
  7113.397  7113.400  0.500  2.185588  152.55  17.1483  1.339707
  7113.699  7113.700  0.500  2.187454  152.516  17.1126  1.271615
  7114.000  7114.000  0.500  2.188312  152.514  17.0977  1.212335
  7114.296  7114.300  0.500  2.189408  152.471  17.0742  1.160398
  7114.598  7114.600  0.500  2.188711  152.942  17.1389  1.122053
  7114.901  7114.900  0.500  2.185559  152.949  17.1937  1.092875
  7115.201  7115.200  0.500  2.180693  152.955  17.2783  1.074306
  7115.500  7115.500  0.500  2.177498  152.933  17.3311  1.060963
  7115.800  7115.800  0.500  2.177149  152.974  17.3418  1.049020
  7116.090  7116.100  0.500  2.179562  152.945  17.2967  1.036669
  7116.395  7116.400  0.500  2.183596  152.93  17.2254  1.022213
  7116.698  7116.700  0.500  2.188434  152.881  17.1367  1.002238
  7116.994  7117.000  0.500  2.193669  152.886  17.0478  0.976255
  7117.295  7117.300  0.500  2.199219  152.855  16.95  0.939812
  7117.598  7117.600  0.500  2.205415  152.844  16.8441  0.892982
  7117.900  7117.900  0.500  2.212026  152.826  16.7311  0.838107
  7118.205  7118.200  0.500  2.219636  152.819  16.6036  0.776001
  7118.502  7118.500  0.500  2.227966  152.79  16.4627  0.714021
  7118.798  7118.800  0.500  2.237842  152.763  16.298  0.654812
  7119.104  7119.100  0.500  2.250007  152.76  16.1007  0.597497
  7119.407  7119.400  0.500  2.264702  152.731  15.8628  0.543284
  7119.699  7119.700  0.500  2.282502  152.713  15.5811  0.493300
  7120.000  7120.000  0.500  2.304107  152.677  15.2445  0.444473
  7120.294  7120.300  0.500  2.329835  152.667  14.8563  0.397500
  7120.599  7120.600  0.500  2.360199  152.646  14.41  0.352563
  7120.898  7120.900  0.500  2.394415  152.603  13.9214  0.312284
  7121.201  7121.200  0.500  2.432093  152.567  13.4034  0.276958
  7121.498  7121.500  0.500  2.472667  152.54  12.8682  0.246882
  7121.797  7121.800  0.500  2.518094  152.525  12.2955  0.220086
  7122.102  7122.100  0.500  2.568756  152.519  11.6877  0.196361
  7122.399  7122.400  0.500  2.623134  152.493  11.0672  0.175591
  7122.702  7122.700  0.500  2.682005  152.485  10.4339  0.156811
  7123.001  7123.000  0.500  2.742367  152.469  9.821675  0.140553
  7123.298  7123.300  0.500  2.803293  152.437  9.239205  0.126363
  7123.606  7123.600  0.500  2.864279  152.416  8.691417  0.114101
  7123.905  7123.900  0.500  2.925003  152.393  8.178072  0.103193
  7124.202  7124.200  0.500  2.986805  152.358  7.686191  0.093700
  7124.495  7124.500  0.500  3.053250  152.313  7.189957  0.084785
  7124.800  7124.800  0.500  3.128334  152.293  6.669001  0.076106
  7125.097  7125.100  0.500  3.208207  152.266  6.155967  0.068000
  7125.399  7125.400  0.500  3.294602  152.261  5.646250  0.060505
  7125.698  7125.700  0.500  3.383411  152.236  5.165595  0.053705
  7125.995  7126.000  0.500  3.472676  152.22  4.723968  0.047696
  7126.297  7126.300  0.500  3.561852  152.186  4.319990  0.042188
  7126.607  7126.600  0.500  3.650211  152.165  3.954095  0.037361
  7126.902  7126.900  0.500  3.729050  152.122  3.653315  0.033574
  7127.201  7127.200  0.500  3.799646  152.092  3.403610  0.030025
  7127.498  7127.500  0.500  3.859974  152.055  3.203578  0.027237
  7127.802  7127.800  0.500  3.910668  152.033  3.044792  0.024569
  7128.104  7128.100  0.500  3.953014  151.988  2.917683  0.022615
  7128.403  7128.400  0.500  3.989965  151.975  2.811584  0.020881
  7128.698  7128.700  0.500  4.026148  151.954  2.711303  0.019167
  7128.994  7129.000  0.500  4.065139  151.95  2.607558  0.017659
  7129.297  7129.300  0.500  4.111822  151.902  2.487829  0.015991
  7129.599  7129.600  0.500  4.168716  151.857  2.349548  0.014500
  7129.901  7129.900  0.500  4.235448  151.809  2.197184  0.012937
  7130.203  7130.200  0.500  4.313605  151.788  2.031711  0.011594
  7130.502  7130.500  0.500  4.402432  151.751  1.858578  0.010213
  7130.804  7130.800  0.500  4.497839  151.727  1.689182  0.009334
  7131.106  7131.100  0.500  4.599149  151.671  1.525866  0.008242
  7131.404  7131.400  0.500  4.691450  151.652  1.391160  0.007662
  7131.701  7131.700  0.500  4.770839  151.625  1.284761  0.007156
  7132.001  7132.000  0.500  4.827653  151.631  1.213852  0.007102
  7132.301  7132.300  0.500  4.855704  151.621  1.180195  0.007122
  7132.603  7132.600  0.500  4.853066  151.619  1.183294  0.007371
  7132.896  7132.900  0.500  4.822110  151.606  1.220397  0.007843
  7133.198  7133.200  0.500  4.765757  151.626  1.291317  0.008490
  7133.496  7133.500  0.500  4.691036  151.6  1.391259  0.009748
  7133.800  7133.800  0.500  4.605210  151.617  1.516106  0.011078
  7134.100  7134.100  0.500  4.518870  151.609  1.652746  0.012442
  7134.396  7134.400  0.500  4.438201  151.587  1.791330  0.013755
  7134.701  7134.700  0.500  4.364077  151.579  1.929061  0.015425
  7135.003  7135.000  0.500  4.298527  151.576  2.059699  0.016820
  7135.305  7135.300  0.500  4.244349  151.569  2.174262  0.018007
  7135.601  7135.600  0.500  4.201930  151.569  2.268482  0.019139
  7135.901  7135.900  0.500  4.170536  151.573  2.340894  0.020099
  7136.199  7136.200  0.500  4.149527  151.558  2.390350  0.020593
  7136.501  7136.500  0.500  4.137025  151.545  2.420219  0.021231
  7136.801  7136.800  0.500  4.131602  151.536  2.433232  0.021265
  7136.989  7137.000  0.500  4.130439  151.543  2.436180  0.021286
  7137.998  7137.990  0.500  4.145269  151.533  2.400158  0.020457
  7139.001  7138.990  0.500  4.162208  151.526  2.359743  0.019526
  7140.019  7140.010  0.500  4.135872  151.469  2.421797  0.018980
  7141.072  7141.060  0.500  4.047375  151.49  2.646258  0.019907
  7142.145  7142.120  0.500  3.945362  151.488  2.930424  0.022019
  7143.192  7143.200  0.500  3.896335  151.469  3.077272  0.023496
  7144.287  7144.300  0.500  3.920096  151.446  3.004574  0.023332
  7145.407  7145.420  0.500  3.974892  151.443  2.844304  0.021911
  7146.559  7146.560  0.500  3.986537  151.427  2.811080  0.020782
  7147.707  7147.710  0.500  3.930436  151.407  2.972891  0.020713
  7148.884  7148.890  0.500  3.837101  151.387  3.263303  0.021241
  7150.080  7150.080  0.500  3.745199  151.369  3.576996  0.022189
  7151.297  7151.300  0.500  3.672989  151.367  3.844775  0.023173
  7152.532  7152.530  0.500  3.630890  151.356  4.009804  0.023669
  7153.786  7153.780  0.500  3.603306  151.304  4.120544  0.023964
  7155.054  7155.050  0.500  3.573989  151.258  4.241831  0.024800
  7156.346  7156.340  0.500  3.539936  151.229  4.387940  0.026245
  7157.652  7157.650  0.500  3.504621  151.225  4.545553  0.027544
  7158.984  7158.980  0.500  3.473353  151.204  4.689271  0.028545
  7160.330  7160.330  0.500  3.455757  151.153  4.770891  0.029137
  7161.698  7161.700  0.500  3.457627  151.131  4.761299  0.029261
  7163.078  7163.080  0.500  3.471870  151.084  4.692487  0.029392
  7164.489  7164.490  0.500  3.491933  151.021  4.597364  0.029482
  7165.915  7165.910  0.500  3.514797  150.943  4.491134  0.029193
  7167.353  7167.350  0.500  3.546402  150.882  4.349655  0.028564
  7168.809  7168.810  0.500  3.589618  150.836  4.164415  0.027779
  7170.290  7170.290  0.500  3.642041  150.806  3.950945  0.026938
  7171.795  7171.790  0.500  3.696608  150.792  3.740788  0.026187
  7173.312  7173.310  0.500  3.745076  150.767  3.563190  0.025973
  7174.858  7174.850  0.500  3.784194  150.701  3.425005  0.026415
  7176.418  7176.410  0.500  3.808848  150.644  3.340328  0.027184
  7177.987  7177.980  0.500  3.829568  150.62  3.271317  0.028096
  7179.587  7179.580  0.500  3.863938  150.573  3.159812  0.028091
  7181.195  7181.190  0.500  3.902461  150.541  3.039751  0.027128
  7182.836  7182.830  0.500  3.925110  150.516  2.971181  0.026259
  7184.485  7184.480  0.500  3.923867  150.49  2.974363  0.025848
  7186.154  7186.150  0.500  3.909196  150.445  3.017423  0.025228
  7187.842  7187.840  0.500  3.889867  150.417  3.075745  0.024309
  7189.555  7189.550  0.500  3.869523  150.373  3.138036  0.023619
  7191.290  7191.280  0.500  3.845840  148.737  3.178273  0.022443
  7193.041  7193.030  0.500  3.817347  150  3.297905  0.021937
  7194.796  7194.790  0.500  3.788949  150.146  3.396198  0.022226
  7196.591  7196.580  0.500  3.762157  150.12  3.487829  0.023302
  7198.390  7198.380  0.500  3.738776  150.062  3.568951  0.025174
  7200.222  7200.210  0.500  3.717033  150.021  3.646418  0.027401
  7202.059  7202.050  0.500  3.698499  149.967  3.713277  0.030025
  7203.918  7203.910  0.500  3.684057  149.942  3.766663  0.032933
  7205.803  7205.790  0.500  3.672395  149.91  3.810034  0.035846
  7207.701  7207.690  0.500  3.663979  149.845  3.840570  0.037289
  7209.618  7209.610  0.500  3.662337  149.812  3.846030  0.036136
  7211.560  7211.550  0.500  3.664866  149.737  3.834411  0.032337
  7213.523  7213.510  0.500  3.662689  149.694  3.841660  0.027451
  7215.491  7215.480  0.500  3.654696  149.614  3.870412  0.023052
  7217.491  7217.480  0.500  3.648098  149.548  3.894334  0.019989
  7219.500  7219.490  0.500  3.646691  149.5  3.898562  0.018292
  7221.538  7221.520  0.500  3.650886  149.449  3.880910  0.017795
  7223.586  7223.580  0.500  3.659806  149.39  3.844922  0.018929
  7225.660  7225.650  0.500  3.671758  149.258  3.795896  0.020914
  7227.753  7227.740  0.500  3.679499  146.678  3.701500  0.023623
  7229.862  7229.850  0.500  3.678634  150.041  3.789641  0.028020
  7231.995  7231.980  0.500  3.669348  149.958  3.822881  0.032482
  7234.134  7234.120  0.500  3.657841  149.894  3.865493  0.036843
  7236.299  7236.290  0.500  3.644710  149.853  3.915499  0.040367
  7238.489  7238.480  0.500  3.625420  149.815  3.990755  0.042464
  7240.699  7240.680  0.500  3.598427  149.792  4.099332  0.043257
  7242.908  7242.900  0.500  3.569837  149.774  4.217716  0.042992
  7245.165  7245.150  0.500  3.547690  146.958  4.231068  0.040955
  7247.421  7247.410  0.500  3.539022  149.498  4.341669  0.040178
  7249.699  7249.690  0.500  3.542218  149.506  4.328069  0.039337
  7252.000  7251.990  0.500  3.555594  149.393  4.267320  0.039204
  7254.321  7254.310  0.500  3.577292  147.004  4.108942  0.038708
  7256.664  7256.650  0.500  3.600514  149.457  4.081623  0.039308
  7259.008  7259.000  0.500  3.621452  149.321  3.993426  0.038218
  7261.397  7261.380  0.500  3.639228  148.87  3.911205  0.036388
  7263.784  7263.770  0.500  3.655685  137.053  3.541958  0.031968
  7266.201  7266.190  0.500  3.661502  149.091  3.830737  0.033874
  7268.634  7268.620  0.500  3.664119  149.67  3.835554  0.032964
  7271.083  7271.070  0.500  3.664551  149.564  3.831193  0.031255
  7273.561  7273.550  0.500  3.664106  148.337  3.801440  0.029541
  7276.058  7276.040  0.500  3.663217  149.654  3.838597  0.028881
  7278.562  7278.550  0.500  3.661951  149.626  3.842742  0.028313
  7281.080  7281.070  0.500  3.657956  149.572  3.856735  0.027773
  7283.635  7283.620  0.500  3.648185  148.419  3.864588  0.026841
  7286.198  7286.190  0.500  3.630392  149.204  3.954781  0.026306
  7288.783  7288.770  0.500  3.608200  149.278  4.045511  0.026610
  7291.393  7291.380  0.500  3.585129  149.253  4.139261  0.028260
  7294.009  7294.000  0.500  3.563090  149.213  4.230360  0.031331
  7296.664  7296.650  0.500  3.542202  149.156  4.318005  0.035253
  7299.322  7299.310  0.500  3.522052  149.046  4.402630  0.039529
  7301.999  7301.990  0.500  3.500927  147.457  4.448694  0.042939
  7304.702  7304.690  0.500  3.482956  149.176  4.582170  0.046577
  7307.428  7307.410  0.500  3.469729  149.086  4.640383  0.048716
  7310.161  7310.150  0.500  3.464256  148.987  4.662731  0.049622
  7312.907  7312.900  0.500  3.466138  148.986  4.653927  0.049658
  7315.692  7315.680  0.500  3.472904  148.888  4.619518  0.049090
  7318.486  7318.470  0.500  3.481462  148.83  4.578371  0.048846
  7321.300  7321.290  0.500  3.491824  148.767  4.529246  0.048605
  7324.134  7324.120  0.500  3.500979  148.733  4.486968  0.048363
  7326.987  7326.970  0.500  3.506556  148.66  4.459796  0.048116
  7329.863  7329.850  0.500  3.507303  148.565  4.453626  0.048357
  7332.750  7332.740  0.500  3.503637  148.493  4.467834  0.049279
  7335.656  7335.650  0.500  3.497635  148.454  4.493545  0.050723
  7338.582  7338.570  0.500  3.492070  147.147  4.478822  0.051265
  7341.534  7341.520  0.500  3.486439  148.186  4.535933  0.051389
  7344.504  7344.490  0.500  3.480735  148.225  4.563059  0.049737
  7347.479  7347.470  0.500  3.474478  148.182  4.590389  0.047426
  7350.486  7350.480  0.500  3.467749  148.133  4.619852  0.045128
  7353.515  7353.500  0.500  3.460008  148.033  4.652618  0.043225
  7356.566  7356.550  0.500  3.449441  147.981  4.700385  0.041989
  7359.625  7359.610  0.500  3.438649  147.904  4.748908  0.040805
  7362.703  7362.690  0.500  3.431267  147.81  4.781067  0.040055
  7365.797  7365.790  0.500  3.427741  147.705  4.794539  0.039597
  7368.921  7368.910  0.500  3.426604  147.661  4.798542  0.040236
  7372.063  7372.050  0.500  3.424272  147.602  4.807829  0.042112
  7375.216  7375.200  0.500  3.419055  147.542  4.831015  0.045520
  7378.393  7378.380  0.500  3.411610  147.475  4.864895  0.050353
  7381.579  7381.570  0.500  3.404006  147.401  4.899596  0.056044
  7384.803  7384.790  0.500  3.397898  147.328  4.927171  0.060659
  7388.026  7388.020  0.500  3.394161  147.281  4.944045  0.062605
  7391.277  7391.270  0.500  3.391514  147.19  4.954079  0.062421
  7394.559  7394.550  0.500  3.389288  147.117  4.962657  0.061395
  7397.853  7397.840  0.500  3.386276  147.054  4.975486  0.060538
  7401.162  7401.150  0.500  3.381418  146.96  4.996511  0.060891
  7404.481  7404.470  0.500  3.376172  146.853  5.019135  0.061335
  7407.826  7407.820  0.500  3.371743  146.809  5.039903  0.061803
  7411.201  7411.190  0.500  3.367239  146.747  5.060520  0.061861
  7414.576  7414.570  0.500  3.362718  146.625  5.079237  0.061957
  7417.987  7417.980  0.500  3.357815  146.515  5.100357  0.062488
  7421.406  7421.400  0.500  3.351607  146.436  5.129359  0.063658
  7424.861  7424.850  0.500  3.342509  146.367  5.173817  0.065301
  7428.319  7428.310  0.500  3.330599  146.275  5.232500  0.067069
  7431.802  7431.790  0.500  3.317332  146.165  5.298396  0.068106
  7435.303  7435.290  0.500  3.305968  146.091  5.356254  0.068552
  7438.821  7438.810  0.500  3.298473  145.964  5.391852  0.067886
  7442.352  7442.350  0.500  3.294896  145.82  5.405818  0.066252
  7445.907  7445.900  0.500  3.293549  141.947  5.269328  0.062645
  7449.488  7449.480  0.500  3.291632  145.771  5.421688  0.063225
  7453.093  7453.080  0.500  3.288073  144.486  5.393036  0.062337
  7456.707  7456.690  0.500  3.281206  145.541  5.469867  0.063484
  7460.336  7460.320  0.500  3.271752  144.916  5.498106  0.064104
  7463.990  7463.980  0.500  3.262092  145.308  5.566491  0.065784
  7467.660  7467.650  0.500  3.253909  141.326  5.458434  0.066230
  7471.352  7471.340  0.500  3.248837  145.257  5.638775  0.070833
  7475.060  7475.050  0.500  3.246454  145.099  5.646091  0.073073
  7478.794  7478.780  0.500  3.245891  144.961  5.643880  0.074889
  7482.533  7482.520  0.500  3.244430  144.838  5.647356  0.076379
  7486.305  7486.290  0.500  3.242179  144.705  5.654893  0.078695
  7490.098  7490.080  0.500  3.239430  144.581  5.665564  0.081074
  7493.895  7493.880  0.500  3.236568  144.489  5.678224  0.082936
  7497.729  7497.710  0.500  3.234156  144.359  5.686793  0.083414
  7501.563  7501.550  0.500  3.230212  144.234  5.704327  0.083372
  7505.429  7505.410  0.500  3.225562  144.101  5.725632  0.083251
  7509.304  7509.290  0.500  3.218661  143.967  5.759931  0.083775
  7513.201  7513.190  0.500  3.209799  143.843  5.806199  0.084708
  7517.133  7517.110  0.500  3.200298  143.72  5.856601  0.086177
  7521.066  7521.050  0.500  3.191530  143.6  5.903246  0.087463
  7525.028  7525.010  0.500  3.183575  143.468  5.944903  0.088072
  7529.007  7528.980  0.500  3.176248  143.328  5.982806  0.088631
  7532.999  7532.980  0.500  3.170310  143.186  6.012449  0.089236
  7537.025  7536.990  0.500  3.164836  143.071  6.040607  0.089611
  7541.053  7541.030  0.500  3.158419  142.913  6.072784  0.090985
  7545.102  7545.080  0.500  3.150539  142.778  6.115044  0.092257
  7549.147  7549.150  0.500  3.141842  142.619  6.161572  0.093421
  7553.232  7553.240  0.500  3.133625  142.511  6.207710  0.094105
  7557.336  7557.350  0.500  3.126497  142.369  6.245918  0.093922
  7561.501  7561.480  0.500  3.120207  142.19  6.277421  0.093609
  7565.612  7565.630  0.500  3.115056  142.054  6.303809  0.093850
  7569.787  7569.790  0.500  3.110811  141.906  6.324003  0.094893
  7573.973  7573.980  0.500  3.107073  141.73  6.339805  0.096890
  7578.179  7578.180  0.500  3.103327  141.573  6.356579  0.099183
  7582.402  7582.410  0.500  3.099992  141.425  6.371146  0.101799
  7586.667  7586.650  0.500  3.096548  141.224  6.384019  0.103876
  7590.930  7590.910  0.500  3.092931  141.033  6.398516  0.105360
  7595.189  7595.190  0.500  3.088552  140.787  6.415346  0.106233
  7599.499  7599.490  0.500  3.082749  140.551  6.441863  0.107029
  7603.803  7603.810  0.500  3.075910  139.957  6.458696  0.107903
  7608.147  7608.150  0.500  3.068234  139.748  6.498708  0.109536
  7612.524  7612.510  0.500  3.060717  139.545  6.538249  0.111771
  7616.910  7616.890  0.500  3.053507  139.473  6.582184  0.113533
  7621.270  7621.280  0.500  3.046120  139.568  6.635486  0.114883
  7625.709  7625.700  0.500  3.039362  139.552  6.679689  0.115640
  7630.148  7630.130  0.500  3.032978  139.474  6.718740  0.116593
  7634.573  7634.580  0.500  3.027036  139.299  6.750296  0.118366
  7639.058  7639.050  0.500  3.020810  139.129  6.784148  0.120479
  7643.559  7643.540  0.500  3.014854  138.948  6.815806  0.122726
  7648.070  7648.050  0.500  3.008635  138.785  6.850310  0.124695
  7652.614  7652.580  0.500  3.002269  138.619  6.885796  0.126279
  7657.113  7657.130  0.500  2.996113  138.43  6.918880  0.127538
  7661.693  7661.700  0.500  2.990543  138.233  6.947596  0.128530
  7666.269  7666.280  0.500  2.985287  138.059  6.975455  0.129256
  7670.908  7670.890  0.500  2.980323  137.842  6.999126  0.129512
  7675.493  7675.510  0.500  2.975738  137.64  7.020969  0.129690
  7680.141  7680.160  0.500  2.971126  137.436  7.043010  0.130504
  7684.808  7684.820  0.500  2.966628  137.156  7.060331  0.131067
  7689.478  7689.500  0.500  2.961587  137.303  7.103620  0.132940
  7694.222  7694.200  0.500  2.955459  136.973  7.130103  0.134787
  7698.911  7698.920  0.500  2.948792  136.762  7.166747  0.136789
  7703.680  7703.660  0.500  2.941499  136.47  7.203765  0.138996
  7708.394  7708.410  0.500  2.934500  136.409  7.251130  0.141279
  7713.172  7713.190  0.500  2.927347  136.549  7.310702  0.144081
  7717.993  7717.990  0.500  2.920269  136.344  7.351566  0.146572
  7722.796  7722.800  0.500  2.913841  136.207  7.391512  0.148918
  7727.624  7727.630  0.500  2.906968  135.948  7.428378  0.150612
  7732.511  7732.490  0.500  2.900088  135.744  7.468428  0.152253
  7737.359  7737.360  0.500  2.893221  135.435  7.502773  0.154036
  7742.241  7742.250  0.500  2.886869  135.522  7.555445  0.156086
  7747.147  7747.160  0.500  2.880583  135.22  7.586096  0.157833
  7752.081  7752.090  0.500  2.874820  135.001  7.617616  0.159443
  7757.054  7757.030  0.500  2.868976  134.812  7.651549  0.161330
  7762.026  7762.000  0.500  2.862975  134.609  7.685999  0.163315
  7767.010  7766.990  0.500  2.857042  134.403  7.719876  0.165600
  7772.003  7771.990  0.500  2.851281  134.213  7.753495  0.167941
  7777.039  7777.020  0.500  2.845410  134.006  7.787152  0.170188
  7782.079  7782.060  0.500  2.839922  133.778  7.816660  0.172084
  7787.113  7787.120  0.500  2.834502  133.574  7.847170  0.174038
  7792.213  7792.200  0.500  2.829349  133.392  7.876967  0.175885
  7797.295  7797.300  0.500  2.824397  133.199  7.904626  0.177654
  7802.443  7802.420  0.500  2.818597  133.016  7.939666  0.179265
  7807.592  7807.560  0.500  2.812426  132.816  7.976815  0.181024
  7812.715  7812.720  0.500  2.806021  132.578  8.013670  0.182514
  7817.928  7817.900  0.500  2.799768  132.349  8.050026  0.184403
  7823.120  7823.090  0.500  2.792855  132.126  8.092204  0.186817
  7828.332  7828.310  0.500  2.786045  131.903  8.133761  0.188762
  7833.559  7833.540  0.500  2.779526  131.729  8.176159  0.190850
  7838.778  7838.790  0.500  2.773291  131.191  8.193688  0.192511
  7844.043  7844.060  0.500  2.766623  131.301  8.255416  0.195389
  7849.334  7849.350  0.500  2.760380  130.999  8.288004  0.197546
  7854.643  7854.660  0.500  2.753891  129.931  8.273978  0.198668
  7859.975  7859.990  0.500  2.747974  130.574  8.364232  0.202528
  7865.320  7865.340  0.500  2.741704  130.34  8.401767  0.205139
  7870.696  7870.710  0.500  2.735330  130.117  8.441014  0.208107
  7876.066  7876.090  0.500  2.728858  129.886  8.480738  0.210655
  7881.482  7881.500  0.500  2.722481  129.657  8.519969  0.213452
  7886.897  7886.920  0.500  2.716172  129.443  8.559746  0.216005
  7892.354  7892.370  0.500  2.710048  129.183  8.595010  0.219056
  7897.832  7897.830  0.500  2.703877  128.874  8.627509  0.221034
  7903.292  7903.310  0.500  2.697896  128.698  8.667443  0.223935
  7908.800  7908.810  0.500  2.692531  128.48  8.699275  0.226632
  7914.307  7914.330  0.500  2.686495  128.202  8.732998  0.228984
  7919.860  7919.870  0.500  2.680541  127.991  8.770692  0.231830
  7925.399  7925.420  0.500  2.674449  127.714  8.805216  0.234345
  7930.984  7931.000  0.500  2.668833  127.357  8.830051  0.236403
  7936.583  7936.600  0.500  2.663438  126.995  8.852603  0.238904
  7942.233  7942.210  0.500  2.656413  127.045  8.918530  0.241868
  7947.824  7947.850  0.500  2.650094  126.688  8.949837  0.244055
  7953.474  7953.500  0.500  2.643812  126.292  8.978066  0.246351
  7959.146  7959.170  0.500  2.637599  126.096  9.020026  0.249085
  7964.837  7964.860  0.500  2.631448  125.807  9.054838  0.251774