File: xdidata/Data/Au/Au-L3-GoldThiosulfate.xdi
# XDI/1.0 BlueSky/1.10.0 BMM/2023-1.0-py310-tiled
# Beamline.name: BMM (06BM) -- Beamline for Materials Measurement (NIST)
# Beamline.xray_source: NSLS-II three-pole wiggler
# Beamline.collimation: paraboloid mirror, 5 nm Rh on 30 nm Pt
# Beamline.focusing: not in use
# Beamline.harmonic_rejection: flat mirror, Pt stripe, pitch = 7.0 mrad relative to beam
# Beamline.software: Bluesky 1.10.0, Ophyd 1.7.0, DataBroker 2.0.0b13, Python 3.10.8, 2023-1.0-py310-tiled
# Detector.I0: 10 cm N2
# Detector.I1: 25 cm N2
# Detector.I2: 25 cm N2
# Element.symbol: Au
# Element.edge: L3
# Element.reference: Au
# Element.reference_material: Au foil
# Facility.name: NSLS-II
# Facility.energy: 3.0
# Facility.current: 400.1
# Facility.mode: top-off
# Facility.GUP: 301027
# Facility.SAF: 310583
# Facility.cycle: 2023-2
# Mono.name: Si(111)
# Mono.d_spacing: 3.13519
# Mono.encoder_resolution: 0.0000050 deg/ct
# Mono.angle_offset: 16.0754 deg
# Mono.scan_mode: pseudo channel cut
# Mono.scan_type: step
# Mono.direction: forward in energy
# Sample.name: AuH2Na3O6S4+, gold thiosulfate
# Sample.prep: powder in BN pellet
# Sample.x: 145.711 mm
# Sample.y: 114.376 mm
# Sample.SDD_position: 205.000 mm
# Scan.experimenters: Bruce Ravel
# Scan.edge_energy: 11918.7
# Scan.start_time: 2023-06-27T18:07:18
# Scan.end_time: 2023-06-27T18:15:05
# Scan.transient_id: 85212
# Scan.uid: f97a18b2-3d75-4ed1-9e51-ecd86bfe2644
# Scan.plot_hint: ln(I0/It)  --  ln($5/$6)
# Column.1: energy eV
# Column.2: requested_energy eV
# Column.3: measurement_time seconds
# Column.4: xmu
# Column.5: I0 nA
# Column.6: It nA
# Column.7: Ir nA
# ///////////
# Welcome to BMM
# -----------
# energy  requested_energy  measurement_time  xmu  I0  It  Ir
  11718.672  11718.700  0.500  0.860827  64.614  27.3196  17.3761
  11728.729  11728.700  0.500  0.857200  64.4796  27.3618  17.4204
  11738.726  11738.700  0.500  0.853640  64.3339  27.3974  17.4634
  11748.716  11748.700  0.500  0.850114  64.1157  27.4009  17.4846
  11758.729  11758.700  0.500  0.846670  63.8692  27.3897  17.4978
  11768.753  11768.700  0.500  0.843073  63.9308  27.5149  17.5954
  11778.795  11778.700  0.500  0.839458  63.6116  27.4767  17.5874
  11788.727  11788.700  0.500  0.836032  63.6699  27.5962  17.6846
  11798.736  11798.700  0.500  0.832454  63.5315  27.6349  17.7272
  11808.788  11808.700  0.500  0.829124  63.3706  27.6569  17.7592
  11818.704  11818.700  0.500  0.825833  63.2301  27.6866  17.7967
  11828.711  11828.700  0.500  0.822740  63.0727  27.7032  17.8272
  11838.753  11838.700  0.500  0.819583  62.9922  27.7553  17.8775
  11848.733  11848.700  0.500  0.816622  62.6785  27.699  17.8562
  11858.736  11858.700  0.500  0.813770  62.6277  27.7556  17.9043
  11868.732  11868.700  0.500  0.811419  62.6044  27.8106  17.9514
  11878.727  11878.700  0.500  0.809721  62.4595  27.7934  17.9457
  11888.738  11888.700  0.500  0.809621  62.2849  27.7185  17.8971
  11890.670  11890.700  0.500  0.809575  62.2626  27.7098  17.8864
  11892.670  11892.700  0.500  0.810010  62.2415  27.6883  17.8696
  11894.671  11894.700  0.500  0.810646  62.2178  27.6602  17.8502
  11896.672  11896.700  0.500  0.811443  62.188  27.6249  17.8209
  11898.669  11898.700  0.500  0.812499  62.1549  27.5811  17.7839
  11900.665  11900.700  0.500  0.813775  62.0386  27.4944  17.7156
  11902.681  11902.700  0.500  0.815769  61.4505  27.1795  17.5005
  11904.685  11904.700  0.500  0.818198  62.0349  27.3714  17.6038
  11906.665  11906.700  0.500  0.821425  62.0574  27.2931  17.5311
  11908.671  11908.700  0.500  0.825822  62.0311  27.1619  17.4137
  11908.955  11909.000  0.500  0.826585  62.0284  27.14  17.3931
  11909.245  11909.300  0.500  0.827409  62.0224  27.115  17.3689
  11909.548  11909.600  0.500  0.828408  62.0123  27.0835  17.3425
  11909.862  11909.900  0.500  0.829401  62.0266  27.0629  17.3215
  11910.165  11910.200  0.500  0.830282  62.0067  27.0304  17.2942
  11910.461  11910.500  0.500  0.831378  62.0039  26.9995  17.2669
  11910.764  11910.800  0.500  0.832528  62.0047  26.9689  17.2388
  11911.072  11911.100  0.500  0.833631  62.0016  26.9378  17.2105
  11911.375  11911.400  0.500  0.834874  62.0013  26.9042  17.178
  11911.671  11911.700  0.500  0.836108  61.9854  26.8641  17.1442
  11911.968  11912.000  0.500  0.837364  61.9791  26.8276  17.1088
  11912.283  11912.300  0.500  0.838982  61.976  26.783  17.0722
  11912.567  11912.600  0.500  0.840316  61.9713  26.7452  17.0355
  11912.882  11912.900  0.500  0.842012  61.9643  26.6969  16.992
  11913.178  11913.200  0.500  0.843794  61.9675  26.6507  16.9511
  11913.469  11913.500  0.500  0.845435  61.959  26.6034  16.9063
  11913.778  11913.800  0.500  0.847575  61.9508  26.543  16.8494
  11914.068  11914.100  0.500  0.849614  61.9432  26.4856  16.8009
  11914.383  11914.400  0.500  0.851877  61.9353  26.4224  16.7406
  11914.680  11914.700  0.500  0.854373  61.9231  26.3514  16.6781
  11914.964  11915.000  0.500  0.856800  61.9097  26.2818  16.6118
  11915.279  11915.300  0.500  0.859739  61.8884  26.1957  16.5334
  11915.563  11915.600  0.500  0.862620  61.8627  26.1095  16.4554
  11915.878  11915.900  0.500  0.866024  61.8253  26.005  16.3624
  11916.175  11916.200  0.500  0.869542  61.7303  25.8739  16.2499
  11916.472  11916.500  0.500  0.873543  61.594  25.7137  16.1171
  11916.787  11916.800  0.500  0.877867  61.4674  25.5501  15.9806
  11917.077  11917.100  0.500  0.882461  61.3356  25.3784  15.8375
  11917.386  11917.400  0.500  0.887736  61.2474  25.2086  15.6888
  11917.689  11917.700  0.500  0.892999  61.2206  25.0653  15.5561
  11917.998  11918.000  0.500  0.899324  61.2632  24.9246  15.415
  11918.283  11918.300  0.500  0.905700  61.3497  24.8011  15.2861
  11918.598  11918.600  0.500  0.913163  61.4457  24.6553  15.1328
  11918.901  11918.900  0.500  0.921017  61.56  24.5079  14.9786
  11919.204  11919.200  0.500  0.930103  61.6705  24.3298  14.7963
  11919.488  11919.500  0.500  0.939527  61.7455  24.1309  14.5974
  11919.810  11919.800  0.500  0.951340  61.7974  23.8676  14.3446
  11920.094  11920.100  0.500  0.963254  61.8286  23.5968  14.0903
  11920.404  11920.400  0.500  0.977573  61.8383  23.265  13.7876
  11920.694  11920.700  0.500  0.992671  61.8385  22.9165  13.4723
  11921.003  11921.000  0.500  1.010759  61.8507  22.5101  13.1188
  11921.294  11921.300  0.500  1.029566  61.8343  22.0849  12.7586
  11921.603  11921.600  0.500  1.051521  61.8339  21.6051  12.3593
  11921.882  11921.900  0.500  1.073990  61.8332  21.1249  11.9785
  11922.197  11922.200  0.500  1.100430  61.8391  20.5756  11.5546
  11922.488  11922.500  0.500  1.126717  61.8232  20.0366  11.1523
  11922.785  11922.800  0.500  1.156432  61.8283  19.4516  10.7333
  11923.088  11923.100  0.500  1.185982  61.8135  18.8807  10.3335
  11923.385  11923.400  0.500  1.214701  61.8142  18.3464  9.968585
  11923.695  11923.700  0.500  1.241422  61.806  17.8603  9.642556
  11923.979  11924.000  0.500  1.265994  61.806  17.4267  9.357935
  11924.295  11924.300  0.500  1.288551  61.7946  17.0349  9.102417
  11924.604  11924.600  0.500  1.306743  61.7954  16.728  8.903194
  11924.901  11924.900  0.500  1.321316  61.7942  16.4857  8.744480
  11925.198  11925.200  0.500  1.332615  61.7877  16.2988  8.622608
  11925.508  11925.500  0.500  1.341203  61.7846  16.1586  8.528980
  11925.799  11925.800  0.500  1.346892  61.7793  16.0655  8.465297
  11926.114  11926.100  0.500  1.351252  61.7745  15.9944  8.416173
  11926.399  11926.400  0.500  1.354407  61.7722  15.9434  8.382636
  11926.709  11926.700  0.500  1.357372  61.7608  15.8933  8.351141
  11926.994  11927.000  0.500  1.360266  61.7617  15.8476  8.323774
  11927.291  11927.300  0.500  1.363792  61.7534  15.7897  8.294008
  11927.594  11927.600  0.500  1.367780  61.7529  15.7267  8.261021
  11927.891  11927.900  0.500  1.371961  61.7451  15.6591  8.226330
  11928.189  11928.200  0.500  1.376512  61.742  15.5873  8.188621
  11928.480  11928.500  0.500  1.380865  61.7393  15.5189  8.152028
  11928.796  11928.800  0.500  1.385433  61.7315  15.4462  8.113586
  11929.080  11929.100  0.500  1.389279  61.7281  15.386  8.080423
  11929.390  11929.400  0.500  1.392594  61.7176  15.3325  8.048413
  11929.687  11929.700  0.500  1.395560  61.7234  15.2885  8.020663
  11929.997  11930.000  0.500  1.398097  61.7105  15.2466  7.992906
  11930.301  11930.300  0.500  1.400526  61.7012  15.2073  7.965882
  11930.598  11930.600  0.500  1.402320  61.6956  15.1787  7.943733
  11930.908  11930.900  0.500  1.404122  61.6892  15.1498  7.917256
  11931.205  11931.200  0.500  1.405932  61.6853  15.1214  7.892245
  11931.521  11931.500  0.500  1.407448  61.683  15.098  7.868938
  11931.800  11931.800  0.500  1.409055  61.6787  15.0727  7.845493
  11932.116  11932.100  0.500  1.410406  61.6653  15.049  7.818915
  11932.407  11932.400  0.500  1.411322  61.6615  15.0343  7.801011
  11932.711  11932.700  0.500  1.412387  61.6481  15.0151  7.777496
  11932.996  11933.000  0.500  1.413122  61.6392  15.0019  7.759017
  11933.306  11933.300  0.500  1.413500  61.6158  14.9905  7.740449
  11933.597  11933.600  0.500  1.414005  61.5847  14.9754  7.722260
  11933.882  11933.900  0.500  1.414260  61.5223  14.9564  7.703692
  11934.192  11934.200  0.500  1.414201  61.3905  14.9252  7.676821
  11934.490  11934.500  0.500  1.414125  61.2275  14.8867  7.646721
  11934.787  11934.800  0.500  1.413921  61.0786  14.8536  7.622942
  11935.085  11935.100  0.500  1.413929  60.9767  14.8287  7.604673
  11935.401  11935.400  0.500  1.413576  60.9386  14.8246  7.595250
  11935.680  11935.700  0.500  1.413270  60.9517  14.8324  7.594794
  11935.996  11936.000  0.500  1.413069  61.0108  14.8498  7.599084
  11936.294  11936.300  0.500  1.412832  61.1002  14.875  7.607060
  11936.610  11936.600  0.500  1.412764  61.2161  14.9043  7.619812
  11936.908  11936.900  0.500  1.412756  61.3295  14.932  7.631070
  11937.212  11937.200  0.500  1.413001  61.4386  14.9549  7.641743
  11937.503  11937.500  0.500  1.413438  61.4829  14.9591  7.642310
  11937.807  11937.800  0.500  1.414154  61.5182  14.957  7.638598
  11938.105  11938.100  0.500  1.415055  61.5943  14.962  7.638911
  11938.409  11938.400  0.500  1.416284  61.74  14.979  7.644883
  11938.694  11938.700  0.500  1.417876  61.7463  14.9567  7.630257
  11939.017  11939.000  0.500  1.419692  61.7407  14.9282  7.612784
  11939.309  11939.300  0.500  1.421653  61.7461  14.9003  7.595225
  11939.600  11939.600  0.500  1.423720  61.7395  14.8679  7.574039
  11939.892  11939.900  0.500  1.426029  61.7358  14.8327  7.553811
  11940.190  11940.200  0.500  1.428278  61.7381  14.8  7.532603
  11940.488  11940.500  0.500  1.430392  61.738  14.7687  7.511511
  11940.779  11940.800  0.500  1.432379  61.7212  14.7353  7.489092
  11941.083  11941.100  0.500  1.434292  61.7154  14.7058  7.469506
  11941.381  11941.400  0.500  1.436006  61.712  14.6798  7.453245
  11941.704  11941.700  0.500  1.437761  61.709  14.6534  7.436687
  11941.983  11942.000  0.500  1.438925  61.7056  14.6355  7.424578
  11942.300  11942.300  0.500  1.440045  61.7027  14.6184  7.410723
  11942.604  11942.600  0.500  1.440891  61.7035  14.6063  7.399722
  11942.908  11942.900  0.500  1.441543  61.6953  14.5948  7.389276
  11943.200  11943.200  0.500  1.442072  61.6957  14.5872  7.379841
  11943.517  11943.500  0.500  1.442419  61.6887  14.5805  7.366307
  11943.709  11943.700  0.500  1.442749  61.6765  14.5728  7.357500
  11944.721  11944.690  0.500  1.444296  61.6672  14.548  7.299603
  11945.709  11945.690  0.500  1.446885  61.655  14.5075  7.218180
  11946.721  11946.710  0.500  1.451074  61.6419  14.4438  7.118067
  11947.753  11947.760  0.500  1.456816  61.6231  14.3568  7.022859
  11948.834  11948.820  0.500  1.462561  61.6059  14.2705  6.960702
  11949.928  11949.900  0.500  1.467317  61.5984  14.2011  6.938813
  11951.028  11951.000  0.500  1.470602  61.5794  14.1501  6.950692
  11952.135  11952.120  0.500  1.472511  61.5666  14.1202  6.983583
  11953.260  11953.260  0.500  1.472974  61.544  14.1085  7.018333
  11954.411  11954.410  0.500  1.473135  61.5301  14.1031  7.036060
  11955.611  11955.590  0.500  1.473474  61.5192  14.0958  7.043736
  11956.812  11956.780  0.500  1.474652  61.5011  14.075  7.040964
  11958.026  11958.000  0.500  1.476794  61.4826  14.0407  7.031969
  11959.252  11959.230  0.500  1.480160  61.4715  13.991  7.019809
  11960.497  11960.480  0.500  1.484228  61.4516  13.9297  6.996634
  11961.761  11961.750  0.500  1.488614  61.4316  13.8642  6.958887
  11963.057  11963.040  0.500  1.492972  61.4081  13.7986  6.910127
  11964.359  11964.350  0.500  1.496978  61.3897  13.7394  6.854493
  11965.693  11965.680  0.500  1.500259  61.3676  13.6894  6.798331
  11967.033  11967.030  0.500  1.502328  61.3513  13.6575  6.751475
  11968.404  11968.400  0.500  1.503421  61.3419  13.6405  6.712835
  11969.795  11969.780  0.500  1.503866  61.3164  13.6287  6.684497
  11971.211  11971.190  0.500  1.503940  61.2987  13.6238  6.667539
  11972.639  11972.610  0.500  1.503349  61.2723  13.626  6.668286
  11974.050  11974.050  0.500  1.502854  61.2446  13.6266  6.682168
  11975.504  11975.510  0.500  1.502161  61.2277  13.6323  6.703826
  11977.008  11976.990  0.500  1.501085  61.2147  13.644  6.728879
  11978.501  11978.490  0.500  1.498967  61.1919  13.6679  6.757613
  11980.031  11980.010  0.500  1.495681  61.1742  13.7089  6.790608
  11981.550  11981.550  0.500  1.491112  61.1424  13.7645  6.831562
  11983.100  11983.110  0.500  1.486081  61.1198  13.8288  6.874001
  11984.694  11984.680  0.500  1.480742  61.0929  13.8967  6.916554
  11986.288  11986.280  0.500  1.476084  61.0771  13.958  6.955033
  11987.896  11987.890  0.500  1.472150  61.0562  14.0082  6.993160
  11989.516  11989.530  0.500  1.468319  61.0322  14.0565  7.031880
  11991.181  11991.180  0.500  1.464774  61.0071  14.1006  7.069574
  11992.865  11992.850  0.500  1.462260  60.9843  14.1308  7.097864
  11994.555  11994.540  0.500  1.460102  60.9605  14.1558  7.115334
  11996.234  11996.250  0.500  1.458583  60.9354  14.1715  7.124490
  11997.963  11997.980  0.500  1.457366  60.9105  14.1829  7.126089
  11999.737  11999.730  0.500  1.456421  60.8914  14.1919  7.122303
  12001.511  12001.490  0.500  1.455803  60.8714  14.196  7.115042
  12003.273  12003.280  0.500  1.455036  60.8424  14.2001  7.099763
  12005.080  12005.080  0.500  1.454315  60.8206  14.2053  7.086810
  12006.887  12006.910  0.500  1.453339  60.7933  14.2128  7.075411
  12008.726  12008.750  0.500  1.452320  60.7683  14.2214  7.069000
  12010.578  12010.610  0.500  1.451381  60.7518  14.2309  7.069869
  12012.494  12012.490  0.500  1.450802  60.728  14.2336  7.074073
  12014.448  12014.390  0.500  1.450681  60.6869  14.2256  7.077103
  12016.277  12016.310  0.500  1.450826  60.6572  14.2166  7.080501
  12018.559  12018.250  0.500  1.451941  60.628  14.1939  7.079040
  12020.326  12020.210  0.500  1.453275  60.6126  14.1714  7.076612
  12022.194  12022.180  0.500  1.455036  60.5781  14.1384  7.065767
  12024.189  12024.180  0.500  1.457507  60.5539  14.0979  7.049346
  12026.198  12026.190  0.500  1.460192  60.5229  14.0529  7.028778
  12028.238  12028.220  0.500  1.463064  60.4981  14.0069  7.006043
  12030.285  12030.280  0.500  1.465905  60.4721  13.9611  6.984078
  12032.352  12032.350  0.500  1.468171  60.4454  13.9234  6.966175
  12034.432  12034.440  0.500  1.469736  60.4052  13.8924  6.955348
  12036.564  12036.550  0.500  1.470312  60.3811  13.8788  6.952694
  12038.690  12038.680  0.500  1.469876  60.349  13.8775  6.961117
  12040.829  12040.820  0.500  1.468175  60.317  13.8937  6.979236
  12042.994  12042.990  0.500  1.465096  60.2842  13.929  7.004081
  12045.167  12045.180  0.500  1.461643  60.2128  13.9606  7.029743
  12047.384  12047.380  0.500  1.457235  59.0556  13.7528  6.933189
  12049.622  12049.600  0.500  1.453418  59.2602  13.8533  6.989686
  12051.866  12051.850  0.500  1.449070  60.0765  14.1053  7.118410
  12054.111  12054.110  0.500  1.445114  60.0961  14.1658  7.147758
  12056.389  12056.390  0.500  1.441822  60.0736  14.2072  7.166194
  12058.687  12058.690  0.500  1.438952  60.0457  14.2414  7.177954
  12061.023  12061.010  0.500  1.436673  60.017  14.2671  7.185254
  12063.367  12063.350  0.500  1.435096  59.9921  14.2837  7.189563
  12065.712  12065.700  0.500  1.433954  59.9571  14.2916  7.190098
  12068.076  12068.080  0.500  1.433121  59.9333  14.2979  7.190285
  12070.473  12070.470  0.500  1.432787  59.9064  14.2963  7.188772
  12072.897  12072.890  0.500  1.432441  59.8659  14.2915  7.185398
  12075.328  12075.320  0.500  1.432332  59.8318  14.2849  7.180930
  12077.773  12077.770  0.500  1.432422  59.8036  14.2769  7.176035
  12080.257  12080.250  0.500  1.432261  59.7709  14.2714  7.175543
  12082.735  12082.740  0.500  1.432277  59.7329  14.2621  7.175669
  12085.253  12085.250  0.500  1.432104  59.7021  14.2572  7.174620
  12087.784  12087.770  0.500  1.432005  59.6594  14.2484  7.169883
  12090.342  12090.320  0.500  1.432005  59.6228  14.2397  7.166614
  12092.888  12092.890  0.500  1.432011  59.4158  14.1902  7.141491
  12095.480  12095.470  0.500  1.431990  59.5691  14.2271  7.159964
  12098.099  12098.080  0.500  1.432322  59.5362  14.2145  7.156165
  12100.713  12100.700  0.500  1.432798  59.4984  14.1987  7.154795
  12103.353  12103.350  0.500  1.433258  59.4671  14.1847  7.158338
  12106.013  12106.010  0.500  1.434056  59.426  14.1636  7.160252
  12108.694  12108.690  0.500  1.434400  59.3933  14.151  7.162061
  12111.408  12111.390  0.500  1.434612  59.3599  14.14  7.166744
  12114.116  12114.110  0.500  1.434322  59.3205  14.1347  7.168135
  12116.852  12116.850  0.500  1.433861  59.2863  14.1331  7.171078
  12119.589  12119.600  0.500  1.433032  59.2501  14.1362  7.175096
  12122.378  12122.380  0.500  1.431681  59.2049  14.1445  7.182248
  12125.168  12125.170  0.500  1.430144  59.168  14.1574  7.188492
  12127.973  12127.990  0.500  1.428636  59.0992  14.1623  7.191984
  12130.836  12130.820  0.500  1.426763  59.023  14.1705  7.194865
  12133.682  12133.670  0.500  1.424898  59.0679  14.2078  7.211555
  12136.542  12136.550  0.500  1.423049  59.0252  14.2238  7.216278
  12139.429  12139.440  0.500  1.421244  58.9912  14.2413  7.219105
  12142.369  12142.350  0.500  1.419349  58.9439  14.2568  7.223915
  12145.278  12145.270  0.500  1.417404  58.9007  14.2741  7.226465
  12148.208  12148.220  0.500  1.415462  58.859  14.2918  7.230461
  12151.197  12151.190  0.500  1.413596  58.8177  14.3084  7.237842
  12154.193  12154.170  0.500  1.411752  58.781  14.3259  7.247655
  12157.186  12157.180  0.500  1.409936  58.7302  14.3395  7.260244
  12160.198  12160.200  0.500  1.408069  58.6778  14.3535  7.272641
  12163.271  12163.250  0.500  1.406480  58.4423  14.3186  7.264926
  12166.312  12166.310  0.500  1.405011  58.6188  14.383  7.308906
  12169.394  12169.390  0.500  1.403616  58.5762  14.3926  7.324577
  12172.504  12172.490  0.500  1.402427  58.5281  14.3979  7.339427
  12175.627  12175.610  0.500  1.401490  58.4882  14.4016  7.349526
  12178.753  12178.750  0.500  1.400855  58.4416  14.3992  7.356390
  12181.919  12181.900  0.500  1.400384  58.3984  14.3953  7.356094
  12185.106  12185.080  0.500  1.400036  58.3571  14.3902  7.354393
  12188.268  12188.270  0.500  1.399947  58.3153  14.3811  7.351110
  12191.510  12191.490  0.500  1.399547  58.2636  14.3741  7.347148
  12194.741  12194.720  0.500  1.399539  58.2193  14.3633  7.344428
  12197.987  12197.970  0.500  1.399108  58.171  14.3576  7.346581
  12201.247  12201.250  0.500  1.398892  57.909  14.296  7.318784
  12204.567  12204.540  0.500  1.398252  58.0962  14.3514  7.349146
  12207.857  12207.850  0.500  1.397644  58.0575  14.3506  7.347162
  12211.188  12211.170  0.500  1.396500  58.0103  14.3553  7.348734
  12214.553  12214.520  0.500  1.395442  57.9679  14.36  7.347543
  12217.893  12217.890  0.500  1.393961  57.923  14.3701  7.351255
  12221.288  12221.270  0.500  1.392424  57.8834  14.3824  7.355933
  12224.698  12224.680  0.500  1.390649  57.8353  14.396  7.362129
  12228.096  12228.100  0.500  1.388836  57.7894  14.4107  7.371987
  12231.568  12231.550  0.500  1.387051  57.739  14.4238  7.381719
  12235.042  12235.010  0.500  1.385151  56.5601  14.1562  7.253169
  12238.505  12238.490  0.500  1.383314  57.5014  14.4182  7.395876
  12242.036  12241.990  0.500  1.381420  57.5692  14.4626  7.428530
  12245.542  12245.510  0.500  1.379693  57.5428  14.481  7.447767
  12249.063  12249.050  0.500  1.377817  57.4931  14.4956  7.462879
  12252.632  12252.600  0.500  1.376053  57.4492  14.5101  7.474683
  12256.204  12256.180  0.500  1.374433  57.2633  14.4866  7.467533
  12259.797  12259.780  0.500  1.372779  57.3432  14.5309  7.493538
  12263.418  12263.390  0.500  1.371047  56.8233  14.4241  7.439968
  12267.035  12267.020  0.500  1.369623  56.9938  14.488  7.478284
  12270.694  12270.680  0.500  1.368021  57.0501  14.5255  7.498715
  12274.374  12274.350  0.500  1.366337  57.1487  14.5752  7.526893
  12278.044  12278.040  0.500  1.365006  57.1015  14.5825  7.534899
  12281.755  12281.750  0.500  1.363394  57.0407  14.5905  7.543403
  12285.494  12285.480  0.500  1.362418  56.9318  14.5769  7.539494
  12289.223  12289.220  0.500  1.360937  56.9168  14.5946  7.549765
  12293.007  12292.990  0.500  1.359853  56.6367  14.5386  7.521245
  12296.787  12296.780  0.500  1.358877  56.9835  14.6419  7.577515
  12300.575  12300.580  0.500  1.357886  56.8782  14.6293  7.571378
  12304.439  12304.410  0.500  1.356943  56.911  14.6515  7.584363
  12308.258  12308.250  0.500  1.355642  56.8553  14.6563  7.587102
  12312.127  12312.110  0.500  1.354505  56.8047  14.6599  7.590810
  12316.004  12315.990  0.500  1.353656  56.7495  14.6581  7.593683
  12319.897  12319.890  0.500  1.352458  56.2895  14.5567  7.547853
  12323.833  12323.810  0.500  1.351205  56.4282  14.6108  7.580510
  12327.744  12327.750  0.500  1.349985  56.5586  14.6625  7.614771
  12331.731  12331.710  0.500  1.348602  56.5208  14.673  7.627771
  12335.687  12335.680  0.500  1.347208  56.4769  14.682  7.639825
  12339.699  12339.680  0.500  1.345726  56.4243  14.6901  7.653726
  12343.720  12343.690  0.500  1.344222  56.3763  14.6997  7.663772
  12347.731  12347.730  0.500  1.342564  56.3123  14.7074  7.674207
  12351.810  12351.780  0.500  1.340877  56.2655  14.7199  7.682751
  12355.859  12355.850  0.500  1.339211  56.2053  14.7287  7.691739
  12359.958  12359.940  0.500  1.337370  56.1703  14.7467  7.701109
  12364.079  12364.050  0.500  1.335552  56.0396  14.7391  7.699332
  12368.183  12368.180  0.500  1.333643  56.0651  14.774  7.720730
  12372.363  12372.330  0.500  1.331760  55.9588  14.7738  7.721866
  12376.499  12376.490  0.500  1.329907  55.9531  14.7997  7.738094
  12380.705  12380.680  0.500  1.327992  55.8809  14.8089  7.745924
  12384.893  12384.880  0.500  1.326186  55.4551  14.7227  7.704174
  12389.125  12389.110  0.500  1.324370  55.8043  14.8423  7.769690
  12393.366  12393.350  0.500  1.322543  55.7466  14.8541  7.779359
  12397.617  12397.610  0.500  1.320703  55.6817  14.8641  7.789176
  12401.924  12401.890  0.500  1.319155  55.6283  14.8729  7.797058
  12406.188  12406.190  0.500  1.317633  55.57  14.8799  7.807810
  12410.542  12410.510  0.500  1.315938  55.4919  14.8842  7.814090
  12414.878  12414.850  0.500  1.314503  55.4532  14.8951  7.826231
  12419.218  12419.210  0.500  1.313180  55.3966  14.8997  7.833349
  12423.635  12423.590  0.500  1.311620  55.3142  14.9007  7.839752
  12427.994  12427.980  0.500  1.310131  55.2763  14.9127  7.852738
  12432.411  12432.400  0.500  1.308704  55.1997  14.9133  7.858882
  12436.851  12436.830  0.500  1.307250  54.7759  14.8203  7.815914
  12441.314  12441.280  0.500  1.305846  55.1139  14.9327  7.881773
  12445.780  12445.750  0.500  1.304477  55.0633  14.9395  7.891341
  12450.243  12450.240  0.500  1.302866  54.9919  14.9441  7.898410
  12454.784  12454.750  0.500  1.301460  54.8781  14.9342  7.896359
  12459.301  12459.280  0.500  1.299597  54.8759  14.9615  7.912842
  12463.848  12463.830  0.500  1.298176  54.8161  14.9664  7.922707
  12468.433  12468.400  0.500  1.296369  54.7207  14.9674  7.925130
  12473.014  12472.980  0.500  1.294643  54.7004  14.9877  7.938050
  12477.626  12477.590  0.500  1.292811  54.635  14.9972  7.949723
  12482.234  12482.210  0.500  1.291028  54.5605  15.0035  7.955857
  12486.893  12486.860  0.500  1.289332  54.2387  14.9403  7.925825
  12491.549  12491.520  0.500  1.287345  54.4767  15.0357  7.979263
  12496.229  12496.200  0.500  1.285548  54.4127  15.0451  7.989568
  12500.920  12500.900  0.500  1.283538  54.3487  15.0576  7.999262
  12505.648  12505.620  0.500  1.281755  54.2857  15.067  8.012325
  12510.400  12510.360  0.500  1.279808  54.2222  15.0787  8.021491
  12515.135  12515.110  0.500  1.277767  54.1584  15.0917  8.034681
  12519.922  12519.890  0.500  1.275942  54.0988  15.1026  8.047191
  12524.726  12524.690  0.500  1.273957  54.035  15.1148  8.058169
  12529.527  12529.500  0.500  1.272184  53.9683  15.1229  8.069977
  12534.359  12534.330  0.500  1.270227  53.9006  15.1336  8.080374
  12539.216  12539.190  0.500  1.268244  53.7848  15.131  8.085307
  12544.090  12544.060  0.500  1.266543  53.7972  15.1603  8.107370
  12548.982  12548.950  0.500  1.264605  53.7241  15.1691  8.118267
  12553.911  12553.860  0.500  1.262768  53.6576  15.1781  8.128628
  12558.838  12558.790  0.500  1.261028  53.598  15.1877  8.139468
  12563.769  12563.730  0.500  1.259236  53.5328  15.1964  8.148611
  12568.745  12568.700  0.500  1.257379  53.4691  15.2065  8.160881
  12573.718  12573.690  0.500  1.255698  53.408  15.2147  8.168838
  12578.737  12578.690  0.500  1.254010  53.3305  15.2183  8.175303
  12583.766  12583.720  0.500  1.252167  53.2743  15.2303  8.186288
  12588.806  12588.760  0.500  1.250251  53.2025  15.2389  8.194455
  12593.885  12593.820  0.500  1.248618  53.1382  15.2454  8.202465
  12598.913  12598.900  0.500  1.246849  53.0704  15.2529  8.210299
  12604.063  12604.000  0.500  1.245064  53.0052  15.2614  8.220071
  12609.148  12609.120  0.500  1.243238  52.9417  15.271  8.229160
  12614.299  12614.260  0.500  1.241385  52.8784  15.281  8.239296
  12619.475  12619.420  0.500  1.239446  52.8091  15.2906  8.251498
  12624.614  12624.600  0.500  1.237450  52.7325  15.2989  8.260938
  12629.834  12629.790  0.500  1.235696  52.6558  15.3035  8.269899
  12635.037  12635.010  0.500  1.233644  52.5465  15.3031  8.275393
  12640.293  12640.240  0.500  1.231839  52.5523  15.3324  8.297928
  12645.505  12645.490  0.500  1.229712  52.4736  15.3421  8.310694
  12650.798  12650.760  0.500  1.227741  52.412  15.3543  8.322703
  12656.081  12656.050  0.500  1.225648  52.3544  15.3695  8.336223
  12661.411  12661.360  0.500  1.223770  52.2892  15.3793  8.349969
  12666.738  12666.690  0.500  1.221692  52.2224  15.3916  8.360023
  12672.084  12672.040  0.500  1.219667  52.155  15.4029  8.373168
  12677.449  12677.410  0.500  1.217554  52.0888  15.4158  8.385768
  12682.818  12682.790  0.500  1.215513  52.0195  15.4268  8.399746
  12688.255  12688.200  0.500  1.213464  51.9519  15.4383  8.409961
  12693.654  12693.620  0.500  1.211474  51.8855  15.4493  8.421129
  12699.108  12699.070  0.500  1.209452  51.8057  15.4568  8.431444
  12704.559  12704.530  0.500  1.207430  51.7377  15.4677  8.442219
  12710.036  12710.010  0.500  1.205540  51.6717  15.4772  8.454158
  12715.546  12715.510  0.500  1.203532  51.6094  15.4896  8.465758
  12721.061  12721.030  0.500  1.201516  51.5353  15.4986  8.475509
  12726.623  12726.570  0.500  1.199455  51.4582  15.5074  8.484523
  12732.154  12732.120  0.500  1.197487  51.3782  15.5138  8.493969
  12737.747  12737.700  0.500  1.195526  50.7183  15.3446  8.405956
  12743.338  12743.300  0.500  1.193600  51.2585  15.5379  8.518913
  12748.955  12748.910  0.500  1.191735  51.1902  15.5461  8.531054
  12754.591  12754.550  0.500  1.189757  51.1222  15.5562  8.540496
  12760.247  12760.200  0.500  1.187763  51.0412  15.5626  8.550152
  12765.922  12765.870  0.500  1.185638  50.973  15.5748  8.563821
  12771.588  12771.560  0.500  1.183794  50.9093  15.5841  8.576916