File: xdidata/Data/Au/Au-L3-GoldOxide.xdi
# XDI/1.0 BlueSky/1.10.0 BMM/2023-1.0-py310-tiled
# Beamline.name: BMM (06BM) -- Beamline for Materials Measurement (NIST)
# Beamline.xray_source: NSLS-II three-pole wiggler
# Beamline.collimation: paraboloid mirror, 5 nm Rh on 30 nm Pt
# Beamline.focusing: not in use
# Beamline.harmonic_rejection: flat mirror, Pt stripe, pitch = 7.0 mrad relative to beam
# Beamline.software: Bluesky 1.10.0, Ophyd 1.7.0, DataBroker 2.0.0b13, Python 3.10.8, 2023-1.0-py310-tiled
# Detector.I0: 10 cm N2
# Detector.I1: 25 cm N2
# Detector.I2: 25 cm N2
# Element.symbol: Au
# Element.edge: L3
# Element.reference: Au
# Element.reference_material: Au foil
# Facility.name: NSLS-II
# Facility.energy: 3.0
# Facility.current: 399.8
# Facility.mode: top-off
# Facility.GUP: 301027
# Facility.SAF: 310583
# Facility.cycle: 2023-2
# Mono.name: Si(111)
# Mono.d_spacing: 3.13519
# Mono.encoder_resolution: 0.0000050 deg/ct
# Mono.angle_offset: 16.0754 deg
# Mono.scan_mode: pseudo channel cut
# Mono.scan_type: step
# Mono.direction: forward in energy
# Sample.name: Au2O3, Gold oxide
# Sample.prep: powder on tape
# Sample.x: 145.711 mm
# Sample.y: 114.376 mm
# Sample.SDD_position: 205.000 mm
# Scan.experimenters: Bruce Ravel
# Scan.edge_energy: 11918.7
# Scan.start_time: 2023-06-27T18:32:17
# Scan.end_time: 2023-06-27T18:40:09
# Scan.transient_id: 85227
# Scan.uid: 93ec9f91-1c27-4b2c-805a-3bbb17040b49
# Scan.plot_hint: ln(I0/It)  --  ln($5/$6)
# Column.1: energy eV
# Column.2: requested_energy eV
# Column.3: measurement_time seconds
# Column.4: xmu
# Column.5: I0 nA
# Column.6: It nA
# Column.7: Ir nA
# ///////////
# sample courtesy Martin Stennett, University of Sheffield
# -----------
# energy  requested_energy  measurement_time  xmu  I0  It  Ir
  11718.666  11718.700  0.500  0.928191  64.564  25.5201  16.2334
  11728.723  11728.700  0.500  0.924749  64.4344  25.5567  16.2731
  11738.750  11738.700  0.500  0.921236  64.2639  25.5788  16.3056
  11748.722  11748.700  0.500  0.917614  64.0544  25.5879  16.3253
  11758.723  11758.700  0.500  0.914190  63.8202  25.5818  16.3422
  11768.735  11768.700  0.500  0.910865  63.8928  25.6962  16.4353
  11778.758  11778.700  0.500  0.907470  63.5631  25.6505  16.4217
  11788.739  11788.700  0.500  0.903850  63.6146  25.7644  16.5086
  11798.773  11798.700  0.500  0.900709  63.4837  25.7922  16.5484
  11808.745  11808.700  0.500  0.897412  63.3201  25.8108  16.5762
  11818.783  11818.700  0.500  0.894407  63.1897  25.8351  16.608
  11828.699  11828.700  0.500  0.891433  63.0265  25.8451  16.632
  11838.741  11838.700  0.500  0.888624  62.9336  25.8797  16.6678
  11848.733  11848.700  0.500  0.886285  62.6149  25.8089  16.6404
  11858.742  11858.700  0.500  0.884146  62.5805  25.8499  16.6756
  11868.720  11868.700  0.500  0.882911  62.5435  25.8666  16.7009
  11878.721  11878.700  0.500  0.883048  62.4076  25.8068  16.6665
  11888.732  11888.700  0.500  0.886042  62.2325  25.6575  16.5673
  11890.676  11890.700  0.500  0.887188  62.221  25.6234  16.5434
  11892.676  11892.700  0.500  0.888615  62.1954  25.5763  16.5089
  11894.671  11894.700  0.500  0.890443  62.1652  25.5172  16.4678
  11896.672  11896.700  0.500  0.892786  62.1391  25.4468  16.4173
  11898.681  11898.700  0.500  0.895548  62.1109  25.3651  16.3541
  11900.665  11900.700  0.500  0.899084  62.0008  25.2308  16.2582
  11902.675  11902.700  0.500  0.903737  61.3953  24.8684  16.0134
  11904.673  11904.700  0.500  0.909579  61.9824  24.9599  16.0552
  11906.672  11906.700  0.500  0.917360  62.0014  24.7741  15.9163
  11908.671  11908.700  0.500  0.927643  61.9678  24.5073  15.7121
  11908.943  11909.000  0.500  0.929518  61.972  24.4631  15.6787
  11909.245  11909.300  0.500  0.931645  61.9792  24.4139  15.6422
  11909.548  11909.600  0.500  0.933640  61.9678  24.3608  15.6028
  11909.844  11909.900  0.500  0.936027  61.9615  24.3002  15.5565
  11910.153  11910.200  0.500  0.938447  62.136  24.3098  15.5567
  11910.455  11910.500  0.500  0.940779  62.1278  24.25  15.5091
  11910.770  11910.800  0.500  0.943608  62.1293  24.182  15.4612
  11911.072  11911.100  0.500  0.946432  62.1288  24.1136  15.4097
  11911.369  11911.400  0.500  0.949210  62.1175  24.0424  15.354
  11911.671  11911.700  0.500  0.952299  62.1051  23.9634  15.2959
  11911.974  11912.000  0.500  0.955418  62.1  23.8868  15.2372
  11912.277  11912.300  0.500  0.958862  62.1064  23.8072  15.1768
  11912.585  11912.600  0.500  0.962546  62.1054  23.7193  15.1133
  11912.876  11912.900  0.500  0.966484  62.0947  23.6219  15.0375
  11913.178  11913.200  0.500  0.970667  62.0787  23.5173  14.9588
  11913.475  11913.500  0.500  0.975051  62.0776  23.414  14.8806
  11913.778  11913.800  0.500  0.980050  62.0696  23.2942  14.7913
  11914.068  11914.100  0.500  0.985042  62.0654  23.1767  14.7027
  11914.377  11914.400  0.500  0.990863  62.0537  23.0378  14.5996
  11914.667  11914.700  0.500  0.996759  62.0349  22.8955  14.489
  11914.964  11915.000  0.500  1.003570  62.033  22.7394  14.3766
  11915.285  11915.300  0.500  1.011105  62.0127  22.5613  14.2408
  11915.563  11915.600  0.500  1.018573  61.9889  22.3848  14.1125
  11915.884  11915.900  0.500  1.027624  61.9409  22.1659  13.9505
  11916.163  11916.200  0.500  1.036586  61.8539  21.9373  13.7825
  11916.490  11916.500  0.500  1.047804  61.7117  21.6427  13.569
  11916.774  11916.800  0.500  1.058569  61.5778  21.3646  13.3664
  11917.071  11917.100  0.500  1.071095  61.4567  21.0571  13.1436
  11917.374  11917.400  0.500  1.084761  61.3672  20.7411  12.9127
  11917.702  11917.700  0.500  1.100899  61.3499  20.4033  12.663
  11917.992  11918.000  0.500  1.117220  61.389  20.0857  12.4281
  11918.289  11918.300  0.500  1.136053  61.4707  19.7372  12.1685
  11918.598  11918.600  0.500  1.156274  61.5705  19.3736  11.9002
  11918.907  11918.900  0.500  1.179855  61.6812  18.9561  11.5909
  11919.198  11919.200  0.500  1.204068  61.7939  18.5364  11.2799
  11919.507  11919.500  0.500  1.232645  61.8914  18.0426  10.9206
  11919.791  11919.800  0.500  1.262710  61.9222  17.517  10.5411
  11920.107  11920.100  0.500  1.297598  61.9507  16.9241  10.1161
  11920.391  11920.400  0.500  1.334023  61.9604  16.3213  9.686987
  11920.694  11920.700  0.500  1.373693  61.9653  15.6878  9.237841
  11920.991  11921.000  0.500  1.416538  61.9775  15.0328  8.776495
  11921.276  11921.300  0.500  1.459522  61.9707  14.3987  8.334369
  11921.603  11921.600  0.500  1.507764  61.9684  13.7201  7.862298
  11921.869  11921.900  0.500  1.550841  61.9532  13.1384  7.460245
  11922.179  11922.200  0.500  1.597410  61.9606  12.5421  7.050917
  11922.494  11922.500  0.500  1.640115  61.9509  12.0158  6.690800
  11922.779  11922.800  0.500  1.679284  61.95  11.5541  6.378795
  11923.107  11923.100  0.500  1.716654  61.9447  11.1294  6.089320
  11923.391  11923.400  0.500  1.745619  61.9407  10.8109  5.874380
  11923.695  11923.700  0.500  1.772531  61.9351  10.5229  5.681615
  11924.004  11924.000  0.500  1.793932  61.9333  10.2998  5.529264
  11924.301  11924.300  0.500  1.811482  61.9215  10.1187  5.406464
  11924.598  11924.600  0.500  1.825602  61.9344  9.978901  5.309357
  11924.889  11924.900  0.500  1.836124  61.9148  9.871341  5.236469
  11925.211  11925.200  0.500  1.845523  61.9141  9.778874  5.173530
  11925.495  11925.500  0.500  1.851517  61.903  9.718693  5.129139
  11925.805  11925.800  0.500  1.856279  61.9055  9.672919  5.096797
  11926.102  11926.100  0.500  1.859250  61.9129  9.645379  5.075782
  11926.393  11926.400  0.500  1.860621  61.8947  9.629327  5.063376
  11926.696  11926.700  0.500  1.861007  61.8978  9.626100  5.059100
  11926.987  11927.000  0.500  1.860444  61.8838  9.629345  5.058791
  11927.297  11927.300  0.500  1.859453  61.8831  9.638779  5.063252
  11927.582  11927.600  0.500  1.858151  61.8783  9.650595  5.070818
  11927.885  11927.900  0.500  1.856818  61.8766  9.663200  5.078055
  11928.195  11928.200  0.500  1.855259  61.8703  9.677293  5.085044
  11928.492  11928.500  0.500  1.854513  61.8745  9.685164  5.088548
  11928.789  11928.800  0.500  1.854000  61.866  9.688800  5.089622
  11929.093  11929.100  0.500  1.854270  61.8685  9.686573  5.086992
  11929.409  11929.400  0.500  1.855251  61.8544  9.674864  5.079999
  11929.700  11929.700  0.500  1.856684  61.8495  9.660258  5.069038
  11930.010  11930.000  0.500  1.859088  61.838  9.635271  5.052727
  11930.301  11930.300  0.500  1.862382  61.8406  9.603976  5.032119
  11930.604  11930.600  0.500  1.865781  61.8213  9.568411  5.007299
  11930.908  11930.900  0.500  1.870153  61.8229  9.526919  4.979539
  11931.205  11931.200  0.500  1.874831  61.8171  9.481562  4.950523
  11931.509  11931.500  0.500  1.880131  61.8176  9.431521  4.916564
  11931.794  11931.800  0.500  1.885670  61.8009  9.376882  4.881031
  11932.097  11932.100  0.500  1.891768  61.8093  9.321142  4.845278
  11932.389  11932.400  0.500  1.897532  61.7832  9.263655  4.808209
  11932.711  11932.700  0.500  1.904281  61.7846  9.201561  4.768562
  11932.990  11933.000  0.500  1.910098  61.7695  9.145959  4.731657
  11933.300  11933.300  0.500  1.916530  61.75  9.084439  4.693448
  11933.579  11933.600  0.500  1.922065  61.7233  9.030393  4.659095
  11933.895  11933.900  0.500  1.927753  61.66  8.969976  4.619716
  11934.186  11934.200  0.500  1.932944  61.5247  8.903945  4.581008
  11934.496  11934.500  0.500  1.937858  61.3577  8.836245  4.539897
  11934.787  11934.800  0.500  1.942345  61.2085  8.775303  4.504331
  11935.097  11935.100  0.500  1.946515  61.1028  8.723690  4.473777
  11935.401  11935.400  0.500  1.949872  61.0664  8.689276  4.451911
  11935.693  11935.700  0.500  1.953164  61.0905  8.664134  4.437372
  11936.003  11936.000  0.500  1.955912  61.1496  8.648717  4.426167
  11936.307  11936.300  0.500  1.958083  61.2448  8.643402  4.421167
  11936.610  11936.600  0.500  1.960131  61.3655  8.642719  4.418916
  11936.908  11936.900  0.500  1.961844  61.4808  8.644135  4.418946
  11937.212  11937.200  0.500  1.963311  61.5703  8.644021  4.417333
  11937.516  11937.500  0.500  1.964748  61.6264  8.639474  4.413213
  11937.814  11937.800  0.500  1.966010  61.6492  8.631770  4.408303
  11938.093  11938.100  0.500  1.967381  61.6616  8.621682  4.401962
  11938.409  11938.400  0.500  1.969031  61.6595  8.607181  4.395042
  11938.688  11938.700  0.500  1.970735  61.6635  8.593085  4.386298
  11938.998  11939.000  0.500  1.972765  61.6753  8.577288  4.376145
  11939.296  11939.300  0.500  1.974868  61.6636  8.557660  4.362896
  11939.600  11939.600  0.500  1.977467  61.657  8.534526  4.349133
  11939.886  11939.900  0.500  1.979991  61.6582  8.513179  4.336626
  11940.196  11940.200  0.500  1.982726  61.6512  8.488963  4.321634
  11940.488  11940.500  0.500  1.985418  61.6461  8.465442  4.307135
  11940.804  11940.800  0.500  1.988089  61.6391  8.441910  4.291020
  11941.090  11941.100  0.500  1.990828  61.6377  8.418617  4.278321
  11941.406  11941.400  0.500  1.993386  61.6236  8.395195  4.262855
  11941.698  11941.700  0.500  1.995779  61.6328  8.376373  4.251876
  11942.008  11942.000  0.500  1.998106  61.6055  8.353207  4.237137
  11942.300  11942.300  0.500  2.000794  61.6048  8.330680  4.224488
  11942.604  11942.600  0.500  2.003526  61.6102  8.308690  4.210231
  11942.908  11942.900  0.500  2.006844  61.5945  8.279051  4.192580
  11943.206  11943.200  0.500  2.010334  61.587  8.249208  4.172873
  11943.510  11943.500  0.500  2.014992  61.5874  8.210923  4.148968
  11943.709  11943.700  0.500  2.018320  61.5894  8.183914  4.132134
  11944.709  11944.690  0.500  2.042298  61.5736  7.987960  4.009374
  11945.696  11945.690  0.500  2.075517  61.5642  7.725791  3.844913
  11946.721  11946.710  0.500  2.112426  61.5555  7.444784  3.669560
  11947.771  11947.760  0.500  2.141666  61.5312  7.227386  3.535402
  11948.840  11948.820  0.500  2.153186  61.5169  7.142952  3.484159
  11949.915  11949.900  0.500  2.146393  61.5112  7.190975  3.514405
  11951.015  11951.000  0.500  2.126825  61.5004  7.331789  3.604310
  11952.116  11952.120  0.500  2.102185  61.4797  7.512146  3.715834
  11953.279  11953.260  0.500  2.081047  61.4536  7.669377  3.815197
  11954.411  11954.410  0.500  2.069134  61.4459  7.760316  3.873366
  11955.605  11955.590  0.500  2.064149  61.4199  7.795799  3.896016
  11956.806  11956.780  0.500  2.061616  61.4059  7.813790  3.909340
  11958.013  11958.000  0.500  2.057016  61.3929  7.848158  3.931129
  11959.233  11959.230  0.500  2.051558  61.3809  7.889563  3.958788
  11960.485  11960.480  0.500  2.048839  61.3606  7.908427  3.971812
  11961.768  11961.750  0.500  2.051927  61.342  7.881659  3.956494
  11963.063  11963.040  0.500  2.061418  61.328  7.805415  3.908073
  11964.378  11964.350  0.500  2.076562  61.305  7.685228  3.835591
  11965.686  11965.680  0.500  2.094221  61.2786  7.547442  3.749421
  11967.045  11967.030  0.500  2.112670  61.2641  7.407734  3.663744
  11968.417  11968.400  0.500  2.129790  61.2543  7.280825  3.583495
  11969.807  11969.780  0.500  2.143533  61.2264  7.178181  3.521947
  11971.204  11971.190  0.500  2.151404  61.2046  7.119356  3.485034
  11972.621  11972.610  0.500  2.151193  61.182  7.118234  3.485274
  11974.043  11974.050  0.500  2.143953  61.1665  7.168144  3.516570
  11975.516  11975.510  0.500  2.133051  61.1367  7.243181  3.563746
  11977.015  11976.990  0.500  2.121839  61.1179  7.322603  3.611657
  11978.495  11978.490  0.500  2.112190  61.097  7.391071  3.653443
  11980.025  11980.010  0.500  2.104126  61.0863  7.449614  3.691024
  11981.556  11981.550  0.500  2.096461  61.0492  7.502372  3.724002
  11983.125  11983.110  0.500  2.090053  61.0299  7.548210  3.752644
  11984.694  11984.680  0.500  2.085207  61.017  7.583276  3.774921
  11986.295  11986.280  0.500  2.079589  60.9875  7.622310  3.798563
  11987.883  11987.890  0.500  2.072647  60.9661  7.672720  3.831845
  11989.529  11989.530  0.500  2.063599  60.9398  7.739111  3.873221
  11991.193  11991.180  0.500  2.054790  60.9113  7.803933  3.914390
  11992.859  11992.850  0.500  2.048580  60.8947  7.850414  3.942941
  11994.537  11994.540  0.500  2.046063  60.8702  7.867035  3.955848
  11996.240  11996.250  0.500  2.046249  60.8421  7.861936  3.952124
  11997.995  11997.980  0.500  2.048538  60.8192  7.841005  3.939022
  11999.750  11999.730  0.500  2.052475  60.799  7.807601  3.918997
  12001.505  12001.490  0.500  2.058399  60.7798  7.759047  3.888306
  12003.280  12003.280  0.500  2.066966  60.7538  7.689562  3.845383
  12005.080  12005.080  0.500  2.076319  60.7312  7.615145  3.799608
  12006.925  12006.910  0.500  2.084954  60.6993  7.545702  3.758375
  12008.764  12008.750  0.500  2.090705  60.6734  7.499230  3.729012
  12010.591  12010.610  0.500  2.092800  60.6539  7.481139  3.716162
  12012.475  12012.490  0.500  2.092244  60.6288  7.482192  3.719539
  12014.410  12014.390  0.500  2.088732  60.6119  7.506423  3.734218
  12016.333  12016.310  0.500  2.084311  60.5799  7.535707  3.754838
  12018.251  12018.250  0.500  2.079907  60.5492  7.565129  3.774221
  12020.219  12020.210  0.500  2.076046  60.5234  7.591160  3.789876
  12022.194  12022.180  0.500  2.073042  60.5108  7.612413  3.804788
  12024.158  12024.180  0.500  2.071062  60.4711  7.622500  3.812035
  12026.153  12026.190  0.500  2.070496  60.4447  7.623479  3.814617
  12028.194  12028.220  0.500  2.070430  60.4205  7.620927  3.812767
  12030.260  12030.280  0.500  2.070622  60.3913  7.615787  3.810933
  12032.396  12032.350  0.500  2.070122  60.3639  7.616135  3.811853
  12035.006  12034.440  0.500  2.068455  60.321  7.623426  3.817697
  12036.520  12036.550  0.500  2.066040  60.4948  7.663879  3.840023
  12038.892  12038.680  0.500  2.061915  60.4541  7.690373  3.857541
  12040.949  12040.820  0.500  2.057070  60.4224  7.723674  3.880030
  12043.032  12042.990  0.500  2.052361  60.386  7.755458  3.901574
  12045.192  12045.180  0.500  2.047731  60.3171  7.782554  3.919915
  12047.378  12047.380  0.500  2.043659  59.1677  7.665397  3.865021
  12049.609  12049.600  0.500  2.040827  59.352  7.711088  3.890715
  12051.860  12051.850  0.500  2.039613  60.1935  7.829916  3.951965
  12054.118  12054.110  0.500  2.039965  60.2046  7.828601  3.951020
  12056.383  12056.390  0.500  2.041888  60.1837  7.810851  3.940036
  12058.680  12058.690  0.500  2.044643  60.1591  7.786173  3.925340
  12061.010  12061.010  0.500  2.047124  60.1303  7.763167  3.910683
  12063.361  12063.350  0.500  2.049645  60.1049  7.740347  3.897040
  12065.705  12065.700  0.500  2.051798  60.0713  7.719381  3.884946
  12068.089  12068.080  0.500  2.053239  60.0392  7.704142  3.874109
  12070.461  12070.470  0.500  2.054461  60.0085  7.690802  3.867151
  12072.891  12072.890  0.500  2.055189  59.9717  7.680498  3.861291
  12075.334  12075.320  0.500  2.055781  59.938  7.671638  3.857469
  12077.785  12077.770  0.500  2.055854  59.9127  7.667833  3.856075
  12080.257  12080.250  0.500  2.055066  59.8691  7.668301  3.857244
  12082.735  12082.740  0.500  2.054065  59.8378  7.671958  3.859608
  12085.265  12085.250  0.500  2.053344  59.7992  7.672547  3.862938
  12087.778  12087.770  0.500  2.052993  59.7689  7.671350  3.859868
  12090.323  12090.320  0.500  2.053522  59.7213  7.661181  3.855872
  12092.888  12092.890  0.500  2.054026  59.5133  7.630661  3.840341
  12095.455  12095.470  0.500  2.053951  59.6805  7.652672  3.851068
  12098.067  12098.080  0.500  2.052593  59.6497  7.659108  3.856952
  12100.725  12100.700  0.500  2.049230  59.6029  7.678890  3.869712
  12103.359  12103.350  0.500  2.044163  59.5655  7.713048  3.893628
  12106.007  12106.010  0.500  2.038465  59.534  7.753019  3.919745
  12108.694  12108.690  0.500  2.033142  59.5027  7.790300  3.944034
  12111.388  12111.390  0.500  2.029423  59.4653  7.814408  3.960716
  12114.142  12114.110  0.500  2.027036  59.4327  7.828798  3.971652
  12116.858  12116.850  0.500  2.025136  59.3917  7.838269  3.977524
  12119.608  12119.600  0.500  2.023925  59.3507  7.842360  3.981888
  12122.371  12122.380  0.500  2.023014  59.3121  7.844402  3.983307
  12125.200  12125.170  0.500  2.022783  59.2689  7.840495  3.981876
  12127.992  12127.990  0.500  2.022919  59.1953  7.829694  3.977264
  12130.824  12130.820  0.500  2.024044  59.1358  7.813018  3.967145
  12133.650  12133.670  0.500  2.025650  59.177  7.805923  3.962143
  12136.561  12136.550  0.500  2.028175  59.1348  7.780683  3.947114
  12139.435  12139.440  0.500  2.030980  59.0977  7.754017  3.931096
  12142.298  12142.350  0.500  2.034472  59.0562  7.721572  3.913213
  12145.259  12145.270  0.500  2.037407  59.015  7.693569  3.894739
  12148.214  12148.220  0.500  2.040128  58.9717  7.667024  3.881067
  12151.197  12151.190  0.500  2.041033  58.9404  7.656025  3.872258
  12154.174  12154.170  0.500  2.040585  58.8913  7.653080  3.872144
  12157.166  12157.180  0.500  2.038252  58.8498  7.665546  3.880746
  12160.205  12160.200  0.500  2.034629  58.7944  7.686135  3.895083
  12163.258  12163.250  0.500  2.030015  58.5565  7.690437  3.901708
  12166.312  12166.310  0.500  2.024773  58.7371  7.754697  3.940892
  12169.407  12169.390  0.500  2.018839  58.6889  7.794452  3.967947
  12172.497  12172.490  0.500  2.012967  58.6425  7.834159  3.993965
  12175.614  12175.610  0.500  2.008443  58.5963  7.863472  4.013867
  12178.766  12178.750  0.500  2.005542  58.5533  7.880533  4.026323
  12181.906  12181.900  0.500  2.003959  58.5119  7.887434  4.029768
  12185.067  12185.080  0.500  2.003841  58.4656  7.882121  4.029001
  12188.294  12188.270  0.500  2.004019  58.4252  7.875281  4.024193
  12191.504  12191.490  0.500  2.004067  58.3814  7.869000  4.022300
  12194.715  12194.720  0.500  2.002878  58.3333  7.871865  4.025492
  12197.980  12197.970  0.500  2.000969  58.2872  7.880673  4.033008
  12201.273  12201.250  0.500  1.999318  58.0211  7.857654  4.023708
  12204.548  12204.540  0.500  1.998592  58.2129  7.889365  4.039613
  12207.870  12207.850  0.500  1.999364  58.1655  7.876851  4.033353
  12211.181  12211.170  0.500  2.000815  58.1299  7.860619  4.024900
  12214.527  12214.520  0.500  2.002060  58.0824  7.844416  4.013697
  12217.906  12217.890  0.500  2.003590  58.0361  7.826188  4.004016
  12221.308  12221.270  0.500  2.004788  57.9944  7.811194  3.994635
  12224.698  12224.680  0.500  2.005557  57.9505  7.799287  3.988558
  12228.122  12228.100  0.500  2.005162  57.9132  7.797353  3.988973
  12231.575  12231.550  0.500  2.003146  57.8547  7.805189  3.994765
  12235.029  12235.010  0.500  1.999866  56.7011  7.674691  3.932092
  12238.512  12238.490  0.500  1.995329  57.6179  7.834235  4.018355
  12242.029  12241.990  0.500  1.990555  57.6864  7.881091  4.048415
  12245.522  12245.510  0.500  1.986121  57.6519  7.911386  4.068256
  12249.070  12249.050  0.500  1.982411  57.6134  7.935485  4.084296
  12252.619  12252.600  0.500  1.980063  57.566  7.947597  4.096052
  12256.184  12256.180  0.500  1.978281  57.3902  7.937448  4.092222
  12259.803  12259.780  0.500  1.976769  57.4619  7.959402  4.104428
  12263.398  12263.390  0.500  1.975676  56.9475  7.896768  4.072680
  12267.042  12267.020  0.500  1.974899  57.106  7.924908  4.090113
  12270.707  12270.680  0.500  1.973684  57.1714  7.943623  4.101738
  12274.361  12274.350  0.500  1.972136  57.2741  7.970223  4.116251
  12278.063  12278.040  0.500  1.970580  57.2243  7.975699  4.121651
  12281.774  12281.750  0.500  1.969050  57.1642  7.979523  4.126397
  12285.488  12285.480  0.500  1.967973  57.0511  7.972311  4.123995
  12289.236  12289.220  0.500  1.967608  56.8435  7.946202  4.111006
  12293.007  12292.990  0.500  1.967845  56.5589  7.904541  4.088595
  12296.787  12296.780  0.500  1.967882  56.9117  7.953560  4.114679
  12300.588  12300.580  0.500  1.967636  56.8063  7.940773  4.109261
  12304.419  12304.410  0.500  1.966687  56.8352  7.952363  4.114964
  12308.258  12308.250  0.500  1.966090  56.7867  7.950317  4.116161
  12312.140  12312.110  0.500  1.965236  56.7348  7.949844  4.119818
  12315.991  12315.990  0.500  1.963866  56.6773  7.952668  4.120992
  12319.897  12319.890  0.500  1.961972  56.2256  7.904251  4.097790
  12323.819  12323.810  0.500  1.959182  56.3449  7.943142  4.121426
  12327.757  12327.750  0.500  1.955913  56.4891  7.989555  4.148675
  12331.724  12331.710  0.500  1.952145  56.4517  8.014408  4.166325
  12335.680  12335.680  0.500  1.948355  56.4075  8.038540  4.183766
  12339.705  12339.680  0.500  1.944789  56.3582  8.060200  4.198929
  12343.687  12343.690  0.500  1.941830  56.3041  8.076325  4.209982
  12347.757  12347.730  0.500  1.940099  56.2472  8.082149  4.216080
  12351.797  12351.780  0.500  1.938643  56.1959  8.086538  4.220951
  12355.859  12355.850  0.500  1.937888  56.1426  8.084970  4.221313
  12359.944  12359.940  0.500  1.937047  56.0973  8.085243  4.222892
  12364.059  12364.050  0.500  1.936175  55.9736  8.074450  4.219199
  12368.196  12368.180  0.500  1.935431  55.9966  8.083780  4.225360
  12372.349  12372.330  0.500  1.934668  55.8941  8.075145  4.220617
  12376.492  12376.490  0.500  1.934230  55.8882  8.077830  4.224282
  12380.705  12380.680  0.500  1.933127  55.8178  8.076559  4.224657
  12384.887  12384.880  0.500  1.932003  55.3818  8.022492  4.198457
  12389.145  12389.110  0.500  1.930378  55.7308  8.086172  4.232388
  12393.359  12393.350  0.500  1.928846  55.6744  8.090370  4.236725
  12397.630  12397.610  0.500  1.927624  55.6152  8.091648  4.240161
  12401.911  12401.890  0.500  1.925686  55.5542  8.098456  4.245088
  12406.201  12406.190  0.500  1.923904  55.5004  8.105040  4.252346
  12410.542  12410.510  0.500  1.921386  55.4163  8.113158  4.260071
  12414.865  12414.850  0.500  1.918808  55.381  8.128916  4.272072
  12419.225  12419.210  0.500  1.916321  55.3224  8.140548  4.280919
  12423.608  12423.590  0.500  1.913721  55.2535  8.151577  4.289608
  12428.008  12427.980  0.500  1.911099  55.2054  8.165854  4.299294
  12432.418  12432.400  0.500  1.908487  55.1402  8.177547  4.309978
  12436.837  12436.830  0.500  1.905844  54.7204  8.136772  4.292172
  12441.327  12441.280  0.500  1.903458  55.0563  8.206269  4.330984
  12445.767  12445.750  0.500  1.901197  54.9892  8.214825  4.339509
  12450.270  12450.240  0.500  1.899272  54.9249  8.221016  4.345647
  12454.777  12454.750  0.500  1.897212  54.8043  8.219887  4.345576
  12459.301  12459.280  0.500  1.895807  54.811  8.232450  4.355522
  12463.848  12463.830  0.500  1.894438  54.7514  8.234770  4.358608
  12468.419  12468.400  0.500  1.893042  54.6608  8.232625  4.360265
  12473.014  12472.980  0.500  1.891653  54.6327  8.239831  4.365412
  12477.598  12477.590  0.500  1.890447  54.5699  8.240292  4.368079
  12482.241  12482.210  0.500  1.888961  54.4904  8.240518  4.369291
  12486.893  12486.860  0.500  1.887865  54.1629  8.199978  4.349912
  12491.543  12491.520  0.500  1.886166  54.4103  8.251448  4.378807
  12496.250  12496.200  0.500  1.884754  54.3404  8.252487  4.383277
  12500.927  12500.900  0.500  1.882771  54.2753  8.258958  4.387466
  12505.655  12505.620  0.500  1.880766  54.2148  8.266314  4.394411
  12510.373  12510.360  0.500  1.878547  54.1532  8.275258  4.401881
  12515.135  12515.110  0.500  1.876157  54.0905  8.285456  4.411539
  12519.895  12519.890  0.500  1.873679  54.0291  8.296583  4.419518
  12524.726  12524.690  0.500  1.871183  53.9676  8.307849  4.430314
  12529.541  12529.500  0.500  1.868492  53.9014  8.320010  4.439682
  12534.373  12534.330  0.500  1.866068  53.8324  8.329532  4.448221
  12539.223  12539.190  0.500  1.863516  53.716  8.332763  4.452127
  12544.090  12544.060  0.500  1.861126  53.7289  8.354711  4.468289
  12548.988  12548.950  0.500  1.858659  53.6598  8.364580  4.475081
  12553.898  12553.860  0.500  1.856356  53.5949  8.373715  4.484583
  12558.831  12558.790  0.500  1.854105  53.5334  8.382953  4.492165
  12563.762  12563.730  0.500  1.851893  53.4695  8.391485  4.499989
  12568.711  12568.700  0.500  1.849559  53.4018  8.400445  4.507517
  12573.732  12573.690  0.500  1.848003  53.3431  8.404291  4.512762
  12578.730  12578.690  0.500  1.846203  53.269  8.407733  4.517031
  12583.759  12583.720  0.500  1.844833  53.2102  8.409968  4.522407
  12588.806  12588.760  0.500  1.843126  53.1457  8.414114  4.524869
  12593.858  12593.820  0.500  1.841466  53.0813  8.417891  4.528482
  12598.941  12598.900  0.500  1.839974  53.0092  8.418998  4.532183
  12604.008  12604.000  0.500  1.838397  52.9489  8.422696  4.536259
  12609.168  12609.120  0.500  1.836398  52.8841  8.429225  4.540595
  12614.299  12614.260  0.500  1.834405  52.8152  8.435038  4.548963
  12619.454  12619.420  0.500  1.832383  52.7521  8.442008  4.555745
  12624.649  12624.600  0.500  1.829625  52.6702  8.452190  4.562844
  12629.813  12629.790  0.500  1.827442  52.5959  8.458699  4.572367
  12635.071  12635.010  0.500  1.824907  52.4897  8.463062  4.577912
  12640.272  12640.240  0.500  1.822218  52.4953  8.486749  4.593796
  12645.561  12645.490  0.500  1.819473  52.4323  8.499868  4.603535
  12650.770  12650.760  0.500  1.817276  52.3609  8.506958  4.612511
  12656.074  12656.050  0.500  1.814643  52.2979  8.519126  4.621410
  12661.383  12661.360  0.500  1.812200  52.24  8.530493  4.631036
  12666.717  12666.690  0.500  1.809651  52.1644  8.539901  4.639161
  12672.056  12672.040  0.500  1.807245  52.1007  8.550013  4.648531
  12677.449  12677.410  0.500  1.804758  52.1912  8.586199  4.671029
  12682.846  12682.790  0.500  1.802386  52.1196  8.594779  4.678953
  12688.234  12688.200  0.500  1.800310  52.0475  8.600724  4.685065
  12693.676  12693.620  0.500  1.798060  51.9823  8.609296  4.692900
  12699.108  12699.070  0.500  1.795820  51.9133  8.617150  4.699721
  12704.573  12704.530  0.500  1.793774  51.8488  8.624073  4.706561
  12710.036  12710.010  0.500  1.791954  51.7748  8.627448  4.712660
  12715.546  12715.510  0.500  1.789727  51.7016  8.634466  4.718027
  12721.068  12721.030  0.500  1.787794  51.6359  8.640175  4.724631
  12726.615  12726.570  0.500  1.785885  51.5611  8.644146  4.728906
  12732.175  12732.120  0.500  1.783763  51.4832  8.649416  4.735380
  12737.740  12737.700  0.500  1.781572  50.858  8.563128  4.691897
  12743.345  12743.300  0.500  1.779262  51.3625  8.668071  4.752382
  12748.941  12748.910  0.500  1.776984  51.2921  8.675939  4.760541
  12754.599  12754.550  0.500  1.774602  51.2254  8.685310  4.768115
  12760.240  12760.200  0.500  1.772266  51.1517  8.693108  4.776568
  12765.929  12765.870  0.500  1.769587  51.0804  8.704266  4.786574
  12771.602  12771.560  0.500  1.766995  51.0096  8.714774  4.795422