File: xdidata/Data/Au/Au-L3-GoldFoil.xdi
# XDI/1.0 BlueSky/1.10.0 BMM/2023-1.0-py310-tiled
# Beamline.name: BMM (06BM) -- Beamline for Materials Measurement (NIST)
# Beamline.xray_source: NSLS-II three-pole wiggler
# Beamline.collimation: paraboloid mirror, 5 nm Rh on 30 nm Pt
# Beamline.focusing: not in use
# Beamline.harmonic_rejection: flat mirror, Pt stripe, pitch = 7.0 mrad relative to beam
# Beamline.software: Bluesky 1.10.0, Ophyd 1.7.0, DataBroker 2.0.0b13, Python 3.10.8, 2023-1.0-py310-tiled
# Detector.I0: 10 cm N2
# Detector.I1: 25 cm N2
# Detector.I2: 25 cm N2
# Element.symbol: Au
# Element.edge: L3
# Element.reference: Au
# Element.reference_material: Au foil
# Facility.name: NSLS-II
# Facility.energy: 3.0
# Facility.current: 399.4
# Facility.mode: top-off
# Facility.GUP: 301027
# Facility.SAF: 310583
# Facility.cycle: 2023-2
# Mono.name: Si(111)
# Mono.d_spacing: 3.13519
# Mono.encoder_resolution: 0.0000050 deg/ct
# Mono.angle_offset: 16.0754 deg
# Mono.scan_mode: pseudo channel cut
# Mono.scan_type: step
# Mono.direction: forward in energy
# Sample.name: Au foil
# Sample.prep: reference foil
# Sample.x: 109.138 mm
# Sample.y: 153.150 mm
# Sample.SDD_position: 205.000 mm
# Scan.experimenters: Bruce Ravel
# Scan.edge_energy: 11918.7
# Scan.start_time: 2023-05-28T19:30:02
# Scan.end_time: 2023-05-28T19:38:16
# Scan.transient_id: 78952
# Scan.uid: 448e41d8-d49b-4999-a03e-3ee0f38b68c3
# Scan.plot_hint: ln(It/Ir)  --  ln($6/$7)
# Column.1: energy eV
# Column.2: requested_energy eV
# Column.3: measurement_time seconds
# Column.4: xmu
# Column.5: I0 nA
# Column.6: It nA
# Column.7: Ir nA
# ///////////
# standard reference foil
# -----------
# energy  requested_energy  measurement_time  xmu  I0  It  Ir
  11718.696  11718.700  0.500  0.505607  64.0026  107.544  64.8642
  11728.735  11728.700  0.500  0.504335  63.859  107.341  64.8238
  11738.750  11738.700  0.500  0.503173  63.7045  107.13  64.7718
  11748.794  11748.700  0.500  0.501827  63.5603  106.924  64.734
  11758.777  11758.700  0.500  0.500767  63.3174  106.567  64.5869
  11768.723  11768.700  0.500  0.499474  63.4206  106.768  64.7922
  11778.716  11778.700  0.500  0.498241  63.2429  106.501  64.7097
  11788.739  11788.700  0.500  0.497118  63.2414  106.547  64.8104
  11798.742  11798.700  0.500  0.495967  63.0994  106.352  64.7664
  11808.733  11808.700  0.500  0.494771  62.9463  106.135  64.7117
  11818.729  11818.700  0.500  0.493646  62.8052  105.923  64.6548
  11828.747  11828.700  0.500  0.492493  62.6154  105.638  64.5554
  11838.784  11838.700  0.500  0.491472  62.5599  105.598  64.5972
  11848.678  11848.700  0.500  0.490398  62.2884  105.172  64.4055
  11858.693  11858.700  0.500  0.489505  62.0712  104.847  64.2636
  11868.738  11868.700  0.500  0.488799  62.1592  105.037  64.426
  11878.702  11878.700  0.500  0.488245  62.0335  104.863  64.3546
  11888.720  11888.700  0.500  0.488425  61.877  104.636  64.2039
  11890.670  11890.700  0.500  0.488414  61.8647  104.621  64.1956
  11892.664  11892.700  0.500  0.488632  61.8111  104.537  64.1298
  11894.659  11894.700  0.500  0.488892  61.7843  104.496  64.0882
  11896.654  11896.700  0.500  0.489258  61.7462  104.449  64.0359
  11898.675  11898.700  0.500  0.489725  61.7023  104.375  63.9603
  11900.678  11900.700  0.500  0.490294  61.4428  103.939  63.6572
  11902.663  11902.700  0.500  0.491091  61.184  103.509  63.3433
  11904.648  11904.700  0.500  0.492164  61.6377  104.29  63.7527
  11906.678  11906.700  0.500  0.493541  61.6282  104.285  63.6617
  11908.665  11908.700  0.500  0.495566  61.6013  104.242  63.5071
  11908.949  11909.000  0.500  0.495901  61.5896  104.226  63.4757
  11909.251  11909.300  0.500  0.496271  61.5898  104.23  63.455
  11909.554  11909.600  0.500  0.496698  61.5858  104.215  63.4188
  11909.844  11909.900  0.500  0.497132  61.5829  104.219  63.3938
  11910.146  11910.200  0.500  0.497573  61.5799  104.217  63.3642
  11910.449  11910.500  0.500  0.498048  61.5704  104.198  63.3228
  11910.751  11910.800  0.500  0.498499  61.5597  104.177  63.2813
  11911.048  11911.100  0.500  0.499065  61.5573  104.171  63.2421
  11911.357  11911.400  0.500  0.499728  61.567  104.191  63.2122
  11911.653  11911.700  0.500  0.500343  61.5513  104.157  63.1528
  11911.949  11912.000  0.500  0.500863  61.5409  104.154  63.1184
  11912.258  11912.300  0.500  0.501600  61.5297  104.14  63.0631
  11912.555  11912.600  0.500  0.502268  61.5338  104.148  63.0256
  11912.851  11912.900  0.500  0.503094  61.5269  104.136  62.9663
  11913.154  11913.200  0.500  0.503942  61.5155  104.116  62.9012
  11913.463  11913.500  0.500  0.504889  61.5057  104.095  62.8286
  11913.759  11913.800  0.500  0.505816  61.4961  104.085  62.7645
  11914.062  11914.100  0.500  0.506904  61.4911  104.08  62.6934
  11914.364  11914.400  0.500  0.508158  61.4784  104.069  62.6082
  11914.667  11914.700  0.500  0.509380  61.4658  104.038  62.5133
  11914.976  11915.000  0.500  0.510862  61.4403  104.005  62.4006
  11915.291  11915.300  0.500  0.512398  61.3893  103.909  62.2473
  11915.569  11915.600  0.500  0.514034  61.3297  103.809  62.0857
  11915.878  11915.900  0.500  0.515902  61.2225  103.628  61.8621
  11916.193  11916.200  0.500  0.518061  61.0688  103.373  61.5768
  11916.484  11916.500  0.500  0.520144  60.9367  103.159  61.3216
  11916.799  11916.800  0.500  0.522722  60.8391  102.991  61.0637
  11917.096  11917.100  0.500  0.525548  60.775  102.878  60.8244
  11917.386  11917.400  0.500  0.528473  60.7971  102.917  60.6699
  11917.695  11917.700  0.500  0.531977  60.8742  103.051  60.5363
  11917.986  11918.000  0.500  0.535653  60.9705  103.213  60.4091
  11918.283  11918.300  0.500  0.539690  61.0704  103.378  60.262
  11918.598  11918.600  0.500  0.544587  61.1897  103.579  60.0843
  11918.889  11918.900  0.500  0.549504  61.2859  103.748  59.887
  11919.191  11919.200  0.500  0.555200  61.3439  103.84  59.5995
  11919.501  11919.500  0.500  0.561703  61.3694  103.889  59.2411
  11919.785  11919.800  0.500  0.568610  61.3952  103.934  58.8591
  11920.100  11920.100  0.500  0.576697  61.389  103.927  58.3812
  11920.391  11920.400  0.500  0.584625  61.3896  103.934  57.924
  11920.682  11920.700  0.500  0.593333  61.3896  103.931  57.4203
  11920.979  11921.000  0.500  0.602432  61.4098  103.962  56.9171
  11921.269  11921.300  0.500  0.611593  61.3865  103.936  56.3838
  11921.591  11921.600  0.500  0.621426  61.3843  103.917  55.8218
  11921.869  11921.900  0.500  0.629977  61.3877  103.924  55.3502
  11922.179  11922.200  0.500  0.638804  61.3719  103.913  54.8582
  11922.476  11922.500  0.500  0.646658  61.3718  103.914  54.4297
  11922.797  11922.800  0.500  0.654517  61.3616  103.894  53.9932
  11923.082  11923.100  0.500  0.660683  61.3542  103.882  53.655
  11923.404  11923.400  0.500  0.666302  61.3574  103.879  53.3525
  11923.682  11923.700  0.500  0.670953  61.3662  103.903  53.1176
  11923.998  11924.000  0.500  0.675340  61.3434  103.867  52.8666
  11924.301  11924.300  0.500  0.678706  61.3405  103.866  52.6884
  11924.598  11924.600  0.500  0.681467  61.3343  103.852  52.536
  11924.895  11924.900  0.500  0.683666  61.3245  103.843  52.4163
  11925.205  11925.200  0.500  0.685490  61.3168  103.825  52.3113
  11925.502  11925.500  0.500  0.686820  61.3146  103.823  52.241
  11925.799  11925.800  0.500  0.687824  61.3133  103.821  52.1876
  11926.102  11926.100  0.500  0.688393  61.3121  103.828  52.1612
  11926.393  11926.400  0.500  0.688739  61.3039  103.813  52.1357
  11926.709  11926.700  0.500  0.688802  61.2972  103.804  52.1282
  11927.006  11927.000  0.500  0.688829  61.3037  103.816  52.1325
  11927.309  11927.300  0.500  0.688722  61.2909  103.787  52.1234
  11927.594  11927.600  0.500  0.688661  61.2846  103.781  52.1236
  11927.898  11927.900  0.500  0.688709  61.2843  103.779  52.1205
  11928.176  11928.200  0.500  0.688771  61.2723  103.767  52.1109
  11928.486  11928.500  0.500  0.688862  61.2712  103.762  52.1037
  11928.783  11928.800  0.500  0.689223  61.2615  103.75  52.0789
  11929.093  11929.100  0.500  0.689698  61.2624  103.748  52.0535
  11929.384  11929.400  0.500  0.690309  61.2516  103.727  52.0111
  11929.681  11929.700  0.500  0.691106  61.247  103.722  51.967
  11929.985  11930.000  0.500  0.692094  61.2406  103.709  51.9089
  11930.301  11930.300  0.500  0.693255  61.2443  103.718  51.8536
  11930.586  11930.600  0.500  0.694448  61.2283  103.697  51.7811
  11930.908  11930.900  0.500  0.695876  61.2243  103.691  51.7041
  11931.199  11931.200  0.500  0.697215  61.2154  103.682  51.6307
  11931.521  11931.500  0.500  0.698700  61.2131  103.669  51.5473
  11931.800  11931.800  0.500  0.700209  61.2145  103.669  51.4699
  11932.104  11932.100  0.500  0.701720  61.1951  103.635  51.3753
  11932.395  11932.400  0.500  0.703222  61.1964  103.646  51.3037
  11932.705  11932.700  0.500  0.704830  61.1591  103.586  51.1915
  11933.008  11933.000  0.500  0.706239  61.1433  103.558  51.1053
  11933.300  11933.300  0.500  0.707553  61.0985  103.477  50.9987
  11933.597  11933.600  0.500  0.708869  60.9709  103.262  50.8257
  11933.907  11933.900  0.500  0.710080  60.8167  103.007  50.6389
  11934.205  11934.200  0.500  0.711096  60.6628  102.75  50.4611
  11934.490  11934.500  0.500  0.711981  60.5445  102.549  50.3181
  11934.787  11934.800  0.500  0.712740  60.4834  102.444  50.228
  11935.079  11935.100  0.500  0.713465  60.5016  102.473  50.206
  11935.395  11935.400  0.500  0.714028  60.546  102.546  50.2132
  11935.686  11935.700  0.500  0.714576  60.6327  102.7  50.2613
  11935.990  11936.000  0.500  0.715013  60.7185  102.846  50.311
  11936.282  11936.300  0.500  0.715285  60.8343  103.048  50.396
  11936.598  11936.600  0.500  0.715548  60.9466  103.239  50.476
  11936.883  11936.900  0.500  0.715890  61.0172  103.36  50.5179
  11937.206  11937.200  0.500  0.716161  61.0282  103.38  50.514
  11937.485  11937.500  0.500  0.716346  61.0451  103.405  50.5167
  11937.814  11937.800  0.500  0.716696  61.0528  103.431  50.5118
  11938.099  11938.100  0.500  0.716906  61.0462  103.421  50.4966
  11938.403  11938.400  0.500  0.717269  61.046  103.425  50.48
  11938.701  11938.700  0.500  0.717687  61.0472  103.421  50.4571
  11939.017  11939.000  0.500  0.718214  61.0481  103.415  50.4272
  11939.309  11939.300  0.500  0.718734  61.0468  103.425  50.4062
  11939.613  11939.600  0.500  0.719294  61.0413  103.414  50.3726
  11939.904  11939.900  0.500  0.719889  61.0444  103.425  50.3481
  11940.208  11940.200  0.500  0.720537  61.0368  103.404  50.3053
  11940.506  11940.500  0.500  0.721074  61.0319  103.394  50.2732
  11940.804  11940.800  0.500  0.721612  61.0218  103.39  50.2444
  11941.096  11941.100  0.500  0.722082  61.0155  103.381  50.2165
  11941.400  11941.400  0.500  0.722596  61.0123  103.38  50.1899
  11941.704  11941.700  0.500  0.723088  61.0165  103.386  50.168
  11941.996  11942.000  0.500  0.723685  61.0088  103.375  50.1327
  11942.294  11942.300  0.500  0.724367  60.9982  103.36  50.0915
  11942.585  11942.600  0.500  0.725132  60.9941  103.348  50.0473
  11942.896  11942.900  0.500  0.726086  60.9908  103.347  49.999
  11943.175  11943.200  0.500  0.727219  60.9963  103.355  49.9463
  11943.498  11943.500  0.500  0.728770  60.9834  103.333  49.8583
  11943.684  11943.700  0.500  0.729736  60.9712  103.319  49.8034
  11944.709  11944.690  0.500  0.737061  60.9644  103.308  49.4349
  11945.696  11945.690  0.500  0.745909  60.9613  103.301  48.9958
  11946.709  11946.710  0.500  0.754610  60.9254  103.241  48.5433
  11947.765  11947.760  0.500  0.760190  60.9191  103.232  48.2689
  11948.815  11948.820  0.500  0.760775  60.9031  103.209  48.2302
  11949.915  11949.900  0.500  0.757198  60.9015  103.204  48.4005
  11951.040  11951.000  0.500  0.750961  60.8809  103.177  48.6904
  11952.141  11952.120  0.500  0.744618  60.8566  103.153  48.9889
  11953.285  11953.260  0.500  0.740178  60.8424  103.127  49.1943
  11954.411  11954.410  0.500  0.737754  60.8304  103.108  49.3048
  11955.580  11955.590  0.500  0.736827  60.8268  103.106  49.3496
  11956.775  11956.780  0.500  0.735880  60.8053  103.069  49.3786
  11958.013  11958.000  0.500  0.734237  60.7664  103.007  49.43
  11959.233  11959.230  0.500  0.732616  60.7589  102.997  49.5057
  11960.485  11960.480  0.500  0.732241  60.9161  103.268  49.6545
  11961.755  11961.750  0.500  0.733431  60.9005  103.244  49.5837
  11963.032  11963.040  0.500  0.736126  60.8791  103.218  49.4378
  11964.353  11964.350  0.500  0.740043  60.8754  103.213  49.2425
  11965.693  11965.680  0.500  0.744610  60.8625  103.191  49.0075
  11967.051  11967.030  0.500  0.749197  60.8498  103.188  48.7819
  11968.410  11968.400  0.500  0.753229  60.8286  103.154  48.5694
  11969.788  11969.780  0.500  0.756131  60.8122  103.13  48.4175
  11971.198  11971.190  0.500  0.757418  60.7863  103.095  48.3386
  11972.614  11972.610  0.500  0.756711  60.7579  103.055  48.354
  11974.025  11974.050  0.500  0.754401  60.7491  103.04  48.4589
  11975.485  11975.510  0.500  0.751670  60.7293  103.024  48.5841
  11976.965  11976.990  0.500  0.748902  60.6958  102.967  48.6915
  11978.464  11978.490  0.500  0.746654  60.6815  102.939  48.7879
  11980.013  11980.010  0.500  0.744651  60.6582  102.909  48.8717
  11981.606  11981.550  0.500  0.742736  60.6318  102.863  48.9434
  11983.056  11983.110  0.500  0.741507  60.6004  102.816  48.9812
  11985.106  11984.680  0.500  0.740151  60.5646  102.77  49.0258
  11986.288  11986.280  0.500  0.738841  60.5469  102.739  49.0751
  11987.821  11987.890  0.500  0.737044  60.515  102.692  49.1406
  11989.504  11989.530  0.500  0.734620  60.5114  102.68  49.2542
  11991.187  11991.180  0.500  0.732569  60.4659  102.624  49.3287
  11992.815  11992.850  0.500  0.731243  60.4495  102.598  49.3813
  11994.512  11994.540  0.500  0.730796  60.428  102.568  49.3891
  11996.228  11996.250  0.500  0.731026  60.4023  102.53  49.3595
  11997.976  11997.980  0.500  0.731607  60.3768  102.494  49.3135
  11999.724  11999.730  0.500  0.732673  60.3585  102.477  49.2527
  12001.474  12001.490  0.500  0.734237  60.3384  102.447  49.1613
  12003.267  12003.280  0.500  0.736420  60.3025  102.395  49.0294
  12005.061  12005.080  0.500  0.738693  60.2864  102.365  48.9036
  12006.887  12006.910  0.500  0.740677  60.2789  102.359  48.8037
  12008.751  12008.750  0.500  0.741745  60.2527  102.323  48.7344
  12010.603  12010.610  0.500  0.742031  60.2244  102.282  48.7014
  12012.481  12012.490  0.500  0.741483  60.1847  102.23  48.7031
  12014.379  12014.390  0.500  0.740319  60.164  102.198  48.7444
  12016.296  12016.310  0.500  0.739023  60.1409  102.163  48.7909
  12018.226  12018.250  0.500  0.737833  60.1213  102.138  48.8369
  12020.194  12020.210  0.500  0.736785  60.0772  102.07  48.8558
  12022.182  12022.180  0.500  0.735941  60.0512  102.036  48.8809
  12024.189  12024.180  0.500  0.735376  60.0282  102  48.8914
  12026.198  12026.190  0.500  0.735214  60.0137  101.977  48.888
  12028.206  12028.220  0.500  0.735062  59.9754  101.922  48.869
  12030.254  12030.280  0.500  0.734960  59.9568  101.893  48.8603
  12032.333  12032.350  0.500  0.734638  59.9293  101.864  48.862
  12034.432  12034.440  0.500  0.734071  59.8945  101.802  48.8602
  12036.558  12036.550  0.500  0.733240  59.8612  101.75  48.8757
  12038.690  12038.680  0.500  0.732032  59.8215  101.709  48.9149
  12040.823  12040.820  0.500  0.730694  59.7958  101.648  48.951
  12042.988  12042.990  0.500  0.729340  59.7502  101.59  48.9894
  12045.186  12045.180  0.500  0.728055  59.6517  101.424  48.9724
  12047.391  12047.380  0.500  0.727192  58.0793  98.7677  47.7309
  12049.615  12049.600  0.500  0.726345  59.2538  100.762  48.7361
  12051.853  12051.850  0.500  0.726086  59.5811  101.331  49.0241
  12054.099  12054.110  0.500  0.726310  59.5853  101.354  49.0238
  12056.376  12056.390  0.500  0.726780  59.5728  101.336  48.9923
  12058.693  12058.690  0.500  0.727405  59.5252  101.258  48.9239
  12061.010  12061.010  0.500  0.727984  59.5015  101.226  48.8803
  12063.342  12063.350  0.500  0.728663  59.4698  101.189  48.829
  12065.686  12065.700  0.500  0.728941  59.4372  101.139  48.7914
  12068.064  12068.080  0.500  0.729313  59.4041  101.092  48.7508
  12070.480  12070.470  0.500  0.729470  59.3719  101.04  48.7179
  12072.910  12072.890  0.500  0.729540  59.3466  101.004  48.697
  12075.322  12075.320  0.500  0.729611  59.3143  100.958  48.6716
  12077.766  12077.770  0.500  0.729385  59.2796  100.907  48.6578
  12080.238  12080.250  0.500  0.729178  59.2366  100.855  48.6429
  12082.729  12082.740  0.500  0.728750  59.2217  100.819  48.6465
  12085.253  12085.250  0.500  0.728541  59.1746  100.756  48.6263
  12087.778  12087.770  0.500  0.728475  59.1432  100.713  48.6088
  12090.323  12090.320  0.500  0.728441  59.0855  100.622  48.5663
  12092.895  12092.890  0.500  0.728405  58.9866  100.46  48.4899
  12095.455  12095.470  0.500  0.728234  59.0383  100.566  48.5491
  12098.074  12098.080  0.500  0.727578  59.0079  100.519  48.5585
  12100.719  12100.700  0.500  0.726583  58.9783  100.472  48.5839
  12103.365  12103.350  0.500  0.725138  58.9328  100.401  48.6199
  12106.019  12106.010  0.500  0.723529  58.9076  100.369  48.6828
  12108.687  12108.690  0.500  0.722135  58.8661  100.303  48.7187
  12111.414  12111.390  0.500  0.721060  58.8362  100.256  48.7481
  12114.123  12114.110  0.500  0.720379  58.7993  100.21  48.7589
  12116.852  12116.850  0.500  0.719783  58.7617  100.159  48.7634
  12119.595  12119.600  0.500  0.719403  58.7267  100.101  48.7536
  12122.378  12122.380  0.500  0.719121  58.6853  100.048  48.7412
  12125.181  12125.170  0.500  0.718913  58.6454  99.9764  48.7167
  12127.979  12127.990  0.500  0.718845  58.5073  99.7602  48.6146
  12130.836  12130.820  0.500  0.718905  58.5603  99.8616  48.6611
  12133.695  12133.670  0.500  0.719377  58.5467  99.8583  48.6365
  12136.568  12136.550  0.500  0.719916  58.5051  99.7922  48.5782
  12139.448  12139.440  0.500  0.720557  58.4684  99.7312  48.5174
  12142.362  12142.350  0.500  0.721280  58.4225  99.6682  48.4517
  12145.278  12145.270  0.500  0.721948  58.3835  99.6154  48.3936
  12148.208  12148.220  0.500  0.722444  58.3505  99.56  48.3428
  12151.203  12151.190  0.500  0.722594  58.3077  99.5073  48.3099
  12154.187  12154.170  0.500  0.722208  58.2592  99.4265  48.2894
  12157.186  12157.180  0.500  0.721454  58.2134  99.3649  48.2959
  12160.198  12160.200  0.500  0.720392  58.1717  99.2999  48.3155
  12163.284  12163.250  0.500  0.719070  58.0098  99.0316  48.2487
  12166.306  12166.310  0.500  0.717579  58.1085  99.212  48.4087
  12169.394  12169.390  0.500  0.715980  58.0602  99.1423  48.4521
  12172.523  12172.490  0.500  0.714455  58.0251  99.0945  48.5027
  12175.627  12175.610  0.500  0.713189  57.9733  99.0102  48.5228
  12178.759  12178.750  0.500  0.712461  57.9303  98.9391  48.5233
  12181.925  12181.900  0.500  0.711986  57.8893  98.8838  48.5192
  12185.106  12185.080  0.500  0.711882  57.8416  98.8208  48.4933
  12188.281  12188.270  0.500  0.711777  57.8038  98.7528  48.4651
  12191.510  12191.490  0.500  0.711668  57.7578  98.6876  48.4383
  12194.741  12194.720  0.500  0.711215  57.7122  98.6219  48.428
  12197.967  12197.970  0.500  0.710658  57.6671  98.5537  48.4215
  12201.279  12201.250  0.500  0.709981  57.4617  98.2173  48.2889
  12204.548  12204.540  0.500  0.709822  57.5894  98.4434  48.4078
  12207.844  12207.850  0.500  0.709837  57.5393  98.3802  48.3759
  12211.201  12211.170  0.500  0.710102  57.4997  98.3145  48.3308
  12214.553  12214.520  0.500  0.710331  57.4597  98.2497  48.2879
  12217.893  12217.890  0.500  0.710584  57.4159  98.1846  48.2437
  12221.308  12221.270  0.500  0.710706  57.3718  98.1249  48.2085
  12224.685  12224.680  0.500  0.710816  57.3311  98.066  48.1743
  12228.116  12228.100  0.500  0.710498  57.2827  98.0055  48.1598
  12231.568  12231.550  0.500  0.709805  57.2288  97.9151  48.1488
  12235.016  12235.010  0.500  0.708736  55.7945  95.4749  46.9991
  12238.505  12238.490  0.500  0.707417  57.0227  97.5934  48.1053
  12242.029  12241.990  0.500  0.706119  57.0518  97.6419  48.1918
  12245.516  12245.510  0.500  0.704802  57.0266  97.609  48.239
  12249.070  12249.050  0.500  0.703759  56.9726  97.536  48.2533
  12252.613  12252.600  0.500  0.703069  56.926  97.4644  48.2511
  12256.164  12256.180  0.500  0.702538  56.7118  97.1143  48.1033
  12259.784  12259.780  0.500  0.702042  56.8246  97.3078  48.2231
  12263.385  12263.390  0.500  0.701806  55.8093  95.5853  47.3806
  12267.048  12267.020  0.500  0.701240  56.6333  97.0049  48.1115
  12270.687  12270.680  0.500  0.700911  56.5144  96.8185  48.0349
  12274.341  12274.350  0.500  0.700392  56.6436  97.0562  48.1778
  12278.063  12278.040  0.500  0.699780  56.595  96.9737  48.1663
  12281.761  12281.750  0.500  0.699270  56.5283  96.8713  48.14
  12285.481  12285.480  0.500  0.698930  56.4607  96.7718  48.1069
  12289.230  12289.220  0.500  0.698765  55.8699  95.7637  47.6136
  12292.987  12292.990  0.500  0.698633  56.269  96.46  47.9661
  12296.780  12296.780  0.500  0.698584  56.4646  96.8117  48.1434
  12300.615  12300.580  0.500  0.698316  56.4294  96.7601  48.1307
  12304.412  12304.410  0.500  0.698113  56.3969  96.7276  48.1243
  12308.278  12308.250  0.500  0.697669  56.3498  96.6506  48.1073
  12312.107  12312.110  0.500  0.697187  56.3035  96.5694  48.09
  12315.998  12315.990  0.500  0.696721  56.2501  96.4922  48.074
  12319.897  12319.890  0.500  0.696245  55.2019  94.7076  47.2074
  12323.813  12323.810  0.500  0.695231  56.0251  96.1339  47.9669
  12327.764  12327.750  0.500  0.694345  56.0663  96.2297  48.0573
  12331.717  12331.710  0.500  0.693185  56.026  96.1629  48.0797
  12335.694  12335.680  0.500  0.692096  55.9831  96.1017  48.1014
  12339.692  12339.680  0.500  0.691054  55.9359  96.0273  48.1143
  12343.707  12343.690  0.500  0.690305  55.8871  95.9603  48.1167
  12347.750  12347.730  0.500  0.689649  55.8195  95.8585  48.0972
  12351.777  12351.780  0.500  0.689168  55.7858  95.8037  48.0929
  12355.873  12355.850  0.500  0.688853  55.6942  95.6661  48.0389
  12359.958  12359.940  0.500  0.688438  55.6778  95.6474  48.0494
  12364.079  12364.050  0.500  0.688144  55.4961  95.3439  47.9111
  12368.203  12368.180  0.500  0.687760  55.5771  95.5028  48.0093
  12372.329  12372.330  0.500  0.687492  55.4019  95.2134  47.8767
  12376.512  12376.490  0.500  0.687133  55.469  95.3359  47.9555
  12380.691  12380.680  0.500  0.686639  55.3999  95.229  47.9254
  12384.900  12384.880  0.500  0.686220  55.1483  94.81  47.7345
  12389.118  12389.110  0.500  0.685804  55.319  95.1127  47.9068
  12393.373  12393.350  0.500  0.685256  55.2596  95.0263  47.8896
  12397.630  12397.610  0.500  0.684690  55.2047  94.9464  47.8764
  12401.904  12401.890  0.500  0.684119  55.15  94.856  47.8581
  12406.201  12406.190  0.500  0.683386  55.0875  94.7626  47.8461
  12410.542  12410.510  0.500  0.682644  55.0169  94.6538  47.8266
  12414.858  12414.850  0.500  0.681927  54.9642  94.5725  47.8198
  12419.238  12419.210  0.500  0.681122  54.9152  94.5068  47.8251
  12423.601  12423.590  0.500  0.680287  54.848  94.4056  47.8137
  12428.028  12427.980  0.500  0.679512  54.7872  94.3103  47.8025
  12432.404  12432.400  0.500  0.678766  54.7176  94.2134  47.7891
  12436.864  12436.830  0.500  0.677829  54.1684  93.2775  47.3587
  12441.300  12441.280  0.500  0.677155  54.6417  94.1095  47.8133
  12445.774  12445.750  0.500  0.676450  54.5789  94.0056  47.7942
  12450.270  12450.240  0.500  0.675801  54.511  93.8959  47.7694
  12454.764  12454.750  0.500  0.675122  54.4479  93.8004  47.7532
  12459.314  12459.280  0.500  0.674625  54.3978  93.7325  47.7424
  12463.855  12463.830  0.500  0.674090  54.3394  93.6353  47.7184
  12468.433  12468.400  0.500  0.673665  54.1811  93.3827  47.6099
  12473.027  12472.980  0.500  0.673100  54.2171  93.4567  47.6746
  12477.605  12477.590  0.500  0.672593  54.1548  93.3638  47.6513
  12482.254  12482.210  0.500  0.672222  54.0689  93.2201  47.5956
  12486.880  12486.860  0.500  0.671677  53.8472  92.8642  47.4397
  12491.570  12491.520  0.500  0.671135  53.9943  93.1142  47.5933
  12496.236  12496.200  0.500  0.670586  53.928  93.0207  47.5716
  12500.933  12500.900  0.500  0.669951  53.8641  92.9199  47.5502
  12505.668  12505.620  0.500  0.669173  53.8005  92.8248  47.5386
  12510.407  12510.360  0.500  0.668620  53.7359  92.7265  47.5145
  12515.142  12515.110  0.500  0.667803  53.6721  92.6325  47.5051
  12519.943  12519.890  0.500  0.666960  53.6112  92.541  47.4982
  12524.719  12524.690  0.500  0.666193  53.553  92.4479  47.4868
  12529.541  12529.500  0.500  0.665362  53.4865  92.3485  47.4752
  12534.353  12534.330  0.500  0.664643  53.42  92.2509  47.4591
  12539.230  12539.190  0.500  0.663870  53.089  91.6899  47.207
  12544.117  12544.060  0.500  0.663039  53.315  92.0919  47.4534
  12548.982  12548.950  0.500  0.662259  53.2482  91.9872  47.4364
  12553.925  12553.860  0.500  0.661539  53.1809  91.8899  47.4204
  12558.818  12558.790  0.500  0.660838  53.115  91.7932  47.4037
  12563.790  12563.730  0.500  0.660083  53.0542  91.6937  47.3881
  12568.738  12568.700  0.500  0.659450  52.9939  91.5995  47.3694
  12573.739  12573.690  0.500  0.658778  52.9293  91.5031  47.3513
  12578.743  12578.690  0.500  0.658184  52.8607  91.3955  47.3237
  12583.745  12583.720  0.500  0.657560  52.8013  91.3006  47.3041
  12588.820  12588.760  0.500  0.657120  52.7349  91.2008  47.2732
  12593.844  12593.820  0.500  0.656621  52.6698  91.1058  47.2476
  12598.934  12598.900  0.500  0.656099  52.6058  91.006  47.2204
  12604.035  12604.000  0.500  0.655367  52.5403  90.9102  47.2053
  12609.168  12609.120  0.500  0.654844  52.48  90.8092  47.1775
  12614.292  12614.260  0.500  0.654119  52.4129  90.7105  47.1604
  12619.461  12619.420  0.500  0.653435  52.3382  90.6007  47.1355
  12624.656  12624.600  0.500  0.652602  52.2737  90.4942  47.1194
  12629.813  12629.790  0.500  0.651803  52.2109  90.4028  47.1094
  12635.044  12635.010  0.500  0.650950  52.1058  90.2305  47.0597
  12640.272  12640.240  0.500  0.650147  52.0703  90.1797  47.071
  12645.547  12645.490  0.500  0.649350  52.0219  90.1106  47.0725
  12650.812  12650.760  0.500  0.648604  51.9487  89.9999  47.0497
  12656.088  12656.050  0.500  0.647861  51.8851  89.9048  47.0349
  12661.411  12661.360  0.500  0.647051  51.8167  89.7993  47.0178
  12666.717  12666.690  0.500  0.646191  51.7474  89.6913  47.0017
  12672.070  12672.040  0.500  0.645461  51.6745  89.5865  46.981
  12677.442  12677.410  0.500  0.644735  51.6148  89.4935  46.9663
  12682.832  12682.790  0.500  0.644071  51.5414  89.3896  46.943
  12688.255  12688.200  0.500  0.643262  51.4738  89.2788  46.9227
  12693.654  12693.620  0.500  0.642603  51.4042  89.1734  46.8982
  12699.136  12699.070  0.500  0.641863  51.3411  89.0624  46.8745
  12704.580  12704.530  0.500  0.641250  51.2665  88.9574  46.848
  12710.064  12710.010  0.500  0.640584  51.1942  88.8456  46.8203
  12715.532  12715.510  0.500  0.639843  51.129  88.7352  46.7967
  12721.068  12721.030  0.500  0.639182  51.054  88.6275  46.7709
  12726.601  12726.570  0.500  0.638488  50.9794  88.5119  46.7423
  12732.168  12732.120  0.500  0.637783  50.9001  88.3806  46.7059
  12737.740  12737.700  0.500  0.637128  50.1101  87.0363  46.0256
  12743.380  12743.300  0.500  0.636354  50.7853  88.2141  46.6845
  12748.927  12748.910  0.500  0.635691  50.7123  88.1102  46.6605
  12754.591  12754.550  0.500  0.634802  50.6429  87.9871  46.6368
  12760.240  12760.200  0.500  0.634011  50.5663  87.8723  46.6127
  12765.915  12765.870  0.500  0.633233  50.4908  87.7677  46.5935
  12771.623  12771.560  0.500  0.632422  50.4197  87.6456  46.5664