File: xdidata/V/V-K-VanadiumFoil.xdi
# XDI/1.0 BlueSky/1.10.0 BMM/2023-1.0-py310-tiled
# Beamline.name: BMM (06BM) -- Beamline for Materials Measurement (NIST)
# Beamline.xray_source: NSLS-II three-pole wiggler
# Beamline.collimation: paraboloid mirror, 5 nm Rh on 30 nm Pt
# Beamline.focusing: not in use
# Beamline.harmonic_rejection: flat mirror, Si stripe, pitch = 7.0 mrad relative to beam
# Beamline.software: Bluesky 1.10.0, Ophyd 1.7.0, DataBroker 2.0.0b13, Python 3.10.8, 2023-1.0-py310-tiled
# Detector.I0: 10 cm N2
# Detector.I1: 25 cm N2
# Detector.I2: 25 cm N2
# Element.symbol: V
# Element.edge: K
# Element.reference: V
# Element.reference_material: V foil
# Facility.name: NSLS-II
# Facility.energy: 3.0
# Facility.current: 399.5
# Facility.mode: top-off
# Facility.GUP: 301027
# Facility.SAF: 310583
# Facility.cycle: 2023-2
# Mono.name: Si(111)
# Mono.d_spacing: 3.13519
# Mono.encoder_resolution: 0.0000050 deg/ct
# Mono.angle_offset: 16.0754 deg
# Mono.scan_mode: pseudo channel cut
# Mono.scan_type: step
# Mono.direction: forward in energy
# Sample.name: V foil
# Sample.prep: reference foil
# Sample.x: 109.138 mm
# Sample.y: 153.150 mm
# Sample.SDD_position: 205.000 mm
# Scan.experimenters: Bruce Ravel
# Scan.edge_energy: 5465.1
# Scan.start_time: 2023-05-28T11:05:17
# Scan.end_time: 2023-05-28T11:13:13
# Scan.transient_id: 78623
# Scan.uid: 846f2db3-3a51-4dd0-b1cf-2c907795b8d5
# Scan.plot_hint: ln(It/Ir)  --  ln($6/$7)
# Column.1: energy eV
# Column.2: requested_energy eV
# Column.3: measurement_time seconds
# Column.4: xmu
# Column.5: I0 nA
# Column.6: It nA
# Column.7: Ir nA
# ///////////
# standard reference foil
# -----------
# energy  requested_energy  measurement_time  xmu  I0  It  Ir
  5265.095  5265.100  0.500  2.574881  95.1737  34.0832  2.595871
  5275.113  5275.100  0.500  2.560243  95.9611  34.6758  2.679954
  5285.120  5285.100  0.500  2.545735  96.4059  35.1778  2.758483
  5295.110  5295.100  0.500  2.531405  97.4185  35.9038  2.856045
  5305.112  5305.100  0.500  2.516925  98.1415  36.5224  2.947630
  5315.112  5315.100  0.500  2.502703  98.8208  37.1103  3.037974
  5325.109  5325.100  0.500  2.488460  99.5084  37.7305  3.133056
  5335.109  5335.100  0.500  2.474670  100.195  38.3307  3.227091
  5345.106  5345.100  0.500  2.460569  100.86  38.9511  3.325892
  5355.115  5355.100  0.500  2.446843  101.36  39.5022  3.419567
  5365.108  5365.100  0.500  2.433282  102.034  40.1266  3.521049
  5375.109  5375.100  0.500  2.419519  102.67  40.7205  3.622679
  5385.104  5385.100  0.500  2.406275  103.323  41.3428  3.727072
  5395.106  5395.100  0.500  2.392881  104.031  41.9925  3.836691
  5405.109  5405.100  0.500  2.379811  102.394  41.6978  3.859891
  5415.109  5415.100  0.500  2.366823  105.154  43.2024  4.051440
  5425.106  5425.100  0.500  2.353938  105.646  43.7792  4.158779
  5435.110  5435.100  0.500  2.341513  106.256  44.4205  4.272456
  5437.102  5437.100  0.500  2.339077  106.369  44.5217  4.292633
  5439.107  5439.100  0.500  2.336696  106.516  44.6615  4.316378
  5441.110  5441.100  0.500  2.334455  106.627  44.7985  4.339323
  5443.107  5443.100  0.500  2.332127  106.712  44.916  4.360850
  5445.106  5445.100  0.500  2.329951  106.842  45.0114  4.379635
  5447.103  5447.100  0.500  2.327415  106.944  45.1612  4.405366
  5449.102  5449.100  0.500  2.325689  107.078  45.2668  4.423296
  5451.102  5451.100  0.500  2.323914  107.186  45.378  4.442035
  5453.103  5453.100  0.500  2.322431  107.321  45.5179  4.462345
  5455.103  5455.100  0.500  2.321184  107.433  45.646  4.480485
  5455.398  5455.400  0.500  2.321107  107.426  45.6477  4.480998
  5455.693  5455.700  0.500  2.320956  107.444  45.6877  4.485601
  5455.991  5456.000  0.500  2.321000  107.457  45.7321  4.489763
  5456.290  5456.300  0.500  2.320856  107.475  45.7252  4.489737
  5456.590  5456.600  0.500  2.320552  107.468  45.7157  4.490164
  5456.893  5456.900  0.500  2.320664  107.496  45.7441  4.492455
  5457.192  5457.200  0.500  2.320657  107.525  45.7859  4.496589
  5457.491  5457.500  0.500  2.320618  107.537  45.7925  4.497412
  5457.792  5457.800  0.500  2.320686  107.546  45.8224  4.500041
  5458.090  5458.100  0.500  2.320775  107.56  45.8108  4.498507
  5458.394  5458.400  0.500  2.320851  107.571  45.8219  4.499255
  5458.690  5458.700  0.500  2.320894  107.58  45.8634  4.503130
  5458.993  5459.000  0.500  2.321438  107.595  45.8961  4.503896
  5459.293  5459.300  0.500  2.321609  107.614  45.9254  4.506001
  5459.595  5459.600  0.500  2.321990  107.642  45.9118  4.502950
  5459.894  5459.900  0.500  2.322380  107.657  45.9232  4.502312
  5460.194  5460.200  0.500  2.322965  107.664  45.9396  4.501277
  5460.493  5460.500  0.500  2.323594  107.667  45.9473  4.499200
  5460.795  5460.800  0.500  2.324505  107.687  45.9977  4.500035
  5461.093  5461.100  0.500  2.325560  107.714  46.0188  4.497360
  5461.395  5461.400  0.500  2.326998  107.73  46.0096  4.490000
  5461.696  5461.700  0.500  2.328641  107.742  46.0269  4.484307
  5461.996  5462.000  0.500  2.330729  107.756  46.064  4.478568
  5462.299  5462.300  0.500  2.333456  107.783  46.084  4.468312
  5462.594  5462.600  0.500  2.337083  107.793  46.1097  4.454614
  5462.896  5462.900  0.500  2.342128  107.818  46.1473  4.435808
  5463.193  5463.200  0.500  2.349542  107.829  46.1349  4.401859
  5463.494  5463.500  0.500  2.360737  107.844  46.1653  4.355722
  5463.797  5463.800  0.500  2.379918  107.852  46.1764  4.274005
  5464.096  5464.100  0.500  2.413159  107.881  46.2092  4.137208
  5464.399  5464.400  0.500  2.469131  107.886  46.201  3.911297
  5464.699  5464.700  0.500  2.547085  107.914  46.2303  3.620276
  5464.996  5465.000  0.500  2.617194  107.929  46.2652  3.377703
  5465.297  5465.300  0.500  2.642522  107.936  46.2808  3.294342
  5465.597  5465.600  0.500  2.629597  107.935  46.2778  3.336981
  5465.896  5465.900  0.500  2.606392  107.965  46.3022  3.417117
  5466.201  5466.200  0.500  2.589035  107.972  46.3217  3.478410
  5466.498  5466.500  0.500  2.582827  107.984  46.3385  3.501344
  5466.798  5466.800  0.500  2.586378  107.994  46.3671  3.491084
  5467.100  5467.100  0.500  2.597806  108.008  46.368  3.451485
  5467.397  5467.400  0.500  2.614346  108.027  46.3979  3.397048
  5467.696  5467.700  0.500  2.632307  108.028  46.4109  3.337520
  5467.999  5468.000  0.500  2.650810  108.034  46.4258  3.277384
  5468.303  5468.300  0.500  2.670082  108.055  46.4458  3.216213
  5468.600  5468.600  0.500  2.689298  108.068  46.4374  3.154431
  5468.897  5468.900  0.500  2.706904  108.098  46.4672  3.101365
  5469.197  5469.200  0.500  2.721805  108.119  46.4941  3.057264
  5469.500  5469.500  0.500  2.734217  108.131  46.5128  3.020769
  5469.800  5469.800  0.500  2.743762  108.152  46.532  2.993307
  5470.098  5470.100  0.500  2.750700  108.159  46.552  2.973885
  5470.399  5470.400  0.500  2.755378  108.18  46.5524  2.960031
  5470.698  5470.700  0.500  2.758231  108.203  46.6053  2.954958
  5470.999  5471.000  0.500  2.760062  108.213  46.6118  2.949960
  5471.297  5471.300  0.500  2.761816  108.209  46.5841  2.943040
  5471.600  5471.600  0.500  2.764088  108.216  46.6008  2.937413
  5471.903  5471.900  0.500  2.768774  108.243  46.6395  2.926110
  5472.204  5472.200  0.500  2.776488  108.246  46.6661  2.905281
  5472.496  5472.500  0.500  2.789259  108.271  46.6961  2.870255
  5472.796  5472.800  0.500  2.806791  108.294  46.7311  2.822485
  5473.101  5473.100  0.500  2.828883  108.306  46.7908  2.764347
  5473.399  5473.400  0.500  2.853980  108.326  46.7493  2.693441
  5473.702  5473.700  0.500  2.880430  108.348  46.7666  2.624104
  5474.006  5474.000  0.500  2.905980  108.356  46.7533  2.557180
  5474.301  5474.300  0.500  2.929948  108.385  46.799  2.499057
  5474.601  5474.600  0.500  2.953183  108.388  46.8367  2.443628
  5474.900  5474.900  0.500  2.975006  108.398  46.8468  2.391396
  5475.199  5475.200  0.500  2.994728  108.421  46.869  2.345806
  5475.501  5475.500  0.500  3.012670  108.439  46.8874  2.304994
  5475.803  5475.800  0.500  3.030338  108.448  46.9167  2.266046
  5476.103  5476.100  0.500  3.046825  108.456  46.9323  2.229730
  5476.405  5476.400  0.500  3.062916  108.465  46.9379  2.194401
  5476.705  5476.700  0.500  3.078717  108.496  46.9668  2.161331
  5477.000  5477.000  0.500  3.094262  108.518  47.0028  2.129623
  5477.301  5477.300  0.500  3.110322  108.532  46.9825  2.094790
  5477.602  5477.600  0.500  3.125968  108.548  47.0181  2.063831
  5477.899  5477.900  0.500  3.140592  108.554  47.0271  2.034260
  5478.202  5478.200  0.500  3.155762  108.586  47.0408  2.004218
  5478.505  5478.500  0.500  3.170317  108.594  47.0644  1.976249
  5478.801  5478.800  0.500  3.184345  108.618  47.0932  1.949910
  5479.101  5479.100  0.500  3.197964  108.645  47.1141  1.924390
  5479.404  5479.400  0.500  3.211484  108.656  47.1244  1.898960
  5479.700  5479.700  0.500  3.225228  108.655  47.133  1.873380
  5479.999  5480.000  0.500  3.238723  108.648  47.148  1.848856
  5480.299  5480.300  0.500  3.251501  108.658  47.149  1.825423
  5480.601  5480.600  0.500  3.263908  108.672  47.1882  1.804412
  5480.904  5480.900  0.500  3.275884  108.695  47.2046  1.783551
  5481.200  5481.200  0.500  3.286491  108.726  47.2376  1.765968
  5481.503  5481.500  0.500  3.295893  108.727  47.2559  1.750120
  5481.805  5481.800  0.500  3.306042  108.769  47.2779  1.733256
  5482.100  5482.100  0.500  3.316179  108.772  47.3085  1.716883
  5482.400  5482.400  0.500  3.327349  108.775  47.3244  1.698383
  5482.697  5482.700  0.500  3.337690  108.79  47.2865  1.679565
  5483.003  5483.000  0.500  3.347419  108.823  47.325  1.664660
  5483.299  5483.300  0.500  3.354947  108.819  47.345  1.652872
  5483.606  5483.600  0.500  3.359119  108.835  47.3525  1.646250
  5483.900  5483.900  0.500  3.359195  108.853  47.3558  1.646240
  5484.201  5484.200  0.500  3.354967  108.869  47.3817  1.654118
  5484.497  5484.500  0.500  3.346866  108.891  47.418  1.668852
  5484.800  5484.800  0.500  3.335363  108.89  47.4414  1.688994
  5485.101  5485.100  0.500  3.321297  108.894  47.4485  1.713174
  5485.400  5485.400  0.500  3.306551  108.921  47.4707  1.739437
  5485.702  5485.700  0.500  3.290954  108.925  47.4867  1.767376
  5486.002  5486.000  0.500  3.274864  108.947  47.5007  1.796571
  5486.302  5486.300  0.500  3.260486  108.964  47.5035  1.822699
  5486.602  5486.600  0.500  3.247269  108.968  47.5414  1.848421
  5486.902  5486.900  0.500  3.235360  108.999  47.5922  1.872565
  5487.200  5487.200  0.500  3.225233  109.024  47.5934  1.891670
  5487.504  5487.500  0.500  3.217144  109.011  47.5961  1.907142
  5487.802  5487.800  0.500  3.211350  109.032  47.6012  1.918431
  5488.102  5488.100  0.500  3.207493  109.044  47.6266  1.926872
  5488.401  5488.400  0.500  3.205655  109.061  47.6573  1.931661
  5488.699  5488.700  0.500  3.205262  109.067  47.6745  1.933119
  5489.002  5489.000  0.500  3.207164  109.093  47.7087  1.930829
  5489.297  5489.300  0.500  3.209747  109.108  47.7176  1.926206
  5489.604  5489.600  0.500  3.214590  109.128  47.7228  1.917111
  5489.902  5489.900  0.500  3.219751  109.139  47.741  1.907970
  5490.104  5490.100  0.500  3.224067  109.165  47.7721  1.900989
  5491.106  5491.090  0.500  3.247675  109.217  47.8505  1.859682
  5492.086  5492.090  0.500  3.267770  109.488  47.9854  1.827827
  5493.103  5493.110  0.500  3.276513  109.558  48.0291  1.813563
  5494.159  5494.160  0.500  3.271184  109.611  48.0894  1.825542
  5495.219  5495.220  0.500  3.256846  109.655  48.1509  1.854273
  5496.303  5496.300  0.500  3.245152  109.711  48.2238  1.878927
  5497.401  5497.400  0.500  3.244608  109.754  48.3125  1.883407
  5498.527  5498.520  0.500  3.256175  109.811  48.3964  1.864981
  5499.664  5499.660  0.500  3.270444  109.875  48.463  1.841088
  5500.814  5500.810  0.500  3.282038  109.931  48.5455  1.822964
  5501.993  5501.990  0.500  3.290488  109.985  48.6156  1.810235
  5503.182  5503.180  0.500  3.297253  110.02  48.6588  1.799626
  5504.404  5504.400  0.500  3.299940  110.091  48.7084  1.796629
  5505.636  5505.630  0.500  3.301186  110.135  48.791  1.797433
  5506.884  5506.880  0.500  3.304662  110.215  48.8819  1.794533
  5508.150  5508.150  0.500  3.312849  110.278  48.9668  1.782992
  5509.446  5509.440  0.500  3.322160  110.343  49.0594  1.769808
  5510.754  5510.750  0.500  3.326235  110.409  49.1357  1.765352
  5512.088  5512.080  0.500  3.322971  110.446  49.2198  1.774157
  5513.434  5513.430  0.500  3.314764  110.514  49.2933  1.791450
  5514.807  5514.800  0.500  3.305957  110.555  49.381  1.810510
  5516.190  5516.180  0.500  3.297974  110.624  49.4591  1.827908
  5517.595  5517.590  0.500  3.288972  110.689  49.5429  1.847562
  5519.016  5519.010  0.500  3.276110  110.766  49.6252  1.874587
  5520.456  5520.450  0.500  3.258361  110.827  49.7104  1.911432
  5521.917  5521.910  0.500  3.238397  110.898  49.7964  1.953350
  5523.397  5523.390  0.500  3.217782  110.962  49.9023  1.998277
  5524.899  5524.890  0.500  3.199968  111.03  49.9904  2.037786
  5526.414  5526.410  0.500  3.184936  111.093  50.0545  2.071302
  5527.960  5527.950  0.500  3.171951  111.164  50.1592  2.102758
  5529.518  5529.510  0.500  3.161694  111.227  50.2666  2.128989
  5531.090  5531.080  0.500  3.156670  111.301  50.3526  2.143371
  5532.689  5532.680  0.500  3.160213  111.367  50.404  2.137972
  5534.305  5534.290  0.500  3.171158  111.423  50.5134  2.119286
  5535.941  5535.930  0.500  3.188412  111.464  50.5925  2.086296
  5537.592  5537.580  0.500  3.210179  111.532  50.6923  2.045404
  5539.260  5539.250  0.500  3.228974  111.602  50.8064  2.011836
  5540.950  5540.940  0.500  3.232192  111.681  50.918  2.009777
  5542.666  5542.650  0.500  3.219796  111.75  51.0138  2.038677
  5544.392  5544.380  0.500  3.199588  111.832  51.1253  2.084840
  5546.138  5546.130  0.500  3.177133  111.904  51.2388  2.136916
  5547.900  5547.890  0.500  3.153253  111.993  51.3296  2.192440
  5549.685  5549.680  0.500  3.129848  112.045  51.3952  2.247225
  5551.490  5551.480  0.500  3.112471  112.123  51.5078  2.291625
  5553.319  5553.310  0.500  3.109436  112.174  51.6232  2.303746
  5555.164  5555.150  0.500  3.124129  112.255  51.7472  2.275596
  5557.020  5557.010  0.500  3.153082  112.335  51.868  2.215816
  5558.899  5558.890  0.500  3.187722  112.396  51.9578  2.144079
  5560.801  5560.790  0.500  3.220571  112.488  52.0766  2.079534
  5562.717  5562.710  0.500  3.249099  112.547  52.1858  2.025287
  5564.657  5564.650  0.500  3.267766  112.643  52.3085  1.992505
  5566.617  5566.610  0.500  3.271768  112.679  52.4047  1.988199
  5568.589  5568.580  0.500  3.257669  112.74  52.493  2.019823
  5570.591  5570.580  0.500  3.230283  112.814  52.6066  2.080398
  5572.598  5572.590  0.500  3.196073  112.885  52.7309  2.157886
  5574.631  5574.620  0.500  3.160022  112.971  52.8378  2.241635
  5576.688  5576.680  0.500  3.128403  113.033  52.9831  2.320006
  5578.758  5578.750  0.500  3.105917  113.11  53.1158  2.378709
  5580.850  5580.840  0.500  3.094014  113.181  53.2083  2.411383
  5582.959  5582.950  0.500  3.090721  113.266  53.3555  2.426028
  5585.088  5585.080  0.500  3.091894  113.337  53.4864  2.429130
  5587.229  5587.220  0.500  3.092897  113.405  53.5966  2.431693
  5589.402  5589.390  0.500  3.088953  113.487  53.717  2.446786
  5591.588  5591.580  0.500  3.079379  113.568  53.8449  2.476208
  5593.791  5593.780  0.500  3.067102  113.624  53.9514  2.511757
  5596.011  5596.000  0.500  3.056627  113.703  54.0686  2.543717
  5598.259  5598.250  0.500  3.051174  113.746  54.1849  2.563124
  5600.522  5600.510  0.500  3.050477  113.854  54.3377  2.572146
  5602.797  5602.790  0.500  3.051821  113.896  54.4613  2.574535
  5605.098  5605.090  0.500  3.053795  113.962  54.6005  2.576024
  5607.419  5607.410  0.500  3.058298  114.05  54.7397  2.570990
  5609.758  5609.750  0.500  3.066103  114.135  54.8556  2.556403
  5612.107  5612.100  0.500  3.072365  114.209  55.0168  2.547911
  5614.489  5614.480  0.500  3.074851  114.277  55.1085  2.545823
  5616.876  5616.870  0.500  3.077553  114.343  55.244  2.545192
  5619.298  5619.290  0.500  3.085595  114.435  55.4017  2.532014
  5621.724  5621.720  0.500  3.098417  114.493  55.5423  2.506101
  5624.174  5624.170  0.500  3.111157  114.559  55.6736  2.480227
  5626.653  5626.650  0.500  3.114098  114.628  55.7838  2.477836
  5629.147  5629.140  0.500  3.104842  114.705  55.9032  2.506229
  5631.657  5631.650  0.500  3.087014  114.769  56.0751  2.559158
  5634.177  5634.170  0.500  3.066251  114.838  56.2231  2.619743
  5636.726  5636.720  0.500  3.046447  114.896  56.3515  2.678246
  5639.294  5639.290  0.500  3.029228  114.972  56.4976  2.731827
  5641.870  5641.870  0.500  3.015747  115.042  56.6424  2.775997
  5644.481  5644.480  0.500  3.006301  115.109  56.7886  2.809578
  5647.102  5647.100  0.500  2.999183  115.181  56.9293  2.836661
  5649.755  5649.750  0.500  2.992300  115.259  57.0847  2.864047
  5652.415  5652.410  0.500  2.984713  115.304  57.2114  2.892265
  5655.094  5655.090  0.500  2.977047  115.38  57.3408  2.921115
  5657.795  5657.790  0.500  2.969952  115.444  57.4877  2.949453
  5660.514  5660.510  0.500  2.963741  115.499  57.6372  2.975546
  5663.253  5663.250  0.500  2.955879  115.57  57.7863  3.006786
  5666.004  5666.000  0.500  2.945164  115.621  57.9388  3.047197
  5668.782  5668.780  0.500  2.934693  115.679  58.0835  3.086970
  5671.573  5671.570  0.500  2.928161  115.737  58.2081  3.113863
  5674.392  5674.390  0.500  2.927288  115.762  58.3087  3.121968
  5677.224  5677.220  0.500  2.931057  115.802  58.4475  3.117627
  5680.076  5680.070  0.500  2.936349  115.86  58.6016  3.109350
  5682.953  5682.950  0.500  2.942581  115.914  58.7483  3.097763
  5685.842  5685.840  0.500  2.949196  115.922  58.8821  3.084352
  5688.753  5688.750  0.500  2.956338  115.948  59.0147  3.069296
  5691.676  5691.670  0.500  2.962855  115.983  59.1586  3.056794
  5694.624  5694.620  0.500  2.966939  116.039  59.3059  3.051919
  5697.593  5697.590  0.500  2.966907  116.068  59.4781  3.060874
  5700.574  5700.570  0.500  2.960286  116.116  59.6218  3.088651
  5703.582  5703.580  0.500  2.947235  116.145  59.7708  3.137045
  5706.606  5706.600  0.500  2.929294  116.191  59.9209  3.201860
  5709.656  5709.650  0.500  2.910838  116.25  60.0946  3.270955
  5712.713  5712.710  0.500  2.896304  116.298  60.2487  3.327354
  5715.795  5715.790  0.500  2.887604  116.32  60.3889  3.364238
  5718.899  5718.890  0.500  2.881781  116.349  60.5203  3.391250
  5722.017  5722.010  0.500  2.876227  116.371  60.6615  3.418093
  5725.152  5725.150  0.500  2.869281  116.39  60.799  3.449717
  5728.304  5728.300  0.500  2.862190  116.393  60.9579  3.483346
  5731.486  5731.480  0.500  2.855990  116.298  61.036  3.509499
  5734.674  5734.670  0.500  2.852329  116.364  61.2049  3.532121
  5737.895  5737.890  0.500  2.848512  116.352  61.3223  3.552428
  5741.127  5741.120  0.500  2.843744  116.368  61.4712  3.578073
  5744.377  5744.370  0.500  2.837199  116.365  61.6046  3.609384
  5747.655  5747.650  0.500  2.829057  116.359  61.7433  3.647085
  5750.949  5750.940  0.500  2.822250  116.343  61.8674  3.679379
  5754.253  5754.250  0.500  2.817510  116.328  62.0069  3.705193
  5757.579  5757.570  0.500  2.813596  116.332  62.1534  3.728515
  5760.946  5760.920  0.500  2.811654  116.289  62.2758  3.743121
  5764.316  5764.290  0.500  2.811500  116.21  62.3938  3.750786
  5767.700  5767.670  0.500  2.811991  116.184  62.4955  3.755057
  5771.103  5771.080  0.500  2.811619  116.139  62.6138  3.763563
  5774.504  5774.500  0.500  2.810005  116.098  62.7329  3.776818
  5777.974  5777.950  0.500  2.807706  116.052  62.8476  3.792429
  5781.403  5781.410  0.500  2.804599  116.01  62.9565  3.810825
  5784.911  5784.890  0.500  2.799595  115.953  63.0977  3.838530
  5788.395  5788.390  0.500  2.793128  115.909  63.2111  3.870374
  5791.918  5791.910  0.500  2.785713  115.835  63.2928  3.904219
  5795.438  5795.450  0.500  2.778807  115.765  63.4272  3.939627
  5798.992  5799.000  0.500  2.771235  115.71  63.5595  3.977846
  5802.571  5802.580  0.500  2.762429  115.649  63.6764  4.020416
  5806.204  5806.180  0.500  2.752654  115.566  63.7773  4.066342
  5809.796  5809.790  0.500  2.743886  115.48  63.894  4.109656
  5813.405  5813.420  0.500  2.737121  115.386  63.9995  4.144384
  5817.088  5817.080  0.500  2.731652  115.286  64.099  4.173593
  5820.761  5820.750  0.500  2.726870  115.204  64.1928  4.199738
  5824.466  5824.440  0.500  2.721758  115.103  64.3177  4.229471
  5828.163  5828.150  0.500  2.716265  115.01  64.4174  4.259361
  5831.877  5831.880  0.500  2.710571  114.898  64.469  4.287115
  5835.624  5835.620  0.500  2.705372  114.789  64.533  4.313740
  5839.380  5839.390  0.500  2.700863  114.646  64.6253  4.339427
  5843.190  5843.180  0.500  2.696638  114.532  64.7082  4.363393
  5847.000  5846.980  0.500  2.691848  114.397  64.812  4.391374
  5850.832  5850.810  0.500  2.686970  114.252  64.8944  4.418463
  5854.674  5854.650  0.500  2.681744  114.073  64.9358  4.444449
  5858.523  5858.510  0.500  2.676309  113.879  64.9777  4.471553
  5862.375  5862.390  0.500  2.671609  113.646  65.0243  4.495834
  5866.314  5866.290  0.500  2.667927  113.23  64.9524  4.507429
  5870.221  5870.210  0.500  2.664996  111.986  64.3725  4.480302
  5874.148  5874.150  0.500  2.661678  88.0423  50.7213  3.541915
  5878.113  5878.110  0.500  2.656832  114.289  66.0464  4.634486
  5882.088  5882.080  0.500  2.651373  113.922  65.9786  4.655072
  5886.105  5886.080  0.500  2.644708  113.612  65.97  4.685593
  5890.113  5890.090  0.500  2.637958  113.582  66.0953  4.726288
  5894.118  5894.130  0.500  2.631487  113.431  66.1679  4.762193
  5898.170  5898.180  0.500  2.625358  113.164  66.1656  4.791305
  5902.242  5902.250  0.500  2.619772  112.852  66.1792  4.819136
  5906.366  5906.340  0.500  2.614187  112.451  66.1147  4.841403
  5910.463  5910.450  0.500  2.608186  111.802  65.8706  4.852561
  5914.577  5914.580  0.500  2.601988  109.32  64.5895  4.787760
  5918.718  5918.730  0.500  2.595902  112.1  66.4218  4.953644
  5922.871  5922.890  0.500  2.590783  112.663  66.9479  5.018502
  5927.064  5927.080  0.500  2.585803  111.655  66.5109  5.010636
  5931.290  5931.280  0.500  2.580181  102.923  61.4693  4.656935
  5935.496  5935.510  0.500  2.575221  111.877  66.9439  5.096906
  5939.740  5939.750  0.500  2.569393  110.778  66.4538  5.089166
  5943.991  5944.010  0.500  2.563520  104.848  63.0655  4.858130
  5948.290  5948.290  0.500  2.557154  111.995  67.5145  5.234069
  5952.572  5952.590  0.500  2.551363  111.314  67.2747  5.245767
  5956.897  5956.910  0.500  2.545643  110.729  67.0873  5.261158
  5961.236  5961.250  0.500  2.539967  110.225  66.9576  5.280884
  5965.594  5965.610  0.500  2.534959  109.747  66.8971  5.302597
  5969.973  5969.990  0.500  2.530155  109.274  66.7639  5.317518
  5974.368  5974.380  0.500  2.525577  108.789  66.6186  5.330292
  5978.787  5978.800  0.500  2.520639  108.204  66.4155  5.340356
  5983.215  5983.230  0.500  2.515683  107.418  66.1004  5.341421
  5987.674  5987.680  0.500  2.510409  105.291  64.9678  5.277663
  5992.131  5992.150  0.500  2.504980  107.368  66.4602  5.428291
  5996.627  5996.640  0.500  2.499333  107.608  66.7664  5.484179
  6001.135  6001.150  0.500  2.493663  106.823  66.4176  5.486551
  6005.666  6005.680  0.500  2.487793  106.162  66.1853  5.499546
  6010.213  6010.230  0.500  2.481835  105.59  65.9944  5.516451
  6014.785  6014.800  0.500  2.475657  104.995  65.7876  5.533243
  6019.363  6019.380  0.500  2.469938  104.424  65.6089  5.549865
  6023.978  6023.990  0.500  2.464189  103.842  65.4449  5.567908
  6028.591  6028.610  0.500  2.458637  103.257  65.2337  5.580839
  6033.253  6033.260  0.500  2.452743  102.629  65.0241  5.595796
  6037.903  6037.920  0.500  2.447150  102.011  64.797  5.607526
  6042.583  6042.600  0.500  2.441622  101.376  64.5402  5.616260
  6047.288  6047.300  0.500  2.435971  100.742  64.2905  5.626238
  6052.006  6052.020  0.500  2.430314  100.057  64.0311  5.635323
  6056.748  6056.760  0.500  2.424225  99.2618  63.6927  5.639782
  6061.497  6061.510  0.500  2.418614  98.4339  63.3385  5.639967
  6066.276  6066.290  0.500  2.412968  97.6887  63.0367  5.644884
  6071.072  6071.090  0.500  2.407143  97.0038  62.7702  5.653853
  6075.884  6075.900  0.500  2.401493  96.3075  62.4955  5.661003
  6080.713  6080.730  0.500  2.395835  95.6065  62.1804  5.664420
  6085.575  6085.590  0.500  2.390379  94.8451  61.8634  5.666377
  6090.442  6090.460  0.500  2.384934  94.1177  61.5658  5.669905
  6095.336  6095.350  0.500  2.379344  93.3993  61.2389  5.671418
  6100.265  6100.260  0.500  2.373884  92.6481  60.9009  5.670989
  6105.176  6105.190  0.500  2.368435  91.8849  60.5652  5.670547
  6110.117  6110.130  0.500  2.363075  91.0655  60.185  5.665234
  6115.088  6115.100  0.500  2.357803  90.341  59.8536  5.663821
  6120.074  6120.090  0.500  2.352382  89.558  59.4859  5.659621
  6125.074  6125.090  0.500  2.346808  88.7506  59.114  5.655672
  6130.107  6130.120  0.500  2.341324  87.9129  58.7182  5.648705
  6135.144  6135.160  0.500  2.335751  87.0797  58.3174  5.641503
  6140.207  6140.220  0.500  2.330069  86.1804  57.8941  5.632457
  6145.283  6145.300  0.500  2.324214  85.2701  57.4444  5.621525
  6150.386  6150.400  0.500  2.318689  84.2667  56.893  5.598412
  6155.511  6155.520  0.500  2.312872  82.9942  56.1819  5.560693
  6160.646  6160.660  0.500  2.306813  78.2303  53.1055  5.288152
  6165.812  6165.820  0.500  2.301327  80.6694  54.9111  5.498025
  6170.984  6171.000  0.500  2.295542  82.1251  56.0405  5.643663
  6176.174  6176.190  0.500  2.289933  80.5346  55.0996  5.580110
  6181.406  6181.410  0.500  2.284000  79.4418  54.507  5.552953
  6186.625  6186.640  0.500  2.278394  78.3979  53.9252  5.524567
  6191.874  6191.890  0.500  2.272682  77.3782  53.3796  5.499992
  6197.152  6197.160  0.500  2.266882  76.3056  52.766  5.468389
  6202.437  6202.450  0.500  2.261271  75.2696  52.1969  5.439846
  6207.746  6207.760  0.500  2.255616  74.2005  51.5786  5.405906
  6213.074  6213.090  0.500  2.249926  73.1315  50.9847  5.374139
  6218.425  6218.440  0.500  2.244232  72.0248  50.3519  5.337755
  6223.803  6223.810  0.500  2.238591  70.9601  49.7273  5.301359
  6229.175  6229.190  0.500  2.232976  69.8838  49.1032  5.264298
  6234.586  6234.600  0.500  2.227285  68.8133  48.4896  5.228187
  6240.012  6240.020  0.500  2.221879  67.7201  47.8553  5.187763
  6245.453  6245.470  0.500  2.216365  66.6278  47.2051  5.145580
  6250.915  6250.930  0.500  2.210670  65.5551  46.573  5.105663
  6256.404  6256.410  0.500  2.205031  64.4746  45.9224  5.062813
  6261.900  6261.910  0.500  2.199590  63.421  45.2973  5.021148
  6267.416  6267.430  0.500  2.194181  62.3542  44.654  4.976683
  6272.963  6272.970  0.500  2.188504  61.3047  44.0232  4.934302
  6278.506  6278.520  0.500  2.182740  60.3148  43.4134  4.894085
  6284.091  6284.100  0.500  2.177059  59.3199  42.8149  4.854122
  6289.698  6289.700  0.500  2.171532  58.3169  42.2077  4.811800
  6295.298  6295.310  0.500  2.165772  57.3222  41.5962  4.769481
  6300.935  6300.950  0.500  2.160199  56.3342  40.9772  4.724757
  6306.593  6306.600  0.500  2.154491  55.4272  40.4272  4.688031
  6312.261  6312.270  0.500  2.148708  54.4648  39.8335  4.645971
  6317.946  6317.960  0.500  2.143052  53.599  39.3129  4.611262