File: xdidata/V/V-V2O3.xdi
# XDI/1.0 BlueSky/1.10.0 BMM/2023-1.0-py310-tiled
# Beamline.name: BMM (06BM) -- Beamline for Materials Measurement (NIST)
# Beamline.xray_source: NSLS-II three-pole wiggler
# Beamline.collimation: paraboloid mirror, 5 nm Rh on 30 nm Pt
# Beamline.focusing: not in use
# Beamline.harmonic_rejection: flat mirror, Si stripe, pitch = 7.0 mrad relative to beam
# Beamline.software: Bluesky 1.10.0, Ophyd 1.7.0, DataBroker 2.0.0b13, Python 3.10.8, 2023-1.0-py310-tiled
# Detector.I0: 10 cm N2
# Detector.I1: 25 cm N2
# Detector.I2: 25 cm N2
# Element.symbol: V
# Element.edge: K
# Element.reference: V
# Element.reference_material: V foil
# Facility.name: NSLS-II
# Facility.energy: 3.0
# Facility.current: 399.6
# Facility.mode: top-off
# Facility.GUP: 123456
# Facility.SAF: 301027
# Facility.cycle: 2023-2
# Mono.name: Si(111)
# Mono.d_spacing: 3.13519
# Mono.encoder_resolution: 0.0000050 deg/ct
# Mono.angle_offset: 16.0754 deg
# Mono.scan_mode: pseudo channel cut
# Mono.scan_type: step
# Mono.direction: forward in energy
# Sample.name: V2O3
# Sample.prep: Powder in PEG pellet
# Sample.x: 116.329 mm
# Sample.y: 114.126 mm
# Sample.SDD_position: 205.000 mm
# Scan.experimenters: Bruce Ravel
# Scan.edge_energy: 5465.1
# Scan.start_time: 2023-05-06T09:27:35
# Scan.end_time: 2023-05-06T09:34:52
# Scan.transient_id: 74684
# Scan.uid: bc28412b-8b8f-4657-88c1-113d98efd6cd
# Scan.plot_hint: ln(I0/It)  --  ln($5/$6)
# Column.1: energy eV
# Column.2: requested_energy eV
# Column.3: measurement_time seconds
# Column.4: xmu
# Column.5: I0 nA
# Column.6: It nA
# Column.7: Ir nA
# ///////////
# Sigma Aldrich; Vanadium (III) oxide; 463744-5G; Lot 0000089530
# -----------
# energy  requested_energy  measurement_time  xmu  I0  It  Ir
  5265.106  5265.100  0.500  3.781689  98.8674  2.252613  0.348433
  5275.110  5275.100  0.500  3.756149  99.6312  2.328737  0.363933
  5285.104  5285.100  0.500  3.731657  100.018  2.395732  0.378448
  5295.112  5295.100  0.500  3.708143  100.713  2.469794  0.394398
  5305.111  5305.100  0.500  3.683493  101.317  2.546594  0.410570
  5315.110  5315.100  0.500  3.658864  101.898  2.625083  0.427837
  5325.110  5325.100  0.500  3.634653  102.454  2.704078  0.445466
  5335.108  5335.100  0.500  3.610266  102.992  2.785391  0.463323
  5345.111  5345.100  0.500  3.586062  103.509  2.867944  0.481772
  5355.090  5355.100  0.500  3.562801  104.066  2.951251  0.501025
  5365.090  5365.100  0.500  3.540455  104.548  3.031901  0.519772
  5375.093  5375.100  0.500  3.517605  105.077  3.117681  0.539820
  5385.099  5385.100  0.500  3.494447  105.604  3.206707  0.560846
  5395.097  5395.100  0.500  3.471873  106.157  3.297103  0.581979
  5405.095  5405.100  0.500  3.449178  103.835  3.299033  0.588145
  5415.095  5415.100  0.500  3.426944  106.935  3.473901  0.624828
  5425.096  5425.100  0.500  3.404574  107.278  3.563871  0.647165
  5435.097  5435.100  0.500  3.382780  107.668  3.655635  0.669918
  5437.096  5437.100  0.500  3.378073  107.756  3.675907  0.674540
  5439.093  5439.100  0.500  3.374003  108.066  3.701512  0.680172
  5441.091  5441.100  0.500  3.370069  108.229  3.721689  0.684996
  5443.099  5443.100  0.500  3.366460  108.286  3.737110  0.689206
  5445.098  5445.100  0.500  3.362540  108.366  3.754586  0.693402
  5447.098  5447.100  0.500  3.357871  108.441  3.774771  0.698033
  5449.092  5449.100  0.500  3.354274  108.508  3.790689  0.701990
  5451.093  5451.100  0.500  3.351009  108.591  3.805989  0.705392
  5453.096  5453.100  0.500  3.347123  108.658  3.823162  0.709539
  5455.096  5455.100  0.500  3.343654  108.731  3.839043  0.712527
  5455.391  5455.400  0.500  3.343446  108.746  3.840361  0.713047
  5455.691  5455.700  0.500  3.343162  108.745  3.841426  0.713100
  5455.990  5456.000  0.500  3.342350  108.758  3.845015  0.714017
  5456.293  5456.300  0.500  3.341354  108.738  3.848139  0.714433
  5456.590  5456.600  0.500  3.341052  108.77  3.850425  0.714873
  5456.893  5456.900  0.500  3.340359  108.766  3.852941  0.715386
  5457.193  5457.200  0.500  3.340272  108.763  3.853187  0.715288
  5457.489  5457.500  0.500  3.339601  108.776  3.856228  0.715508
  5457.792  5457.800  0.500  3.339422  108.797  3.857673  0.715653
  5458.092  5458.100  0.500  3.338851  108.8  3.859965  0.715969
  5458.392  5458.400  0.500  3.338417  108.806  3.861847  0.716172
  5458.692  5458.700  0.500  3.338121  108.817  3.863390  0.716446
  5458.993  5459.000  0.500  3.337503  108.828  3.866171  0.716663
  5459.293  5459.300  0.500  3.337072  108.831  3.867958  0.716600
  5459.595  5459.600  0.500  3.336725  108.823  3.869021  0.716456
  5459.892  5459.900  0.500  3.337040  108.844  3.868534  0.715996
  5460.194  5460.200  0.500  3.336743  108.853  3.869993  0.715694
  5460.493  5460.500  0.500  3.336191  108.838  3.871618  0.715297
  5460.793  5460.800  0.500  3.336115  108.864  3.872834  0.714667
  5461.093  5461.100  0.500  3.336467  108.876  3.871887  0.713477
  5461.395  5461.400  0.500  3.336625  108.879  3.871370  0.712237
  5461.698  5461.700  0.500  3.336123  108.858  3.872572  0.711000
  5461.998  5462.000  0.500  3.336421  108.896  3.872797  0.709116
  5462.294  5462.300  0.500  3.336665  108.909  3.872285  0.706460
  5462.596  5462.600  0.500  3.336791  108.931  3.872594  0.703145
  5462.895  5462.900  0.500  3.337114  108.915  3.870787  0.698059
  5463.198  5463.200  0.500  3.336860  108.907  3.871471  0.690779
  5463.495  5463.500  0.500  3.337656  108.921  3.868877  0.678981
  5463.800  5463.800  0.500  3.339231  108.947  3.863728  0.658019
  5464.097  5464.100  0.500  3.341105  108.966  3.857148  0.623432
  5464.401  5464.400  0.500  3.344300  108.977  3.845250  0.577664
  5464.696  5464.700  0.500  3.349055  108.97  3.826745  0.535587
  5464.995  5465.000  0.500  3.355670  108.978  3.801817  0.514820
  5465.297  5465.300  0.500  3.362383  108.969  3.776073  0.516109
  5465.597  5465.600  0.500  3.366650  108.993  3.760823  0.525575
  5465.898  5465.900  0.500  3.371873  108.992  3.741183  0.532015
  5466.203  5466.200  0.500  3.382379  109.008  3.702621  0.530508
  5466.499  5466.500  0.500  3.396141  109.008  3.652009  0.522179
  5466.798  5466.800  0.500  3.409200  108.999  3.604354  0.509957
  5467.096  5467.100  0.500  3.418070  109.01  3.572887  0.498001
  5467.402  5467.400  0.500  3.424042  109.02  3.551919  0.486010
  5467.701  5467.700  0.500  3.431283  109.023  3.526399  0.474434
  5468.001  5468.000  0.500  3.441117  109.021  3.491823  0.461127
  5468.299  5468.300  0.500  3.454784  109.04  3.445028  0.446667
  5468.600  5468.600  0.500  3.469338  109.025  3.394771  0.432564
  5468.899  5468.900  0.500  3.481883  109.039  3.352900  0.420595
  5469.198  5469.200  0.500  3.491064  109.058  3.322835  0.411857
  5469.499  5469.500  0.500  3.496579  109.061  3.304643  0.405524
  5469.800  5469.800  0.500  3.492902  109.065  3.316925  0.404129
  5470.100  5470.100  0.500  3.482864  109.073  3.350650  0.406272
  5470.400  5470.400  0.500  3.471530  109.078  3.389003  0.409782
  5470.699  5470.700  0.500  3.462222  109.07  3.420425  0.412820
  5471.001  5471.000  0.500  3.456968  109.078  3.438690  0.414413
  5471.300  5471.300  0.500  3.454860  109.084  3.446145  0.414191
  5471.601  5471.600  0.500  3.454981  109.092  3.445975  0.412737
  5471.897  5471.900  0.500  3.457404  109.106  3.438075  0.408863
  5472.199  5472.200  0.500  3.462591  109.085  3.419645  0.401880
  5472.497  5472.500  0.500  3.469559  109.107  3.396591  0.392703
  5472.801  5472.800  0.500  3.478192  109.115  3.367620  0.381570
  5473.100  5473.100  0.500  3.489862  109.125  3.328870  0.368541
  5473.400  5473.400  0.500  3.504761  109.111  3.279226  0.353698
  5473.702  5473.700  0.500  3.523024  109.134  3.220562  0.338819
  5473.996  5474.000  0.500  3.543549  109.135  3.155163  0.324283
  5474.297  5474.300  0.500  3.566297  109.129  3.084016  0.310410
  5474.599  5474.600  0.500  3.590771  109.129  3.009467  0.296434
  5474.902  5474.900  0.500  3.616724  109.138  2.932606  0.283290
  5475.202  5475.200  0.500  3.641107  109.166  2.862688  0.271749
  5475.498  5475.500  0.500  3.663956  109.147  2.797529  0.261321
  5475.799  5475.800  0.500  3.685769  109.149  2.737233  0.251530
  5476.101  5476.100  0.500  3.706973  109.165  2.680183  0.242346
  5476.399  5476.400  0.500  3.726966  109.183  2.627560  0.234181
  5476.703  5476.700  0.500  3.745704  109.187  2.578889  0.226472
  5477.005  5477.000  0.500  3.764255  109.186  2.531475  0.218728
  5477.301  5477.300  0.500  3.781520  109.198  2.488407  0.211825
  5477.602  5477.600  0.500  3.797728  109.211  2.448703  0.205532
  5477.901  5477.900  0.500  3.812985  109.212  2.411643  0.199840
  5478.202  5478.200  0.500  3.828167  109.216  2.375395  0.193901
  5478.501  5478.500  0.500  3.844370  109.228  2.337470  0.188187
  5478.801  5478.800  0.500  3.859779  109.223  2.301608  0.183017
  5479.103  5479.100  0.500  3.875708  109.22  2.265178  0.177658
  5479.403  5479.400  0.500  3.892421  109.235  2.227938  0.172739
  5479.701  5479.700  0.500  3.909251  109.238  2.190826  0.167645
  5480.002  5480.000  0.500  3.927657  109.231  2.150725  0.162576
  5480.300  5480.300  0.500  3.945909  109.225  2.111724  0.157558
  5480.598  5480.600  0.500  3.963397  109.256  2.075699  0.153397
  5480.901  5480.900  0.500  3.980298  109.239  2.040585  0.149146
  5481.203  5481.200  0.500  3.994919  109.268  2.011504  0.145623
  5481.505  5481.500  0.500  4.008466  109.281  1.984684  0.142359
  5481.806  5481.800  0.500  4.019909  109.289  1.962246  0.139255
  5482.101  5482.100  0.500  4.030680  109.294  1.941310  0.136410
  5482.399  5482.400  0.500  4.040065  109.286  1.923035  0.133626
  5482.701  5482.700  0.500  4.048386  109.305  1.907425  0.131398
  5483.000  5483.000  0.500  4.055485  109.32  1.894203  0.129639
  5483.300  5483.300  0.500  4.061681  109.342  1.882875  0.128320
  5483.603  5483.600  0.500  4.067578  109.328  1.871568  0.127294
  5483.901  5483.900  0.500  4.073427  109.343  1.860913  0.127067
  5484.202  5484.200  0.500  4.078801  109.356  1.851159  0.127215
  5484.503  5484.500  0.500  4.083898  109.355  1.841716  0.127994
  5484.799  5484.800  0.500  4.089444  109.372  1.831828  0.128938
  5485.098  5485.100  0.500  4.094405  109.378  1.822857  0.130014
  5485.399  5485.400  0.500  4.100135  109.385  1.812552  0.131140
  5485.697  5485.700  0.500  4.105216  109.364  1.803021  0.132382
  5485.999  5486.000  0.500  4.110976  109.39  1.793100  0.133431
  5486.299  5486.300  0.500  4.115568  109.409  1.785194  0.134627
  5486.602  5486.600  0.500  4.119345  109.427  1.778753  0.135705
  5486.900  5486.900  0.500  4.122344  109.428  1.773444  0.136643
  5487.199  5487.200  0.500  4.123527  109.439  1.771523  0.137277
  5487.497  5487.500  0.500  4.123760  109.445  1.771205  0.138196
  5487.799  5487.800  0.500  4.122292  109.448  1.773859  0.138923
  5488.098  5488.100  0.500  4.119993  109.448  1.777948  0.139389
  5488.401  5488.400  0.500  4.116199  109.466  1.784989  0.139935
  5488.702  5488.700  0.500  4.111531  109.485  1.793660  0.140524
  5489.001  5489.000  0.500  4.107365  109.472  1.800926  0.140739
  5489.299  5489.300  0.500  4.101518  109.487  1.811734  0.140994
  5489.599  5489.600  0.500  4.094167  109.492  1.825182  0.141369
  5489.898  5489.900  0.500  4.087415  109.502  1.837725  0.141318
  5490.098  5490.100  0.500  4.082348  109.512  1.847231  0.141619
  5491.101  5491.090  0.500  4.058465  109.534  1.892261  0.141873
  5492.103  5492.090  0.500  4.036494  109.543  1.934453  0.142618
  5493.106  5493.110  0.500  4.018795  109.565  1.969380  0.144364
  5494.158  5494.160  0.500  4.006142  109.576  1.994663  0.147528
  5495.221  5495.220  0.500  4.001696  109.601  2.004017  0.149908
  5496.304  5496.300  0.500  4.004140  110.034  2.007021  0.151693
  5497.404  5497.400  0.500  4.012917  110.063  1.989995  0.149910
  5498.530  5498.520  0.500  4.022407  110.086  1.971625  0.146717
  5499.669  5499.660  0.500  4.027650  110.08  1.961193  0.143798
  5500.819  5500.810  0.500  4.024522  110.119  1.968051  0.143097
  5501.992  5501.990  0.500  4.013840  110.143  1.989618  0.143450
  5503.185  5503.180  0.500  3.995697  110.161  2.026363  0.145145
  5504.406  5504.400  0.500  3.974733  110.131  2.068744  0.147884
  5505.636  5505.630  0.500  3.954423  110.183  2.112176  0.150946
  5506.882  5506.880  0.500  3.936629  110.225  2.150923  0.152895
  5508.154  5508.150  0.500  3.921926  110.246  2.183203  0.153984
  5509.444  5509.440  0.500  3.911791  110.286  2.206227  0.154087
  5510.754  5510.750  0.500  3.903347  110.298  2.225190  0.155203
  5512.084  5512.080  0.500  3.894506  110.316  2.245312  0.157069
  5513.434  5513.430  0.500  3.887303  110.327  2.261764  0.159650
  5514.805  5514.800  0.500  3.881174  110.353  2.276212  0.161762
  5516.184  5516.180  0.500  3.875364  110.369  2.289795  0.164041
  5517.596  5517.590  0.500  3.870515  110.403  2.301644  0.166046
  5519.015  5519.010  0.500  3.866764  110.433  2.310926  0.169013
  5520.455  5520.450  0.500  3.864080  110.445  2.317372  0.172290
  5521.913  5521.910  0.500  3.862315  110.476  2.322125  0.175891
  5523.398  5523.390  0.500  3.861823  110.489  2.323532  0.179185
  5524.893  5524.890  0.500  3.862139  110.493  2.322886  0.182039
  5526.417  5526.410  0.500  3.864217  110.516  2.318563  0.184206
  5527.957  5527.950  0.500  3.865084  110.52  2.316638  0.186119
  5529.516  5529.510  0.500  3.867371  110.528  2.311493  0.187413
  5531.087  5531.080  0.500  3.870057  110.548  2.305719  0.187385
  5532.688  5532.680  0.500  3.874126  110.579  2.296997  0.185514
  5534.298  5534.290  0.500  3.879054  110.621  2.286570  0.182774
  5535.937  5535.930  0.500  3.884074  110.602  2.274738  0.178706
  5537.588  5537.580  0.500  3.888245  110.66  2.266446  0.174199
  5539.258  5539.250  0.500  3.890566  110.68  2.261603  0.171017
  5540.952  5540.940  0.500  3.891780  110.701  2.259301  0.170604
  5542.663  5542.650  0.500  3.892419  110.741  2.258664  0.172961
  5544.389  5544.380  0.500  3.891412  110.752  2.261167  0.176389
  5546.136  5546.130  0.500  3.888523  110.773  2.268146  0.180830
  5547.897  5547.890  0.500  3.882294  110.8  2.282874  0.185816
  5549.691  5549.680  0.500  3.874864  110.767  2.299208  0.191291
  5551.494  5551.480  0.500  3.867748  110.802  2.316368  0.195308
  5553.332  5553.310  0.500  3.861051  110.823  2.332372  0.196706
  5555.173  5555.150  0.500  3.853441  110.829  2.350320  0.194973
  5557.017  5557.010  0.500  3.845648  110.854  2.369235  0.191049
  5558.901  5558.890  0.500  3.836783  110.883  2.390943  0.186240
  5560.803  5560.790  0.500  3.829545  110.884  2.408348  0.182155
  5562.722  5562.710  0.500  3.822651  110.871  2.424715  0.178509
  5564.671  5564.650  0.500  3.815302  110.911  2.443478  0.177021
  5566.630  5566.610  0.500  3.807496  110.93  2.463064  0.178231
  5568.603  5568.580  0.500  3.800962  110.949  2.479625  0.182094
  5570.601  5570.580  0.500  3.795276  110.938  2.493515  0.187846
  5572.608  5572.590  0.500  3.790799  110.963  2.505278  0.194932
  5574.630  5574.620  0.500  3.786356  110.994  2.517124  0.202597
  5576.681  5576.680  0.500  3.780592  111.025  2.532389  0.209642
  5578.744  5578.750  0.500  3.773478  111.032  2.550620  0.215363
  5580.852  5580.840  0.500  3.766643  111.039  2.568276  0.218623
  5582.950  5582.950  0.500  3.760248  111.047  2.584947  0.220345
  5585.076  5585.080  0.500  3.755849  111.089  2.597330  0.221069
  5587.239  5587.220  0.500  3.752696  111.112  2.606063  0.221689
  5589.398  5589.390  0.500  3.749808  111.119  2.613762  0.223076
  5591.577  5591.580  0.500  3.746928  111.126  2.621465  0.225830
  5593.773  5593.780  0.500  3.743097  111.123  2.631464  0.229101
  5595.993  5596.000  0.500  3.738408  111.123  2.643826  0.232142
  5598.268  5598.250  0.500  3.733069  111.133  2.658221  0.234455
  5600.522  5600.510  0.500  3.727928  111.168  2.672777  0.235716
  5602.801  5602.790  0.500  3.723136  111.159  2.685394  0.236415
  5605.089  5605.090  0.500  3.719685  111.164  2.694797  0.236537
  5607.411  5607.410  0.500  3.717312  111.178  2.701532  0.235877
  5609.765  5609.750  0.500  3.714369  111.201  2.710046  0.234847
  5612.102  5612.100  0.500  3.710536  111.19  2.720203  0.234114
  5614.498  5614.480  0.500  3.705941  111.211  2.733233  0.234782
  5616.867  5616.870  0.500  3.700889  111.213  2.747143  0.235032
  5619.307  5619.290  0.500  3.694294  111.249  2.766212  0.234719
  5621.730  5621.720  0.500  3.688499  111.245  2.782184  0.232865
  5624.182  5624.170  0.500  3.683174  111.254  2.797255  0.231246
  5626.660  5626.650  0.500  3.678437  111.235  2.810055  0.231998
  5629.153  5629.140  0.500  3.674264  111.253  2.822274  0.235088
  5631.659  5631.650  0.500  3.671362  111.248  2.830341  0.240034
  5634.182  5634.170  0.500  3.668654  111.225  2.837429  0.244953
  5636.734  5636.720  0.500  3.664873  111.225  2.848185  0.250444
  5639.303  5639.290  0.500  3.659537  111.196  2.862673  0.255469
  5641.882  5641.870  0.500  3.652433  111.189  2.882902  0.260268
  5644.485  5644.480  0.500  3.644737  111.181  2.904955  0.264264
  5647.103  5647.100  0.500  3.637622  111.159  2.925135  0.267639
  5649.750  5649.750  0.500  3.631103  111.163  2.944376  0.271012
  5652.411  5652.410  0.500  3.625959  111.122  2.958451  0.274237
  5655.090  5655.090  0.500  3.621427  111.08  2.970763  0.277422
  5657.792  5657.790  0.500  3.616111  111.064  2.986177  0.280118
  5660.514  5660.510  0.500  3.610342  111.03  3.002527  0.283385
  5663.256  5663.250  0.500  3.604516  110.987  3.018924  0.286745
  5666.007  5666.000  0.500  3.597397  110.917  3.038574  0.291689
  5668.782  5668.780  0.500  3.588741  110.871  3.063717  0.296509
  5671.571  5671.570  0.500  3.580193  110.821  3.088619  0.300565
  5674.394  5674.390  0.500  3.570939  110.751  3.115363  0.303008
  5677.225  5677.220  0.500  3.563469  110.669  3.136408  0.303628
  5680.080  5680.070  0.500  3.556521  110.62  3.156857  0.303700
  5682.958  5682.950  0.500  3.549930  110.563  3.176091  0.303762
  5685.846  5685.840  0.500  3.544600  110.443  3.189618  0.302683
  5688.757  5688.750  0.500  3.539041  110.352  3.204748  0.301866
  5691.682  5691.670  0.500  3.533474  110.235  3.219219  0.301463
  5694.640  5694.620  0.500  3.529122  110.126  3.230060  0.301178
  5697.604  5697.590  0.500  3.523099  110.03  3.246733  0.302911
  5700.578  5700.570  0.500  3.518170  109.906  3.259111  0.305891
  5703.587  5703.580  0.500  3.513993  109.779  3.268978  0.310399
  5706.619  5706.600  0.500  3.508945  109.629  3.281024  0.316829
  5709.661  5709.650  0.500  3.504254  109.481  3.292003  0.323219
  5712.720  5712.710  0.500  3.499087  109.343  3.304897  0.328487
  5715.801  5715.790  0.500  3.493774  109.142  3.316392  0.332034
  5718.889  5718.890  0.500  3.487319  108.958  3.332222  0.335141
  5722.021  5722.010  0.500  3.480373  108.792  3.350360  0.338668
  5725.176  5725.150  0.500  3.472749  108.588  3.369659  0.342240
  5728.278  5728.300  0.500  3.469362  108.473  3.377501  0.344434
  5731.474  5731.480  0.500  3.461386  108.203  3.396090  0.348802
  5734.664  5734.670  0.500  3.456260  107.945  3.405395  0.350860
  5737.880  5737.890  0.500  3.451009  107.708  3.415809  0.352745
  5741.107  5741.120  0.500  3.445200  107.476  3.428310  0.355482
  5744.383  5744.370  0.500  3.438199  107.253  3.445222  0.359494
  5747.675  5747.650  0.500  3.431310  106.966  3.459776  0.363331
  5750.960  5750.940  0.500  3.424224  106.722  3.476407  0.367013
  5754.274  5754.250  0.500  3.416689  106.433  3.493213  0.370337
  5757.579  5757.570  0.500  3.408973  106.142  3.510661  0.373188
  5760.912  5760.920  0.500  3.402040  105.862  3.525749  0.375226
  5764.275  5764.290  0.500  3.396179  105.553  3.536144  0.375770
  5767.663  5767.670  0.500  3.389989  105.257  3.548110  0.376859
  5771.070  5771.080  0.500  3.383914  104.95  3.559321  0.377911
  5774.486  5774.500  0.500  3.377754  104.663  3.571530  0.379690
  5777.950  5777.950  0.500  3.371026  104.348  3.584824  0.381629
  5781.401  5781.410  0.500  3.363413  104.018  3.600766  0.383898
  5784.879  5784.890  0.500  3.356050  103.699  3.616263  0.387288
  5788.377  5788.390  0.500  3.348830  103.397  3.631861  0.391294
  5791.899  5791.910  0.500  3.341668  103.082  3.646824  0.395022
  5795.440  5795.450  0.500  3.335208  102.733  3.658024  0.398765
  5799.001  5799.000  0.500  3.327774  102.413  3.673859  0.402840
  5802.569  5802.580  0.500  3.320210  102.08  3.689691  0.407763
  5806.169  5806.180  0.500  3.312917  101.764  3.705191  0.412733
  5809.779  5809.790  0.500  3.305696  101.404  3.718839  0.417274
  5813.407  5813.420  0.500  3.298846  101.079  3.732411  0.421241
  5817.078  5817.080  0.500  3.292389  100.743  3.744097  0.424463
  5820.738  5820.750  0.500  3.286456  100.412  3.753999  0.427214
  5824.427  5824.440  0.500  3.279729  100.082  3.766930  0.430379
  5828.137  5828.150  0.500  3.273250  99.7669  3.779481  0.433553
  5831.867  5831.880  0.500  3.266431  99.4634  3.793762  0.437227
  5835.609  5835.620  0.500  3.259877  99.4399  3.817808  0.441731
  5839.380  5839.390  0.500  3.253917  99.125  3.828468  0.444567
  5843.167  5843.180  0.500  3.247165  98.7903  3.841391  0.447684
  5847.004  5846.980  0.500  3.240494  98.4647  3.854357  0.450321
  5850.805  5850.810  0.500  3.233449  98.1415  3.868867  0.453838
  5854.637  5854.650  0.500  3.226665  97.7884  3.881187  0.457457
  5858.493  5858.510  0.500  3.219276  97.3814  3.893698  0.460489
  5862.378  5862.390  0.500  3.212053  96.987  3.906038  0.463805
  5866.275  5866.290  0.500  3.205197  96.3831  3.908426  0.465360
  5870.191  5870.210  0.500  3.197932  94.7495  3.870196  0.461617
  5874.142  5874.150  0.500  3.190305  88.6254  3.647762  0.435703
  5878.100  5878.110  0.500  3.183781  97.1099  4.023137  0.482879
  5882.069  5882.080  0.500  3.176525  96.5777  4.030227  0.485799
  5886.070  5886.080  0.500  3.170080  96.1592  4.038709  0.489559
  5890.081  5890.090  0.500  3.163560  95.7785  4.049033  0.493823
  5894.117  5894.130  0.500  3.157140  95.4451  4.060925  0.497680
  5898.165  5898.180  0.500  3.150350  95.0877  4.073285  0.501408
  5902.234  5902.250  0.500  3.143681  94.6954  4.083626  0.504661
  5906.323  5906.340  0.500  3.136491  94.2686  4.094552  0.508722
  5910.437  5910.450  0.500  3.129168  93.6281  4.096620  0.511204
  5914.579  5914.580  0.500  3.121673  91.253  4.022738  0.504353
  5918.714  5918.730  0.500  3.113902  93.434  4.151016  0.523121
  5922.876  5922.890  0.500  3.106246  93.895  4.203556  0.531835
  5927.066  5927.080  0.500  3.098436  92.9186  4.192462  0.532495
  5931.265  5931.280  0.500  3.091623  77.7327  3.531252  0.450386
  5935.499  5935.510  0.500  3.083786  92.9428  4.255442  0.544888
  5939.736  5939.750  0.500  3.076202  92.0308  4.245761  0.546288
  5943.991  5944.010  0.500  3.068668  87.4601  4.065409  0.525747
  5948.287  5948.290  0.500  3.061212  92.8203  4.346859  0.565014
  5952.575  5952.590  0.500  3.053755  92.2375  4.351896  0.568097
  5956.897  5956.910  0.500  3.047239  91.7622  4.357777  0.571610
  5961.234  5961.250  0.500  3.040169  91.341  4.368545  0.575391
  5965.600  5965.610  0.500  3.033133  90.921  4.379163  0.578859
  5969.979  5969.990  0.500  3.027121  90.5339  4.386810  0.582108
  5974.380  5974.380  0.500  3.019806  90.1029  4.397985  0.585835
  5978.787  5978.800  0.500  3.012641  89.6142  4.405585  0.588942
  5983.216  5983.230  0.500  3.005559  88.9036  4.401711  0.590846
  5987.668  5987.680  0.500  2.998611  86.72  4.323536  0.582399
  5992.137  5992.150  0.500  2.991317  89.7478  4.507246  0.609878
  5996.632  5996.640  0.500  2.984141  89.3853  4.521372  0.614492
  6001.135  6001.150  0.500  2.977316  88.7645  4.520718  0.617011
  6005.667  6005.680  0.500  2.970139  88.2665  4.527734  0.620891
  6010.218  6010.230  0.500  2.962924  87.8346  4.538204  0.625177
  6014.789  6014.800  0.500  2.955895  87.4143  4.548346  0.629542
  6019.365  6019.380  0.500  2.947809  87.0328  4.565261  0.634669
  6023.974  6023.990  0.500  2.940586  86.6431  4.577766  0.639226
  6028.594  6028.610  0.500  2.933425  86.256  4.590066  0.643975
  6033.247  6033.260  0.500  2.925676  85.8492  4.603956  0.648699
  6037.903  6037.920  0.500  2.918234  85.4271  4.615541  0.653124
  6042.577  6042.600  0.500  2.914018  85.181  4.621690  0.655375
  6047.288  6047.300  0.500  2.903488  84.6242  4.640084  0.662276
  6052.009  6052.020  0.500  2.896088  84.1937  4.650765  0.666791
  6056.751  6056.760  0.500  2.888960  83.5808  4.649940  0.669569
  6061.496  6061.510  0.500  2.881940  83.0297  4.651819  0.672815
  6066.277  6066.290  0.500  2.875057  82.5468  4.656705  0.676414
  6071.077  6071.090  0.500  2.868002  82.1411  4.666625  0.681104
  6075.891  6075.900  0.500  2.861372  81.677  4.671127  0.684678
  6080.714  6080.730  0.500  2.854075  81.1888  4.677213  0.688575
  6085.583  6085.590  0.500  2.846936  80.6847  4.681475  0.692071
  6090.450  6090.460  0.500  2.839410  80.1926  4.688075  0.696109
  6095.336  6095.350  0.500  2.831508  79.6846  4.695329  0.700022
  6100.248  6100.260  0.500  2.824324  79.1749  4.698931  0.703570
  6105.182  6105.190  0.500  2.816737  78.6289  4.702070  0.707020