File: xdidata/V/V-VanadylSulfate.xdi
# XDI/1.0 BlueSky/1.10.0 BMM/2023-1.0-py310-tiled
# Beamline.name: BMM (06BM) -- Beamline for Materials Measurement (NIST)
# Beamline.xray_source: NSLS-II three-pole wiggler
# Beamline.collimation: paraboloid mirror, 5 nm Rh on 30 nm Pt
# Beamline.focusing: not in use
# Beamline.harmonic_rejection: flat mirror, Si stripe, pitch = 7.0 mrad relative to beam
# Beamline.software: Bluesky 1.10.0, Ophyd 1.7.0, DataBroker 2.0.0b13, Python 3.10.8, 2023-1.0-py310-tiled
# Detector.I0: 10 cm N2
# Detector.I1: 25 cm N2
# Detector.I2: 25 cm N2
# Element.symbol: V
# Element.edge: K
# Element.reference: V
# Element.reference_material: V foil
# Facility.name: NSLS-II
# Facility.energy: 3.0
# Facility.current: 399.6
# Facility.mode: top-off
# Facility.GUP: 123456
# Facility.SAF: 301027
# Facility.cycle: 2023-2
# Mono.name: Si(111)
# Mono.d_spacing: 3.13519
# Mono.encoder_resolution: 0.0000050 deg/ct
# Mono.angle_offset: 16.0754 deg
# Mono.scan_mode: pseudo channel cut
# Mono.scan_type: step
# Mono.direction: forward in energy
# Sample.name: VOSO4
# Sample.prep: Powder in PEG pellet
# Sample.x: 116.329 mm
# Sample.y: 114.126 mm
# Sample.SDD_position: 205.000 mm
# Scan.experimenters: Bruce Ravel
# Scan.edge_energy: 5465.1
# Scan.start_time: 2023-05-06T09:43:52
# Scan.end_time: 2023-05-06T09:51:11
# Scan.transient_id: 74694
# Scan.uid: ed762c0c-34cd-46ca-9d20-acedc82783c2
# Scan.plot_hint: ln(I0/It)  --  ln($5/$6)
# Column.1: energy eV
# Column.2: requested_energy eV
# Column.3: measurement_time seconds
# Column.4: xmu
# Column.5: I0 nA
# Column.6: It nA
# Column.7: Ir nA
# ///////////
# Sigma Aldrich; Vanadium (IV) oxide sulfate hydrate (97%); 233706
# -----------
# energy  requested_energy  measurement_time  xmu  I0  It  Ir
  5265.103  5265.100  0.500  5.279121  98.7382  0.503260  0.077773
  5275.110  5275.100  0.500  5.247070  99.5296  0.523816  0.082045
  5285.102  5285.100  0.500  5.213291  99.9393  0.544042  0.086027
  5295.113  5295.100  0.500  5.181360  100.621  0.565526  0.090582
  5305.110  5305.100  0.500  5.149180  101.206  0.587413  0.094958
  5315.111  5315.100  0.500  5.117031  101.785  0.610077  0.099623
  5325.112  5325.100  0.500  5.085683  102.314  0.632780  0.104420
  5335.108  5335.100  0.500  5.054301  102.872  0.656511  0.109370
  5345.111  5345.100  0.500  5.022432  103.408  0.681299  0.114503
  5355.150  5355.100  0.500  4.990747  103.937  0.706833  0.120065
  5365.088  5365.100  0.500  4.960388  104.458  0.732271  0.125755
  5375.096  5375.100  0.500  4.929705  104.979  0.758855  0.131556
  5385.096  5385.100  0.500  4.899348  105.501  0.786132  0.137550
  5395.097  5395.100  0.500  4.868612  106.055  0.814932  0.143909
  5405.097  5405.100  0.500  4.838732  103.73  0.821241  0.146512
  5415.094  5415.100  0.500  4.809462  106.845  0.871026  0.156914
  5425.095  5425.100  0.500  4.780320  107.186  0.899649  0.163437
  5435.100  5435.100  0.500  4.751476  107.588  0.929443  0.170405
  5437.095  5437.100  0.500  4.745437  107.648  0.935596  0.171523
  5439.089  5439.100  0.500  4.740102  107.747  0.941465  0.173112
  5441.092  5441.100  0.500  4.734812  107.963  0.948359  0.174745
  5443.094  5443.100  0.500  4.730052  108.229  0.955230  0.176362
  5445.098  5445.100  0.500  4.723701  108.315  0.962082  0.177792
  5447.097  5447.100  0.500  4.718113  108.403  0.968260  0.179038
  5449.092  5449.100  0.500  4.712611  108.491  0.974393  0.180345
  5451.095  5451.100  0.500  4.707632  108.556  0.979840  0.181646
  5453.097  5453.100  0.500  4.702207  108.645  0.985974  0.182826
  5455.095  5455.100  0.500  4.697307  108.708  0.991400  0.184139
  5455.393  5455.400  0.500  4.696516  108.679  0.991915  0.184330
  5455.691  5455.700  0.500  4.695809  108.696  0.992771  0.184368
  5455.991  5456.000  0.500  4.695770  108.719  0.993018  0.184376
  5456.294  5456.300  0.500  4.695116  108.694  0.993444  0.184636
  5456.590  5456.600  0.500  4.693434  108.718  0.995334  0.184810
  5456.893  5456.900  0.500  4.692840  108.712  0.995874  0.184955
  5457.194  5457.200  0.500  4.692430  108.709  0.996253  0.185129
  5457.491  5457.500  0.500  4.690937  108.757  0.998179  0.185457
  5457.793  5457.800  0.500  4.690561  108.762  0.998598  0.185426
  5458.091  5458.100  0.500  4.690360  108.749  0.998683  0.185328
  5458.392  5458.400  0.500  4.689846  108.754  0.999240  0.185459
  5458.690  5458.700  0.500  4.689788  108.756  0.999324  0.185276
  5458.992  5459.000  0.500  4.688385  108.779  1.000930  0.185505
  5459.293  5459.300  0.500  4.687869  108.796  1.001606  0.185706
  5459.595  5459.600  0.500  4.687321  108.774  1.001952  0.185646
  5459.894  5459.900  0.500  4.687327  108.784  1.002043  0.185657
  5460.192  5460.200  0.500  4.686700  108.805  1.002859  0.185617
  5460.493  5460.500  0.500  4.685550  108.808  1.004045  0.185571
  5460.792  5460.800  0.500  4.684943  108.801  1.004584  0.185431
  5461.095  5461.100  0.500  4.684668  108.788  1.004748  0.185190
  5461.396  5461.400  0.500  4.684482  108.801  1.005047  0.185004
  5461.696  5461.700  0.500  4.683768  108.828  1.006018  0.184667
  5462.000  5462.000  0.500  4.683749  108.838  1.006132  0.184427
  5462.293  5462.300  0.500  4.683432  108.851  1.006572  0.183980
  5462.596  5462.600  0.500  4.683108  108.859  1.006974  0.182909
  5462.893  5462.900  0.500  4.682867  108.869  1.007306  0.181790
  5463.197  5463.200  0.500  4.682976  108.884  1.007333  0.180068
  5463.496  5463.500  0.500  4.682745  108.887  1.007597  0.177071
  5463.800  5463.800  0.500  4.683109  108.9  1.007352  0.171796
  5464.098  5464.100  0.500  4.683681  108.903  1.006804  0.163109
  5464.398  5464.400  0.500  4.684784  108.928  1.005917  0.151613
  5464.696  5464.700  0.500  4.685525  108.935  1.005244  0.140971
  5464.995  5465.000  0.500  4.687237  108.938  1.003551  0.136324
  5465.297  5465.300  0.500  4.690078  108.954  1.000853  0.136979
  5465.600  5465.600  0.500  4.693240  108.957  0.997717  0.139584
  5465.898  5465.900  0.500  4.700386  108.951  0.990557  0.141110
  5466.198  5466.200  0.500  4.709968  108.966  0.981243  0.140754
  5466.497  5466.500  0.500  4.724732  108.967  0.966871  0.138414
  5466.798  5466.800  0.500  4.740845  108.974  0.951482  0.134883
  5467.096  5467.100  0.500  4.754809  108.976  0.938301  0.131070
  5467.397  5467.400  0.500  4.767150  108.938  0.926472  0.127158
  5467.701  5467.700  0.500  4.789717  108.987  0.906205  0.122064
  5468.001  5468.000  0.500  4.830686  109.004  0.869966  0.115196
  5468.298  5468.300  0.500  4.900709  109.001  0.811106  0.105666
  5468.595  5468.600  0.500  4.992830  109.035  0.739958  0.094633
  5468.898  5468.900  0.500  5.055400  109.027  0.695024  0.087428
  5469.202  5469.200  0.500  5.040343  109.012  0.705471  0.087708
  5469.501  5469.500  0.500  4.981594  109.051  0.748431  0.092184
  5469.802  5469.800  0.500  4.926620  109.052  0.790731  0.096775
  5470.098  5470.100  0.500  4.883070  109.059  0.825980  0.100398
  5470.396  5470.400  0.500  4.838583  109.066  0.863613  0.104671
  5470.698  5470.700  0.500  4.793505  109.061  0.903397  0.109221
  5471.002  5471.000  0.500  4.760088  109.066  0.934136  0.112787
  5471.300  5471.300  0.500  4.740902  109.08  0.952353  0.114759
  5471.602  5471.600  0.500  4.731474  109.084  0.961410  0.115466
  5471.900  5471.900  0.500  4.726019  109.087  0.966698  0.115131
  5472.196  5472.200  0.500  4.723664  109.075  0.968866  0.114046
  5472.498  5472.500  0.500  4.725136  109.087  0.967545  0.112197
  5472.799  5472.800  0.500  4.729540  109.09  0.963323  0.109500
  5473.100  5473.100  0.500  4.737944  109.111  0.955443  0.106248
  5473.400  5473.400  0.500  4.751018  109.121  0.943122  0.101966
  5473.699  5473.700  0.500  4.766930  109.122  0.928241  0.098017
  5474.000  5474.000  0.500  4.785225  109.131  0.911488  0.094006
  5474.299  5474.300  0.500  4.805691  109.127  0.892993  0.090204
  5474.601  5474.600  0.500  4.828089  109.144  0.873347  0.086384
  5474.900  5474.900  0.500  4.851715  109.139  0.852913  0.082841
  5475.200  5475.200  0.500  4.876779  109.152  0.831903  0.079405
  5475.503  5475.500  0.500  4.905690  109.153  0.808202  0.075848
  5475.798  5475.800  0.500  4.936634  109.135  0.783449  0.072466
  5476.099  5476.100  0.500  4.968616  109.14  0.758824  0.069139
  5476.404  5476.400  0.500  4.997808  109.144  0.737021  0.066125
  5476.702  5476.700  0.500  5.022579  109.15  0.719026  0.063506
  5477.004  5477.000  0.500  5.042931  109.154  0.704567  0.061465
  5477.301  5477.300  0.500  5.061094  109.164  0.691949  0.059421
  5477.606  5477.600  0.500  5.079229  109.162  0.679501  0.057534
  5477.898  5477.900  0.500  5.099674  109.175  0.665827  0.055669
  5478.202  5478.200  0.500  5.126879  109.181  0.647994  0.053302
  5478.500  5478.500  0.500  5.161500  109.175  0.625909  0.050884
  5478.805  5478.800  0.500  5.203439  109.183  0.600248  0.048118
  5479.104  5479.100  0.500  5.250826  109.185  0.572478  0.045422
  5479.402  5479.400  0.500  5.301647  109.193  0.544151  0.042740
  5479.706  5479.700  0.500  5.357217  109.18  0.514676  0.039832
  5479.999  5480.000  0.500  5.410175  109.202  0.488226  0.037233
  5480.299  5480.300  0.500  5.461302  109.22  0.463971  0.035240
  5480.604  5480.600  0.500  5.511520  109.219  0.441240  0.033148
  5480.901  5480.900  0.500  5.558843  109.208  0.420803  0.031186
  5481.204  5481.200  0.500  5.602249  109.216  0.402958  0.029594
  5481.506  5481.500  0.500  5.637080  109.234  0.389230  0.028450
  5481.803  5481.800  0.500  5.665657  109.243  0.378296  0.027445
  5482.105  5482.100  0.500  5.690530  109.223  0.368934  0.026424
  5482.405  5482.400  0.500  5.709583  109.204  0.361909  0.025621
  5482.698  5482.700  0.500  5.723641  109.216  0.356897  0.025009
  5483.000  5483.000  0.500  5.732971  109.225  0.353610  0.024490
  5483.305  5483.300  0.500  5.740342  109.235  0.351045  0.024317
  5483.598  5483.600  0.500  5.745830  109.233  0.349118  0.024203
  5483.903  5483.900  0.500  5.750321  109.231  0.347547  0.024137
  5484.206  5484.200  0.500  5.753124  109.219  0.346536  0.024229
  5484.500  5484.500  0.500  5.756183  109.229  0.345510  0.024403
  5484.802  5484.800  0.500  5.757928  109.228  0.344904  0.024662
  5485.099  5485.100  0.500  5.758523  109.243  0.344746  0.025069
  5485.401  5485.400  0.500  5.754658  109.261  0.346138  0.025427
  5485.701  5485.700  0.500  5.748073  109.242  0.348363  0.025939
  5486.001  5486.000  0.500  5.738663  109.251  0.351687  0.026660
  5486.301  5486.300  0.500  5.729681  109.249  0.354853  0.027221
  5486.599  5486.600  0.500  5.721214  109.216  0.357763  0.027811
  5486.903  5486.900  0.500  5.714323  109.256  0.360367  0.028201
  5487.197  5487.200  0.500  5.708876  109.248  0.362309  0.028551
  5487.500  5487.500  0.500  5.704267  109.261  0.364025  0.028733
  5487.798  5487.800  0.500  5.701503  109.272  0.365070  0.029063
  5488.102  5488.100  0.500  5.698565  109.274  0.366154  0.029215
  5488.403  5488.400  0.500  5.696615  109.274  0.366867  0.029237
  5488.702  5488.700  0.500  5.693988  109.276  0.367839  0.029234
  5489.003  5489.000  0.500  5.691215  109.266  0.368828  0.029355
  5489.299  5489.300  0.500  5.687554  109.254  0.370137  0.029163
  5489.598  5489.600  0.500  5.684956  109.266  0.371141  0.029274
  5489.899  5489.900  0.500  5.682111  109.252  0.372150  0.029077
  5490.100  5490.100  0.500  5.681007  109.274  0.372637  0.029129
  5491.099  5491.090  0.500  5.680291  109.291  0.372964  0.028338
  5492.101  5492.090  0.500  5.684999  109.307  0.371267  0.027910
  5493.119  5493.110  0.500  5.679166  109.333  0.373527  0.027815
  5494.176  5494.160  0.500  5.664624  109.34  0.379022  0.028410
  5495.218  5495.220  0.500  5.652330  109.341  0.383715  0.029253
  5496.301  5496.300  0.500  5.641349  109.673  0.389128  0.029803
  5497.400  5497.400  0.500  5.632669  109.687  0.392571  0.029911
  5498.520  5498.520  0.500  5.621946  109.702  0.396857  0.029996
  5499.662  5499.660  0.500  5.607357  109.702  0.402690  0.030062
  5500.812  5500.810  0.500  5.586894  109.73  0.411119  0.030339
  5501.992  5501.990  0.500  5.562281  109.743  0.421414  0.030751
  5503.185  5503.180  0.500  5.537869  109.764  0.431912  0.031473
  5504.404  5504.400  0.500  5.514809  109.793  0.442103  0.032193
  5505.635  5505.630  0.500  5.494975  109.794  0.450965  0.032711
  5506.882  5506.880  0.500  5.476626  109.8  0.459341  0.032950
  5508.152  5508.150  0.500  5.459996  109.846  0.467240  0.033369
  5509.443  5509.440  0.500  5.445900  109.883  0.474031  0.033652
  5510.759  5510.750  0.500  5.435796  109.9  0.478918  0.033830
  5512.080  5512.080  0.500  5.430023  109.896  0.481675  0.034170
  5513.434  5513.430  0.500  5.426729  109.898  0.483272  0.034455
  5514.808  5514.800  0.500  5.424290  109.939  0.484630  0.034766
  5516.185  5516.180  0.500  5.426698  109.938  0.483464  0.035102
  5517.595  5517.590  0.500  5.433716  109.956  0.480162  0.035167
  5519.016  5519.010  0.500  5.444077  109.981  0.475320  0.035293
  5520.454  5520.450  0.500  5.452442  110.013  0.471498  0.035456
  5521.917  5521.910  0.500  5.456717  110.031  0.469561  0.036146
  5523.395  5523.390  0.500  5.457318  110.017  0.469222  0.036579
  5524.897  5524.890  0.500  5.454183  110.055  0.470858  0.037358
  5526.419  5526.410  0.500  5.449250  110.059  0.473201  0.038005
  5527.957  5527.950  0.500  5.447597  110.111  0.474207  0.038445
  5529.516  5529.510  0.500  5.445828  110.095  0.474980  0.039016
  5531.087  5531.080  0.500  5.446674  110.121  0.474691  0.038974
  5532.691  5532.680  0.500  5.447736  110.145  0.474290  0.038798
  5534.302  5534.290  0.500  5.448613  110.156  0.473920  0.038370
  5535.936  5535.930  0.500  5.447212  110.183  0.474703  0.037670
  5537.588  5537.580  0.500  5.443003  110.2  0.476776  0.037045
  5539.260  5539.250  0.500  5.438671  110.229  0.478974  0.036810
  5540.950  5540.940  0.500  5.434979  110.243  0.480808  0.036733
  5542.661  5542.650  0.500  5.431090  110.268  0.482787  0.037457
  5544.392  5544.380  0.500  5.426104  110.28  0.485254  0.038295
  5546.138  5546.130  0.500  5.419434  110.304  0.488608  0.039347
  5547.899  5547.890  0.500  5.411168  110.317  0.492722  0.040591
  5549.689  5549.680  0.500  5.402219  110.346  0.497284  0.041704
  5551.490  5551.480  0.500  5.393154  110.371  0.501922  0.042673
  5553.324  5553.310  0.500  5.383207  110.39  0.507028  0.043241
  5555.160  5555.150  0.500  5.373871  110.387  0.511771  0.042908
  5557.020  5557.010  0.500  5.364679  110.421  0.516654  0.042027
  5558.897  5558.890  0.500  5.355622  110.443  0.521462  0.041200
  5560.801  5560.790  0.500  5.345589  110.46  0.526800  0.040248
  5562.718  5562.710  0.500  5.334772  110.495  0.532695  0.039684
  5564.670  5564.650  0.500  5.323756  110.502  0.538633  0.039433
  5566.631  5566.610  0.500  5.313989  110.519  0.544001  0.039881
  5568.602  5568.580  0.500  5.305174  110.527  0.548859  0.040878
  5570.592  5570.580  0.500  5.296543  110.515  0.553555  0.042159
  5572.598  5572.590  0.500  5.288429  110.594  0.558466  0.043937
  5574.637  5574.620  0.500  5.280637  110.612  0.562923  0.045660
  5576.693  5576.680  0.500  5.273313  110.627  0.567140  0.047441
  5578.766  5578.750  0.500  5.266392  110.651  0.571205  0.048640
  5580.836  5580.840  0.500  5.259662  110.668  0.575149  0.049375
  5582.966  5582.950  0.500  5.253379  110.684  0.578858  0.049832
  5585.081  5585.080  0.500  5.247093  110.705  0.582618  0.049982
  5587.231  5587.220  0.500  5.241882  110.734  0.585815  0.050230
  5589.383  5589.390  0.500  5.237159  110.737  0.588602  0.050629
  5591.584  5591.580  0.500  5.233955  110.748  0.590554  0.051224
  5593.798  5593.780  0.500  5.230896  110.751  0.592376  0.052048
  5595.991  5596.000  0.500  5.227052  110.762  0.594720  0.052717
  5598.260  5598.250  0.500  5.224785  110.772  0.596123  0.052936
  5600.504  5600.510  0.500  5.221263  110.805  0.598405  0.053258
  5602.808  5602.790  0.500  5.217047  110.813  0.600972  0.053333
  5605.090  5605.090  0.500  5.213278  110.814  0.603251  0.053306
  5607.424  5607.410  0.500  5.209128  110.842  0.605911  0.053465
  5609.751  5609.750  0.500  5.205286  110.848  0.608278  0.053082
  5612.095  5612.100  0.500  5.201236  110.858  0.610799  0.053163
  5614.483  5614.480  0.500  5.196964  110.844  0.613336  0.053085
  5616.871  5616.870  0.500  5.191695  110.886  0.616810  0.053293
  5619.291  5619.290  0.500  5.187269  110.885  0.619540  0.052861
  5621.728  5621.720  0.500  5.181059  110.903  0.623502  0.052772
  5624.189  5624.170  0.500  5.174062  110.894  0.627826  0.052463
  5626.647  5626.650  0.500  5.166906  110.901  0.632377  0.052593
  5629.158  5629.140  0.500  5.159338  110.922  0.637304  0.053577
  5631.645  5631.650  0.500  5.151123  110.908  0.642481  0.054826
  5634.170  5634.170  0.500  5.142243  110.932  0.648348  0.056514
  5636.731  5636.720  0.500  5.132345  110.916  0.654707  0.058100
  5639.298  5639.290  0.500  5.121997  110.907  0.661460  0.059453
  5641.878  5641.870  0.500  5.112731  110.899  0.667569  0.060732
  5644.485  5644.480  0.500  5.102321  110.889  0.674497  0.061909
  5647.100  5647.100  0.500  5.092265  110.881  0.681260  0.062774
  5649.750  5649.750  0.500  5.081989  110.873  0.688247  0.063712
  5652.412  5652.410  0.500  5.071724  110.822  0.695033  0.064927
  5655.090  5655.090  0.500  5.062190  110.801  0.701555  0.065828
  5657.792  5657.790  0.500  5.051599  110.78  0.708889  0.066954
  5660.511  5660.510  0.500  5.041770  110.731  0.715574  0.067985
  5663.256  5663.250  0.500  5.031589  110.684  0.722594  0.069017
  5666.005  5666.000  0.500  5.022242  110.65  0.729155  0.070534
  5668.783  5668.780  0.500  5.012813  110.599  0.735720  0.071606
  5671.572  5671.570  0.500  5.003744  110.556  0.742139  0.072653
  5674.396  5674.390  0.500  4.995250  110.498  0.748072  0.073295
  5677.228  5677.220  0.500  4.986413  110.404  0.754071  0.073502
  5680.077  5680.070  0.500  4.977855  110.323  0.759993  0.073723
  5682.957  5682.950  0.500  4.970123  110.26  0.765457  0.073890
  5685.846  5685.840  0.500  4.962324  110.161  0.770758  0.073636
  5688.755  5688.750  0.500  4.955139  110.04  0.775465  0.073701
  5691.682  5691.670  0.500  4.947539  109.961  0.780821  0.073529
  5694.628  5694.620  0.500  4.939916  109.855  0.786034  0.073851
  5697.596  5697.590  0.500  4.932541  109.774  0.791267  0.074247
  5700.575  5700.570  0.500  4.925501  109.647  0.795937  0.075050
  5703.587  5703.580  0.500  4.917715  109.514  0.801183  0.076346
  5706.621  5706.600  0.500  4.911121  109.386  0.805544  0.078291
  5709.671  5709.650  0.500  4.904009  109.25  0.810281  0.080081
  5712.719  5712.710  0.500  4.896132  109.114  0.815674  0.081486
  5715.801  5715.790  0.500  4.888610  108.948  0.820586  0.082654
  5718.912  5718.890  0.500  4.880578  108.783  0.825946  0.083598
  5722.029  5722.010  0.500  4.873325  108.613  0.830657  0.084365
  5725.150  5725.150  0.500  4.865262  108.422  0.835915  0.085445
  5728.286  5728.300  0.500  4.857611  108.236  0.840889  0.086403
  5731.499  5731.480  0.500  4.850059  108.064  0.845913  0.087374
  5734.689  5734.670  0.500  4.841300  107.851  0.851676  0.088367
  5737.783  5737.890  0.500  4.836674  107.695  0.854387  0.088785
  5741.131  5741.120  0.500  4.824873  107.405  0.862204  0.089949
  5744.400  5744.370  0.500  4.816040  107.173  0.867975  0.090961
  5747.638  5747.650  0.500  4.808279  106.968  0.873060  0.092258
  5750.925  5750.940  0.500  4.798633  106.727  0.879537  0.093465
  5754.277  5754.250  0.500  4.789209  106.448  0.885543  0.094395
  5757.561  5757.570  0.500  4.780897  106.193  0.890799  0.095263
  5760.912  5760.920  0.500  4.771021  105.92  0.897329  0.096110
  5764.276  5764.290  0.500  4.761783  105.633  0.903202  0.096517
  5767.660  5767.670  0.500  4.752127  105.376  0.909741  0.097220
  5771.070  5771.080  0.500  4.742363  105.085  0.916134  0.097752
  5774.483  5774.500  0.500  4.732955  104.808  0.922357  0.098563
  5777.937  5777.950  0.500  4.722867  104.471  0.928712  0.099411
  5781.405  5781.410  0.500  4.712342  104.175  0.935877  0.100397
  5784.882  5784.890  0.500  4.702464  103.871  0.942408  0.101504
  5788.379  5788.390  0.500  4.692912  103.594  0.948914  0.102687
  5791.899  5791.910  0.500  4.683482  103.258  0.954799  0.103988
  5795.441  5795.450  0.500  4.674183  102.962  0.960962  0.105152
  5798.988  5799.000  0.500  4.664749  102.667  0.967285  0.106699
  5802.569  5802.580  0.500  4.655389  102.327  0.973155  0.107942
  5806.186  5806.180  0.500  4.646782  102.031  0.978721  0.109625
  5809.774  5809.790  0.500  4.637423  101.692  0.984640  0.110955
  5813.407  5813.420  0.500  4.628574  101.374  0.990286  0.112263
  5817.064  5817.080  0.500  4.619733  101.043  0.995827  0.113416
  5820.738  5820.750  0.500  4.610923  100.721  1.001431  0.114415
  5824.425  5824.440  0.500  4.602115  100.419  1.007266  0.115554
  5828.134  5828.150  0.500  4.592999  100.091  1.013168  0.116784
  5831.866  5831.880  0.500  4.583729  99.7867  1.019493  0.118120
  5835.609  5835.620  0.500  4.574919  99.8317  1.028978  0.119627
  5839.380  5839.390  0.500  4.566847  99.5082  1.033957  0.120423
  5843.165  5843.180  0.500  4.557493  99.1773  1.040203  0.121610
  5847.001  5846.980  0.500  4.548351  98.8525  1.046319  0.122797
  5850.798  5850.810  0.500  4.539227  98.5337  1.052504  0.124172
  5854.641  5854.650  0.500  4.529591  98.1652  1.058720  0.125250
  5858.491  5858.510  0.500  4.520540  97.8108  1.064489  0.126375
  5862.381  5862.390  0.500  4.511508  97.383  1.069450  0.127538
  5866.304  5866.290  0.500  4.502480  96.7852  1.072523  0.128207
  5870.199  5870.210  0.500  4.493177  95.1014  1.063714  0.127357
  5874.139  5874.150  0.500  4.484480  88.869  1.002687  0.120293
  5878.110  5878.110  0.500  4.474445  97.4827  1.110967  0.133833
  5882.069  5882.080  0.500  4.464698  96.9198  1.115370  0.135016
  5886.061  5886.080  0.500  4.454927  96.514  1.121606  0.136552
  5890.081  5890.090  0.500  4.445053  96.1472  1.128431  0.138131
  5894.118  5894.130  0.500  4.436369  95.8004  1.134166  0.139601
  5898.173  5898.180  0.500  4.426262  95.4509  1.141508  0.141142
  5902.239  5902.250  0.500  4.417370  95.0466  1.146826  0.142290
  5906.333  5906.340  0.500  4.407088  94.615  1.153416  0.143794
  5910.457  5910.450  0.500  4.397354  93.9814  1.156898  0.144950
  5914.562  5914.580  0.500  4.387876  91.5994  1.138315  0.143553
  5918.732  5918.730  0.500  4.377746  93.7768  1.177239  0.149097
  5922.876  5922.890  0.500  4.367708  94.2188  1.194720  0.151799
  5927.092  5927.080  0.500  4.358220  93.2482  1.193684  0.152291
  5931.267  5931.280  0.500  4.347694  78.0356  1.009515  0.129426
  5935.496  5935.510  0.500  4.338193  93.3068  1.218597  0.156577
  5939.739  5939.750  0.500  4.328433  92.3726  1.218227  0.157145
  5944.000  5944.010  0.500  4.318722  87.8123  1.169388  0.151951
  5948.278  5948.290  0.500  4.309293  93.1629  1.252393  0.163343
  5952.575  5952.590  0.500  4.299641  92.5835  1.256676  0.164671
  5956.897  5956.910  0.500  4.289099  92.1131  1.263541  0.166419
  5961.234  5961.250  0.500  4.279126  91.6834  1.270252  0.167848
  5965.595  5965.610  0.500  4.269717  91.2683  1.276455  0.169508
  5969.972  5969.990  0.500  4.259468  90.837  1.283510  0.170906
  5974.367  5974.380  0.500  4.249505  90.4141  1.290326  0.172487
  5978.788  5978.800  0.500  4.240398  89.9087  1.294852  0.173835
  5983.218  5983.230  0.500  4.230055  89.2174  1.298255  0.174671
  5987.665  5987.680  0.500  4.220486  87.007  1.278264  0.172792
  5992.139  5992.150  0.500  4.210665  90.0657  1.336260  0.181378
  5996.627  5996.640  0.500  4.200664  89.6802  1.343914  0.183156
  6001.136  6001.150  0.500  4.190970  89.0667  1.347721  0.184517
  6005.667  6005.680  0.500  4.180991  88.5441  1.353251  0.186200
  6010.218  6010.230  0.500  4.171319  88.131  1.360027  0.188240
  6014.786  6014.800  0.500  4.161123  87.7246  1.367631  0.189821
  6019.366  6019.380  0.500  4.150891  87.3252  1.375404  0.191714
  6023.974  6023.990  0.500  4.140474  86.9299  1.383515  0.193803
  6028.597  6028.610  0.500  4.130419  86.5124  1.390785  0.195617
  6033.249  6033.260  0.500  4.119819  86.1194  1.399221  0.197599
  6037.906  6037.920  0.500  4.109678  85.7053  1.406686  0.199634
  6042.589  6042.600  0.500  4.099405  85.2741  1.414060  0.201617
  6047.286  6047.300  0.500  4.089149  84.8507  1.421545  0.203423
  6052.004  6052.020  0.500  4.079251  84.4363  1.428674  0.205386
  6056.748  6056.760  0.500  4.068656  83.8511  1.433884  0.207141
  6061.502  6061.510  0.500  4.058498  83.2928  1.438878  0.208662
  6066.277  6066.290  0.500  4.048252  82.783  1.444799  0.210224
  6071.077  6071.090  0.500  4.038595  82.3574  1.451321  0.212424
  6075.890  6075.900  0.500  4.028541  81.8636  1.457195  0.214078
  6080.722  6080.730  0.500  4.018372  81.3878  1.463532  0.215999
  6085.577  6085.590  0.500  4.008253  80.8899  1.469373  0.217867
  6090.455  6090.460  0.500  3.998350  80.4073  1.475144  0.219742
  6095.338  6095.350  0.500  3.988542  79.8874  1.480050  0.221311
  6100.248  6100.260  0.500  3.977913  79.3644  1.486073  0.222989
  6105.180  6105.190  0.500  3.968084  78.8193  1.490444  0.224761