File: xdidata/V/V-Vfoil.xdi
# XDI/1.0 BlueSky/1.10.0 BMM/2023-1.0-py310-tiled
# Beamline.name: BMM (06BM) -- Beamline for Materials Measurement (NIST)
# Beamline.xray_source: NSLS-II three-pole wiggler
# Beamline.collimation: paraboloid mirror, 5 nm Rh on 30 nm Pt
# Beamline.focusing: not in use
# Beamline.harmonic_rejection: flat mirror, Si stripe, pitch = 7.0 mrad relative to beam
# Beamline.software: Bluesky 1.10.0, Ophyd 1.7.0, DataBroker 2.0.0b13, Python 3.10.8, 2023-1.0-py310-tiled
# Detector.I0: 10 cm N2
# Detector.I1: 25 cm N2
# Detector.I2: 25 cm N2
# Element.symbol: V
# Element.edge: K
# Element.reference: V
# Element.reference_material: V foil
# Facility.name: NSLS-II
# Facility.energy: 3.0
# Facility.current: 399.8
# Facility.mode: top-off
# Facility.GUP: 123456
# Facility.SAF: 301027
# Facility.cycle: 2023-2
# Mono.name: Si(111)
# Mono.d_spacing: 3.13519
# Mono.encoder_resolution: 0.0000050 deg/ct
# Mono.angle_offset: 16.0754 deg
# Mono.scan_mode: pseudo channel cut
# Mono.scan_type: step
# Mono.direction: forward in energy
# Sample.name: V foil
# Sample.prep: foil reference
# Sample.x: 116.329 mm
# Sample.y: 114.126 mm
# Sample.SDD_position: 205.000 mm
# Scan.experimenters: Bruce Ravel
# Scan.edge_energy: 5465.1
# Scan.start_time: 2023-05-06T09:51:57
# Scan.end_time: 2023-05-06T09:59:21
# Scan.transient_id: 74699
# Scan.uid: f8d5b096-3de6-434a-a31d-33a75c383afc
# Scan.plot_hint: ln(It/Ir)  --  ln($6/$7)
# Column.1: energy eV
# Column.2: requested_energy eV
# Column.3: measurement_time seconds
# Column.4: xmu
# Column.5: I0 nA
# Column.6: It nA
# Column.7: Ir nA
# ///////////
# foil
# -----------
# energy  requested_energy  measurement_time  xmu  I0  It  Ir
  5265.104  5265.100  0.500  1.865526  98.7732  18.2555  2.826223
  5275.110  5275.100  0.500  1.854607  99.5492  18.6439  2.918035
  5285.110  5285.100  0.500  1.844269  99.9453  18.945  2.995981
  5295.111  5295.100  0.500  1.833615  100.623  19.3411  3.091371
  5305.109  5305.100  0.500  1.823380  101.206  19.7159  3.183707
  5315.111  5315.100  0.500  1.812845  101.786  20.0847  3.277602
  5325.113  5325.100  0.500  1.802446  102.33  20.4584  3.373486
  5335.108  5335.100  0.500  1.792441  102.854  20.8217  3.467912
  5345.110  5345.100  0.500  1.782298  103.391  21.1992  3.566783
  5355.389  5355.100  0.500  1.772080  103.909  21.5846  3.668933
  5365.091  5365.100  0.500  1.762278  104.411  21.9587  3.769280
  5375.093  5375.100  0.500  1.752375  104.94  22.3417  3.873199
  5385.097  5385.100  0.500  1.742529  105.43  22.7301  3.979518
  5395.096  5395.100  0.500  1.732779  105.994  23.1296  4.089135
  5405.097  5405.100  0.500  1.723249  103.682  22.9024  4.087748
  5415.094  5415.100  0.500  1.714016  106.755  23.8675  4.299513
  5425.094  5425.100  0.500  1.704795  107.075  24.2248  4.404312
  5435.097  5435.100  0.500  1.695991  107.507  24.6042  4.512843
  5437.094  5437.100  0.500  1.694276  107.577  24.6725  4.533134
  5439.092  5439.100  0.500  1.692382  107.661  24.7357  4.553368
  5441.092  5441.100  0.500  1.690749  107.71  24.8084  4.574204
  5443.093  5443.100  0.500  1.689209  107.954  24.9387  4.605327
  5445.099  5445.100  0.500  1.687621  108.144  25.0571  4.634532
  5447.094  5447.100  0.500  1.686349  108.222  25.1355  4.654963
  5449.095  5449.100  0.500  1.685101  108.302  25.2057  4.673781
  5451.093  5451.100  0.500  1.683921  108.351  25.2801  4.693113
  5453.095  5453.100  0.500  1.683037  108.447  25.3657  4.713181
  5455.095  5455.100  0.500  1.682575  108.532  25.4409  4.729321
  5455.393  5455.400  0.500  1.682470  108.525  25.447  4.730959
  5455.690  5455.700  0.500  1.682601  108.543  25.458  4.732377
  5455.989  5456.000  0.500  1.682369  108.527  25.4754  4.736713
  5456.290  5456.300  0.500  1.682685  108.536  25.4749  4.735131
  5456.591  5456.600  0.500  1.682633  108.533  25.4924  4.738630
  5456.890  5456.900  0.500  1.682608  108.547  25.4842  4.737231
  5457.192  5457.200  0.500  1.682695  108.551  25.5044  4.740565
  5457.492  5457.500  0.500  1.682863  108.551  25.5165  4.742014
  5457.791  5457.800  0.500  1.682988  108.556  25.5279  4.743535
  5458.089  5458.100  0.500  1.683254  108.558  25.5326  4.743146
  5458.394  5458.400  0.500  1.683480  108.566  25.5465  4.744659
  5458.690  5458.700  0.500  1.683801  108.558  25.5515  4.744072
  5458.996  5459.000  0.500  1.684177  108.557  25.5614  4.744117
  5459.293  5459.300  0.500  1.684546  108.573  25.5765  4.745176
  5459.595  5459.600  0.500  1.685191  108.583  25.5933  4.745221
  5459.893  5459.900  0.500  1.685704  108.586  25.5974  4.743550
  5460.192  5460.200  0.500  1.686517  108.588  25.5998  4.740139
  5460.494  5460.500  0.500  1.687510  108.582  25.5865  4.732971
  5460.796  5460.800  0.500  1.688594  108.601  25.6215  4.734324
  5461.094  5461.100  0.500  1.689739  108.598  25.6323  4.730897
  5461.398  5461.400  0.500  1.691595  108.609  25.6483  4.725062
  5461.699  5461.700  0.500  1.693462  108.608  25.6564  4.717741
  5461.996  5462.000  0.500  1.696315  108.608  25.6705  4.706891
  5462.294  5462.300  0.500  1.699646  108.612  25.6778  4.692574
  5462.595  5462.600  0.500  1.704575  108.61  25.6886  4.671457
  5462.895  5462.900  0.500  1.711325  108.626  25.7031  4.642659
  5463.195  5463.200  0.500  1.721276  108.628  25.7133  4.598509
  5463.496  5463.500  0.500  1.738334  108.634  25.7225  4.522346
  5463.796  5463.800  0.500  1.768449  108.656  25.7261  4.388798
  5464.099  5464.100  0.500  1.820573  108.654  25.7268  4.166019
  5464.397  5464.400  0.500  1.892210  108.646  25.7468  3.881024
  5464.694  5464.700  0.500  1.963104  108.661  25.7519  3.616131
  5464.994  5465.000  0.500  1.996684  108.682  25.7728  3.499552
  5465.297  5465.300  0.500  1.988060  108.661  25.7732  3.529924
  5465.598  5465.600  0.500  1.965930  108.658  25.7808  3.609970
  5465.899  5465.900  0.500  1.947844  108.67  25.7848  3.676424
  5466.203  5466.200  0.500  1.940344  108.66  25.7924  3.705199
  5466.497  5466.500  0.500  1.942715  108.694  25.8194  3.700296
  5466.796  5466.800  0.500  1.952717  108.705  25.835  3.665683
  5467.098  5467.100  0.500  1.967944  108.702  25.8422  3.611297
  5467.398  5467.400  0.500  1.985709  108.708  25.8375  3.547060
  5467.699  5467.700  0.500  2.003468  108.692  25.8399  3.484936
  5468.001  5468.000  0.500  2.021682  108.677  25.8522  3.423672
  5468.301  5468.300  0.500  2.040159  108.697  25.8494  3.360625
  5468.599  5468.600  0.500  2.057787  108.7  25.8639  3.303758
  5468.897  5468.900  0.500  2.072995  108.694  25.8836  3.256369
  5469.200  5469.200  0.500  2.085338  108.694  25.9013  3.218630
  5469.495  5469.500  0.500  2.094729  108.717  25.91  3.189618
  5469.799  5469.800  0.500  2.101665  108.717  25.9131  3.167941
  5470.100  5470.100  0.500  2.106532  108.715  25.9219  3.153639
  5470.399  5470.400  0.500  2.109600  108.731  25.9332  3.145341
  5470.697  5470.700  0.500  2.111443  108.737  25.9572  3.142455
  5471.000  5471.000  0.500  2.113033  108.74  25.9682  3.138793
  5471.300  5471.300  0.500  2.115537  108.747  25.9772  3.132033
  5471.601  5471.600  0.500  2.119591  108.752  25.9816  3.119895
  5471.899  5471.900  0.500  2.126364  108.744  25.9772  3.098304
  5472.200  5472.200  0.500  2.137525  108.764  25.9892  3.065326
  5472.498  5472.500  0.500  2.154041  108.77  25.9947  3.015762
  5472.800  5472.800  0.500  2.174536  108.783  26.0084  2.956140
  5473.103  5473.100  0.500  2.198106  108.789  26.0417  2.890969
  5473.402  5473.400  0.500  2.223318  108.785  26.0379  2.818590
  5473.699  5473.700  0.500  2.247682  108.801  26.0449  2.751478
  5474.001  5474.000  0.500  2.271426  108.775  26.0612  2.688604
  5474.298  5474.300  0.500  2.292993  108.823  26.0845  2.633594
  5474.603  5474.600  0.500  2.313740  108.815  26.0807  2.579140
  5474.904  5474.900  0.500  2.333212  108.823  26.0817  2.529497
  5475.200  5475.200  0.500  2.350840  108.816  26.0866  2.485770
  5475.501  5475.500  0.500  2.366780  108.799  26.106  2.448277
  5475.801  5475.800  0.500  2.382513  108.806  26.1278  2.412076
  5476.099  5476.100  0.500  2.398233  108.816  26.1381  2.375388
  5476.399  5476.400  0.500  2.413277  108.822  26.1483  2.340834
  5476.703  5476.700  0.500  2.428009  108.838  26.1674  2.308287
  5477.005  5477.000  0.500  2.443127  108.836  26.1694  2.273830
  5477.302  5477.300  0.500  2.457770  108.834  26.1723  2.241022
  5477.601  5477.600  0.500  2.472393  108.849  26.1785  2.209011
  5477.901  5477.900  0.500  2.486225  108.882  26.2002  2.180471
  5478.203  5478.200  0.500  2.499857  108.872  26.195  2.150528
  5478.500  5478.500  0.500  2.513007  108.863  26.1971  2.122601
  5478.800  5478.800  0.500  2.526475  108.881  26.2112  2.095331
  5479.103  5479.100  0.500  2.539038  108.888  26.2305  2.070693
  5479.403  5479.400  0.500  2.551743  108.887  26.2519  2.046225
  5479.703  5479.700  0.500  2.564627  108.889  26.2673  2.021211
  5480.000  5480.000  0.500  2.577138  108.913  26.2892  1.997748
  5480.298  5480.300  0.500  2.588609  108.885  26.2812  1.974358
  5480.602  5480.600  0.500  2.599666  108.898  26.3085  1.954681
  5480.899  5480.900  0.500  2.609568  108.902  26.3174  1.936074
  5481.205  5481.200  0.500  2.619521  108.927  26.3238  1.917367
  5481.503  5481.500  0.500  2.628321  108.935  26.3376  1.901564
  5481.803  5481.800  0.500  2.638020  108.943  26.3402  1.883398
  5482.103  5482.100  0.500  2.648216  108.948  26.3488  1.864897
  5482.404  5482.400  0.500  2.658440  108.936  26.3495  1.845978
  5482.702  5482.700  0.500  2.667531  108.951  26.3443  1.828911
  5483.002  5483.000  0.500  2.675120  108.959  26.3658  1.816566
  5483.299  5483.300  0.500  2.679245  108.951  26.3657  1.809080
  5483.598  5483.600  0.500  2.679676  108.973  26.3742  1.808886
  5483.903  5483.900  0.500  2.676595  108.967  26.3984  1.816133
  5484.204  5484.200  0.500  2.669671  108.973  26.4188  1.830164
  5484.501  5484.500  0.500  2.659389  108.991  26.4141  1.848751
  5484.803  5484.800  0.500  2.646506  109.001  26.4117  1.872553
  5485.098  5485.100  0.500  2.633270  109.018  26.4474  1.900066
  5485.397  5485.400  0.500  2.618999  109.042  26.4719  1.929159
  5485.701  5485.700  0.500  2.604133  109.032  26.4787  1.958559
  5486.001  5486.000  0.500  2.590050  109.033  26.4881  1.987038
  5486.302  5486.300  0.500  2.577557  109.038  26.5  2.012926
  5486.603  5486.600  0.500  2.566543  109.046  26.5063  2.035700
  5486.902  5486.900  0.500  2.556951  109.057  26.5198  2.056364
  5487.202  5487.200  0.500  2.549269  109.084  26.5184  2.072116
  5487.498  5487.500  0.500  2.543519  109.076  26.5454  2.086183
  5487.802  5487.800  0.500  2.539712  109.077  26.5558  2.094966
  5488.098  5488.100  0.500  2.537869  109.087  26.5645  2.099519
  5488.403  5488.400  0.500  2.537790  109.11  26.581  2.100986
  5488.701  5488.700  0.500  2.538932  109.118  26.5982  2.099942
  5489.000  5489.000  0.500  2.541455  109.113  26.6058  2.095256
  5489.304  5489.300  0.500  2.545553  109.135  26.6195  2.087761
  5489.598  5489.600  0.500  2.550535  109.144  26.6239  2.077723
  5489.899  5489.900  0.500  2.556420  109.135  26.6381  2.066634
  5490.099  5490.100  0.500  2.560537  109.14  26.6374  2.058090
  5491.099  5491.090  0.500  2.583017  109.152  26.66  2.014048
  5492.100  5492.090  0.500  2.600081  109.166  26.6969  1.982712
  5493.121  5493.110  0.500  2.604679  109.202  26.7361  1.976515
  5494.175  5494.160  0.500  2.597199  109.218  26.7886  1.995263
  5495.218  5495.220  0.500  2.584158  109.208  26.8132  2.023314
  5496.298  5496.300  0.500  2.575324  109.255  26.8489  2.043985
  5497.400  5497.400  0.500  2.577875  109.661  26.9836  2.049005
  5498.519  5498.520  0.500  2.590172  109.663  27.0269  2.027210
  5499.661  5499.660  0.500  2.603808  109.679  27.0583  2.002076
  5500.816  5500.810  0.500  2.613686  109.701  27.1034  1.985703
  5501.992  5501.990  0.500  2.621707  109.744  27.1521  1.973377
  5503.184  5503.180  0.500  2.627371  109.769  27.2006  1.965737
  5504.404  5504.400  0.500  2.629790  109.791  27.2438  1.964103
  5505.631  5505.630  0.500  2.631176  109.795  27.2777  1.963825
  5506.884  5506.880  0.500  2.635333  109.82  27.3204  1.958736
  5508.155  5508.150  0.500  2.644018  109.834  27.3652  1.944987
  5509.439  5509.440  0.500  2.652501  109.868  27.4164  1.932166
  5510.756  5510.750  0.500  2.654787  109.878  27.4548  1.930448
  5512.084  5512.080  0.500  2.650798  109.899  27.4996  1.941333
  5513.435  5513.430  0.500  2.643394  109.931  27.5471  1.959138
  5514.808  5514.800  0.500  2.635617  109.956  27.6049  1.978571
  5516.183  5516.180  0.500  2.628850  110.016  27.6807  1.997480
  5517.600  5517.590  0.500  2.620215  110.018  27.7112  2.017021
  5519.019  5519.010  0.500  2.607874  110.021  27.7349  2.043811
  5520.454  5520.450  0.500  2.591239  110.04  27.7997  2.082951
  5521.917  5521.910  0.500  2.572390  110.058  27.8486  2.126318
  5523.398  5523.390  0.500  2.553988  110.059  27.8961  2.169502
  5524.894  5524.890  0.500  2.538281  110.07  27.9413  2.207420
  5526.417  5526.410  0.500  2.525394  110.098  27.9919  2.240100
  5527.957  5527.950  0.500  2.514019  110.119  28.0433  2.269888
  5529.515  5529.510  0.500  2.505159  110.136  28.1029  2.294959
  5531.090  5531.080  0.500  2.502162  110.139  28.1609  2.306599
  5532.689  5532.680  0.500  2.507234  110.159  28.2124  2.299118
  5534.305  5534.290  0.500  2.518566  110.165  28.2534  2.276518
  5535.937  5535.930  0.500  2.535385  110.195  28.3218  2.243969
  5537.587  5537.580  0.500  2.556327  110.208  28.3487  2.199551
  5539.261  5539.250  0.500  2.572842  110.235  28.4215  2.169081
  5540.952  5540.940  0.500  2.573734  110.264  28.4901  2.172377
  5542.657  5542.650  0.500  2.561277  110.287  28.5467  2.203978
  5544.388  5544.380  0.500  2.542387  110.3  28.6058  2.250655
  5546.139  5546.130  0.500  2.521445  110.31  28.6633  2.302912
  5547.897  5547.890  0.500  2.499685  110.328  28.7248  2.358618
  5549.702  5549.680  0.500  2.478525  110.348  28.7852  2.414123
  5551.488  5551.480  0.500  2.464726  110.372  28.8457  2.452807
  5553.329  5553.310  0.500  2.464318  110.37  28.9021  2.458608
  5555.160  5555.150  0.500  2.480908  110.402  28.9698  2.423824
  5557.020  5557.010  0.500  2.509761  110.391  29.0212  2.359066
  5558.903  5558.890  0.500  2.542755  110.391  29.0817  2.287261
  5560.811  5560.790  0.500  2.573299  110.424  29.1512  2.223756
  5562.717  5562.710  0.500  2.599220  110.439  29.2118  2.171358
  5564.662  5564.650  0.500  2.615602  110.452  29.2692  2.140276
  5566.634  5566.610  0.500  2.617123  110.467  29.3434  2.142437
  5568.601  5568.580  0.500  2.602886  110.489  29.4125  2.178272
  5570.590  5570.580  0.500  2.576838  110.485  29.4705  2.240170
  5572.601  5572.590  0.500  2.545116  110.504  29.5378  2.317650
  5574.643  5574.620  0.500  2.512242  110.535  29.6168  2.401513
  5576.695  5576.680  0.500  2.484228  110.563  29.6873  2.475619
  5578.760  5578.750  0.500  2.465179  110.573  29.7607  2.529473
  5580.859  5580.840  0.500  2.455743  110.584  29.8314  2.559520
  5582.962  5582.950  0.500  2.453768  110.603  29.9013  2.570583
  5585.070  5585.080  0.500  2.455624  110.602  29.9713  2.571829
  5587.236  5587.220  0.500  2.456716  110.631  30.0427  2.575135
  5589.402  5589.390  0.500  2.452998  110.649  30.1166  2.591089
  5591.588  5591.580  0.500  2.443942  110.65  30.1868  2.620753
  5593.792  5593.780  0.500  2.433226  110.644  30.2552  2.654995
  5595.995  5596.000  0.500  2.424446  110.673  30.3346  2.685433
  5598.259  5598.250  0.500  2.420374  110.681  30.4124  2.703310
  5600.522  5600.510  0.500  2.420790  110.689  30.4784  2.708046
  5602.800  5602.790  0.500  2.422827  110.684  30.5617  2.709925
  5605.100  5605.090  0.500  2.425177  110.715  30.636  2.710139
  5607.412  5607.410  0.500  2.430475  110.726  30.7182  2.703049
  5609.745  5609.750  0.500  2.438226  110.736  30.7961  2.688980
  5612.112  5612.100  0.500  2.444209  110.719  30.873  2.679615
  5614.490  5614.480  0.500  2.446685  110.763  30.961  2.680609
  5616.876  5616.870  0.500  2.450588  110.767  31.0323  2.676313
  5619.305  5619.290  0.500  2.458760  110.806  31.1241  2.662381
  5621.737  5621.720  0.500  2.472083  110.806  31.1866  2.632424
  5624.189  5624.170  0.500  2.483604  110.787  31.2516  2.607699
  5626.669  5626.650  0.500  2.485950  110.765  31.33  2.608108
  5629.160  5629.140  0.500  2.476393  110.776  31.4287  2.641451
  5631.662  5631.650  0.500  2.459906  110.795  31.5025  2.691669
  5634.179  5634.170  0.500  2.441147  110.826  31.6052  2.751577
  5636.720  5636.720  0.500  2.423462  110.807  31.6779  2.807112
  5639.298  5639.290  0.500  2.408374  110.792  31.7671  2.857815
  5641.865  5641.870  0.500  2.396849  110.817  31.863  2.899665
  5644.489  5644.480  0.500  2.388909  110.808  31.9344  2.929333
  5647.104  5647.100  0.500  2.383160  110.803  32.0081  2.953020
  5649.749  5649.750  0.500  2.377189  110.757  32.0709  2.976533
  5652.408  5652.410  0.500  2.370600  110.739  32.1487  3.003485
  5655.090  5655.090  0.500  2.363837  110.693  32.2184  3.030416
  5657.792  5657.790  0.500  2.357932  110.681  32.3062  3.056675
  5660.513  5660.510  0.500  2.352801  110.61  32.3915  3.080509
  5663.256  5663.250  0.500  2.345654  110.581  32.4857  3.111633
  5666.007  5666.000  0.500  2.336243  110.558  32.5654  3.148758
  5668.783  5668.780  0.500  2.327351  110.523  32.6449  3.184636
  5671.575  5671.570  0.500  2.322525  110.462  32.717  3.207113
  5674.396  5674.390  0.500  2.322912  110.406  32.7982  3.213823
  5677.228  5677.220  0.500  2.327135  110.338  32.8646  3.206756
  5680.083  5680.070  0.500  2.332940  110.277  32.9415  3.195654
  5682.959  5682.950  0.500  2.339640  110.225  33.0161  3.181505
  5685.849  5685.840  0.500  2.346536  110.11  33.0618  3.164021
  5688.759  5688.750  0.500  2.353956  110.014  33.1293  3.147044
  5691.681  5691.670  0.500  2.360233  109.922  33.2202  3.135930
  5694.643  5694.620  0.500  2.364598  109.826  33.2852  3.128384
  5697.600  5697.590  0.500  2.364561  109.693  33.3385  3.133502
  5700.579  5700.570  0.500  2.358254  109.626  33.4054  3.159653
  5703.601  5703.580  0.500  2.345914  109.504  33.4661  3.204705
  5706.606  5706.600  0.500  2.329561  109.365  33.5267  3.263435
  5709.661  5709.650  0.500  2.313044  109.207  33.5898  3.324035
  5712.721  5712.710  0.500  2.301207  109.079  33.6498  3.369616
  5715.799  5715.790  0.500  2.293657  108.946  33.7088  3.401111
  5718.899  5718.890  0.500  2.289242  108.776  33.7616  3.421508
  5722.029  5722.010  0.500  2.284462  108.617  33.8019  3.442008
  5725.143  5725.150  0.500  2.278792  108.453  33.8434  3.465831
  5728.290  5728.300  0.500  2.272899  108.243  33.9012  3.492265
  5731.475  5731.480  0.500  2.268484  108.067  33.9432  3.512072
  5734.694  5734.670  0.500  2.265493  107.853  33.9773  3.526123
  5737.888  5737.890  0.500  2.262717  107.645  34.0221  3.540586
  5741.111  5741.120  0.500  2.258873  107.427  34.0595  3.558129
  5744.396  5744.370  0.500  2.252937  107.203  34.0912  3.582645
  5747.664  5747.650  0.500  2.246108  106.964  34.12  3.610244
  5750.949  5750.940  0.500  2.240760  106.734  34.147  3.632479
  5754.277  5754.250  0.500  2.236766  106.461  34.1716  3.649636
  5757.574  5757.570  0.500  2.234053  106.219  34.2066  3.663305
  5760.906  5760.920  0.500  2.233143  105.954  34.2309  3.669246
  5764.294  5764.290  0.500  2.234104  105.674  34.2545  3.668245
  5767.659  5767.670  0.500  2.235289  105.411  34.2747  3.666069
  5771.073  5771.080  0.500  2.235347  105.147  34.2953  3.668052
  5774.486  5774.500  0.500  2.234803  104.832  34.3059  3.671187
  5777.941  5777.950  0.500  2.233309  104.521  34.3011  3.676161
  5781.393  5781.410  0.500  2.230915  104.225  34.2982  3.684654
  5784.876  5784.890  0.500  2.227160  103.935  34.3334  3.702317
  5788.398  5788.390  0.500  2.221694  103.654  34.3437  3.723728
  5791.896  5791.910  0.500  2.215753  103.345  34.3329  3.744734
  5795.441  5795.450  0.500  2.210234  103.026  34.3424  3.766506
  5798.981  5799.000  0.500  2.203545  102.705  34.3626  3.794011
  5802.576  5802.580  0.500  2.195972  102.384  34.3771  3.824470
  5806.168  5806.180  0.500  2.187750  102.071  34.3882  3.857282
  5809.778  5809.790  0.500  2.180537  101.726  34.3832  3.884639
  5813.409  5813.420  0.500  2.175050  101.436  34.4038  3.908356
  5817.067  5817.080  0.500  2.170821  101.094  34.389  3.923229
  5820.740  5820.750  0.500  2.167224  100.77  34.3788  3.936198
  5824.427  5824.440  0.500  2.163240  100.438  34.3824  3.952325
  5828.142  5828.150  0.500  2.158830  100.126  34.3789  3.969396
  5831.877  5831.880  0.500  2.154237  100.14  34.5077  4.002612
  5835.630  5835.620  0.500  2.150452  99.7859  34.5202  4.019239
  5839.377  5839.390  0.500  2.146929  99.4792  34.54  4.035739
  5843.193  5843.180  0.500  2.144078  99.136  34.5245  4.045442
  5846.973  5846.980  0.500  2.140535  98.8195  34.5126  4.058399
  5850.798  5850.810  0.500  2.136567  98.4731  34.5224  4.075700
  5854.641  5854.650  0.500  2.132350  98.1054  34.5059  4.090965
  5858.489  5858.510  0.500  2.128162  97.7331  34.4988  4.107284
  5862.384  5862.390  0.500  2.124754  97.2975  34.4698  4.117844
  5866.275  5866.290  0.500  2.122388  96.7456  34.3929  4.118388
  5870.199  5870.210  0.500  2.120325  95.046  33.9073  4.068626
  5874.139  5874.150  0.500  2.119201  88.7514  31.7709  3.816560
  5878.096  5878.110  0.500  2.114326  97.4369  34.9813  4.222754
  5882.073  5882.080  0.500  2.109741  96.8734  34.9139  4.233988
  5886.069  5886.080  0.500  2.104478  96.4755  34.8808  4.252292
  5890.101  5890.090  0.500  2.099070  96.1002  34.8699  4.274011
  5894.115  5894.130  0.500  2.093735  95.7426  34.8655  4.296334
  5898.173  5898.180  0.500  2.088953  95.3476  34.8384  4.313580
  5902.243  5902.250  0.500  2.084590  94.9925  34.8279  4.331128
  5906.334  5906.340  0.500  2.080100  94.5503  34.777  4.344269
  5910.437  5910.450  0.500  2.075445  93.9279  34.6704  4.351151
  5914.575  5914.580  0.500  2.070040  91.5349  33.9127  4.279124
  5918.734  5918.730  0.500  2.065524  93.7223  34.8397  4.415989
  5922.874  5922.890  0.500  2.061515  94.1861  35.1379  4.471685
  5927.067  5927.080  0.500  2.057900  93.2044  34.8993  4.457409
  5931.267  5931.280  0.500  2.053018  77.982  29.3013  3.760728
  5935.505  5935.510  0.500  2.049442  93.2522  35.158  4.528584
  5939.760  5939.750  0.500  2.044741  92.3176  34.9363  4.521237
  5943.999  5944.010  0.500  2.039310  87.737  33.3271  4.336471
  5948.280  5948.290  0.500  2.034937  93.0887  35.4771  4.636460
  5952.578  5952.590  0.500  2.029978  92.4774  35.3643  4.644687
  5956.897  5956.910  0.500  2.025705  92.0266  35.3078  4.657132
  5961.236  5961.250  0.500  2.021524  91.5863  35.2583  4.670092
  5965.601  5965.610  0.500  2.017495  91.1968  35.2443  4.687071
  5969.975  5969.990  0.500  2.013811  90.7794  35.2162  4.700625
  5974.368  5974.380  0.500  2.010407  90.3782  35.1725  4.710801
  5978.788  5978.800  0.500  2.006799  89.8687  35.109  4.719296
  5983.219  5983.230  0.500  2.003030  89.1628  34.9441  4.714869
  5987.671  5987.680  0.500  1.998924  86.8973  34.18  4.630742
  5992.134  5992.150  0.500  1.994751  90.007  35.5378  4.834828
  5996.624  5996.640  0.500  1.990393  89.6117  35.5214  4.853709
  6001.142  6001.150  0.500  1.985980  88.992  35.4076  4.859546
  6005.667  6005.680  0.500  1.981526  88.4673  35.3297  4.870502
  6010.215  6010.230  0.500  1.976780  88.0497  35.2779  4.886501
  6014.786  6014.800  0.500  1.971914  87.5964  35.2191  4.902155
  6019.369  6019.380  0.500  1.967682  87.2142  35.1957  4.919667
  6023.978  6023.990  0.500  1.963379  86.8148  35.1605  4.935942
  6028.594  6028.610  0.500  1.958936  86.4061  35.1175  4.951859
  6033.247  6033.260  0.500  1.954525  85.99  35.0851  4.969160
  6037.907  6037.920  0.500  1.950272  85.5601  35.0424  4.984269
  6042.586  6042.600  0.500  1.945967  85.0998  34.9798  4.996823
  6047.284  6047.300  0.500  1.941872  84.7083  34.947  5.012634
  6052.009  6052.020  0.500  1.937458  84.282  34.9019  5.028303
  6056.749  6056.760  0.500  1.932619  83.6929  34.783  5.035491
  6061.499  6061.510  0.500  1.928257  83.0882  34.6452  5.037464
  6066.279  6066.290  0.500  1.923925  82.6242  34.5791  5.049682
  6071.077  6071.090  0.500  1.919596  82.1888  34.5275  5.064018
  6075.887  6075.900  0.500  1.915161  81.7175  34.4572  5.076175
  6080.721  6080.730  0.500  1.910868  81.2157  34.3713  5.085291
  6085.575  6085.590  0.500  1.906576  80.6844  34.2748  5.092839
  6090.442  6090.460  0.500  1.902499  80.1951  34.1957  5.101833
  6095.341  6095.350  0.500  1.898297  79.6841  34.1032  5.109455
  6100.249  6100.260  0.500  1.894079  79.1547  33.9981  5.115250
  6105.176  6105.190  0.500  1.889740  78.6102  33.8703  5.118180