File: xdidata/V/V-VO2.xdi
# XDI/1.0 BlueSky/1.10.0 BMM/2023-1.0-py310-tiled
# Beamline.name: BMM (06BM) -- Beamline for Materials Measurement (NIST)
# Beamline.xray_source: NSLS-II three-pole wiggler
# Beamline.collimation: paraboloid mirror, 5 nm Rh on 30 nm Pt
# Beamline.focusing: not in use
# Beamline.harmonic_rejection: flat mirror, Si stripe, pitch = 7.0 mrad relative to beam
# Beamline.software: Bluesky 1.10.0, Ophyd 1.7.0, DataBroker 2.0.0b13, Python 3.10.8, 2023-1.0-py310-tiled
# Detector.I0: 10 cm N2
# Detector.I1: 25 cm N2
# Detector.I2: 25 cm N2
# Element.symbol: V
# Element.edge: K
# Element.reference: V
# Element.reference_material: V foil
# Facility.name: NSLS-II
# Facility.energy: 3.0
# Facility.current: 399.6
# Facility.mode: top-off
# Facility.GUP: 123456
# Facility.SAF: 301027
# Facility.cycle: 2023-2
# Mono.name: Si(111)
# Mono.d_spacing: 3.13519
# Mono.encoder_resolution: 0.0000050 deg/ct
# Mono.angle_offset: 16.0754 deg
# Mono.scan_mode: pseudo channel cut
# Mono.scan_type: step
# Mono.direction: forward in energy
# Sample.name: VO2
# Sample.prep: Powder in PEG pellet
# Sample.x: 116.329 mm
# Sample.y: 114.126 mm
# Sample.SDD_position: 205.000 mm
# Scan.experimenters: Bruce Ravel
# Scan.edge_energy: 5465.1
# Scan.start_time: 2023-05-06T09:19:26
# Scan.end_time: 2023-05-06T09:26:49
# Scan.transient_id: 74679
# Scan.uid: fc620012-152b-4046-bf73-fb75324b627a
# Scan.plot_hint: ln(I0/It)  --  ln($5/$6)
# Column.1: energy eV
# Column.2: requested_energy eV
# Column.3: measurement_time seconds
# Column.4: xmu
# Column.5: I0 nA
# Column.6: It nA
# Column.7: Ir nA
# ///////////
# Thermo Scientific; Vanadium (IV) oxide (99%); 022957.09; Lot T12H043
# -----------
# energy  requested_energy  measurement_time  xmu  I0  It  Ir
  5265.109  5265.100  0.500  3.653763  98.5609  2.552087  0.394650
  5275.110  5275.100  0.500  3.629374  99.3196  2.635227  0.411822
  5285.110  5285.100  0.500  3.606136  99.7293  2.708308  0.427743
  5295.113  5295.100  0.500  3.582366  100.42  2.792666  0.445884
  5305.110  5305.100  0.500  3.558104  101.025  2.878490  0.463989
  5315.108  5315.100  0.500  3.535163  101.604  2.962162  0.482738
  5325.107  5325.100  0.500  3.511932  102.144  3.047895  0.501770
  5335.088  5335.100  0.500  3.489406  102.738  3.135460  0.521374
  5345.090  5345.100  0.500  3.466733  103.228  3.222672  0.541301
  5355.092  5355.100  0.500  3.443982  103.743  3.313266  0.562398
  5365.096  5365.100  0.500  3.421782  104.264  3.404670  0.583392
  5375.094  5375.100  0.500  3.399988  104.803  3.497667  0.605324
  5385.101  5385.100  0.500  3.377771  105.316  3.593743  0.628468
  5395.099  5395.100  0.500  3.355282  105.868  3.694730  0.652130
  5405.093  5405.100  0.500  3.333412  103.545  3.693589  0.658232
  5415.099  5415.100  0.500  3.312054  106.638  3.886004  0.699030
  5425.098  5425.100  0.500  3.290828  106.973  3.981845  0.722858
  5435.094  5435.100  0.500  3.270555  107.395  4.079432  0.747395
  5437.095  5437.100  0.500  3.266721  107.463  4.097689  0.751984
  5439.093  5439.100  0.500  3.262584  107.59  4.119541  0.757197
  5441.089  5441.100  0.500  3.258745  107.973  4.150133  0.764118
  5443.095  5443.100  0.500  3.254553  108.048  4.170462  0.768993
  5445.104  5445.100  0.500  3.250765  108.124  4.189204  0.773763
  5447.100  5447.100  0.500  3.246301  108.218  4.211598  0.778966
  5449.100  5449.100  0.500  3.242433  108.292  4.230831  0.783576
  5451.096  5451.100  0.500  3.239716  108.361  4.245037  0.787115
  5453.096  5453.100  0.500  3.235625  108.434  4.265330  0.791883
  5455.095  5455.100  0.500  3.232688  108.507  4.280726  0.794886
  5455.390  5455.400  0.500  3.231925  108.499  4.283706  0.795267
  5455.693  5455.700  0.500  3.231487  108.515  4.286205  0.795713
  5455.990  5456.000  0.500  3.230654  108.53  4.290388  0.796400
  5456.293  5456.300  0.500  3.230611  108.511  4.289803  0.796248
  5456.594  5456.600  0.500  3.229975  108.522  4.292984  0.796984
  5456.892  5456.900  0.500  3.229386  108.538  4.296133  0.797529
  5457.190  5457.200  0.500  3.229994  108.55  4.293981  0.797225
  5457.491  5457.500  0.500  3.228930  108.573  4.299472  0.798216
  5457.791  5457.800  0.500  3.228066  108.574  4.303234  0.798928
  5458.091  5458.100  0.500  3.227654  108.573  4.304980  0.798903
  5458.391  5458.400  0.500  3.227237  108.569  4.306585  0.798715
  5458.692  5458.700  0.500  3.226723  108.591  4.309703  0.798975
  5458.997  5459.000  0.500  3.226475  108.59  4.310724  0.799173
  5459.295  5459.300  0.500  3.226677  108.594  4.310017  0.798951
  5459.594  5459.600  0.500  3.226027  108.604  4.313197  0.799072
  5459.894  5459.900  0.500  3.225444  108.629  4.316720  0.798963
  5460.192  5460.200  0.500  3.225016  108.638  4.318907  0.798758
  5460.493  5460.500  0.500  3.224941  108.635  4.319127  0.797906
  5460.795  5460.800  0.500  3.224712  108.648  4.320631  0.797742
  5461.094  5461.100  0.500  3.224565  108.64  4.320957  0.796535
  5461.396  5461.400  0.500  3.223870  108.662  4.324809  0.795781
  5461.696  5461.700  0.500  3.224145  108.667  4.323838  0.794208
  5461.996  5462.000  0.500  3.224082  108.632  4.322711  0.791885
  5462.295  5462.300  0.500  3.223974  108.676  4.324925  0.789576
  5462.591  5462.600  0.500  3.223787  108.691  4.326339  0.786428
  5462.892  5462.900  0.500  3.224598  108.704  4.323334  0.780402
  5463.197  5463.200  0.500  3.224377  108.716  4.324790  0.772884
  5463.497  5463.500  0.500  3.224762  108.717  4.323175  0.759715
  5463.796  5463.800  0.500  3.225428  108.723  4.320528  0.737229
  5464.098  5464.100  0.500  3.226654  108.736  4.315729  0.700565
  5464.399  5464.400  0.500  3.227645  108.7  4.310035  0.651590
  5464.695  5464.700  0.500  3.228882  108.743  4.306397  0.606785
  5464.996  5465.000  0.500  3.231413  108.735  4.295230  0.585343
  5465.295  5465.300  0.500  3.235542  108.748  4.278018  0.587838
  5465.597  5465.600  0.500  3.241297  108.752  4.253622  0.597272
  5465.896  5465.900  0.500  3.250805  108.765  4.213869  0.602125
  5466.202  5466.200  0.500  3.263310  108.78  4.162072  0.599653
  5466.495  5466.500  0.500  3.276543  108.789  4.107732  0.590783
  5466.796  5466.800  0.500  3.289330  108.779  4.055140  0.577640
  5467.097  5467.100  0.500  3.306067  108.782  3.987959  0.559814
  5467.397  5467.400  0.500  3.333602  108.795  3.880103  0.535581
  5467.699  5467.700  0.500  3.370276  108.783  3.739964  0.507327
  5468.001  5468.000  0.500  3.407893  108.797  3.602359  0.480270
  5468.299  5468.300  0.500  3.439941  108.801  3.488874  0.457024
  5468.600  5468.600  0.500  3.461129  108.806  3.415877  0.439847
  5468.896  5468.900  0.500  3.470445  108.826  3.384832  0.429624
  5469.200  5469.200  0.500  3.474458  108.832  3.371471  0.422492
  5469.500  5469.500  0.500  3.474117  108.823  3.372350  0.418692
  5469.800  5469.800  0.500  3.466211  108.825  3.399155  0.419004
  5470.100  5470.100  0.500  3.448745  108.821  3.458937  0.424428
  5470.401  5470.400  0.500  3.427188  108.826  3.534457  0.432134
  5470.696  5470.700  0.500  3.406799  108.807  3.606643  0.440025
  5470.999  5471.000  0.500  3.389701  108.838  3.669897  0.446926
  5471.300  5471.300  0.500  3.374735  108.848  3.725557  0.452436
  5471.599  5471.600  0.500  3.362041  108.865  3.773747  0.456464
  5471.899  5471.900  0.500  3.351318  108.863  3.814364  0.458532
  5472.204  5472.200  0.500  3.341245  108.859  3.852841  0.457981
  5472.502  5472.500  0.500  3.332619  108.871  3.886639  0.454501
  5472.796  5472.800  0.500  3.326170  108.87  3.911744  0.448361
  5473.100  5473.100  0.500  3.321351  108.885  3.931187  0.440471
  5473.400  5473.400  0.500  3.318618  108.899  3.942460  0.430989
  5473.702  5473.700  0.500  3.318299  108.899  3.943709  0.420861
  5474.003  5474.000  0.500  3.319395  108.903  3.939546  0.410891
  5474.302  5474.300  0.500  3.323427  108.911  3.923988  0.400842
  5474.605  5474.600  0.500  3.330294  108.908  3.897027  0.390049
  5474.899  5474.900  0.500  3.338849  108.912  3.863947  0.379525
  5475.200  5475.200  0.500  3.350644  108.926  3.819147  0.369060
  5475.502  5475.500  0.500  3.365576  108.914  3.762117  0.358147
  5475.803  5475.800  0.500  3.384451  108.931  3.692342  0.346054
  5476.104  5476.100  0.500  3.407341  108.944  3.609221  0.333387
  5476.403  5476.400  0.500  3.433207  108.949  3.517214  0.320382
  5476.702  5476.700  0.500  3.461591  108.959  3.419109  0.307306
  5477.005  5477.000  0.500  3.495256  108.969  3.306232  0.293379
  5477.301  5477.300  0.500  3.533173  108.979  3.183497  0.278598
  5477.601  5477.600  0.500  3.573750  108.961  3.056408  0.264233
  5477.902  5477.900  0.500  3.615601  108.972  2.931418  0.250568
  5478.205  5478.200  0.500  3.657809  108.983  2.810553  0.237183
  5478.501  5478.500  0.500  3.696373  108.982  2.704202  0.225633
  5478.804  5478.800  0.500  3.730136  108.996  2.614777  0.215758
  5479.101  5479.100  0.500  3.756768  108.977  2.545598  0.207746
  5479.400  5479.400  0.500  3.781141  108.968  2.484111  0.200328
  5479.701  5479.700  0.500  3.805176  109.003  2.425894  0.193590
  5480.001  5480.000  0.500  3.829775  109.012  2.367144  0.186917
  5480.302  5480.300  0.500  3.854364  108.996  2.309312  0.180458
  5480.603  5480.600  0.500  3.879184  109.008  2.252947  0.174288
  5480.900  5480.900  0.500  3.904141  109.001  2.197278  0.168783
  5481.203  5481.200  0.500  3.929365  109.01  2.142709  0.163105
  5481.502  5481.500  0.500  3.955417  109.023  2.087868  0.157881
  5481.800  5481.800  0.500  3.983545  109.043  2.030325  0.152385
  5482.097  5482.100  0.500  4.014838  109.019  1.967335  0.146560
  5482.403  5482.400  0.500  4.047522  109.026  1.904209  0.140622
  5482.701  5482.700  0.500  4.079709  109.018  1.843752  0.135090
  5483.004  5483.000  0.500  4.112761  109.055  1.784422  0.130242
  5483.301  5483.300  0.500  4.144396  109.043  1.728665  0.125939
  5483.601  5483.600  0.500  4.174537  109.04  1.677281  0.122293
  5483.901  5483.900  0.500  4.201800  109.044  1.632242  0.119464
  5484.201  5484.200  0.500  4.225057  109.061  1.594962  0.117574
  5484.498  5484.500  0.500  4.245821  109.069  1.562306  0.116428
  5484.800  5484.800  0.500  4.263287  109.064  1.535175  0.115756
  5485.098  5485.100  0.500  4.275957  109.071  1.515947  0.115776
  5485.402  5485.400  0.500  4.284824  109.086  1.502772  0.116275
  5485.698  5485.700  0.500  4.290200  109.065  1.494433  0.117530
  5486.001  5486.000  0.500  4.292773  109.058  1.490492  0.118558
  5486.298  5486.300  0.500  4.292948  109.111  1.490952  0.119966
  5486.602  5486.600  0.500  4.292490  109.097  1.491451  0.121315
  5486.899  5486.900  0.500  4.289833  109.106  1.495538  0.122524
  5487.200  5487.200  0.500  4.288901  109.078  1.496554  0.123690
  5487.503  5487.500  0.500  4.289074  109.097  1.496553  0.124227
  5487.802  5487.800  0.500  4.290695  109.115  1.494380  0.124291
  5488.100  5488.100  0.500  4.295279  109.101  1.487353  0.124105
  5488.401  5488.400  0.500  4.301707  109.104  1.477862  0.123482
  5488.699  5488.700  0.500  4.310427  109.112  1.465140  0.122366
  5489.001  5489.000  0.500  4.319775  109.122  1.451630  0.121048
  5489.304  5489.300  0.500  4.329025  109.131  1.438384  0.119535
  5489.603  5489.600  0.500  4.337234  109.143  1.426782  0.118047
  5489.902  5489.900  0.500  4.343812  109.143  1.417431  0.116652
  5490.104  5490.100  0.500  4.347480  109.138  1.412173  0.115619
  5491.097  5491.090  0.500  4.347175  109.165  1.412954  0.113634
  5492.103  5492.090  0.500  4.324920  109.167  1.444776  0.114154
  5493.105  5493.110  0.500  4.294275  109.192  1.490089  0.116893
  5494.156  5494.160  0.500  4.250879  109.199  1.556269  0.122581
  5495.217  5495.220  0.500  4.203842  109.573  1.636810  0.130398
  5496.303  5496.300  0.500  4.174233  109.606  1.686501  0.135219
  5497.403  5497.400  0.500  4.166367  109.616  1.699987  0.136021
  5498.525  5498.520  0.500  4.171985  109.646  1.690912  0.133885
  5499.661  5499.660  0.500  4.189338  109.657  1.662000  0.130231
  5500.814  5500.810  0.500  4.211535  109.668  1.625680  0.126314
  5501.994  5501.990  0.500  4.227778  109.692  1.599829  0.123566
  5503.189  5503.180  0.500  4.233862  109.723  1.590573  0.122040
  5504.399  5504.400  0.500  4.227632  109.735  1.600694  0.122541
  5505.636  5505.630  0.500  4.214303  109.728  1.622068  0.124043
  5506.881  5506.880  0.500  4.196001  109.786  1.652895  0.125673
  5508.155  5508.150  0.500  4.171413  109.831  1.694736  0.127724
  5509.441  5509.440  0.500  4.141767  109.852  1.746061  0.130260
  5510.754  5510.750  0.500  4.110117  109.899  1.802985  0.134255
  5512.084  5512.080  0.500  4.082602  109.901  1.853323  0.138348
  5513.435  5513.430  0.500  4.059834  109.886  1.895736  0.142280
  5514.808  5514.800  0.500  4.043165  109.91  1.928030  0.145664
  5516.182  5516.180  0.500  4.035180  109.93  1.943830  0.147899
  5517.595  5517.590  0.500  4.035427  109.952  1.943753  0.149037
  5519.015  5519.010  0.500  4.039248  109.964  1.936546  0.150132
  5520.456  5520.450  0.500  4.039616  110.002  1.936504  0.152416
  5521.916  5521.910  0.500  4.032933  110.011  1.949645  0.156387
  5523.399  5523.390  0.500  4.020928  110.009  1.973157  0.160715
  5524.898  5524.890  0.500  4.007316  110.038  2.000732  0.165199
  5526.423  5526.410  0.500  3.997083  110.057  2.021646  0.169110
  5527.958  5527.950  0.500  3.991063  110.09  2.034463  0.172044
  5529.516  5529.510  0.500  3.990635  110.087  2.035294  0.173302
  5531.087  5531.080  0.500  3.993922  110.11  2.029031  0.173498
  5532.689  5532.680  0.500  3.998134  110.155  2.021330  0.171966
  5534.298  5534.290  0.500  3.999934  110.176  2.018075  0.170099
  5535.941  5535.930  0.500  3.998767  110.194  2.020765  0.167575
  5537.587  5537.580  0.500  3.997973  110.213  2.022714  0.164520
  5539.257  5539.250  0.500  4.001600  110.227  2.015655  0.161539
  5540.948  5540.940  0.500  4.010405  110.259  1.998569  0.160120
  5542.660  5542.650  0.500  4.021275  110.266  1.977078  0.160378
  5544.388  5544.380  0.500  4.029785  110.275  1.960489  0.161935
  5546.134  5546.130  0.500  4.033217  110.279  1.953837  0.164736
  5547.897  5547.890  0.500  4.032109  110.309  1.956539  0.168030
  5549.685  5549.680  0.500  4.027729  110.283  1.964661  0.172137
  5551.493  5551.480  0.500  4.021741  110.305  1.976860  0.175491
  5553.319  5553.310  0.500  4.017782  110.352  1.985542  0.176274
  5555.162  5555.150  0.500  4.015846  110.384  1.989965  0.174193
  5557.021  5557.010  0.500  4.013904  110.382  1.993809  0.169620
  5558.912  5558.890  0.500  4.011751  110.415  1.998699  0.165128
  5560.798  5560.790  0.500  4.007316  110.413  2.007550  0.161023
  5562.717  5562.710  0.500  4.000603  110.43  2.021378  0.158368
  5564.657  5564.650  0.500  3.992438  110.471  2.038707  0.157264
  5566.629  5566.610  0.500  3.984887  110.472  2.054179  0.158042
  5568.589  5568.580  0.500  3.979606  110.45  2.064639  0.160964
  5570.591  5570.580  0.500  3.975397  110.478  2.073872  0.165660
  5572.613  5572.590  0.500  3.971269  110.489  2.082654  0.171396
  5574.629  5574.620  0.500  3.965992  110.456  2.093065  0.177401
  5576.699  5576.680  0.500  3.959719  110.556  2.108135  0.183473
  5578.760  5578.750  0.500  3.952632  110.561  2.123229  0.188275
  5580.849  5580.840  0.500  3.947180  110.571  2.135030  0.190923
  5582.971  5582.950  0.500  3.941682  110.599  2.147334  0.192507
  5585.101  5585.080  0.500  3.934887  110.612  2.162234  0.193368
  5587.229  5587.220  0.500  3.926741  110.623  2.180138  0.194698
  5589.396  5589.390  0.500  3.917725  110.637  2.200150  0.197209
  5591.573  5591.580  0.500  3.907955  110.655  2.222126  0.200843
  5593.783  5593.780  0.500  3.898499  110.66  2.243341  0.204728
  5596.012  5596.000  0.500  3.889998  110.691  2.263111  0.208189
  5598.260  5598.250  0.500  3.883591  110.682  2.277478  0.210483
  5600.518  5600.510  0.500  3.877967  110.696  2.290625  0.211358
  5602.797  5602.790  0.500  3.873537  110.701  2.300898  0.212023
  5605.097  5605.090  0.500  3.868903  110.718  2.311934  0.212740
  5607.421  5607.410  0.500  3.864993  110.743  2.321504  0.212475
  5609.761  5609.750  0.500  3.861861  110.723  2.328378  0.211526
  5612.120  5612.100  0.500  3.858367  110.713  2.336305  0.211212
  5614.490  5614.480  0.500  3.853056  110.767  2.349911  0.211762
  5616.879  5616.870  0.500  3.847259  110.78  2.363848  0.212195
  5619.298  5619.290  0.500  3.842648  110.804  2.375286  0.211693
  5621.724  5621.720  0.500  3.841269  110.793  2.378316  0.209386
  5624.176  5624.170  0.500  3.840817  110.788  2.379286  0.207322
  5626.651  5626.650  0.500  3.840708  110.786  2.379504  0.207022
  5629.144  5629.140  0.500  3.839388  110.79  2.382738  0.209126
  5631.653  5631.650  0.500  3.835676  110.771  2.391187  0.213054
  5634.174  5634.170  0.500  3.829343  110.772  2.406398  0.218168
  5636.722  5636.720  0.500  3.821002  110.761  2.426316  0.223652
  5639.295  5639.290  0.500  3.812095  110.741  2.447572  0.228864
  5641.874  5641.870  0.500  3.803513  110.733  2.468498  0.233076
  5644.483  5644.480  0.500  3.796548  110.74  2.485911  0.236534
  5647.103  5647.100  0.500  3.788913  110.714  2.504375  0.239544
  5649.751  5649.750  0.500  3.782578  110.699  2.519936  0.242442
  5652.415  5652.410  0.500  3.776527  110.68  2.534797  0.245500
  5655.096  5655.090  0.500  3.770740  110.633  2.548424  0.248202
  5657.796  5657.790  0.500  3.765080  110.587  2.561821  0.250830
  5660.515  5660.510  0.500  3.757079  110.545  2.581430  0.254117
  5663.258  5663.250  0.500  3.749141  110.485  2.600586  0.257753
  5666.008  5666.000  0.500  3.741713  110.443  2.618994  0.261665
  5668.785  5668.780  0.500  3.735493  110.39  2.634067  0.265370
  5671.579  5671.570  0.500  3.730482  110.329  2.645832  0.267897
  5674.402  5674.390  0.500  3.725537  110.296  2.658151  0.268990
  5677.241  5677.220  0.500  3.720512  110.223  2.669774  0.269142
  5680.079  5680.070  0.500  3.715983  110.146  2.680014  0.268785
  5682.963  5682.950  0.500  3.710393  110.081  2.693442  0.268402
  5685.850  5685.840  0.500  3.704944  109.973  2.705507  0.267616
  5688.757  5688.750  0.500  3.699829  109.881  2.717112  0.267064
  5691.682  5691.670  0.500  3.693511  109.783  2.731899  0.266783
  5694.630  5694.620  0.500  3.686334  109.669  2.748720  0.267382
  5697.596  5697.590  0.500  3.678675  109.563  2.767156  0.269322
  5700.579  5700.570  0.500  3.671413  109.441  2.784237  0.272433
  5703.589  5703.580  0.500  3.665169  109.307  2.798233  0.276912
  5706.608  5706.600  0.500  3.658293  109.196  2.814686  0.282889
  5709.658  5709.650  0.500  3.650819  109.033  2.831565  0.288951
  5712.723  5712.710  0.500  3.644503  108.9  2.846031  0.294014
  5715.804  5715.790  0.500  3.636817  108.732  2.863564  0.297603
  5718.893  5718.890  0.500  3.628974  108.596  2.882500  0.300766
  5722.002  5722.010  0.500  3.621711  108.402  2.898326  0.303942
  5725.173  5725.150  0.500  3.614626  108.216  2.913921  0.307068
  5728.309  5728.300  0.500  3.608796  108.055  2.926598  0.310243
  5731.501  5731.480  0.500  3.603354  107.882  2.937860  0.312635
  5734.689  5734.670  0.500  3.597673  107.675  2.948949  0.314767
  5737.894  5737.890  0.500  3.592190  107.441  2.958697  0.316681
  5741.134  5741.120  0.500  3.585391  107.212  2.972541  0.319149
  5744.378  5744.370  0.500  3.578655  106.992  2.986499  0.322588
  5747.658  5747.650  0.500  3.571958  106.748  2.999693  0.326127
  5750.944  5750.940  0.500  3.565129  106.505  3.013384  0.329290
  5754.260  5754.250  0.500  3.558135  106.252  3.027336  0.331836
  5757.559  5757.570  0.500  3.551488  105.984  3.039826  0.334236
  5760.908  5760.920  0.500  3.546652  105.745  3.047688  0.335492
  5764.278  5764.290  0.500  3.540245  105.475  3.059436  0.336446
  5767.670  5767.670  0.500  3.533455  105.209  3.072501  0.337501
  5771.067  5771.080  0.500  3.526072  104.94  3.087375  0.338783
  5774.486  5774.500  0.500  3.518975  104.642  3.100520  0.340516
  5777.945  5777.950  0.500  3.511271  104.329  3.115160  0.342952
  5781.392  5781.410  0.500  3.503750  104.078  3.131110  0.345237
  5784.888  5784.890  0.500  3.495307  103.806  3.149421  0.348562
  5788.377  5788.390  0.500  3.487755  103.505  3.164104  0.351994
  5791.899  5791.910  0.500  3.480376  103.213  3.178532  0.355606
  5795.437  5795.450  0.500  3.473422  102.903  3.191107  0.359019
  5798.994  5799.000  0.500  3.466857  102.607  3.202880  0.362508
  5802.568  5802.580  0.500  3.460037  102.288  3.214775  0.366585
  5806.170  5806.180  0.500  3.453709  102  3.226057  0.370614
  5809.782  5809.790  0.500  3.447016  101.668  3.237149  0.374600
  5813.412  5813.420  0.500  3.439588  101.37  3.251731  0.378265
  5817.066  5817.080  0.500  3.431476  101.038  3.267492  0.381525
  5820.734  5820.750  0.500  3.423972  100.731  3.282091  0.384496
  5824.423  5824.440  0.500  3.417305  100.774  3.305476  0.388642
  5828.137  5828.150  0.500  3.410242  100.476  3.319037  0.391975
  5831.866  5831.880  0.500  3.403072  100.164  3.332545  0.395509
  5835.607  5835.620  0.500  3.395934  99.8378  3.345488  0.398461
  5839.374  5839.390  0.500  3.388276  99.5328  3.360909  0.401573
  5843.167  5843.180  0.500  3.380530  99.1926  3.375467  0.404324
  5846.967  5846.980  0.500  3.373134  98.9052  3.390671  0.407545
  5850.791  5850.810  0.500  3.365105  98.5826  3.406858  0.410856
  5854.639  5854.650  0.500  3.357036  98.2025  3.421213  0.414472
  5858.493  5858.510  0.500  3.349961  97.8673  3.433743  0.417427
  5862.380  5862.390  0.500  3.343588  97.4691  3.441636  0.419920
  5866.315  5866.290  0.500  3.336654  96.8625  3.444019  0.421178
  5870.191  5870.210  0.500  3.328880  95.1847  3.410776  0.417799
  5874.159  5874.150  0.500  3.324494  89.0995  3.206756  0.393020
  5878.096  5878.110  0.500  3.314806  97.5768  3.546048  0.436935
  5882.091  5882.080  0.500  3.307337  97.0238  3.552382  0.439682
  5886.060  5886.080  0.500  3.300380  96.6089  3.561889  0.443159
  5890.094  5890.090  0.500  3.293544  96.2389  3.572583  0.446812
  5894.119  5894.130  0.500  3.285327  95.9086  3.589697  0.451122
  5898.167  5898.180  0.500  3.278036  95.5603  3.602835  0.455038
  5902.245  5902.250  0.500  3.270571  95.1693  3.614983  0.458517
  5906.350  5906.340  0.500  3.263103  94.7305  3.625285  0.461374
  5910.444  5910.450  0.500  3.256138  94.0958  3.626163  0.464115
  5914.572  5914.580  0.500  3.248525  91.6813  3.560117  0.457382
  5918.722  5918.730  0.500  3.241953  93.8957  3.670149  0.474002
  5922.876  5922.890  0.500  3.234510  94.3521  3.715538  0.481998
  5927.064  5927.080  0.500  3.226235  93.3835  3.707950  0.482407
  5931.270  5931.280  0.500  3.216622  78.0907  3.130675  0.409561
  5935.490  5935.510  0.500  3.210878  93.4303  3.767220  0.494034
  5939.742  5939.750  0.500  3.202991  92.5009  3.759282  0.495113
  5943.994  5944.010  0.500  3.195053  87.8825  3.600053  0.476503
  5948.294  5948.290  0.500  3.187955  93.3105  3.849629  0.511882
  5952.579  5952.590  0.500  3.180381  92.7415  3.855245  0.515059
  5956.897  5956.910  0.500  3.173614  92.236  3.860267  0.517742
  5961.234  5961.250  0.500  3.166211  91.7944  3.870334  0.521556
  5965.595  5965.610  0.500  3.158283  91.4014  3.884435  0.525419
  5969.975  5969.990  0.500  3.150968  90.9872  3.895222  0.528474
  5974.367  5974.380  0.500  3.143528  90.5586  3.905824  0.531798
  5978.788  5978.800  0.500  3.136250  90.0512  3.912313  0.534568
  5983.221  5983.230  0.500  3.129224  89.3389  3.908728  0.536082
  5987.665  5987.680  0.500  3.121114  87.1509  3.844052  0.528903
  5992.133  5992.150  0.500  3.114287  90.1892  4.005318  0.553815
  5996.627  5996.640  0.500  3.106342  89.8003  4.019857  0.558127
  6001.135  6001.150  0.500  3.098542  89.2009  4.024294  0.560922
  6005.667  6005.680  0.500  3.090800  88.6936  4.032506  0.564635
  6010.215  6010.230  0.500  3.082992  88.2743  4.044902  0.569135
  6014.786  6014.800  0.500  3.074647  87.8477  4.059088  0.573482
  6019.369  6019.380  0.500  3.066756  87.4782  4.074037  0.577915
  6023.980  6023.990  0.500  3.059122  87.0611  4.085683  0.582148
  6028.594  6028.610  0.500  3.051297  86.6903  4.100238  0.586600
  6033.252  6033.260  0.500  3.043356  86.2934  4.114007  0.591325
  6037.909  6037.920  0.500  3.035244  85.87  4.127164  0.595716
  6042.589  6042.600  0.500  3.027192  85.4346  4.139434  0.599875
  6047.289  6047.300  0.500  3.019890  85.0395  4.150487  0.603863
  6052.011  6052.020  0.500  3.012076  84.5979  4.161323  0.608061
  6056.743  6056.760  0.500  3.003794  83.9894  4.165755  0.611626
  6061.499  6061.510  0.500  2.995613  83.4086  4.170930  0.614873
  6066.276  6066.290  0.500  2.988024  82.9046  4.177310  0.618489
  6071.080  6071.090  0.500  2.980564  82.4969  4.187888  0.622714
  6075.890  6075.900  0.500  2.972821  82.0106  4.195562  0.626416
  6080.716  6080.730  0.500  2.964719  81.5572  4.206310  0.630734
  6085.577  6085.590  0.500  2.957410  81.036  4.210086  0.634069
  6090.448  6090.460  0.500  2.949378  80.5457  4.218362  0.637953
  6095.336  6095.350  0.500  2.941863  80.0529  4.224177  0.641408
  6100.249  6100.260  0.500  2.934190  79.5318  4.229006  0.644673
  6105.177  6105.190  0.500  2.926576  78.9634  4.230873  0.647915