File: xdidata/Pr/Pr-L3-Pr2TiO5.xdi
# XDI/1.0 BlueSky/1.10.0 BMM/2023-1.0-py310-tiled
# Beamline.name: BMM (06BM) -- Beamline for Materials Measurement (NIST)
# Beamline.xray_source: NSLS-II three-pole wiggler
# Beamline.collimation: paraboloid mirror, 5 nm Rh on 30 nm Pt
# Beamline.focusing: not in use
# Beamline.harmonic_rejection: flat mirror, Si stripe, pitch = 7.0 mrad relative to beam
# Beamline.software: Bluesky 1.10.0, Ophyd 1.7.0, DataBroker 2.0.0b13, Python 3.10.8, 2023-1.0-py310-tiled
# Detector.I0: 10 cm N2
# Detector.I1: 25 cm N2
# Detector.I2: 25 cm N2
# Element.symbol: Pr
# Element.edge: L3
# Element.reference: Pr
# Element.reference_material: Pr6O11
# Facility.name: NSLS-II
# Facility.energy: 3.0
# Facility.current: 400.5
# Facility.mode: top-off
# Facility.GUP: 123456
# Facility.SAF: 301027
# Facility.cycle: 2023-2
# Mono.name: Si(111)
# Mono.d_spacing: 3.13519
# Mono.encoder_resolution: 0.0000050 deg/ct
# Mono.angle_offset: 16.0754 deg
# Mono.scan_mode: pseudo channel cut
# Mono.scan_type: step
# Mono.direction: forward in energy
# Sample.name: Pr2TiO5
# Sample.prep: Powder in PEG pellet
# Sample.x: 149.848 mm
# Sample.y: 114.690 mm
# Sample.SDD_position: 205.000 mm
# Scan.experimenters: Bruce Ravel
# Scan.edge_energy: 5964.3
# Scan.start_time: 2023-05-08T16:27:40
# Scan.end_time: 2023-05-08T16:33:14
# Scan.transient_id: 75400
# Scan.uid: a5dea640-9ab7-4e28-b699-ac5025608fe9
# Scan.plot_hint: ln(I0/It)  --  ln($5/$6)
# Column.1: energy eV
# Column.2: requested_energy eV
# Column.3: measurement_time seconds
# Column.4: xmu
# Column.5: I0 nA
# Column.6: It nA
# Column.7: Ir nA
# ///////////
# sample courtesy Martin Stennett, University of Sheffield
# -----------
# energy  requested_energy  measurement_time  xmu  I0  It  Ir
  5764.304  5764.300  0.500  2.972105  114.418  5.857681  0.250826
  5774.308  5774.300  0.500  2.954959  114.644  5.970748  0.259466
  5784.343  5784.300  0.500  2.937566  114.807  6.084155  0.268719
  5794.300  5794.300  0.500  2.920465  114.952  6.196930  0.278060
  5804.313  5804.300  0.500  2.903144  115.082  6.312297  0.287413
  5814.312  5814.300  0.500  2.886259  115.176  6.425054  0.297110
  5824.314  5824.300  0.500  2.869063  115.277  6.542229  0.307111
  5834.307  5834.300  0.500  2.852323  115.269  6.652165  0.317039
  5844.308  5844.300  0.500  2.835528  115.186  6.759984  0.327119
  5854.307  5854.300  0.500  2.819588  115.079  6.862199  0.337004
  5864.307  5864.300  0.500  2.803429  114.661  6.948680  0.346731
  5874.600  5874.300  0.500  2.786735  108.465  6.683831  0.338761
  5884.285  5884.300  0.500  2.770704  115.473  7.230696  0.371342
  5894.286  5894.300  0.500  2.754445  115.053  7.322484  0.381171
  5904.295  5904.300  0.500  2.738564  114.591  7.409799  0.391025
  5914.290  5914.300  0.500  2.722716  111.978  7.356490  0.393186
  5924.290  5924.300  0.500  2.707845  114.833  7.657088  0.414633
  5934.290  5934.300  0.500  2.693530  107.962  7.302774  0.399299
  5936.297  5936.300  0.500  2.690586  114.605  7.774906  0.425747
  5938.289  5938.300  0.500  2.688126  114.213  7.767461  0.425849
  5940.288  5940.300  0.500  2.685746  113.651  7.747614  0.425072
  5942.292  5942.300  0.500  2.683197  112.161  7.665545  0.420768
  5944.294  5944.300  0.500  2.681348  107.337  7.349454  0.403001
  5946.288  5946.300  0.500  2.679523  101.8  6.983064  0.383386
  5948.293  5948.300  0.500  2.678306  115.303  7.918938  0.432754
  5950.292  5950.300  0.500  2.677638  115.095  7.909943  0.430185
  5952.293  5952.300  0.500  2.678102  114.861  7.890221  0.425999
  5954.295  5954.300  0.500  2.679930  114.684  7.863623  0.419565
  5954.789  5954.800  0.500  2.681018  114.632  7.851554  0.417288
  5955.287  5955.300  0.500  2.682172  114.581  7.839004  0.414590
  5955.786  5955.800  0.500  2.683159  114.543  7.828642  0.411296
  5956.287  5956.300  0.500  2.685001  114.492  7.810799  0.408041
  5956.790  5956.800  0.500  2.686966  114.443  7.792125  0.403891
  5957.288  5957.300  0.500  2.689361  114.415  7.771565  0.399164
  5957.788  5957.800  0.500  2.693379  114.372  7.737519  0.393129
  5958.290  5958.300  0.500  2.697267  114.324  7.704221  0.386007
  5958.794  5958.800  0.500  2.701720  114.304  7.668647  0.378189
  5959.291  5959.300  0.500  2.706959  114.248  7.624852  0.369090
  5959.788  5959.800  0.500  2.712500  114.221  7.580922  0.358874
  5960.291  5960.300  0.500  2.718441  114.198  7.534501  0.348040
  5960.792  5960.800  0.500  2.725211  114.167  7.481608  0.336919
  5961.292  5961.300  0.500  2.733107  114.151  7.421744  0.324903
  5961.794  5961.800  0.500  2.742710  114.105  7.347836  0.311766
  5962.293  5962.300  0.500  2.755035  114.076  7.255998  0.297073
  5962.791  5962.800  0.500  2.769479  114.058  7.150850  0.278916
  5963.293  5963.300  0.500  2.788228  114.019  7.015626  0.258082
  5963.794  5963.800  0.500  2.810489  113.973  6.858361  0.233377
  5964.291  5964.300  0.500  2.836319  113.969  6.683251  0.204327
  5964.795  5964.800  0.500  2.862533  113.927  6.507953  0.174862
  5965.291  5965.300  0.500  2.887856  113.901  6.343782  0.145626
  5965.795  5965.800  0.500  2.911023  113.865  6.196538  0.118205
  5966.296  5966.300  0.500  2.928390  113.827  6.087845  0.095370
  5966.794  5966.800  0.500  2.941989  113.79  6.003659  0.076367
  5967.295  5967.300  0.500  2.953117  113.774  5.936368  0.061195
  5967.795  5967.800  0.500  2.961912  113.756  5.883457  0.051305
  5968.296  5968.300  0.500  2.967293  113.711  5.849579  0.045226
  5968.796  5968.800  0.500  2.969815  113.682  5.833327  0.042308
  5969.298  5969.300  0.500  2.967648  113.643  5.843978  0.041714
  5969.796  5969.800  0.500  2.962615  113.597  5.871087  0.042530
  5970.298  5970.300  0.500  2.953730  113.573  5.922224  0.044386
  5970.798  5970.800  0.500  2.941805  113.545  5.991809  0.046597
  5971.299  5971.300  0.500  2.929190  113.517  6.066412  0.049244
  5971.795  5971.800  0.500  2.915659  113.475  6.146735  0.052132
  5972.300  5972.300  0.500  2.902798  113.448  6.224815  0.055776
  5972.800  5972.800  0.500  2.889674  113.409  6.304919  0.060440
  5973.301  5973.300  0.500  2.877025  113.389  6.384051  0.065977
  5973.800  5973.800  0.500  2.865269  113.324  6.455842  0.071851
  5974.300  5974.300  0.500  2.854368  113.303  6.525392  0.077883
  5974.801  5974.800  0.500  2.844257  113.277  6.590157  0.084045
  5975.305  5975.300  0.500  2.835973  113.249  6.643318  0.089024
  5975.806  5975.800  0.500  2.828905  113.206  6.687942  0.093228
  5976.301  5976.300  0.500  2.822872  113.151  6.725132  0.095958
  5976.800  5976.800  0.500  2.817934  113.119  6.756519  0.097809
  5977.301  5977.300  0.500  2.814304  113.068  6.778038  0.098099
  5977.806  5977.800  0.500  2.811556  113.02  6.793816  0.097198
  5978.306  5978.300  0.500  2.808766  112.97  6.809773  0.095562
  5978.803  5978.800  0.500  2.807098  112.922  6.818199  0.093557
  5979.305  5979.300  0.500  2.805496  112.87  6.825982  0.092233
  5979.804  5979.800  0.500  2.804157  112.818  6.832024  0.091775
  5980.303  5980.300  0.500  2.802913  112.763  6.837190  0.092574
  5980.806  5980.800  0.500  2.802262  112.694  6.837425  0.094016
  5981.304  5981.300  0.500  2.801884  112.65  6.837359  0.095803
  5981.800  5981.800  0.500  2.801181  112.572  6.837438  0.098303
  5982.301  5982.300  0.500  2.800817  112.478  6.834230  0.101421
  5982.803  5982.800  0.500  2.800440  112.397  6.831881  0.105362
  5983.303  5983.300  0.500  2.800158  112.317  6.828938  0.110174
  5983.802  5983.800  0.500  2.800246  112.208  6.821692  0.115444
  5984.302  5984.300  0.500  2.799457  112.086  6.819643  0.120708
  5984.797  5984.800  0.500  2.798839  111.945  6.815311  0.125572
  5985.297  5985.300  0.500  2.798254  111.777  6.809076  0.129942
  5985.797  5985.800  0.500  2.797093  111.576  6.804697  0.133676
  5986.300  5986.300  0.500  2.795536  111.313  6.799219  0.136806
  5986.802  5986.800  0.500  2.794348  110.987  6.787357  0.139605
  5987.304  5987.300  0.500  2.793014  110.556  6.770065  0.141822
  5987.797  5987.800  0.500  2.791547  109.928  6.741485  0.143278
  5988.297  5988.300  0.500  2.790019  108.979  6.693468  0.144225
  5988.802  5988.800  0.500  2.788488  107.41  6.607256  0.143986
  5989.305  5989.300  0.500  2.786966  104.228  6.421261  0.141086
  5990.298  5990.290  0.500  2.784606  86.4201  5.336737  0.118879
  5991.309  5991.290  0.500  2.782675  98.358  6.085682  0.137332
  5992.303  5992.310  0.500  2.782121  114.102  7.063707  0.159248
  5993.354  5993.360  0.500  2.783077  114.613  7.088571  0.159063
  5994.416  5994.420  0.500  2.785041  114.413  7.062294  0.156564
  5995.496  5995.500  0.500  2.787867  114.175  7.027727  0.153366
  5996.596  5996.600  0.500  2.791043  113.988  6.993955  0.149670
  5997.726  5997.720  0.500  2.794571  113.818  6.958945  0.145834
  5998.862  5998.860  0.500  2.797661  113.673  6.928619  0.142194
  6000.020  6000.010  0.500  2.799897  113.547  6.905538  0.138821
  6001.199  6001.190  0.500  2.801486  113.414  6.886454  0.135808
  6002.386  6002.380  0.500  2.801201  113.271  6.879756  0.133753
  6003.606  6003.600  0.500  2.799491  113.17  6.885383  0.133257
  6004.841  6004.830  0.500  2.796546  113.082  6.900311  0.133077
  6006.090  6006.080  0.500  2.792154  112.976  6.924167  0.133571
  6007.357  6007.350  0.500  2.786428  112.877  6.957836  0.134554
  6008.648  6008.640  0.500  2.780805  112.784  6.991307  0.135946
  6009.956  6009.950  0.500  2.774908  112.695  7.027149  0.137929
  6011.287  6011.280  0.500  2.770093  112.618  7.056233  0.140095
  6012.635  6012.630  0.500  2.765788  112.516  7.080218  0.141980
  6014.005  6014.000  0.500  2.762056  112.417  7.100472  0.143795
  6015.385  6015.380  0.500  2.758960  112.329  7.116907  0.145063
  6016.789  6016.790  0.500  2.756184  112.232  7.130545  0.146258
  6018.213  6018.210  0.500  2.753844  112.133  7.140906  0.147609
  6019.650  6019.650  0.500  2.751520  112.032  7.151080  0.149047
  6021.119  6021.110  0.500  2.749260  111.933  7.160955  0.150241
  6022.588  6022.590  0.500  2.746945  111.856  7.172606  0.151853
  6024.095  6024.090  0.500  2.744561  111.753  7.183114  0.153331
  6025.611  6025.610  0.500  2.742161  111.666  7.194752  0.154832
  6027.151  6027.150  0.500  2.740269  111.563  7.201696  0.155941
  6028.713  6028.710  0.500  2.738576  111.474  7.208197  0.156892
  6030.288  6030.280  0.500  2.736959  111.373  7.213288  0.157669
  6031.883  6031.880  0.500  2.735343  111.244  7.216617  0.157999
  6033.499  6033.490  0.500  2.733461  111.129  7.222743  0.158784
  6035.133  6035.130  0.500  2.731531  111.03  7.230203  0.159034
  6036.784  6036.780  0.500  2.729443  110.908  7.237345  0.159880
  6038.452  6038.450  0.500  2.727564  110.793  7.243459  0.160462
  6040.145  6040.140  0.500  2.725642  110.681  7.250046  0.161354
  6041.857  6041.850  0.500  2.724437  110.564  7.251106  0.161405
  6043.588  6043.580  0.500  2.723098  110.419  7.251342  0.161685
  6045.333  6045.330  0.500  2.721588  110.302  7.254581  0.161655
  6047.098  6047.090  0.500  2.720180  110.18  7.256786  0.161768
  6048.890  6048.880  0.500  2.718685  110.056  7.259464  0.161577
  6050.685  6050.680  0.500  2.716501  109.896  7.264746  0.161500
  6052.518  6052.510  0.500  2.713837  109.757  7.274939  0.161699
  6054.357  6054.350  0.500  2.711023  109.54  7.280986  0.161856
  6056.215  6056.210  0.500  2.708203  109.313  7.286440  0.161835
  6058.098  6058.090  0.500  2.705920  109.115  7.289824  0.162018
  6059.998  6059.990  0.500  2.702850  108.898  7.297693  0.161888
  6061.914  6061.910  0.500  2.699838  108.635  7.302062  0.161983
  6063.857  6063.850  0.500  2.696536  108.448  7.313615  0.162154
  6065.818  6065.810  0.500  2.694054  108.289  7.321015  0.162033
  6067.783  6067.780  0.500  2.691060  108.126  7.331889  0.162394
  6069.785  6069.780  0.500  2.687721  107.931  7.343146  0.162534
  6071.798  6071.790  0.500  2.684584  107.798  7.357184  0.163500
  6073.831  6073.820  0.500  2.681096  107.625  7.371019  0.164905
  6075.884  6075.880  0.500  2.677703  107.437  7.383187  0.165944
  6077.960  6077.950  0.500  2.674165  107.233  7.395242  0.167325
  6080.051  6080.040  0.500  2.670886  107.046  7.406596  0.168725
  6082.161  6082.150  0.500  2.667663  106.86  7.417594  0.169886
  6084.294  6084.280  0.500  2.664807  106.648  7.424089  0.171340
  6086.428  6086.420  0.500  2.661802  106.433  7.431426  0.172521
  6088.602  6088.590  0.500  2.659359  106.217  7.434486  0.173334
  6090.791  6090.780  0.500  2.656817  105.977  7.436559  0.173998
  6092.995  6092.980  0.500  2.654149  105.758  7.440975  0.174531
  6095.211  6095.200  0.500  2.651229  105.531  7.446716  0.175015
  6097.462  6097.450  0.500  2.648669  105.315  7.450563  0.174895
  6099.720  6099.710  0.500  2.645928  105.057  7.452704  0.174806
  6101.999  6101.990  0.500  2.643290  104.805  7.454454  0.174686
  6104.298  6104.290  0.500  2.640613  104.552  7.456379  0.174833
  6106.620  6106.610  0.500  2.637636  104.267  7.458251  0.175391
  6108.960  6108.950  0.500  2.633876  103.981  7.465767  0.176377
  6111.311  6111.300  0.500  2.630348  103.695  7.471560  0.177743
  6113.694  6113.680  0.500  2.627544  103.43  7.473379  0.178840
  6116.078  6116.070  0.500  2.624097  103.109  7.475949  0.180010
  6118.501  6118.490  0.500  2.620907  102.804  7.477608  0.180931
  6120.930  6120.920  0.500  2.617923  102.498  7.477674  0.181823
  6123.377  6123.370  0.500  2.614507  102.172  7.479392  0.182840
  6125.857  6125.850  0.500  2.611572  101.849  7.477647  0.183755
  6128.346  6128.340  0.500  2.608450  101.506  7.475794  0.184781
  6130.859  6130.850  0.500  2.604547  101.15  7.478705  0.185598
  6133.382  6133.370  0.500  2.601737  100.823  7.475463  0.186226
  6135.932  6135.920  0.500  2.597607  100.437  7.477721  0.186445
  6138.502  6138.490  0.500  2.594348  100.01  7.470194  0.186590
  6141.082  6141.070  0.500  2.590526  99.5775  7.466378  0.186790
  6143.693  6143.680  0.500  2.586653  99.1573  7.463722  0.186951
  6146.309  6146.300  0.500  2.582552  98.6879  7.458918  0.186898
  6148.959  6148.950  0.500  2.578724  98.2299  7.452779  0.187224
  6151.618  6151.610  0.500  2.574916  97.7142  7.441936  0.187647
  6154.298  6154.290  0.500  2.570897  97.0787  7.423307  0.187808
  6157.002  6156.990  0.500  2.566959  96.1929  7.384593  0.187637
  6159.722  6159.710  0.500  2.563097  94.163  7.256738  0.185423
  6162.459  6162.450  0.500  2.559452  95.7694  7.407485  0.190530
  6165.211  6165.200  0.500  2.555930  94.7526  7.354694  0.190468
  6167.991  6167.980  0.500  2.552834  94.005  7.319299  0.190511
  6170.777  6170.770  0.500  2.549314  96.0885  7.507893  0.196746
  6173.601  6173.590  0.500  2.545725  95.1148  7.458542  0.196512
  6176.428  6176.420  0.500  2.542247  94.4504  7.432244  0.196602
  6179.280  6179.270  0.500  2.538614  93.8599  7.412661  0.196875
  6182.160  6182.150  0.500  2.535063  93.2556  7.391129  0.197171
  6185.049  6185.040  0.500  2.531569  92.6554  7.369271  0.197189
  6187.954  6187.950  0.500  2.527909  92.0637  7.349057  0.196977
  6190.875  6190.870  0.500  2.524339  91.4735  7.328053  0.196930
  6193.826  6193.820  0.500  2.520411  90.8688  7.308268  0.196717
  6196.797  6196.790  0.500  2.516284  90.2683  7.289987  0.196830
  6199.773  6199.770  0.500  2.512148  89.6548  7.270451  0.196758
  6202.785  6202.780  0.500  2.508293  89.0218  7.247005  0.197188
  6205.804  6205.800  0.500  2.504203  88.3969  7.225624  0.197810
  6208.854  6208.850  0.500  2.500223  87.7511  7.201439  0.198152
  6211.918  6211.910  0.500  2.496389  87.1003  7.175495  0.198263
  6214.995  6214.990  0.500  2.492234  86.4363  7.150439  0.198409
  6218.098  6218.090  0.500  2.488097  85.7945  7.126766  0.199387
  6221.219  6221.210  0.500  2.484052  85.118  7.099231  0.200106
  6224.358  6224.350  0.500  2.480042  84.4537  7.072130  0.200247
  6227.505  6227.500  0.500  2.476084  83.7814  7.043654  0.200377
  6230.686  6230.680  0.500  2.472187  83.0957  7.013287  0.200235
  6233.882  6233.870  0.500  2.468386  82.4016  6.981187  0.200033
  6237.101  6237.090  0.500  2.464391  81.7211  6.951246  0.199810
  6240.325  6240.320  0.500  2.460419  81.0217  6.919186  0.199270
  6243.571  6243.570  0.500  2.455910  80.3182  6.890105  0.199009
  6246.851  6246.850  0.500  2.451506  79.6321  6.861399  0.198693
  6250.137  6250.140  0.500  2.447451  78.9085  6.826677  0.198237
  6253.454  6253.450  0.500  2.443052  78.2066  6.795781  0.198608
  6256.775  6256.770  0.500  2.438469  77.5229  6.767316  0.198838
  6260.124  6260.120  0.500  2.434077  76.8081  6.734432  0.198946
  6263.496  6263.490  0.500  2.429783  76.0725  6.698638  0.199370
  6266.874  6266.870  0.500  2.425342  75.3787  6.667083  0.199774
  6270.284  6270.280  0.500  2.421227  74.654  6.630213  0.200076
  6273.702  6273.700  0.500  2.417007  73.9312  6.593791  0.200323
  6277.156  6277.150  0.500  2.412797  73.2243  6.558287  0.200527
  6280.614  6280.610  0.500  2.408604  72.5003  6.520730  0.200625
  6284.094  6284.090  0.500  2.404528  71.7652  6.480980  0.200363
  6287.598  6287.590  0.500  2.400196  71.0762  6.446628  0.199979
  6291.118  6291.110  0.500  2.396248  70.3797  6.408701  0.199655
  6294.656  6294.650  0.500  2.391802  69.6611  6.371530  0.199458
  6298.204  6298.200  0.500  2.387555  68.9658  6.334781  0.198661
  6301.783  6301.780  0.500  2.383001  68.248  6.297468  0.197978
  6305.383  6305.380  0.500  2.378532  67.5648  6.262342  0.197839
  6308.996  6308.990  0.500  2.374191  66.8878  6.226565  0.197747
  6312.628  6312.620  0.500  2.369476  66.1899  6.190726  0.197783
  6316.283  6316.280  0.500  2.364926  65.4938  6.153553  0.197587
  6319.951  6319.950  0.500  2.360131  64.788  6.116492  0.197631
  6323.647  6323.640  0.500  2.355385  64.1105  6.081332  0.198035
  6327.360  6327.350  0.500  2.350569  63.4419  6.046964  0.198138
  6331.089  6331.080  0.500  2.345945  62.7768  6.011301  0.198255
  6334.830  6334.820  0.500  2.341416  62.1189  5.975303  0.198365
  6338.597  6338.590  0.500  2.336828  61.4738  5.940444  0.198877
  6342.385  6342.380  0.500  2.332211  60.8151  5.903984  0.198805
  6346.191  6346.180  0.500  2.327624  60.1669  5.867911  0.198666
  6350.021  6350.010  0.500  2.323452  59.5242  5.829501  0.198354
  6353.857  6353.850  0.500  2.318343  58.8777  5.795717  0.198159
  6357.725  6357.710  0.500  2.313655  58.2457  5.760452  0.197602
  6361.603  6361.590  0.500  2.308918  57.6238  5.726004  0.197357
  6365.517  6365.490  0.500  2.304180  56.9889  5.689807  0.196856
  6369.423  6369.410  0.500  2.299834  56.3695  5.652478  0.196480
  6373.357  6373.350  0.500  2.295030  55.7551  5.617792  0.196089
  6377.320  6377.310  0.500  2.289884  55.1378  5.584263  0.196435
  6381.290  6381.280  0.500  2.284904  54.5253  5.549796  0.196480
  6385.295  6385.280  0.500  2.280507  53.9277  5.513161  0.196204
  6389.301  6389.290  0.500  2.276502  53.3342  5.474364  0.196471
  6393.354  6393.330  0.500  2.271150  52.7225  5.440622  0.196552
  6397.373  6397.380  0.500  2.266259  52.1398  5.406866  0.197012
  6401.454  6401.450  0.500  2.261162  51.5618  5.374254  0.197043
  6405.549  6405.540  0.500  2.256128  50.9732  5.339720  0.196946
  6409.665  6409.650  0.500  2.251489  50.4009  5.304309  0.197054
  6413.769  6413.780  0.500  2.246480  49.829  5.270461  0.196567
  6417.911  6417.930  0.500  2.241941  49.262  5.234192  0.196344