File: xdidata/Pr/Pr-L1-Pr2Ti2O7.xdi
# XDI/1.0 BlueSky/1.10.0 BMM/2023-1.0-py310-tiled
# Beamline.name: BMM (06BM) -- Beamline for Materials Measurement (NIST)
# Beamline.xray_source: NSLS-II three-pole wiggler
# Beamline.collimation: paraboloid mirror, 5 nm Rh on 30 nm Pt
# Beamline.focusing: not in use
# Beamline.harmonic_rejection: flat mirror, Si stripe, pitch = 7.0 mrad relative to beam
# Beamline.software: Bluesky 1.10.0, Ophyd 1.7.0, DataBroker 2.0.0b13, Python 3.10.8, 2023-1.0-py310-tiled
# Detector.I0: 10 cm N2
# Detector.I1: 25 cm N2
# Detector.I2: 25 cm N2
# Element.symbol: Pr
# Element.edge: L1
# Element.reference: Pr
# Element.reference_material: Pr6O11
# Facility.name: NSLS-II
# Facility.energy: 3.0
# Facility.current: 399.8
# Facility.mode: top-off
# Facility.GUP: 123456
# Facility.SAF: 301027
# Facility.cycle: 2023-2
# Mono.name: Si(111)
# Mono.d_spacing: 3.13519
# Mono.encoder_resolution: 0.0000050 deg/ct
# Mono.angle_offset: 16.0754 deg
# Mono.scan_mode: pseudo channel cut
# Mono.scan_type: step
# Mono.direction: forward in energy
# Sample.name: Pr2Ti2O7
# Sample.prep: Powder in PEG pellet
# Sample.x: 123.848 mm
# Sample.y: 114.690 mm
# Sample.SDD_position: 205.000 mm
# Scan.experimenters: Bruce Ravel
# Scan.edge_energy: 6834.8
# Scan.start_time: 2023-05-08T19:49:23
# Scan.end_time: 2023-05-08T19:55:15
# Scan.transient_id: 75554
# Scan.uid: fd81b0f3-44b2-4738-a731-fc349a068e98
# Scan.plot_hint: ln(I0/It)  --  ln($5/$6)
# Column.1: energy eV
# Column.2: requested_energy eV
# Column.3: measurement_time seconds
# Column.4: xmu
# Column.5: I0 nA
# Column.6: It nA
# Column.7: Ir nA
# ///////////
# sample courtesy Martin Stennett, University of Sheffield
# -----------
# energy  requested_energy  measurement_time  xmu  I0  It  Ir
  6634.807  6634.800  0.500  1.649115  150.892  29.0044  0.880000
  6644.817  6644.800  0.500  1.639592  151.074  29.3172  0.904517
  6654.814  6654.800  0.500  1.631111  151.214  29.5944  0.926830
  6664.803  6664.800  0.500  1.622296  151.358  29.8849  0.945529
  6674.791  6674.800  0.500  1.613569  151.465  30.1682  0.962670
  6684.800  6684.800  0.500  1.604123  151.62  30.4855  0.985668
  6694.808  6694.800  0.500  1.594579  151.736  30.8016  1.010525
  6704.821  6704.800  0.500  1.585521  151.847  31.1045  1.032855
  6714.813  6714.800  0.500  1.576437  151.978  31.4153  1.053118
  6724.814  6724.800  0.500  1.567829  152.094  31.7112  1.072001
  6734.816  6734.800  0.500  1.558609  152.182  32.0234  1.096611
  6744.815  6744.800  0.500  1.549873  152.284  32.3262  1.123713
  6754.816  6754.800  0.500  1.540885  152.402  32.6433  1.150757
  6764.809  6764.800  0.500  1.532042  152.495  32.9533  1.174112
  6774.809  6774.800  0.500  1.523366  152.594  33.262  1.195788
  6784.810  6784.800  0.500  1.514795  152.716  33.5751  1.218395
  6794.811  6794.800  0.500  1.506054  142.084  31.5118  1.156899
  6805.306  6804.800  0.500  1.497976  152.588  34.1159  1.268614
  6806.781  6806.800  0.500  1.496676  152.621  34.1676  1.273181
  6808.781  6808.800  0.500  1.495015  152.501  34.1975  1.277418
  6810.781  6810.800  0.500  1.492571  147.188  33.087  1.238111
  6812.788  6812.800  0.500  1.492071  151.477  34.0682  1.278347
  6814.784  6814.800  0.500  1.490461  152.434  34.3385  1.290837
  6817.284  6816.800  0.500  1.488446  152.547  34.4333  1.297348
  6818.894  6818.800  0.500  1.487544  152.546  34.4641  1.300964
  6820.780  6820.800  0.500  1.485856  152.406  34.4908  1.303647
  6822.797  6822.800  0.500  1.483783  146.064  33.1242  1.253681
  6824.797  6824.800  0.500  1.482809  151.392  34.3658  1.302177
  6825.293  6825.300  0.500  1.482403  151.9  34.4951  1.307447
  6825.795  6825.800  0.500  1.482363  152.098  34.5415  1.309064
  6826.295  6826.300  0.500  1.482076  152.201  34.5749  1.310825
  6826.793  6826.800  0.500  1.481251  152.266  34.6182  1.312186
  6827.289  6827.300  0.500  1.481032  152.299  34.6333  1.312542
  6827.785  6827.800  0.500  1.480796  152.316  34.6454  1.312690
  6828.289  6828.300  0.500  1.480377  152.333  34.6636  1.312937
  6828.787  6828.800  0.500  1.480084  152.346  34.6767  1.312544
  6829.290  6829.300  0.500  1.479522  152.354  34.6981  1.312296
  6829.788  6829.800  0.500  1.479293  152.357  34.7067  1.311233
  6830.289  6830.300  0.500  1.479273  152.356  34.7071  1.309739
  6830.788  6830.800  0.500  1.478728  152.361  34.7272  1.309197
  6831.288  6831.300  0.500  1.478674  152.359  34.7287  1.308140
  6831.787  6831.800  0.500  1.478529  152.357  34.7332  1.307396
  6832.290  6832.300  0.500  1.478387  152.358  34.7384  1.306899
  6832.789  6832.800  0.500  1.478221  152.346  34.7414  1.306305
  6833.296  6833.300  0.500  1.478560  152.345  34.7294  1.305577
  6833.789  6833.800  0.500  1.478569  152.335  34.7267  1.304789
  6834.290  6834.300  0.500  1.478659  152.336  34.7239  1.303911
  6834.785  6834.800  0.500  1.478970  152.335  34.713  1.301552
  6835.295  6835.300  0.500  1.479007  152.329  34.7103  1.299750
  6835.794  6835.800  0.500  1.479566  152.326  34.6902  1.296019
  6836.292  6836.300  0.500  1.480041  152.33  34.6747  1.291282
  6836.795  6836.800  0.500  1.480815  152.326  34.6468  1.286266
  6837.295  6837.300  0.500  1.481438  152.318  34.6235  1.281310
  6837.791  6837.800  0.500  1.482212  152.265  34.5848  1.274961
  6838.290  6838.300  0.500  1.482604  152.115  34.537  1.268330
  6838.790  6838.800  0.500  1.483090  151.862  34.4628  1.260929
  6839.300  6839.300  0.500  1.483495  151.569  34.3824  1.253428
  6839.792  6839.800  0.500  1.483595  149.535  33.9177  1.232609
  6840.298  6840.300  0.500  1.484178  143.257  32.4747  1.175932
  6840.796  6840.800  0.500  1.485122  140.82  31.8923  1.150784
  6841.297  6841.300  0.500  1.486814  144.663  32.707  1.176668
  6841.797  6841.800  0.500  1.487300  149.475  33.7787  1.210635
  6842.293  6842.300  0.500  1.488761  150.645  33.9933  1.213480
  6842.794  6842.800  0.500  1.489720  151.091  34.0614  1.210593
  6843.300  6843.300  0.500  1.491372  151.316  34.0558  1.204615
  6843.799  6843.800  0.500  1.492922  151.461  34.0356  1.197672
  6844.302  6844.300  0.500  1.494588  152.104  34.1231  1.193357
  6844.799  6844.800  0.500  1.496534  152.212  34.0809  1.184095
  6845.300  6845.300  0.500  1.498421  152.245  34.0242  1.172974
  6845.797  6845.800  0.500  1.500324  152.286  33.9686  1.161737
  6846.294  6846.300  0.500  1.501945  152.313  33.9195  1.149777
  6846.799  6846.800  0.500  1.503631  152.337  33.8678  1.137485
  6847.300  6847.300  0.500  1.505104  152.357  33.8223  1.126091
  6847.799  6847.800  0.500  1.506304  152.379  33.7867  1.115051
  6848.300  6848.300  0.500  1.506945  152.392  33.768  1.105315
  6848.802  6848.800  0.500  1.507509  152.399  33.7504  1.095513
  6849.301  6849.300  0.500  1.508000  152.401  33.7343  1.087641
  6849.795  6849.800  0.500  1.508099  152.411  33.7332  1.081781
  6850.297  6850.300  0.500  1.507887  152.415  33.7412  1.076192
  6850.796  6850.800  0.500  1.507601  152.424  33.7529  1.072284
  6851.302  6851.300  0.500  1.507108  152.426  33.77  1.069388
  6851.800  6851.800  0.500  1.506646  152.431  33.7867  1.066727
  6852.300  6852.300  0.500  1.506416  152.43  33.7942  1.064471
  6852.800  6852.800  0.500  1.505864  152.433  33.8134  1.063087
  6853.298  6853.300  0.500  1.505024  152.442  33.844  1.061302
  6853.794  6853.800  0.500  1.504294  152.448  33.8701  1.059790
  6854.299  6854.300  0.500  1.503507  152.446  33.8962  1.058179
  6854.803  6854.800  0.500  1.502681  152.451  33.9252  1.057210
  6855.303  6855.300  0.500  1.501922  152.451  33.9511  1.056146
  6855.804  6855.800  0.500  1.501550  152.454  33.9644  1.055620
  6856.300  6856.300  0.500  1.500955  152.454  33.9847  1.054649
  6856.803  6856.800  0.500  1.500310  152.461  34.0081  1.054612
  6857.298  6857.300  0.500  1.499610  152.468  34.0334  1.054714
  6857.799  6857.800  0.500  1.499001  152.478  34.0564  1.054581
  6858.301  6858.300  0.500  1.498450  152.478  34.0751  1.054439
  6858.800  6858.800  0.500  1.497825  152.463  34.0931  1.053247
  6859.307  6859.300  0.500  1.496960  152.453  34.1204  1.052305
  6859.803  6859.800  0.500  1.496373  152.443  34.1382  1.050909
  6860.799  6860.790  0.500  1.495006  152.272  34.1465  1.046715
  6861.794  6861.790  0.500  1.493733  152.098  34.1511  1.042670
  6862.821  6862.810  0.500  1.492014  152.435  34.2856  1.044796
  6863.874  6863.860  0.500  1.490478  152.519  34.3573  1.047975
  6864.933  6864.920  0.500  1.488535  152.546  34.4301  1.054323
  6866.007  6866.000  0.500  1.486942  152.559  34.4879  1.062617
  6867.113  6867.100  0.500  1.485034  152.572  34.5567  1.071960
  6868.233  6868.220  0.500  1.483142  152.591  34.6264  1.082409
  6869.364  6869.360  0.500  1.480981  152.592  34.7016  1.092018
  6870.519  6870.510  0.500  1.479087  152.604  34.7702  1.101409
  6871.698  6871.690  0.500  1.477229  152.617  34.8377  1.111515
  6872.888  6872.880  0.500  1.475640  152.624  34.8949  1.120737
  6874.104  6874.100  0.500  1.474489  152.634  34.9372  1.128517
  6875.343  6875.330  0.500  1.473113  152.648  34.9885  1.135474
  6876.586  6876.580  0.500  1.472303  152.655  35.0185  1.141563
  6877.860  6877.850  0.500  1.471533  152.658  35.0461  1.146523
  6879.150  6879.140  0.500  1.470447  152.656  35.0839  1.152082
  6880.458  6880.450  0.500  1.469327  152.657  35.1234  1.156650
  6881.789  6881.780  0.500  1.468729  152.655  35.1438  1.159314
  6883.143  6883.130  0.500  1.468730  152.654  35.1437  1.161124
  6884.507  6884.500  0.500  1.468169  152.647  35.1618  1.163648
  6885.886  6885.880  0.500  1.467616  152.653  35.1826  1.165763
  6887.299  6887.290  0.500  1.467184  152.656  35.1984  1.166944
  6888.713  6888.710  0.500  1.466682  152.667  35.2188  1.168237
  6890.160  6890.150  0.500  1.466336  152.67  35.2316  1.169158
  6891.618  6891.610  0.500  1.466204  152.662  35.2345  1.170032
  6893.104  6893.090  0.500  1.465305  152.654  35.2642  1.171269
  6894.601  6894.590  0.500  1.464364  152.654  35.2975  1.172743
  6896.121  6896.110  0.500  1.463524  152.66  35.3284  1.173816
  6897.661  6897.650  0.500  1.462364  152.647  35.3664  1.175566
  6899.221  6899.210  0.500  1.461110  152.639  35.4089  1.178290
  6900.791  6900.780  0.500  1.459769  152.632  35.4548  1.181712
  6902.388  6902.380  0.500  1.458524  152.626  35.4977  1.184530
  6903.998  6903.990  0.500  1.457278  152.617  35.5398  1.187755
  6905.643  6905.630  0.500  1.455405  152.601  35.6027  1.190725
  6907.287  6907.280  0.500  1.453057  152.599  35.6859  1.194986
  6908.966  6908.950  0.500  1.451058  152.577  35.7522  1.198660
  6910.646  6910.640  0.500  1.449199  152.533  35.8085  1.201797
  6912.363  6912.350  0.500  1.446954  152.488  35.8784  1.205610
  6914.081  6914.080  0.500  1.445134  152.455  35.936  1.209483
  6915.844  6915.830  0.500  1.443724  152.449  35.9852  1.213194
  6917.595  6917.590  0.500  1.442126  152.409  36.0333  1.217208
  6919.388  6919.380  0.500  1.440229  152.353  36.0883  1.221563
  6921.189  6921.180  0.500  1.438456  152.328  36.1465  1.226916
  6923.017  6923.010  0.500  1.436852  152.318  36.2021  1.232600
  6924.856  6924.850  0.500  1.435306  152.303  36.2546  1.239030
  6926.720  6926.710  0.500  1.434036  152.291  36.2977  1.244238
  6928.594  6928.590  0.500  1.432710  152.271  36.3411  1.249990
  6930.497  6930.490  0.500  1.431017  152.252  36.3982  1.255516
  6932.412  6932.410  0.500  1.429478  152.24  36.4514  1.261194
  6934.360  6934.350  0.500  1.428002  152.227  36.5022  1.267869
  6936.317  6936.310  0.500  1.426674  152.233  36.552  1.274177
  6938.288  6938.280  0.500  1.425061  152.243  36.6136  1.281672
  6940.288  6940.280  0.500  1.423458  152.226  36.6681  1.289252
  6942.300  6942.290  0.500  1.421913  152.218  36.723  1.296364
  6944.324  6944.320  0.500  1.420140  152.215  36.7874  1.303346
  6946.389  6946.380  0.500  1.418581  152.206  36.8426  1.309317
  6948.460  6948.450  0.500  1.417116  152.189  36.8924  1.314424
  6950.542  6950.540  0.500  1.415572  152.176  36.9464  1.319837
  6952.662  6952.650  0.500  1.413820  152.177  37.0113  1.325039
  6954.786  6954.780  0.500  1.412423  152.166  37.0604  1.329471
  6956.929  6956.920  0.500  1.410303  152.15  37.1351  1.334746
  6959.101  6959.090  0.500  1.408419  152.138  37.2023  1.338930
  6961.284  6961.280  0.500  1.406499  152.144  37.2752  1.343529
  6963.487  6963.480  0.500  1.404753  152.142  37.3399  1.348377
  6965.708  6965.700  0.500  1.402990  152.131  37.4031  1.352822
  6967.957  6967.950  0.500  1.401303  152.127  37.4652  1.357798
  6970.220  6970.210  0.500  1.399554  152.125  37.5304  1.362630
  6972.493  6972.490  0.500  1.398006  152.111  37.5849  1.368310
  6974.800  6974.790  0.500  1.396235  152.09  37.6464  1.374058
  6977.118  6977.110  0.500  1.394716  152.079  37.7009  1.380392
  6979.457  6979.450  0.500  1.393253  152.054  37.7498  1.386261
  6981.818  6981.800  0.500  1.392019  152.034  37.7917  1.392448
  6984.192  6984.180  0.500  1.390170  152.004  37.854  1.398751
  6986.582  6986.570  0.500  1.388373  151.988  37.9182  1.405237
  6989.002  6988.990  0.500  1.386184  151.967  37.996  1.411884
  6991.433  6991.420  0.500  1.384412  151.937  38.0558  1.417682
  6993.877  6993.870  0.500  1.382389  151.9  38.1236  1.423543
  6996.361  6996.350  0.500  1.380378  151.877  38.1947  1.428834
  6998.859  6998.840  0.500  1.378172  151.857  38.2739  1.435311
  7001.359  7001.350  0.500  1.375806  151.843  38.361  1.441427
  7003.886  7003.870  0.500  1.373701  151.829  38.4383  1.448166
  7006.435  7006.420  0.500  1.371629  151.814  38.5143  1.454552
  7009.003  7008.990  0.500  1.369220  151.789  38.6007  1.462058
  7011.587  7011.570  0.500  1.367491  151.765  38.6613  1.468702
  7014.205  7014.180  0.500  1.365351  151.743  38.7386  1.475788
  7016.814  7016.800  0.500  1.363107  151.73  38.8223  1.484757
  7019.463  7019.450  0.500  1.361090  151.727  38.9  1.493665
  7022.122  7022.110  0.500  1.358990  151.714  38.9783  1.502587
  7024.805  7024.790  0.500  1.357020  151.685  39.0477  1.511508
  7027.504  7027.490  0.500  1.354947  151.674  39.1259  1.520098
  7030.222  7030.210  0.500  1.353236  151.656  39.1882  1.528117
  7032.965  7032.950  0.500  1.351188  151.617  39.2586  1.535578
  7035.719  7035.700  0.500  1.349135  151.579  39.3293  1.543223
  7038.496  7038.480  0.500  1.347109  151.568  39.4062  1.550353
  7041.282  7041.270  0.500  1.345159  151.545  39.4773  1.557916
  7044.099  7044.090  0.500  1.343257  151.523  39.5465  1.565060
  7046.934  7046.920  0.500  1.341235  151.49  39.6181  1.571517
  7049.783  7049.770  0.500  1.338770  151.452  39.7058  1.579197
  7052.662  7052.650  0.500  1.336578  151.441  39.7902  1.586843
  7055.551  7055.540  0.500  1.334337  151.429  39.8762  1.595269
  7058.462  7058.450  0.500  1.332147  151.404  39.9571  1.603909
  7061.385  7061.370  0.500  1.329707  151.417  40.058  1.613125
  7064.335  7064.320  0.500  1.327535  151.224  40.094  1.619941
  7067.303  7067.290  0.500  1.325156  151.28  40.2043  1.630810
  7070.282  7070.270  0.500  1.322912  149.922  39.9331  1.625991
  7073.291  7073.280  0.500  1.320307  151.194  40.3768  1.650658
  7076.312  7076.300  0.500  1.318233  150.925  40.3888  1.656720
  7079.362  7079.350  0.500  1.316251  151.126  40.5227  1.668687
  7082.426  7082.410  0.500  1.313901  150.919  40.5625  1.676026
  7085.504  7085.490  0.500  1.311374  150.979  40.6812  1.686543
  7088.601  7088.590  0.500  1.309135  150.985  40.7741  1.696327
  7091.716  7091.710  0.500  1.306733  150.939  40.8597  1.704892
  7094.859  7094.850  0.500  1.304458  150.902  40.9427  1.713053
  7098.014  7098.000  0.500  1.302013  150.874  41.0354  1.722083
  7101.195  7101.180  0.500  1.299759  150.836  41.1175  1.730874
  7104.384  7104.370  0.500  1.297199  150.789  41.21  1.740539
  7107.603  7107.590  0.500  1.294885  150.739  41.2918  1.750049
  7110.834  7110.820  0.500  1.292349  150.619  41.3636  1.759218
  7114.081  7114.070  0.500  1.290178  150.398  41.3928  1.766511
  7117.359  7117.350  0.500  1.287820  150.309  41.4659  1.776366
  7120.651  7120.640  0.500  1.285318  150.157  41.5279  1.787003
  7123.957  7123.950  0.500  1.282943  150.012  41.5865  1.796807
  7127.281  7127.270  0.500  1.280714  149.811  41.6233  1.805991
  7130.634  7130.620  0.500  1.278440  149.563  41.6491  1.814320
  7134.006  7133.990  0.500  1.275853  149.43  41.7197  1.824265
  7137.380  7137.370  0.500  1.273394  149.384  41.8097  1.835867
  7140.785  7140.780  0.500  1.270795  149.381  41.9177  1.846465
  7144.209  7144.200  0.500  1.268441  149.383  42.0169  1.857188
  7147.659  7147.650  0.500  1.266143  149.385  42.1143  1.868182
  7151.115  7151.110  0.500  1.263503  149.34  42.2127  1.878098
  7154.598  7154.590  0.500  1.260847  149.29  42.3108  1.888689
  7158.100  7158.090  0.500  1.258265  149.252  42.4094  1.899855
  7161.622  7161.610  0.500  1.255895  149.174  42.4878  1.909054
  7165.157  7165.150  0.500  1.253325  149.062  42.5653  1.919549
  7168.713  7168.700  0.500  1.250787  148.948  42.6407  1.930334
  7172.288  7172.280  0.500  1.248227  148.851  42.7222  1.941127
  7175.893  7175.880  0.500  1.245820  148.758  42.7984  1.953144
  7179.500  7179.490  0.500  1.243371  148.709  42.8892  1.965773
  7183.132  7183.120  0.500  1.240824  148.608  42.9693  1.978217
  7186.792  7186.780  0.500  1.238177  148.533  43.0617  1.990890
  7190.461  7190.450  0.500  1.235643  148.49  43.1582  2.003280
  7194.150  7194.140  0.500  1.233181  148.173  43.1724  2.012226
  7197.860  7197.850  0.500  1.230556  148.174  43.286  2.026156
  7201.588  7201.580  0.500  1.227958  148.085  43.3727  2.037712
  7205.330  7205.320  0.500  1.225161  147.976  43.4622  2.049696
  7209.104  7209.090  0.500  1.222333  147.888  43.5593  2.062285
  7212.889  7212.880  0.500  1.219550  148.321  43.8084  2.082012
  7216.689  7216.680  0.500  1.216854  148.205  43.8925  2.093806
  7220.524  7220.510  0.500  1.214208  148.081  43.9719  2.106398
  7224.359  7224.350  0.500  1.211455  147.956  44.0559  2.117015
  7228.218  7228.210  0.500  1.208917  145.545  43.4482  2.095803
  7232.089  7232.090  0.500  1.206201  147.894  44.2693  2.144079
  7235.990  7235.990  0.500  1.203539  147.785  44.3547  2.156857
  7239.909  7239.910  0.500  1.200750  147.681  44.4473  2.170209
  7243.850  7243.850  0.500  1.197953  147.473  44.5092  2.183284
  7247.809  7247.810  0.500  1.195244  147.408  44.6103  2.197372
  7251.779  7251.780  0.500  1.192473  147.27  44.692  2.211120
  7255.783  7255.780  0.500  1.189683  147.379  44.8501  2.229191
  7259.791  7259.790  0.500  1.187047  147.082  44.8778  2.240589
  7263.836  7263.830  0.500  1.183212  137.562  42.1343  2.111705
  7267.885  7267.880  0.500  1.181687  147.409  45.2192  2.276412
  7271.954  7271.950  0.500  1.178897  147.306  45.314  2.290152
  7276.047  7276.040  0.500  1.176395  147.403  45.4573  2.306828
  7280.160  7280.150  0.500  1.173389  147.241  45.5442  2.320597
  7284.286  7284.280  0.500  1.170567  144.845  44.9297  2.298615
  7288.438  7288.430  0.500  1.167787  146.923  45.701  2.347413
  7292.597  7292.590  0.500  1.165057  146.843  45.8011  2.361659
  7296.788  7296.780  0.500  1.162455  146.717  45.8811  2.375266
  7300.989  7300.980  0.500  1.159217  145.726  45.7188  2.376961
  7305.219  7305.210  0.500  1.156575  146.598  46.114  2.407307
  7309.455  7309.450  0.500  1.153854  146.465  46.1979  2.422575
  7313.719  7313.710  0.500  1.151048  146.305  46.277  2.437609
  7317.994  7317.990  0.500  1.148589  146.189  46.3543  2.452745
  7322.295  7322.290  0.500  1.145485  146.066  46.4591  2.470236
  7326.618  7326.610  0.500  1.142403  145.937  46.5613  2.486252
  7330.957  7330.950  0.500  1.139813  145.793  46.6362  2.500862
  7335.322  7335.310  0.500  1.136876  145.682  46.7376  2.518011
  7339.700  7339.690  0.500  1.134035  143.067  46.0294  2.490738
  7344.092  7344.080  0.500  1.131204  145.319  46.8865  2.547527
  7348.517  7348.500  0.500  1.128402  145.227  46.9881  2.564308
  7352.945  7352.930  0.500  1.125429  145.099  47.0865  2.581035
  7357.395  7357.380  0.500  1.122709  144.972  47.1734  2.596966
  7361.864  7361.850  0.500  1.119599  144.845  47.279  2.614084
  7366.355  7366.340  0.500  1.116572  144.707  47.377  2.629616
  7370.868  7370.850  0.500  1.113546  144.58  47.4789  2.647261
  7375.396  7375.380  0.500  1.110684  144.434  47.5671  2.663068
  7379.960  7379.930  0.500  1.107854  144.294  47.6557  2.679784