File: xdidata/Pr/Pr-L3-Pr-hydroxide.xdi
# XDI/1.0 BlueSky/1.10.0 BMM/2023-1.0-py310-tiled
# Beamline.name: BMM (06BM) -- Beamline for Materials Measurement (NIST)
# Beamline.xray_source: NSLS-II three-pole wiggler
# Beamline.collimation: paraboloid mirror, 5 nm Rh on 30 nm Pt
# Beamline.focusing: not in use
# Beamline.harmonic_rejection: flat mirror, Si stripe, pitch = 7.0 mrad relative to beam
# Beamline.software: Bluesky 1.10.0, Ophyd 1.7.0, DataBroker 2.0.0b13, Python 3.10.8, 2023-1.0-py310-tiled
# Detector.I0: 10 cm N2
# Detector.I1: 25 cm N2
# Detector.I2: 25 cm N2
# Element.symbol: Pr
# Element.edge: L3
# Element.reference: Pr
# Element.reference_material: Pr6O11
# Facility.name: NSLS-II
# Facility.energy: 3.0
# Facility.current: 400.3
# Facility.mode: top-off
# Facility.GUP: 123456
# Facility.SAF: 301027
# Facility.cycle: 2023-2
# Mono.name: Si(111)
# Mono.d_spacing: 3.13519
# Mono.encoder_resolution: 0.0000050 deg/ct
# Mono.angle_offset: 16.0754 deg
# Mono.scan_mode: pseudo channel cut
# Mono.scan_type: step
# Mono.direction: forward in energy
# Sample.name: Pr(OH)3
# Sample.prep: Powder in PEG pellet
# Sample.x: 123.848 mm
# Sample.y: 114.690 mm
# Sample.SDD_position: 205.000 mm
# Scan.experimenters: Bruce Ravel
# Scan.edge_energy: 5964.3
# Scan.start_time: 2023-05-08T16:21:21
# Scan.end_time: 2023-05-08T16:26:47
# Scan.transient_id: 75395
# Scan.uid: c8a31b95-cbfb-4323-931d-32f4236b514f
# Scan.plot_hint: ln(I0/It)  --  ln($5/$6)
# Column.1: energy eV
# Column.2: requested_energy eV
# Column.3: measurement_time seconds
# Column.4: xmu
# Column.5: I0 nA
# Column.6: It nA
# Column.7: Ir nA
# ///////////
# sample courtesy Martin Stennett, University of Sheffield
# -----------
# energy  requested_energy  measurement_time  xmu  I0  It  Ir
  5764.304  5764.300  0.500  3.375556  114.303  3.909071  0.167316
  5774.309  5774.300  0.500  3.354273  114.532  4.001131  0.173851
  5784.337  5784.300  0.500  3.333611  114.73  4.091723  0.180510
  5794.347  5794.300  0.500  3.313604  114.884  4.180020  0.187382
  5804.319  5804.300  0.500  3.293221  115.021  4.271182  0.194638
  5814.314  5814.300  0.500  3.273863  115.128  4.358730  0.201586
  5824.310  5824.300  0.500  3.253839  115.17  4.448517  0.208852
  5834.311  5834.300  0.500  3.234365  115.182  4.536480  0.216005
  5844.313  5844.300  0.500  3.214636  115.128  4.624674  0.223693
  5854.310  5854.300  0.500  3.194938  114.936  4.708827  0.231216
  5864.311  5864.300  0.500  3.175660  114.557  4.784665  0.238464
  5874.308  5874.300  0.500  3.155881  106.724  4.546540  0.230315
  5884.311  5884.300  0.500  3.137685  115.38  5.005541  0.256828
  5894.309  5894.300  0.500  3.119505  114.976  5.079551  0.264376
  5904.311  5904.300  0.500  3.101777  114.503  5.149107  0.271630
  5914.313  5914.300  0.500  3.084090  111.883  5.121083  0.273652
  5924.312  5924.300  0.500  3.068834  114.76  5.333488  0.288490
  5934.310  5934.300  0.500  3.057485  107.937  5.073669  0.277577
  5936.308  5936.300  0.500  3.056312  114.52  5.389428  0.295261
  5938.308  5938.300  0.500  3.055443  114.118  5.375186  0.294725
  5940.304  5940.300  0.500  3.055299  113.577  5.350435  0.293565
  5942.302  5942.300  0.500  3.055798  112.055  5.276100  0.289470
  5944.303  5944.300  0.500  3.057910  107.176  5.035748  0.276029
  5946.302  5946.300  0.500  3.061392  102.035  4.777529  0.262157
  5948.299  5948.300  0.500  3.067897  115.23  5.360353  0.292923
  5950.303  5950.300  0.500  3.077071  115.001  5.300843  0.288180
  5952.303  5952.300  0.500  3.091600  114.745  5.212794  0.281224
  5954.302  5954.300  0.500  3.114533  114.568  5.086721  0.271171
  5954.794  5954.800  0.500  3.122096  114.525  5.046532  0.268117
  5955.294  5955.300  0.500  3.131537  114.463  4.996399  0.263771
  5955.789  5955.800  0.500  3.142464  114.45  4.941535  0.259845
  5956.288  5956.300  0.500  3.154629  114.404  4.879811  0.254911
  5956.789  5956.800  0.500  3.169986  114.325  4.802127  0.248809
  5957.288  5957.300  0.500  3.188028  114.308  4.715571  0.242101
  5957.789  5957.800  0.500  3.209328  114.264  4.614425  0.234398
  5958.292  5958.300  0.500  3.236123  114.249  4.491802  0.225078
  5958.791  5958.800  0.500  3.264853  114.197  4.362617  0.215067
  5959.291  5959.300  0.500  3.295368  114.155  4.229938  0.204606
  5959.791  5959.800  0.500  3.328900  114.125  4.089387  0.193630
  5960.294  5960.300  0.500  3.365730  114.086  3.940171  0.181902
  5960.795  5960.800  0.500  3.406862  114.054  3.780312  0.170164
  5961.295  5961.300  0.500  3.455052  114.022  3.601457  0.157584
  5961.791  5961.800  0.500  3.508871  113.977  3.411418  0.144782
  5962.290  5962.300  0.500  3.574455  113.959  3.194346  0.130917
  5962.791  5962.800  0.500  3.660283  113.916  2.930518  0.114482
  5963.295  5963.300  0.500  3.768364  113.893  2.629766  0.096874
  5963.795  5963.800  0.500  3.913412  113.872  2.274271  0.077535
  5964.290  5964.300  0.500  4.110822  113.82  1.865997  0.057536
  5964.792  5964.800  0.500  4.371401  113.795  1.437630  0.038947
  5965.294  5965.300  0.500  4.723173  113.787  1.011214  0.023592
  5965.797  5965.800  0.500  5.176954  113.757  0.642176  0.012572
  5966.295  5966.300  0.500  5.696664  113.73  0.381809  0.006263
  5966.794  5966.800  0.500  6.252600  113.683  0.218890  0.002935
  5967.294  5967.300  0.500  6.757558  113.673  0.132095  0.001474
  5967.798  5967.800  0.500  7.107147  113.636  0.093094  0.000934
  5968.296  5968.300  0.500  7.253990  113.602  0.080356  0.000821
  5968.798  5968.800  0.500  7.199511  113.559  0.084823  0.000632
  5969.293  5969.300  0.500  6.998756  113.534  0.103659  0.000796
  5969.796  5969.800  0.500  6.699552  113.526  0.139803  0.001086
  5970.300  5970.300  0.500  6.356253  113.465  0.196958  0.001663
  5970.800  5970.800  0.500  6.027193  113.43  0.273621  0.002261
  5971.297  5971.300  0.500  5.720086  113.41  0.371921  0.003132
  5971.796  5971.800  0.500  5.444937  113.375  0.489565  0.004221
  5972.300  5972.300  0.500  5.213584  113.361  0.616925  0.005719
  5972.803  5972.800  0.500  5.013341  113.329  0.753485  0.007352
  5973.301  5973.300  0.500  4.842509  113.269  0.893383  0.009394
  5973.797  5973.800  0.500  4.702745  113.244  1.027157  0.011582
  5974.301  5974.300  0.500  4.583382  113.24  1.157344  0.014061
  5974.799  5974.800  0.500  4.486554  113.178  1.274319  0.016401
  5975.303  5975.300  0.500  4.412031  113.146  1.372514  0.018627
  5975.802  5975.800  0.500  4.355239  113.104  1.452187  0.020355
  5976.298  5976.300  0.500  4.315191  113.066  1.511018  0.021714
  5976.801  5976.800  0.500  4.290132  113.041  1.549010  0.022683
  5977.301  5977.300  0.500  4.275311  112.976  1.571237  0.022832
  5977.806  5977.800  0.500  4.268118  112.935  1.582014  0.022732
  5978.304  5978.300  0.500  4.263892  112.869  1.587784  0.022513
  5978.801  5978.800  0.500  4.260885  112.835  1.592080  0.022045
  5979.302  5979.300  0.500  4.257340  112.78  1.596954  0.021767
  5979.802  5979.800  0.500  4.252510  112.729  1.603967  0.021833
  5980.304  5980.300  0.500  4.245698  112.679  1.614212  0.021967
  5980.806  5980.800  0.500  4.235937  112.605  1.628965  0.022713
  5981.304  5981.300  0.500  4.223997  112.548  1.647699  0.023266
  5981.799  5981.800  0.500  4.210124  112.464  1.669480  0.024162
  5982.301  5982.300  0.500  4.194859  112.364  1.693648  0.025201
  5982.802  5982.800  0.500  4.179425  112.291  1.718871  0.026634
  5983.303  5983.300  0.500  4.165851  112.205  1.741027  0.028343
  5983.805  5983.800  0.500  4.154476  112.11  1.759460  0.029990
  5984.307  5984.300  0.500  4.145997  111.992  1.772573  0.031509
  5984.800  5984.800  0.500  4.141215  111.839  1.778633  0.032913
  5985.299  5985.300  0.500  4.139578  111.667  1.778807  0.034085
  5985.802  5985.800  0.500  4.141472  111.482  1.772494  0.035053
  5986.303  5986.300  0.500  4.147640  111.215  1.757381  0.035416
  5986.803  5986.800  0.500  4.157859  110.889  1.734423  0.035713
  5987.299  5987.300  0.500  4.171438  110.448  1.704224  0.035814
  5987.795  5987.800  0.500  4.188249  110.003  1.669058  0.035623
  5988.301  5988.300  0.500  4.208787  109.31  1.624833  0.035052
  5988.800  5988.800  0.500  4.230639  107.727  1.566677  0.034214
  5989.301  5989.300  0.500  4.253555  104.604  1.486795  0.032842
  5990.296  5990.290  0.500  4.298154  86.7486  1.179229  0.026354
  5991.303  5991.290  0.500  4.345135  98.4894  1.277384  0.028993
  5992.323  5992.310  0.500  4.391802  114.03  1.411513  0.032011
  5993.372  5993.360  0.500  4.437466  114.473  1.353746  0.030494
  5994.431  5994.420  0.500  4.482421  114.285  1.292108  0.028746
  5995.513  5995.500  0.500  4.524217  114.068  1.236858  0.027123
  5996.611  5996.600  0.500  4.558154  113.875  1.193567  0.025550
  5997.732  5997.720  0.500  4.583418  113.69  1.161902  0.024358
  5998.877  5998.860  0.500  4.596697  113.548  1.145139  0.023544
  6000.020  6000.010  0.500  4.598971  113.434  1.141394  0.022970
  6001.207  6001.190  0.500  4.590713  113.3  1.149502  0.022806
  6002.373  6002.380  0.500  4.573805  113.17  1.167763  0.022891
  6003.597  6003.600  0.500  4.549215  113.033  1.195380  0.023092
  6004.824  6004.830  0.500  4.520068  112.961  1.229947  0.023788
  6006.075  6006.080  0.500  4.486778  112.852  1.270354  0.024711
  6007.348  6007.350  0.500  4.448319  112.775  1.319265  0.025700
  6008.636  6008.640  0.500  4.407449  112.688  1.373240  0.026841
  6009.956  6009.950  0.500  4.365708  112.581  1.430411  0.028228
  6011.291  6011.280  0.500  4.327225  112.505  1.485537  0.029668
  6012.643  6012.630  0.500  4.293688  112.402  1.534792  0.030929
  6014.004  6014.000  0.500  4.267396  112.328  1.574647  0.032105
  6015.383  6015.380  0.500  4.249350  112.229  1.601896  0.032762
  6016.792  6016.790  0.500  4.238480  112.125  1.617909  0.033315
  6018.219  6018.210  0.500  4.233734  112.045  1.624452  0.033622
  6019.652  6019.650  0.500  4.231944  111.967  1.626224  0.034053
  6021.113  6021.110  0.500  4.231428  111.876  1.625734  0.034169
  6022.596  6022.590  0.500  4.229627  111.775  1.627197  0.034604
  6024.092  6024.090  0.500  4.229504  111.687  1.626119  0.034865
  6025.617  6025.610  0.500  4.232243  111.588  1.620234  0.034994
  6027.149  6027.150  0.500  4.239594  111.47  1.606660  0.035076
  6028.716  6028.710  0.500  4.250039  111.37  1.588539  0.034607
  6030.286  6030.280  0.500  4.261508  111.27  1.569016  0.034425
  6031.881  6031.880  0.500  4.273354  111.171  1.549170  0.034057
  6033.496  6033.490  0.500  4.286500  111.062  1.527430  0.033678
  6035.134  6035.130  0.500  4.301936  110.933  1.502294  0.033144
  6036.786  6036.780  0.500  4.320227  110.813  1.473463  0.032791
  6038.456  6038.450  0.500  4.338800  110.692  1.444776  0.032037
  6040.143  6040.140  0.500  4.353920  110.589  1.421773  0.031705
  6041.860  6041.850  0.500  4.362969  110.476  1.407525  0.031420
  6043.588  6043.580  0.500  4.365274  110.357  1.402762  0.031343
  6045.334  6045.330  0.500  4.362195  110.215  1.405284  0.031483
  6047.100  6047.090  0.500  4.357334  110.097  1.410615  0.031615
  6048.888  6048.880  0.500  4.351001  109.964  1.417864  0.031671
  6050.688  6050.680  0.500  4.342770  109.807  1.427544  0.031867
  6052.515  6052.510  0.500  4.330440  109.682  1.443606  0.032138
  6054.361  6054.350  0.500  4.314069  109.495  1.464932  0.032771
  6056.215  6056.210  0.500  4.296574  109.249  1.487434  0.033266
  6058.099  6058.090  0.500  4.279046  109.038  1.510824  0.033613
  6060.000  6059.990  0.500  4.262720  108.81  1.532478  0.034102
  6061.916  6061.910  0.500  4.246508  108.584  1.554279  0.034793
  6063.857  6063.850  0.500  4.230871  108.374  1.575734  0.035191
  6065.821  6065.810  0.500  4.217410  108.197  1.594478  0.035354
  6067.786  6067.780  0.500  4.209666  108.067  1.604940  0.035665
  6069.785  6069.780  0.500  4.206150  107.901  1.608119  0.035821
  6071.796  6071.790  0.500  4.206196  107.729  1.605474  0.035892
  6073.834  6073.820  0.500  4.208325  107.546  1.599351  0.035871
  6075.890  6075.880  0.500  4.209011  107.377  1.595740  0.035951
  6077.958  6077.950  0.500  4.209013  107.182  1.592837  0.036158
  6080.046  6080.040  0.500  4.208630  106.978  1.590420  0.036246
  6082.164  6082.150  0.500  4.206806  106.785  1.590442  0.036512
  6084.292  6084.280  0.500  4.205015  106.597  1.590494  0.036774
  6086.431  6086.420  0.500  4.203758  106.375  1.589176  0.036975
  6088.597  6088.590  0.500  4.203833  106.17  1.585991  0.037175
  6090.789  6090.780  0.500  4.205465  105.958  1.580239  0.037149
  6092.989  6092.980  0.500  4.204774  105.732  1.577968  0.037190
  6095.212  6095.200  0.500  4.204962  105.489  1.574031  0.037199
  6097.463  6097.450  0.500  4.206908  105.262  1.567601  0.037097
  6099.720  6099.710  0.500  4.210790  105.03  1.558081  0.036654
  6101.999  6101.990  0.500  4.214524  104.777  1.548536  0.036470
  6104.300  6104.290  0.500  4.216355  104.505  1.541691  0.036300
  6106.617  6106.610  0.500  4.215858  104.231  1.538421  0.036222
  6108.960  6108.950  0.500  4.210124  103.963  1.543275  0.036570
  6111.311  6111.300  0.500  4.202440  103.689  1.551081  0.036999
  6113.692  6113.680  0.500  4.196359  103.394  1.556114  0.037373
  6116.077  6116.070  0.500  4.190040  103.107  1.561621  0.037622
  6118.504  6118.490  0.500  4.179838  102.785  1.572706  0.038262
  6120.930  6120.920  0.500  4.168150  102.47  1.586324  0.038682
  6123.375  6123.370  0.500  4.156730  102.13  1.599220  0.039241
  6125.859  6125.850  0.500  4.144833  101.803  1.613183  0.039797
  6128.346  6128.340  0.500  4.132608  101.467  1.627631  0.040378
  6130.862  6130.850  0.500  4.121623  101.13  1.640140  0.040822
  6133.379  6133.370  0.500  4.113207  100.793  1.648493  0.041291
  6135.929  6135.920  0.500  4.107343  100.407  1.651839  0.041286
  6138.502  6138.490  0.500  4.102376  100  1.653334  0.041527
  6141.080  6141.070  0.500  4.098094  99.5894  1.653613  0.041466
  6143.691  6143.680  0.500  4.094792  99.1609  1.651942  0.041502
  6146.310  6146.300  0.500  4.092543  98.7104  1.648141  0.041409
  6148.962  6148.950  0.500  4.090926  98.1941  1.642172  0.041513
  6151.621  6151.610  0.500  4.088418  97.6875  1.637803  0.041450
  6154.301  6154.290  0.500  4.085465  97.0944  1.632672  0.041528
  6157.002  6156.990  0.500  4.081310  96.2126  1.624581  0.041473
  6159.720  6159.710  0.500  4.075727  94.162  1.598859  0.040995
  6162.463  6162.450  0.500  4.070493  95.7693  1.634684  0.042062
  6165.206  6165.200  0.500  4.065667  94.7586  1.625256  0.042192
  6167.987  6167.980  0.500  4.061638  94.02  1.619099  0.042305
  6170.777  6170.770  0.500  4.057459  96.0806  1.661512  0.043636
  6173.600  6173.590  0.500  4.051903  95.1297  1.654234  0.043649
  6176.425  6176.420  0.500  4.046651  94.4405  1.650897  0.043725
  6179.278  6179.270  0.500  4.041948  93.8443  1.648209  0.043882
  6182.160  6182.150  0.500  4.036733  93.2664  1.646623  0.044005
  6185.047  6185.040  0.500  4.032093  92.6679  1.643666  0.044041
  6187.956  6187.950  0.500  4.028846  92.0734  1.638432  0.043990
  6190.876  6190.870  0.500  4.026177  91.4728  1.632096  0.043881
  6193.824  6193.820  0.500  4.024222  90.8668  1.624454  0.043740
  6196.794  6196.790  0.500  4.020250  90.2815  1.620415  0.043903
  6199.773  6199.770  0.500  4.015532  89.6703  1.617057  0.044009
  6202.785  6202.780  0.500  4.009331  89.0573  1.615993  0.044045
  6205.804  6205.800  0.500  4.001799  88.4034  1.616254  0.044248
  6208.854  6208.850  0.500  3.993618  87.7494  1.617475  0.044516
  6211.918  6211.910  0.500  3.985226  87.0916  1.618880  0.044789
  6214.998  6214.990  0.500  3.978790  86.4753  1.617804  0.045041
  6218.098  6218.090  0.500  3.966184  85.8409  1.626306  0.045503
  6221.216  6221.210  0.500  3.956295  85.1662  1.629560  0.045955
  6224.358  6224.350  0.500  3.947799  84.4899  1.630413  0.046205
  6227.508  6227.500  0.500  3.941663  83.83  1.627635  0.046409
  6230.686  6230.680  0.500  3.935411  83.1318  1.624201  0.046380
  6233.885  6233.870  0.500  3.930523  82.4194  1.618173  0.046481
  6237.104  6237.090  0.500  3.926968  81.7668  1.611078  0.046312
  6240.322  6240.320  0.500  3.924148  81.0584  1.601631  0.046140
  6243.571  6243.570  0.500  3.920550  80.3603  1.593560  0.046093
  6246.850  6246.850  0.500  3.917954  79.6608  1.583796  0.045897
  6250.138  6250.140  0.500  3.913370  78.9585  1.577044  0.045770
  6253.451  6253.450  0.500  3.907237  78.2544  1.572597  0.046010
  6256.773  6256.770  0.500  3.899631  77.5382  1.570102  0.045945
  6260.127  6260.120  0.500  3.892316  76.7997  1.566564  0.046397
  6263.496  6263.490  0.500  3.884911  76.0862  1.563545  0.046645
  6266.878  6266.870  0.500  3.877343  75.4036  1.561289  0.046908
  6270.283  6270.280  0.500  3.869857  74.6499  1.557297  0.047061
  6273.702  6273.700  0.500  3.862390  73.9295  1.553828  0.047254
  6277.154  6277.150  0.500  3.854646  73.2419  1.551344  0.047510
  6280.614  6280.610  0.500  3.848118  72.524  1.546200  0.047504
  6284.096  6284.090  0.500  3.842595  71.8143  1.539547  0.047705
  6287.597  6287.590  0.500  3.837149  71.0957  1.532466  0.047587
  6291.115  6291.110  0.500  3.831759  70.3881  1.525413  0.047576
  6294.657  6294.650  0.500  3.825722  69.6908  1.519447  0.047489
  6298.204  6298.200  0.500  3.820607  68.9844  1.511758  0.047419
  6301.785  6301.780  0.500  3.814645  68.2632  1.504899  0.047166
  6305.387  6305.380  0.500  3.808306  67.584  1.499400  0.047342
  6308.998  6308.990  0.500  3.801513  66.8901  1.494121  0.047403
  6312.633  6312.620  0.500  3.793237  66.2142  1.491314  0.047575
  6316.286  6316.280  0.500  3.784424  65.5182  1.488701  0.047857
  6319.954  6319.950  0.500  3.774843  64.824  1.487106  0.048097
  6323.647  6323.640  0.500  3.765015  64.1402  1.485953  0.048350
  6327.362  6327.350  0.500  3.756707  63.4767  1.482850  0.048572
  6331.086  6331.080  0.500  3.748942  62.8104  1.478722  0.048802
  6334.832  6334.820  0.500  3.741779  62.1378  1.473405  0.049037
  6338.600  6338.590  0.500  3.734959  61.4697  1.467536  0.049082
  6342.395  6342.380  0.500  3.728259  60.8249  1.461904  0.049208
  6346.189  6346.180  0.500  3.721219  60.1946  1.456978  0.049203
  6350.024  6350.010  0.500  3.713533  59.5386  1.452217  0.049313
  6353.857  6353.850  0.500  3.706939  58.8984  1.446108  0.049493
  6357.708  6357.710  0.500  3.700850  58.2706  1.439431  0.049530
  6361.602  6361.590  0.500  3.694411  57.6416  1.433091  0.049477
  6365.495  6365.490  0.500  3.688206  57.0168  1.426380  0.049292
  6369.424  6369.410  0.500  3.681565  56.3961  1.420253  0.049424
  6373.355  6373.350  0.500  3.674484  55.7824  1.414781  0.049518
  6377.331  6377.310  0.500  3.667618  55.1616  1.408676  0.049456
  6381.311  6381.280  0.500  3.659246  54.553  1.404845  0.049718
  6385.295  6385.280  0.500  3.650654  53.95  1.401304  0.049882
  6389.284  6389.290  0.500  3.641521  53.3421  1.398228  0.050178
  6393.346  6393.330  0.500  3.632847  52.7398  1.394481  0.050318
  6397.390  6397.380  0.500  3.624257  52.1574  1.390981  0.050595
  6401.443  6401.450  0.500  3.616545  51.5726  1.386032  0.050812
  6405.549  6405.540  0.500  3.608910  50.9871  1.380799  0.050950
  6409.666  6409.650  0.500  3.602304  50.4098  1.374212  0.050990
  6413.781  6413.780  0.500  3.595770  49.8398  1.367580  0.051043
  6417.944  6417.930  0.500  3.589827  49.2536  1.359551  0.050925