File: xdidata/Pr/Pr-L1-Pr-hydroxide.xdi
# XDI/1.0 BlueSky/1.10.0 BMM/2023-1.0-py310-tiled
# Beamline.name: BMM (06BM) -- Beamline for Materials Measurement (NIST)
# Beamline.xray_source: NSLS-II three-pole wiggler
# Beamline.collimation: paraboloid mirror, 5 nm Rh on 30 nm Pt
# Beamline.focusing: not in use
# Beamline.harmonic_rejection: flat mirror, Si stripe, pitch = 7.0 mrad relative to beam
# Beamline.software: Bluesky 1.10.0, Ophyd 1.7.0, DataBroker 2.0.0b13, Python 3.10.8, 2023-1.0-py310-tiled
# Detector.I0: 10 cm N2
# Detector.I1: 25 cm N2
# Detector.I2: 25 cm N2
# Element.symbol: Pr
# Element.edge: L1
# Element.reference: Pr
# Element.reference_material: Pr6O11
# Facility.name: NSLS-II
# Facility.energy: 3.0
# Facility.current: 400.1
# Facility.mode: top-off
# Facility.GUP: 123456
# Facility.SAF: 301027
# Facility.cycle: 2023-2
# Mono.name: Si(111)
# Mono.d_spacing: 3.13519
# Mono.encoder_resolution: 0.0000050 deg/ct
# Mono.angle_offset: 16.0754 deg
# Mono.scan_mode: pseudo channel cut
# Mono.scan_type: step
# Mono.direction: forward in energy
# Sample.name: Pr(OH)3
# Sample.prep: Powder in PEG pellet
# Sample.x: 123.848 mm
# Sample.y: 114.690 mm
# Sample.SDD_position: 205.000 mm
# Scan.experimenters: Bruce Ravel
# Scan.edge_energy: 6834.8
# Scan.start_time: 2023-05-08T19:55:54
# Scan.end_time: 2023-05-08T20:02:01
# Scan.transient_id: 75559
# Scan.uid: 63d65815-5993-4887-8b9f-388c0bd5ba89
# Scan.plot_hint: ln(I0/It)  --  ln($5/$6)
# Column.1: energy eV
# Column.2: requested_energy eV
# Column.3: measurement_time seconds
# Column.4: xmu
# Column.5: I0 nA
# Column.6: It nA
# Column.7: Ir nA
# ///////////
# sample courtesy Martin Stennett, University of Sheffield
# -----------
# energy  requested_energy  measurement_time  xmu  I0  It  Ir
  6634.801  6634.800  0.500  3.865634  151.018  3.163766  0.096680
  6644.811  6644.800  0.500  3.850597  151.177  3.215091  0.100001
  6654.817  6654.800  0.500  3.835066  151.319  3.268472  0.103080
  6664.827  6664.800  0.500  3.820982  151.454  3.317794  0.105812
  6674.801  6674.800  0.500  3.807854  151.575  3.364316  0.108185
  6684.796  6684.800  0.500  3.790071  151.725  3.428067  0.111731
  6694.821  6694.800  0.500  3.768941  151.834  3.503787  0.115777
  6704.812  6704.800  0.500  3.751768  151.947  3.567144  0.119317
  6714.813  6714.800  0.500  3.739285  152.075  3.614988  0.121847
  6724.818  6724.800  0.500  3.729143  152.194  3.654684  0.124443
  6734.814  6734.800  0.500  3.713219  152.303  3.716017  0.128141
  6744.811  6744.800  0.500  3.696025  152.388  3.782566  0.132265
  6754.808  6754.800  0.500  3.679091  152.483  3.849571  0.136592
  6764.808  6764.800  0.500  3.665011  152.582  3.906705  0.140279
  6774.811  6774.800  0.500  3.651614  152.667  3.961594  0.143263
  6784.808  6784.800  0.500  3.638397  152.786  4.017435  0.146682
  6794.780  6794.800  0.500  3.622317  142.211  3.799988  0.140425
  6804.786  6804.800  0.500  3.606544  152.547  4.140966  0.154783
  6806.955  6806.800  0.500  3.604091  152.563  4.151562  0.155651
  6808.783  6808.800  0.500  3.601222  152.343  4.157501  0.156148
  6811.100  6810.800  0.500  3.598919  144.497  3.952471  0.148827
  6812.805  6812.800  0.500  3.596484  151.176  4.145245  0.156519
  6814.794  6814.800  0.500  3.594412  152.284  4.184273  0.158261
  6816.795  6816.800  0.500  3.592383  152.395  4.195848  0.159081
  6818.796  6818.800  0.500  3.590445  152.415  4.204526  0.159723
  6820.794  6820.800  0.500  3.588618  152.32  4.209590  0.160028
  6822.797  6822.800  0.500  3.587151  145.962  4.039791  0.153698
  6824.801  6824.800  0.500  3.585335  151.311  4.195447  0.159858
  6825.281  6825.300  0.500  3.585067  151.808  4.210360  0.160457
  6825.785  6825.800  0.500  3.585052  152.011  4.216055  0.160799
  6826.283  6826.300  0.500  3.584735  152.118  4.220364  0.160955
  6826.785  6826.800  0.500  3.584459  152.176  4.223135  0.160795
  6827.285  6827.300  0.500  3.584571  152.216  4.223764  0.160932
  6827.785  6827.800  0.500  3.584784  152.243  4.223637  0.161119
  6828.289  6828.300  0.500  3.584966  152.264  4.223445  0.160726
  6828.786  6828.800  0.500  3.585340  152.274  4.222130  0.160773
  6829.284  6829.300  0.500  3.585193  152.277  4.222854  0.160473
  6829.790  6829.800  0.500  3.585425  152.295  4.222363  0.160404
  6830.285  6830.300  0.500  3.585307  152.299  4.222963  0.160388
  6830.788  6830.800  0.500  3.585742  152.299  4.221124  0.160098
  6831.288  6831.300  0.500  3.586202  152.308  4.219450  0.159821
  6831.791  6831.800  0.500  3.586855  152.309  4.216725  0.159657
  6832.296  6832.300  0.500  3.587814  152.317  4.212888  0.159296
  6832.789  6832.800  0.500  3.588690  152.319  4.209252  0.159088
  6833.290  6833.300  0.500  3.589845  152.324  4.204542  0.159034
  6833.789  6833.800  0.500  3.591493  152.323  4.197600  0.158599
  6834.294  6834.300  0.500  3.593646  152.328  4.188708  0.158309
  6834.789  6834.800  0.500  3.596561  152.33  4.176559  0.157410
  6835.299  6835.300  0.500  3.600179  152.319  4.161178  0.156669
  6835.800  6835.800  0.500  3.604977  152.322  4.141341  0.155704
  6836.298  6836.300  0.500  3.610665  152.324  4.117915  0.154152
  6836.795  6836.800  0.500  3.617622  152.325  4.089376  0.152736
  6837.295  6837.300  0.500  3.624557  152.312  4.060778  0.151315
  6837.793  6837.800  0.500  3.631124  152.27  4.033073  0.149344
  6838.294  6838.300  0.500  3.636943  152.112  4.005519  0.148011
  6838.800  6838.800  0.500  3.642580  151.866  3.976569  0.146353
  6839.302  6839.300  0.500  3.646509  151.548  3.952668  0.144887
  6839.798  6839.800  0.500  3.650923  149.338  3.877868  0.141674
  6840.296  6840.300  0.500  3.655517  143.135  3.699771  0.134790
  6840.794  6840.800  0.500  3.661084  140.808  3.619407  0.131499
  6841.295  6841.300  0.500  3.667780  144.938  3.700710  0.133983
  6841.797  6841.800  0.500  3.676113  149.59  3.787790  0.136591
  6842.295  6842.300  0.500  3.685920  150.701  3.778687  0.135469
  6842.806  6842.800  0.500  3.697172  151.431  3.754513  0.134243
  6843.304  6843.300  0.500  3.709504  151.942  3.721013  0.132243
  6843.801  6843.800  0.500  3.723701  152.071  3.671665  0.129906
  6844.306  6844.300  0.500  3.740004  152.164  3.614505  0.127188
  6844.795  6844.800  0.500  3.757541  152.232  3.553246  0.124169
  6845.296  6845.300  0.500  3.776790  152.289  3.486822  0.120935
  6845.795  6845.800  0.500  3.797761  152.328  3.415322  0.117546
  6846.296  6846.300  0.500  3.820285  152.351  3.339769  0.113837
  6846.799  6846.800  0.500  3.844370  152.382  3.260960  0.110201
  6847.300  6847.300  0.500  3.866752  152.394  3.189026  0.106867
  6847.803  6847.800  0.500  3.888763  152.412  3.119974  0.103693
  6848.295  6848.300  0.500  3.909604  152.424  3.055870  0.100717
  6848.796  6848.800  0.500  3.929099  152.437  2.997118  0.097991
  6849.299  6849.300  0.500  3.945546  152.448  2.948440  0.095615
  6849.793  6849.800  0.500  3.958650  152.453  2.910146  0.093934
  6850.303  6850.300  0.500  3.968241  152.462  2.882547  0.092546
  6850.802  6850.800  0.500  3.973769  152.458  2.866590  0.091741
  6851.302  6851.300  0.500  3.975705  152.478  2.861413  0.091228
  6851.798  6851.800  0.500  3.973880  152.479  2.866656  0.091276
  6852.298  6852.300  0.500  3.969834  152.481  2.878318  0.091089
  6852.794  6852.800  0.500  3.963067  152.484  2.897913  0.091683
  6853.298  6853.300  0.500  3.955031  152.492  2.921456  0.092200
  6853.800  6853.800  0.500  3.945364  152.497  2.949933  0.092897
  6854.305  6854.300  0.500  3.934820  152.5  2.981263  0.093722
  6854.803  6854.800  0.500  3.924270  152.507  3.013022  0.094468
  6855.297  6855.300  0.500  3.914459  152.508  3.042738  0.095273
  6855.798  6855.800  0.500  3.904470  152.513  3.073379  0.096120
  6856.304  6856.300  0.500  3.894692  152.52  3.103728  0.097069
  6856.801  6856.800  0.500  3.886221  152.524  3.130215  0.097702
  6857.302  6857.300  0.500  3.879033  152.537  3.153063  0.098531
  6857.807  6857.800  0.500  3.872112  152.555  3.175340  0.099167
  6858.296  6858.300  0.500  3.866010  152.555  3.194762  0.099463
  6858.798  6858.800  0.500  3.861548  152.536  3.208667  0.099719
  6859.299  6859.300  0.500  3.857623  152.532  3.221187  0.099987
  6859.799  6859.800  0.500  3.853933  152.522  3.232886  0.100100
  6860.799  6860.790  0.500  3.847492  152.345  3.250009  0.100325
  6861.800  6861.790  0.500  3.841143  152.183  3.267222  0.100412
  6862.815  6862.810  0.500  3.833907  152.508  3.297987  0.101114
  6863.876  6863.860  0.500  3.825411  152.589  3.327881  0.102204
  6864.933  6864.920  0.500  3.815649  152.621  3.361233  0.103503
  6866.013  6866.000  0.500  3.805044  152.639  3.397465  0.105579
  6867.117  6867.100  0.500  3.793827  152.655  3.436154  0.107474
  6868.235  6868.220  0.500  3.783494  152.667  3.472122  0.109320
  6869.366  6869.360  0.500  3.773618  152.677  3.506800  0.111081
  6870.521  6870.510  0.500  3.765267  152.692  3.536555  0.112678
  6871.702  6871.690  0.500  3.758954  152.706  3.559296  0.114276
  6872.894  6872.880  0.500  3.753730  152.708  3.577970  0.115657
  6874.110  6874.100  0.500  3.749964  152.721  3.591772  0.116690
  6875.341  6875.330  0.500  3.747660  152.736  3.600410  0.117719
  6876.592  6876.580  0.500  3.746879  152.742  3.603374  0.118241
  6877.856  6877.850  0.500  3.747909  152.747  3.599789  0.118497
  6879.154  6879.140  0.500  3.751355  152.755  3.587581  0.118654
  6880.452  6880.450  0.500  3.756811  152.754  3.568047  0.118288
  6881.789  6881.780  0.500  3.764415  152.753  3.540996  0.117567
  6883.141  6883.130  0.500  3.771461  152.749  3.516049  0.117029
  6884.511  6884.500  0.500  3.777744  152.742  3.493847  0.116362
  6885.894  6885.880  0.500  3.781898  152.748  3.479506  0.115983
  6887.303  6887.290  0.500  3.785235  152.747  3.467890  0.115970
  6888.717  6888.710  0.500  3.787661  152.764  3.459870  0.115381
  6890.164  6890.150  0.500  3.789205  152.767  3.454614  0.115474
  6891.612  6891.610  0.500  3.789657  152.768  3.453079  0.115188
  6893.106  6893.090  0.500  3.789197  152.761  3.454505  0.115521
  6894.597  6894.590  0.500  3.788357  152.776  3.457748  0.115612
  6896.115  6896.110  0.500  3.788305  152.778  3.457977  0.115736
  6897.659  6897.650  0.500  3.787414  152.77  3.460865  0.115791
  6899.215  6899.210  0.500  3.786366  152.773  3.464556  0.115935
  6900.791  6900.780  0.500  3.783421  152.768  3.474680  0.116514
  6902.386  6902.380  0.500  3.779866  152.757  3.486787  0.117273
  6904.002  6903.990  0.500  3.774772  152.748  3.504385  0.117735
  6905.635  6905.630  0.500  3.769039  152.734  3.524212  0.118753
  6907.291  6907.280  0.500  3.761426  152.732  3.551113  0.119728
  6908.958  6908.950  0.500  3.752674  152.709  3.581780  0.120685
  6910.650  6910.640  0.500  3.743308  152.665  3.614437  0.121949
  6912.361  6912.350  0.500  3.734351  152.614  3.645757  0.123259
  6914.083  6914.080  0.500  3.725805  152.587  3.676377  0.124557
  6915.840  6915.830  0.500  3.718847  152.575  3.701753  0.125531
  6917.593  6917.590  0.500  3.712318  152.539  3.725123  0.126459
  6919.390  6919.380  0.500  3.707553  152.492  3.741768  0.127485
  6921.189  6921.180  0.500  3.703351  152.472  3.757023  0.128225
  6923.019  6923.010  0.500  3.699794  152.462  3.770181  0.129168
  6924.854  6924.850  0.500  3.697242  152.445  3.779378  0.130067
  6926.714  6926.710  0.500  3.695401  152.44  3.786238  0.130817
  6928.598  6928.590  0.500  3.694640  152.434  3.788970  0.131117
  6930.499  6930.490  0.500  3.694033  152.408  3.790621  0.131475
  6932.414  6932.410  0.500  3.693790  152.397  3.791270  0.131943
  6934.364  6934.350  0.500  3.694189  152.389  3.789559  0.132349
  6936.317  6936.310  0.500  3.694512  152.388  3.788303  0.132941
  6938.294  6938.280  0.500  3.693957  152.402  3.790748  0.133475
  6940.290  6940.280  0.500  3.691932  152.383  3.797963  0.134275
  6942.302  6942.290  0.500  3.688608  152.383  3.810616  0.135264
  6944.332  6944.320  0.500  3.685054  152.366  3.823750  0.136212
  6946.389  6946.380  0.500  3.681456  152.351  3.837147  0.137006
  6948.458  6948.450  0.500  3.677367  152.339  3.852580  0.138106
  6950.550  6950.540  0.500  3.673522  152.324  3.867044  0.138848
  6952.656  6952.650  0.500  3.670331  152.325  3.879408  0.139580
  6954.792  6954.780  0.500  3.667685  152.321  3.889594  0.140222
  6956.925  6956.920  0.500  3.665367  152.306  3.898227  0.140915
  6959.103  6959.090  0.500  3.662782  152.293  3.908000  0.141393
  6961.284  6961.280  0.500  3.660799  152.29  3.915667  0.142125
  6963.493  6963.480  0.500  3.658120  152.292  3.926225  0.142633
  6965.712  6965.700  0.500  3.655508  152.279  3.936175  0.143139
  6967.966  6967.950  0.500  3.652950  152.279  3.946235  0.143853
  6970.224  6970.210  0.500  3.649432  152.273  3.959997  0.144553
  6972.497  6972.490  0.500  3.646166  152.266  3.972760  0.145342
  6974.802  6974.790  0.500  3.641547  152.242  3.990538  0.146502
  6977.126  6977.110  0.500  3.637456  152.224  4.006425  0.147508
  6979.463  6979.450  0.500  3.634509  152.202  4.017669  0.148335
  6981.808  6981.800  0.500  3.631896  152.187  4.027783  0.149202
  6984.204  6984.180  0.500  3.626254  152.162  4.049891  0.150528
  6986.572  6986.570  0.500  3.618820  152.143  4.079615  0.151790
  6988.998  6988.990  0.500  3.612933  152.131  4.103376  0.153404
  6991.435  6991.420  0.500  3.608204  152.122  4.122583  0.154333
  6993.877  6993.870  0.500  3.603913  152.1  4.139699  0.155318
  6996.361  6996.350  0.500  3.600241  152.078  4.154334  0.156225
  6998.853  6998.840  0.500  3.597356  152.047  4.165489  0.157143
  7001.365  7001.350  0.500  3.594990  152.03  4.174889  0.157703
  7003.881  7003.870  0.500  3.593066  152.018  4.182600  0.158463
  7006.429  7006.420  0.500  3.590984  152.01  4.191107  0.158937
  7009.005  7008.990  0.500  3.588366  151.977  4.201178  0.159836
  7011.583  7011.570  0.500  3.585933  151.945  4.210508  0.160773
  7014.188  7014.180  0.500  3.583642  151.944  4.220147  0.161525
  7016.808  7016.800  0.500  3.580144  151.912  4.234054  0.162832
  7019.465  7019.450  0.500  3.576510  151.901  4.249159  0.163991
  7022.118  7022.110  0.500  3.571966  151.893  4.268290  0.165422
  7024.798  7024.790  0.500  3.567427  151.872  4.287099  0.166803
  7027.498  7027.490  0.500  3.562517  151.846  4.307456  0.168123
  7030.224  7030.210  0.500  3.558464  151.832  4.324551  0.169517
  7032.963  7032.950  0.500  3.554311  151.794  4.341466  0.170743
  7035.713  7035.700  0.500  3.550036  151.748  4.358736  0.171869
  7038.486  7038.480  0.500  3.546216  151.748  4.375429  0.172937
  7041.280  7041.270  0.500  3.542230  151.728  4.392325  0.174426
  7044.103  7044.090  0.500  3.537798  151.703  4.411114  0.175545
  7046.936  7046.920  0.500  3.533960  151.659  4.426781  0.176742
  7049.781  7049.770  0.500  3.530173  151.633  4.442829  0.177493
  7052.660  7052.650  0.500  3.526090  151.609  4.460302  0.178902
  7055.551  7055.540  0.500  3.521845  151.58  4.478421  0.180041
  7058.466  7058.450  0.500  3.517255  151.556  4.498302  0.181435
  7061.385  7061.370  0.500  3.512560  151.572  4.519939  0.182831
  7064.331  7064.320  0.500  3.507849  151.375  4.535379  0.184371
  7067.297  7067.290  0.500  3.502687  151.427  4.560436  0.186087
  7070.280  7070.270  0.500  3.497303  150.069  4.543945  0.185945
  7073.291  7073.280  0.500  3.492278  151.338  4.605421  0.189090
  7076.316  7076.300  0.500  3.487619  151.074  4.618884  0.190360
  7079.364  7079.350  0.500  3.482209  151.261  4.649687  0.192148
  7082.422  7082.410  0.500  3.477165  151.042  4.666415  0.193697
  7085.501  7085.490  0.500  3.472960  151.107  4.688100  0.195273
  7088.597  7088.590  0.500  3.469059  151.121  4.706857  0.196607
  7091.720  7091.710  0.500  3.465120  151.073  4.723943  0.197966
  7094.863  7094.850  0.500  3.461483  151.042  4.740178  0.199353
  7098.014  7098.000  0.500  3.457541  151.011  4.757912  0.200709
  7101.189  7101.180  0.500  3.453677  150.974  4.775182  0.202125
  7104.380  7104.370  0.500  3.450277  150.927  4.789954  0.203201
  7107.599  7107.590  0.500  3.446357  150.872  4.807006  0.204754
  7110.828  7110.820  0.500  3.441897  150.754  4.824710  0.206244
  7114.077  7114.070  0.500  3.437645  150.512  4.837511  0.207303
  7117.359  7117.350  0.500  3.433005  150.425  4.857196  0.209036
  7120.649  7120.640  0.500  3.427940  150.277  4.877033  0.210782
  7123.963  7123.950  0.500  3.422547  150.112  4.898026  0.212415
  7127.279  7127.270  0.500  3.417387  149.922  4.917147  0.214445
  7130.630  7130.620  0.500  3.412105  149.658  4.934468  0.215881
  7133.999  7133.990  0.500  3.407273  149.526  4.954010  0.217568
  7137.378  7137.370  0.500  3.402173  149.495  4.978301  0.219471
  7140.791  7140.780  0.500  3.397766  149.478  4.999737  0.221318
  7144.209  7144.200  0.500  3.393196  149.466  5.022243  0.222938
  7147.659  7147.650  0.500  3.388376  149.45  5.045935  0.224503
  7151.115  7151.110  0.500  3.383992  149.42  5.067119  0.226765
  7154.598  7154.590  0.500  3.379595  149.368  5.087644  0.228146
  7158.097  7158.090  0.500  3.374946  149.315  5.109567  0.229787
  7161.618  7161.610  0.500  3.369716  149.217  5.132961  0.231579
  7165.155  7165.150  0.500  3.364666  149.122  5.155666  0.233350
  7168.705  7168.700  0.500  3.359699  148.998  5.177046  0.235360
  7172.284  7172.280  0.500  3.354756  148.912  5.199706  0.237258
  7175.887  7175.880  0.500  3.349404  148.823  5.224480  0.239395
  7179.498  7179.490  0.500  3.344278  148.754  5.248887  0.241685
  7183.125  7183.120  0.500  3.338720  148.674  5.275304  0.243581
  7186.790  7186.780  0.500  3.333026  148.589  5.302378  0.246158
  7190.458  7190.450  0.500  3.327515  148.537  5.329833  0.248325
  7194.142  7194.140  0.500  3.322370  148.763  5.365459  0.251163
  7197.853  7197.850  0.500  3.317727  148.768  5.390623  0.253179
  7201.582  7201.580  0.500  3.312921  148.67  5.413019  0.255193
  7205.323  7205.320  0.500  3.308281  148.561  5.434228  0.257248
  7209.093  7209.090  0.500  3.303466  148.421  5.455287  0.259432
  7212.884  7212.880  0.500  3.298402  148.303  5.478613  0.261497
  7216.687  7216.680  0.500  3.293485  148.19  5.501436  0.263517
  7220.517  7220.510  0.500  3.288321  148.071  5.525488  0.265625
  7224.357  7224.350  0.500  3.283374  147.949  5.548319  0.267720
  7228.212  7228.210  0.500  3.278348  145.545  5.485646  0.265637
  7232.095  7232.090  0.500  3.273101  147.868  5.602521  0.272415
  7235.992  7235.990  0.500  3.267760  147.765  5.628608  0.274875
  7239.918  7239.910  0.500  3.262215  147.658  5.655802  0.277100
  7243.857  7243.850  0.500  3.256481  147.42  5.679180  0.279304
  7247.818  7247.810  0.500  3.250960  147.369  5.708648  0.282166
  7251.788  7251.780  0.500  3.245342  147.218  5.734922  0.284598
  7255.790  7255.780  0.500  3.239484  147.348  5.773684  0.287825
  7259.796  7259.790  0.500  3.233976  147.04  5.793466  0.290254
  7263.838  7263.830  0.500  3.229878  137.063  5.422514  0.272600
  7267.883  7267.880  0.500  3.223425  147.351  5.867306  0.296312
  7271.957  7271.950  0.500  3.218442  147.253  5.892665  0.298771
  7276.053  7276.040  0.500  3.213234  147.331  5.926587  0.301920
  7280.162  7280.150  0.500  3.208087  147.179  5.951031  0.304307
  7284.295  7284.280  0.500  3.202576  144.73  5.884342  0.301867
  7288.440  7288.430  0.500  3.197132  146.851  6.003146  0.309447
  7292.602  7292.590  0.500  3.192095  146.776  6.030386  0.312008
  7296.793  7296.780  0.500  3.186469  146.641  6.058844  0.314712
  7300.993  7300.980  0.500  3.180862  145.569  6.048386  0.315409
  7305.231  7305.210  0.500  3.174987  146.515  6.123547  0.320719
  7309.464  7309.450  0.500  3.169300  146.393  6.153319  0.323602
  7313.725  7313.710  0.500  3.164041  146.255  6.179968  0.326651
  7317.999  7317.990  0.500  3.158230  146.123  6.210376  0.329820
  7322.304  7322.290  0.500  3.152313  145.988  6.241448  0.332819
  7326.627  7326.610  0.500  3.146652  145.859  6.271315  0.336066
  7330.964  7330.950  0.500  3.141317  145.738  6.299664  0.339012
  7335.343  7335.310  0.500  3.135318  145.632  6.332954  0.342262
  7339.725  7339.690  0.500  3.129468  143.102  6.259425  0.339621
  7344.098  7344.080  0.500  3.124261  145.263  6.387128  0.348130
  7348.535  7348.500  0.500  3.118778  145.164  6.417869  0.351548
  7352.956  7352.930  0.500  3.112955  145.026  6.449213  0.354428
  7357.406  7357.380  0.500  3.107389  144.898  6.479501  0.357527
  7361.885  7361.850  0.500  3.101687  144.763  6.510468  0.360972
  7366.357  7366.340  0.500  3.095823  144.623  6.542417  0.364154
  7370.843  7370.850  0.500  3.090044  144.494  6.574476  0.367196
  7375.389  7375.380  0.500  3.084485  144.348  6.604427  0.370704
  7379.918  7379.930  0.500  3.078595  144.201  6.636710  0.374401