File: xdidata/Pr/Pr-L1-Pr2TiO5.xdi
# XDI/1.0 BlueSky/1.10.0 BMM/2023-1.0-py310-tiled
# Beamline.name: BMM (06BM) -- Beamline for Materials Measurement (NIST)
# Beamline.xray_source: NSLS-II three-pole wiggler
# Beamline.collimation: paraboloid mirror, 5 nm Rh on 30 nm Pt
# Beamline.focusing: not in use
# Beamline.harmonic_rejection: flat mirror, Si stripe, pitch = 7.0 mrad relative to beam
# Beamline.software: Bluesky 1.10.0, Ophyd 1.7.0, DataBroker 2.0.0b13, Python 3.10.8, 2023-1.0-py310-tiled
# Detector.I0: 10 cm N2
# Detector.I1: 25 cm N2
# Detector.I2: 25 cm N2
# Element.symbol: Pr
# Element.edge: L1
# Element.reference: Pr
# Element.reference_material: Pr6O11
# Facility.name: NSLS-II
# Facility.energy: 3.0
# Facility.current: 400.0
# Facility.mode: top-off
# Facility.GUP: 123456
# Facility.SAF: 301027
# Facility.cycle: 2023-2
# Mono.name: Si(111)
# Mono.d_spacing: 3.13519
# Mono.encoder_resolution: 0.0000050 deg/ct
# Mono.angle_offset: 16.0754 deg
# Mono.scan_mode: pseudo channel cut
# Mono.scan_type: step
# Mono.direction: forward in energy
# Sample.name: Pr2TiO5
# Sample.prep: Powder in PEG pellet
# Sample.x: 149.848 mm
# Sample.y: 114.690 mm
# Sample.SDD_position: 205.000 mm
# Scan.experimenters: Bruce Ravel
# Scan.edge_energy: 6834.8
# Scan.start_time: 2023-05-08T20:02:53
# Scan.end_time: 2023-05-08T20:08:50
# Scan.transient_id: 75564
# Scan.uid: 6aa98774-e54b-418d-b6aa-671c3be0bbc0
# Scan.plot_hint: ln(I0/It)  --  ln($5/$6)
# Column.1: energy eV
# Column.2: requested_energy eV
# Column.3: measurement_time seconds
# Column.4: xmu
# Column.5: I0 nA
# Column.6: It nA
# Column.7: Ir nA
# ///////////
# sample courtesy Martin Stennett, University of Sheffield
# -----------
# energy  requested_energy  measurement_time  xmu  I0  It  Ir
  6634.803  6634.800  0.500  2.069936  150.981  19.0529  0.581035
  6644.809  6644.800  0.500  2.060339  151.112  19.2533  0.597254
  6654.815  6654.800  0.500  2.051025  151.221  19.4475  0.611922
  6664.810  6664.800  0.500  2.041441  151.366  19.6536  0.624629
  6674.829  6674.800  0.500  2.031789  151.498  19.8615  0.636492
  6684.804  6684.800  0.500  2.021549  151.637  20.0844  0.652368
  6694.825  6694.800  0.500  2.011756  151.77  20.2999  0.669162
  6704.816  6704.800  0.500  2.002394  151.871  20.5044  0.684326
  6714.818  6714.800  0.500  1.992999  151.996  20.715  0.697376
  6724.812  6724.800  0.500  1.983544  152.113  20.9278  0.710646
  6734.812  6734.800  0.500  1.974255  152.217  21.1376  0.727306
  6744.811  6744.800  0.500  1.964666  152.307  21.3538  0.745670
  6754.812  6754.800  0.500  1.955280  152.413  21.5702  0.763645
  6764.811  6764.800  0.500  1.946285  152.512  21.7793  0.779588
  6774.809  6774.800  0.500  1.937143  152.609  21.9932  0.794311
  6784.810  6784.800  0.500  1.927829  152.729  22.2166  0.809763
  6794.774  6794.800  0.500  1.918429  146.411  21.4987  0.794149
  6804.788  6804.800  0.500  1.910063  152.523  22.5842  0.843342
  6806.779  6806.800  0.500  1.908055  152.545  22.633  0.846753
  6808.781  6808.800  0.500  1.906198  152.419  22.6562  0.850239
  6810.783  6810.800  0.500  1.904302  146.902  21.8776  0.822433
  6812.809  6812.800  0.500  1.902804  151.448  22.5885  0.851002
  6814.802  6814.800  0.500  1.901146  152.387  22.7662  0.859579
  6816.803  6816.800  0.500  1.899640  152.517  22.82  0.863268
  6818.798  6818.800  0.500  1.897694  152.533  22.8669  0.866572
  6820.797  6820.800  0.500  1.895954  152.448  22.8938  0.868715
  6822.795  6822.800  0.500  1.894219  146.042  21.97  0.835070
  6824.799  6824.800  0.500  1.892811  151.445  22.8148  0.867947
  6825.289  6825.300  0.500  1.892461  151.942  22.8977  0.871417
  6825.787  6825.800  0.500  1.891988  152.15  22.94  0.872957
  6826.285  6826.300  0.500  1.891599  152.265  22.9661  0.874033
  6826.785  6826.800  0.500  1.891335  152.329  22.982  0.874662
  6827.289  6827.300  0.500  1.891111  152.373  22.9937  0.874829
  6827.787  6827.800  0.500  1.890686  152.399  23.0075  0.875217
  6828.287  6828.300  0.500  1.890582  152.428  23.0142  0.875656
  6828.786  6828.800  0.500  1.890135  152.446  23.0271  0.875431
  6829.286  6829.300  0.500  1.889884  152.466  23.0361  0.874982
  6829.786  6829.800  0.500  1.889184  152.477  23.0537  0.874514
  6830.287  6830.300  0.500  1.889128  152.485  23.0563  0.873752
  6830.791  6830.800  0.500  1.888843  152.488  23.0632  0.873117
  6831.290  6831.300  0.500  1.888472  152.498  23.0734  0.872273
  6831.793  6831.800  0.500  1.888250  152.507  23.0799  0.872030
  6832.292  6832.300  0.500  1.888073  152.514  23.0851  0.872192
  6832.795  6832.800  0.500  1.887874  152.518  23.0903  0.871849
  6833.294  6833.300  0.500  1.887881  152.52  23.0903  0.871679
  6833.789  6833.800  0.500  1.887810  152.526  23.093  0.871336
  6834.294  6834.300  0.500  1.887461  152.537  23.1026  0.870641
  6834.791  6834.800  0.500  1.887698  152.546  23.0985  0.869661
  6835.299  6835.300  0.500  1.887906  152.54  23.0927  0.868128
  6835.798  6835.800  0.500  1.888109  152.537  23.0876  0.865872
  6836.296  6836.300  0.500  1.888179  152.545  23.0872  0.863352
  6836.795  6836.800  0.500  1.888684  152.541  23.075  0.859995
  6837.291  6837.300  0.500  1.888827  153.163  23.1657  0.860386
  6837.794  6837.800  0.500  1.889150  153.09  23.1473  0.856846
  6838.294  6838.300  0.500  1.889587  152.941  23.1147  0.852339
  6838.800  6838.800  0.500  1.890036  152.687  23.0658  0.847520
  6839.304  6839.300  0.500  1.890399  152.381  23.0113  0.842363
  6839.794  6839.800  0.500  1.890422  150.123  22.6697  0.827141
  6840.298  6840.300  0.500  1.890318  143.87  21.7278  0.789580
  6840.794  6840.800  0.500  1.890765  141.582  21.3726  0.774145
  6841.295  6841.300  0.500  1.890975  145.812  22.0066  0.794901
  6841.795  6841.800  0.500  1.891158  150.397  22.6945  0.816817
  6842.301  6842.300  0.500  1.891673  151.538  22.8549  0.819162
  6842.804  6842.800  0.500  1.892162  151.978  22.9101  0.817483
  6843.300  6843.300  0.500  1.892540  152.191  22.9335  0.814389
  6843.803  6843.800  0.500  1.893358  152.335  22.9364  0.810509
  6844.300  6844.300  0.500  1.893867  152.429  22.9389  0.805153
  6844.799  6844.800  0.500  1.894516  152.499  22.9344  0.800131
  6845.298  6845.300  0.500  1.895315  152.541  22.9225  0.793495
  6845.795  6845.800  0.500  1.896527  152.588  22.9018  0.786432
  6846.300  6846.300  0.500  1.897257  152.615  22.8891  0.778721
  6846.801  6846.800  0.500  1.897814  152.642  22.8804  0.771698
  6847.300  6847.300  0.500  1.898118  152.652  22.8749  0.764724
  6847.803  6847.800  0.500  1.898723  152.665  22.8631  0.757439
  6848.296  6848.300  0.500  1.898972  152.673  22.8586  0.750761
  6848.798  6848.800  0.500  1.899256  152.681  22.8532  0.744981
  6849.295  6849.300  0.500  1.899743  152.687  22.843  0.739468
  6849.795  6849.800  0.500  1.900137  152.695  22.8353  0.734912
  6850.299  6850.300  0.500  1.900261  152.701  22.8333  0.731186
  6850.798  6850.800  0.500  1.900274  152.716  22.8353  0.728217
  6851.306  6851.300  0.500  1.899928  152.718  22.8435  0.726419
  6851.798  6851.800  0.500  1.899484  152.72  22.8539  0.724394
  6852.298  6852.300  0.500  1.899064  152.73  22.865  0.722888
  6852.796  6852.800  0.500  1.898482  152.729  22.8781  0.721807
  6853.294  6853.300  0.500  1.898308  152.732  22.8825  0.720357
  6853.796  6853.800  0.500  1.897906  152.737  22.8925  0.718956
  6854.301  6854.300  0.500  1.897572  152.729  22.899  0.717470
  6854.801  6854.800  0.500  1.897331  152.74  22.9062  0.716594
  6855.295  6855.300  0.500  1.896842  152.75  22.9189  0.715504
  6855.800  6855.800  0.500  1.896573  152.764  22.9271  0.715015
  6856.300  6856.300  0.500  1.896229  152.755  22.9336  0.714588
  6856.801  6856.800  0.500  1.895853  152.749  22.9414  0.714339
  6857.304  6857.300  0.500  1.895766  152.754  22.9442  0.713849
  6857.801  6857.800  0.500  1.895841  152.763  22.9437  0.713146
  6858.301  6858.300  0.500  1.895452  152.762  22.9526  0.712832
  6858.798  6858.800  0.500  1.894966  152.752  22.9622  0.712040
  6859.299  6859.300  0.500  1.894111  152.737  22.9796  0.711656
  6859.799  6859.800  0.500  1.893813  152.726  22.9848  0.710413
  6860.801  6860.790  0.500  1.892478  152.554  22.9896  0.707358
  6861.798  6861.790  0.500  1.891052  152.385  22.9968  0.704714
  6862.819  6862.810  0.500  1.889755  152.715  23.0765  0.705809
  6863.872  6863.860  0.500  1.888285  152.8  23.1234  0.708208
  6864.939  6864.920  0.500  1.886346  152.826  23.1723  0.712774
  6866.005  6866.000  0.500  1.884088  152.846  23.2276  0.718349
  6867.117  6867.100  0.500  1.882099  152.856  23.2753  0.725070
  6868.235  6868.220  0.500  1.879919  152.862  23.3271  0.731945
  6869.368  6869.360  0.500  1.878027  152.872  23.3729  0.738042
  6870.519  6870.510  0.500  1.876544  152.88  23.4088  0.744569
  6871.704  6871.690  0.500  1.874838  152.888  23.4499  0.751184
  6872.892  6872.880  0.500  1.873811  152.901  23.4761  0.756998
  6874.104  6874.100  0.500  1.872610  152.905  23.5048  0.762226
  6875.345  6875.330  0.500  1.871426  152.915  23.5343  0.767235
  6876.590  6876.580  0.500  1.870475  152.928  23.5586  0.770836
  6877.862  6877.850  0.500  1.869539  152.926  23.5803  0.775027
  6879.152  6879.140  0.500  1.868755  152.926  23.5989  0.777757
  6880.460  6880.450  0.500  1.867952  152.937  23.6195  0.780530
  6881.793  6881.780  0.500  1.867085  152.933  23.6394  0.782845
  6883.147  6883.130  0.500  1.866172  152.923  23.6594  0.784873
  6884.503  6884.500  0.500  1.864957  152.921  23.6879  0.786555
  6885.888  6885.880  0.500  1.864060  152.928  23.7103  0.788500
  6887.301  6887.290  0.500  1.863219  152.934  23.7312  0.789630
  6888.719  6888.710  0.500  1.862086  152.934  23.7581  0.791543
  6890.160  6890.150  0.500  1.861247  152.939  23.7787  0.792206
  6891.618  6891.610  0.500  1.860496  152.937  23.7962  0.793413
  6893.100  6893.090  0.500  1.859487  152.936  23.8202  0.793979
  6894.593  6894.590  0.500  1.858560  152.944  23.8435  0.795396
  6896.115  6896.110  0.500  1.857907  152.948  23.8597  0.795478
  6897.659  6897.650  0.500  1.857012  152.944  23.8805  0.796755
  6899.211  6899.210  0.500  1.855727  152.939  23.9104  0.798934
  6900.793  6900.780  0.500  1.854560  152.927  23.9364  0.800797
  6902.380  6902.380  0.500  1.853006  152.927  23.9736  0.803006
  6904.002  6903.990  0.500  1.851451  152.919  24.0097  0.805398
  6905.631  6905.630  0.500  1.849645  152.904  24.0507  0.807587
  6907.291  6907.280  0.500  1.848476  152.894  24.0772  0.809308
  6908.954  6908.950  0.500  1.847119  152.872  24.1065  0.811437
  6910.650  6910.640  0.500  1.845541  152.845  24.1404  0.813473
  6912.357  6912.350  0.500  1.843781  152.784  24.1732  0.815843
  6914.087  6914.080  0.500  1.842154  152.752  24.2074  0.818109
  6915.836  6915.830  0.500  1.840436  152.741  24.2473  0.820596
  6917.595  6917.590  0.500  1.838679  152.694  24.2825  0.823464
  6919.390  6919.380  0.500  1.837169  152.653  24.3127  0.826385
  6921.189  6921.180  0.500  1.835346  152.629  24.3532  0.829789
  6923.019  6923.010  0.500  1.833299  152.624  24.4023  0.834244
  6924.860  6924.850  0.500  1.831599  152.6  24.44  0.838343
  6926.720  6926.710  0.500  1.829859  152.586  24.4803  0.842156
  6928.596  6928.590  0.500  1.828056  152.577  24.5231  0.846696
  6930.495  6930.490  0.500  1.826669  152.563  24.5548  0.850444
  6932.418  6932.410  0.500  1.824785  152.551  24.5992  0.854615
  6934.360  6934.350  0.500  1.823005  152.542  24.6415  0.858981
  6936.319  6936.310  0.500  1.821127  152.539  24.6874  0.863643
  6938.290  6938.280  0.500  1.819452  152.545  24.7298  0.869140
  6940.293  6940.280  0.500  1.818145  152.531  24.7599  0.874231
  6942.294  6942.290  0.500  1.816435  152.532  24.8024  0.879161
  6944.334  6944.320  0.500  1.814817  152.525  24.8414  0.883440
  6946.385  6946.380  0.500  1.813108  152.505  24.8806  0.887641
  6948.462  6948.450  0.500  1.811251  152.489  24.9243  0.891703
  6950.546  6950.540  0.500  1.809605  152.478  24.9634  0.895091
  6952.662  6952.650  0.500  1.807940  152.47  25.0038  0.898419
  6954.792  6954.780  0.500  1.806468  152.463  25.0395  0.901707
  6956.925  6956.920  0.500  1.805008  152.442  25.0726  0.904477
  6959.101  6959.090  0.500  1.803038  152.436  25.121  0.907694
  6961.292  6961.280  0.500  1.801522  152.444  25.1605  0.910747
  6963.493  6963.480  0.500  1.799953  152.427  25.1972  0.913434
  6965.708  6965.700  0.500  1.798172  152.431  25.2427  0.916250
  6967.955  6967.950  0.500  1.796487  152.43  25.2852  0.919260
  6970.224  6970.210  0.500  1.794280  152.42  25.3393  0.923465
  6972.503  6972.490  0.500  1.792350  152.408  25.3863  0.927366
  6974.794  6974.790  0.500  1.790277  152.385  25.4351  0.931768
  6977.126  6977.110  0.500  1.788107  152.363  25.4868  0.936706
  6979.463  6979.450  0.500  1.786250  152.34  25.5302  0.941203
  6981.812  6981.800  0.500  1.784480  152.315  25.5712  0.945222
  6984.198  6984.180  0.500  1.782386  152.293  25.6213  0.950107
  6986.584  6986.570  0.500  1.780476  152.278  25.6676  0.954741
  6989.008  6988.990  0.500  1.778558  152.26  25.714  0.959214
  6991.435  6991.420  0.500  1.776865  152.249  25.7556  0.962836
  6993.884  6993.870  0.500  1.774835  152.228  25.8044  0.967175
  6996.363  6996.350  0.500  1.772436  152.213  25.8638  0.971790
  6998.855  6998.840  0.500  1.770306  152.187  25.9145  0.975123
  7001.365  7001.350  0.500  1.767902  152.169  25.9738  0.979695
  7003.883  7003.870  0.500  1.765903  152.152  26.0229  0.983753
  7006.429  7006.420  0.500  1.763799  152.13  26.0739  0.988496
  7009.011  7008.990  0.500  1.761707  152.105  26.1242  0.992754
  7011.587  7011.570  0.500  1.759839  152.078  26.1685  0.997590
  7014.194  7014.180  0.500  1.757300  152.066  26.2329  1.003390
  7016.814  7016.800  0.500  1.755113  152.045  26.2867  1.009050
  7019.461  7019.450  0.500  1.753290  152.028  26.3317  1.014669
  7022.131  7022.110  0.500  1.750785  152.013  26.3951  1.021799
  7024.801  7024.790  0.500  1.749048  151.998  26.4385  1.027024
  7027.493  7027.490  0.500  1.747113  151.975  26.4857  1.033026
  7030.228  7030.210  0.500  1.744630  151.959  26.5487  1.039043
  7032.965  7032.950  0.500  1.742471  151.9  26.5958  1.044521
  7035.717  7035.700  0.500  1.740208  151.871  26.651  1.049474
  7038.494  7038.480  0.500  1.738255  151.861  26.7013  1.054131
  7041.286  7041.270  0.500  1.735733  151.836  26.7643  1.060053
  7044.103  7044.090  0.500  1.733676  151.814  26.8155  1.064826
  7046.934  7046.920  0.500  1.731633  151.776  26.8637  1.069644
  7049.781  7049.770  0.500  1.729193  151.736  26.9221  1.074778
  7052.662  7052.650  0.500  1.726817  151.724  26.984  1.079890
  7055.551  7055.540  0.500  1.724517  151.698  27.0416  1.085588
  7058.464  7058.450  0.500  1.722292  151.671  27.097  1.090919
  7061.389  7061.370  0.500  1.719946  151.687  27.1634  1.097810
  7064.337  7064.320  0.500  1.717309  151.497  27.2011  1.103201
  7067.301  7067.290  0.500  1.715070  151.542  27.2701  1.110083
  7070.280  7070.270  0.500  1.712903  150.192  27.0858  1.106912
  7073.296  7073.280  0.500  1.710540  151.457  27.3787  1.122992
  7076.316  7076.300  0.500  1.707747  151.192  27.4071  1.128833
  7079.362  7079.350  0.500  1.705122  151.383  27.5139  1.137203
  7082.424  7082.410  0.500  1.702708  151.151  27.5381  1.141865
  7085.504  7085.490  0.500  1.700494  151.223  27.6124  1.148873
  7088.601  7088.590  0.500  1.697934  151.228  27.6839  1.155406
  7091.718  7091.710  0.500  1.695568  151.187  27.7421  1.161090
  7094.859  7094.850  0.500  1.692973  151.152  27.8077  1.167701
  7098.012  7098.000  0.500  1.690462  151.127  27.873  1.174239
  7101.193  7101.180  0.500  1.687933  151.096  27.9378  1.180120
  7104.384  7104.370  0.500  1.685569  151.047  27.9948  1.186590
  7107.601  7107.590  0.500  1.682966  150.986  28.0565  1.192993
  7110.832  7110.820  0.500  1.680381  150.862  28.1061  1.199522
  7114.079  7114.070  0.500  1.677851  150.623  28.1325  1.204868
  7117.357  7117.350  0.500  1.675109  150.531  28.1926  1.212349
  7120.645  7120.640  0.500  1.672713  150.374  28.2307  1.219089
  7123.961  7123.950  0.500  1.670381  150.21  28.2658  1.225712
  7127.281  7127.270  0.500  1.668161  150.02  28.2927  1.231410
  7130.632  7130.620  0.500  1.665551  149.758  28.3172  1.237382
  7134.003  7133.990  0.500  1.662801  149.618  28.3686  1.245404
  7137.383  7137.370  0.500  1.660213  149.593  28.4374  1.252768
  7140.789  7140.780  0.500  1.657828  149.579  28.5026  1.260209
  7144.212  7144.200  0.500  1.655192  149.561  28.5745  1.267564
  7147.659  7147.650  0.500  1.652517  149.554  28.6496  1.275300
  7151.121  7151.110  0.500  1.650098  149.514  28.7114  1.282141
  7154.600  7154.590  0.500  1.647448  149.457  28.7765  1.288549
  7158.100  7158.090  0.500  1.644914  149.428  28.8439  1.296405
  7161.618  7161.610  0.500  1.642125  149.876  29.0112  1.308165
  7165.159  7165.150  0.500  1.639542  149.759  29.0636  1.315285
  7168.711  7168.700  0.500  1.636627  149.644  29.126  1.322782
  7172.288  7172.280  0.500  1.633902  149.555  29.1882  1.331363
  7175.887  7175.880  0.500  1.631102  149.462  29.2517  1.339516
  7179.500  7179.490  0.500  1.628356  149.396  29.3193  1.348926
  7183.130  7183.120  0.500  1.625809  149.311  29.3774  1.357017
  7186.790  7186.780  0.500  1.623258  149.237  29.4377  1.365093
  7190.454  7190.450  0.500  1.620075  149.165  29.5173  1.374748
  7194.144  7194.140  0.500  1.617401  148.872  29.5382  1.381409
  7197.853  7197.850  0.500  1.614997  148.874  29.6097  1.389926
  7201.584  7201.580  0.500  1.612292  148.777  29.6706  1.398025
  7205.325  7205.320  0.500  1.609085  148.666  29.7436  1.407845
  7209.095  7209.090  0.500  1.606390  148.529  29.7964  1.415578
  7212.887  7212.880  0.500  1.603925  148.411  29.8464  1.423329
  7216.687  7216.680  0.500  1.601140  148.283  29.9036  1.431639
  7220.517  7220.510  0.500  1.598212  148.162  29.967  1.439516
  7224.359  7224.350  0.500  1.595363  148.041  30.028  1.448210
  7228.218  7228.210  0.500  1.592556  145.646  29.6251  1.433917
  7232.095  7232.090  0.500  1.589636  147.96  30.1838  1.467013
  7235.997  7235.990  0.500  1.586748  147.851  30.2488  1.475783
  7239.915  7239.910  0.500  1.583871  147.743  30.3138  1.485054
  7243.859  7243.850  0.500  1.581150  147.502  30.3468  1.493469
  7247.813  7247.810  0.500  1.579158  147.439  30.3944  1.501709
  7251.788  7251.780  0.500  1.575897  147.309  30.4668  1.512237
  7255.790  7255.780  0.500  1.572935  147.423  30.5808  1.524799
  7259.798  7259.790  0.500  1.569772  147.108  30.6121  1.532912
  7263.838  7263.830  0.500  1.566536  137.056  28.6128  1.438342
  7267.889  7267.880  0.500  1.564307  147.416  30.8442  1.557901
  7271.963  7271.950  0.500  1.561083  147.31  30.9217  1.568063
  7276.047  7276.040  0.500  1.558394  147.409  31.0257  1.580000
  7280.162  7280.150  0.500  1.555233  147.258  31.0921  1.588869
  7284.295  7284.280  0.500  1.552316  144.799  30.6622  1.573605
  7288.438  7288.430  0.500  1.549469  146.923  31.2007  1.607849
  7292.599  7292.590  0.500  1.546528  146.853  31.2777  1.618449
  7296.811  7296.780  0.500  1.543625  146.708  31.3376  1.627933
  7300.996  7300.980  0.500  1.540737  145.621  31.1955  1.626734
  7305.222  7305.210  0.500  1.537625  146.589  31.5005  1.649479
  7309.469  7309.450  0.500  1.534481  146.45  31.5699  1.660328
  7313.725  7313.710  0.500  1.531305  146.312  31.6405  1.672351
  7318.008  7317.990  0.500  1.528372  146.191  31.7072  1.683273
  7322.311  7322.290  0.500  1.525326  146.056  31.7744  1.694320
  7326.631  7326.610  0.500  1.522240  145.922  31.8435  1.705862
  7330.973  7330.950  0.500  1.519118  145.789  31.914  1.717140
  7335.304  7335.310  0.500  1.516103  145.677  31.9857  1.729100
  7339.683  7339.690  0.500  1.513373  143.19  31.5255  1.711319
  7344.069  7344.080  0.500  1.510095  145.31  32.0974  1.750069
  7348.484  7348.500  0.500  1.506896  145.213  32.1787  1.762094
  7352.919  7352.930  0.500  1.503915  145.088  32.247  1.773377
  7357.379  7357.380  0.500  1.500932  144.955  32.3138  1.784504
  7361.836  7361.850  0.500  1.497998  144.817  32.3777  1.795396
  7366.327  7366.340  0.500  1.494689  144.672  32.4525  1.806636
  7370.836  7370.850  0.500  1.491625  144.545  32.5237  1.818427
  7375.366  7375.380  0.500  1.488688  144.412  32.5893  1.829886
  7379.921  7379.930  0.500  1.485611  144.255  32.6542  1.842070