File: xdidata/Pr/Pr-L3-PraseodymiumOxide.xdi
# XDI/1.0 BlueSky/1.10.0 BMM/2023-1.0-py310-tiled
# Beamline.name: BMM (06BM) -- Beamline for Materials Measurement (NIST)
# Beamline.xray_source: NSLS-II three-pole wiggler
# Beamline.collimation: paraboloid mirror, 5 nm Rh on 30 nm Pt
# Beamline.focusing: not in use
# Beamline.harmonic_rejection: flat mirror, Si stripe, pitch = 7.0 mrad relative to beam
# Beamline.software: Bluesky 1.10.0, Ophyd 1.7.0, DataBroker 2.0.0b13, Python 3.10.8, 2023-1.0-py310-tiled
# Detector.I0: 10 cm N2
# Detector.I1: 25 cm N2
# Detector.I2: 25 cm N2
# Element.symbol: Pr
# Element.edge: L3
# Element.reference: Pr
# Element.reference_material: Pr6O11
# Facility.name: NSLS-II
# Facility.energy: 3.0
# Facility.current: 400.9
# Facility.mode: top-off
# Facility.GUP: 301027
# Facility.SAF: 310583
# Facility.cycle: 2023-2
# Mono.name: Si(111)
# Mono.d_spacing: 3.13519
# Mono.encoder_resolution: 0.0000050 deg/ct
# Mono.angle_offset: 16.0754 deg
# Mono.scan_mode: pseudo channel cut
# Mono.scan_type: step
# Mono.direction: forward in energy
# Sample.name: Pr6O11
# Sample.prep: PEG pellet
# Sample.x: 109.138 mm
# Sample.y: 153.150 mm
# Sample.SDD_position: 205.000 mm
# Scan.experimenters: Bruce Ravel
# Scan.edge_energy: 5964.3
# Scan.start_time: 2023-05-28T11:44:47
# Scan.end_time: 2023-05-28T11:51:26
# Scan.transient_id: 78651
# Scan.uid: 61aaf1a6-e842-4f00-98bc-20d0127bd177
# Scan.plot_hint: ln(It/Ir)  --  ln($6/$7)
# Column.1: energy eV
# Column.2: requested_energy eV
# Column.3: measurement_time seconds
# Column.4: xmu
# Column.5: I0 nA
# Column.6: It nA
# Column.7: Ir nA
# ///////////
# sample courtesy Martin Stennett, University of Sheffield
# -----------
# energy  requested_energy  measurement_time  xmu  I0  It  Ir
  5764.297  5764.300  0.500  3.668682  112.296  60.268  1.537439
  5774.327  5774.300  0.500  3.649944  112.499  60.8243  1.580980
  5784.328  5784.300  0.500  3.631408  112.657  61.3388  1.624182
  5794.313  5794.300  0.500  3.613117  112.786  61.7466  1.665161
  5804.322  5804.300  0.500  3.594957  112.954  62.2526  1.709572
  5814.307  5814.300  0.500  3.576824  112.982  62.6936  1.753186
  5824.310  5824.300  0.500  3.558534  113.048  63.1814  1.799442
  5834.310  5834.300  0.500  3.540827  113.085  63.5824  1.843212
  5844.312  5844.300  0.500  3.523414  112.978  63.8967  1.884860
  5854.287  5854.300  0.500  3.505552  112.951  64.325  1.931692
  5864.287  5864.300  0.500  3.487968  111.817  64.0641  1.957985
  5874.290  5874.300  0.500  3.469437  96.1085  55.4066  1.725060
  5884.288  5884.300  0.500  3.453482  112.689  65.3989  2.068915
  5894.287  5894.300  0.500  3.437446  112.27  65.5657  2.107722
  5904.292  5904.300  0.500  3.421319  111.816  65.7128  2.146793
  5914.290  5914.300  0.500  3.405648  109.474  64.7169  2.147650
  5924.293  5924.300  0.500  3.390597  111.909  66.5512  2.242014
  5934.293  5934.300  0.500  3.379181  105.441  63.1014  2.150204
  5936.294  5936.300  0.500  3.376793  111.599  66.8657  2.283919
  5938.292  5938.300  0.500  3.375084  111.246  66.7317  2.283244
  5940.294  5940.300  0.500  3.374088  110.751  66.4609  2.276241
  5942.298  5942.300  0.500  3.372836  109.487  65.8133  2.256886
  5944.291  5944.300  0.500  3.373337  106.224  63.9423  2.191627
  5946.295  5946.300  0.500  3.372709  92.4689  55.7244  1.911156
  5948.296  5948.300  0.500  3.376364  112.073  67.5976  2.309908
  5950.295  5950.300  0.500  3.379768  111.932  67.6203  2.302833
  5952.293  5952.300  0.500  3.386700  111.654  67.5561  2.284755
  5954.295  5954.300  0.500  3.398047  111.54  67.5805  2.259790
  5954.589  5954.600  0.500  3.400210  111.504  67.5643  2.254368
  5954.888  5954.900  0.500  3.402655  111.481  67.5372  2.247961
  5955.188  5955.200  0.500  3.405471  111.39  67.5022  2.240479
  5955.485  5955.500  0.500  3.408348  111.415  67.4903  2.233647
  5955.786  5955.800  0.500  3.411626  111.415  67.5338  2.227773
  5956.089  5956.100  0.500  3.414972  111.313  67.4589  2.217868
  5956.390  5956.400  0.500  3.419237  111.325  67.4747  2.208944
  5956.688  5956.700  0.500  3.423648  111.33  67.4859  2.199590
  5956.991  5957.000  0.500  3.428376  111.257  67.4504  2.188062
  5957.290  5957.300  0.500  3.433803  111.257  67.4603  2.176538
  5957.590  5957.600  0.500  3.439931  111.179  67.424  2.162078
  5957.890  5957.900  0.500  3.446477  111.193  67.4535  2.148914
  5958.190  5958.200  0.500  3.454447  111.168  67.4444  2.131564
  5958.491  5958.500  0.500  3.463096  111.141  67.4491  2.113355
  5958.794  5958.800  0.500  3.472659  111.112  67.4668  2.093791
  5959.093  5959.100  0.500  3.483414  111.094  67.4707  2.071515
  5959.397  5959.400  0.500  3.495036  111.114  67.4587  2.047215
  5959.695  5959.700  0.500  3.507613  111.069  67.4597  2.021656
  5959.993  5960.000  0.500  3.521475  111.021  67.4291  1.992920
  5960.291  5960.300  0.500  3.535842  110.982  67.421  1.964258
  5960.591  5960.600  0.500  3.551210  110.978  67.4409  1.934874
  5960.891  5960.900  0.500  3.566977  110.986  67.5055  1.906428
  5961.196  5961.200  0.500  3.584251  110.95  67.4419  1.872015
  5961.495  5961.500  0.500  3.601497  110.865  67.3811  1.838347
  5961.797  5961.800  0.500  3.619464  110.869  67.4005  1.806134
  5962.094  5962.100  0.500  3.639695  110.865  67.4233  1.770559
  5962.396  5962.400  0.500  3.662739  110.845  67.4275  1.730333
  5962.698  5962.700  0.500  3.689475  110.85  67.4373  1.684928
  5962.991  5963.000  0.500  3.719292  110.766  67.3938  1.634377
  5963.293  5963.300  0.500  3.754190  110.831  67.4414  1.579436
  5963.597  5963.600  0.500  3.795666  110.827  67.4653  1.515806
  5963.895  5963.900  0.500  3.845105  110.764  67.46  1.442575
  5964.198  5964.200  0.500  3.905682  110.747  67.4641  1.357866
  5964.496  5964.500  0.500  3.974553  110.719  67.4552  1.267327
  5964.800  5964.800  0.500  4.052705  110.733  67.4906  1.172670
  5965.099  5965.100  0.500  4.140753  110.705  67.4785  1.073641
  5965.394  5965.400  0.500  4.238216  110.703  67.4592  0.973660
  5965.696  5965.700  0.500  4.346621  110.66  67.4382  0.873359
  5965.992  5966.000  0.500  4.461525  110.644  67.4502  0.778696
  5966.299  5966.300  0.500  4.583121  110.603  67.4516  0.689555
  5966.599  5966.600  0.500  4.709793  110.603  67.473  0.607704
  5966.903  5966.900  0.500  4.843514  110.574  67.4508  0.531467
  5967.198  5967.200  0.500  4.972993  110.532  67.4443  0.466876
  5967.497  5967.500  0.500  5.096778  110.566  67.4813  0.412744
  5967.795  5967.800  0.500  5.203129  110.514  67.453  0.370946
  5968.099  5968.100  0.500  5.295679  110.524  67.4875  0.338329
  5968.400  5968.400  0.500  5.368638  110.487  67.4744  0.314463
  5968.697  5968.700  0.500  5.418909  110.428  67.4549  0.298959
  5969.003  5969.000  0.500  5.449814  110.424  67.4811  0.289973
  5969.299  5969.300  0.500  5.462824  110.443  67.4901  0.286263
  5969.601  5969.600  0.500  5.462341  110.393  67.4933  0.286415
  5969.896  5969.900  0.500  5.450513  110.388  67.5056  0.289876
  5970.194  5970.200  0.500  5.433426  110.396  67.4987  0.294841
  5970.500  5970.500  0.500  5.410356  110.352  67.4332  0.301429
  5970.797  5970.800  0.500  5.387073  110.354  67.4739  0.308716
  5971.101  5971.100  0.500  5.361680  110.298  67.4629  0.316604
  5971.398  5971.400  0.500  5.336092  110.244  67.4588  0.324791
  5971.697  5971.700  0.500  5.308028  110.29  67.4919  0.334198
  5972.001  5972.000  0.500  5.276887  110.268  67.4791  0.344704
  5972.297  5972.300  0.500  5.244334  110.242  67.4515  0.355964
  5972.604  5972.600  0.500  5.206571  110.207  67.4793  0.369816
  5972.901  5972.900  0.500  5.164055  110.182  67.4634  0.385787
  5973.202  5973.200  0.500  5.119172  110.186  67.4935  0.403677
  5973.503  5973.500  0.500  5.072570  110.149  67.5021  0.422988
  5973.797  5973.800  0.500  5.025668  110.085  67.4724  0.443105
  5974.099  5974.100  0.500  4.979687  110.118  67.4781  0.463994
  5974.399  5974.400  0.500  4.934001  110.076  67.4478  0.485465
  5974.698  5974.700  0.500  4.892469  110.107  67.4905  0.506373
  5975.005  5975.000  0.500  4.855074  110.059  67.4746  0.525544
  5975.300  5975.300  0.500  4.823840  109.963  67.4193  0.541773
  5975.602  5975.600  0.500  4.795409  110.033  67.4689  0.557807
  5975.895  5975.900  0.500  4.771890  109.94  67.4128  0.570607
  5976.199  5976.200  0.500  4.752957  109.899  67.4087  0.581477
  5976.498  5976.500  0.500  4.739410  109.907  67.4229  0.589533
  5976.801  5976.800  0.500  4.730459  109.914  67.4446  0.595024
  5977.100  5977.100  0.500  4.726741  109.9  67.4345  0.597152
  5977.401  5977.400  0.500  4.727091  109.858  67.4464  0.597048
  5977.701  5977.700  0.500  4.732331  109.817  67.4356  0.593833
  5977.996  5978.000  0.500  4.741109  109.782  67.4443  0.588719
  5978.298  5978.300  0.500  4.752212  109.792  67.4751  0.582484
  5978.598  5978.600  0.500  4.765331  109.742  67.3919  0.574183
  5978.898  5978.900  0.500  4.779135  109.681  67.3699  0.566127
  5979.201  5979.200  0.500  4.790384  109.65  67.3817  0.559893
  5979.503  5979.500  0.500  4.798323  109.598  67.3428  0.555144
  5979.805  5979.800  0.500  4.801954  109.579  67.348  0.553175
  5980.099  5980.100  0.500  4.800781  109.534  67.3331  0.553702
  5980.401  5980.400  0.500  4.796543  109.505  67.2946  0.555736
  5980.699  5980.700  0.500  4.788495  109.422  67.2958  0.560236
  5981.004  5981.000  0.500  4.778001  109.425  67.3493  0.566596
  5981.305  5981.300  0.500  4.766101  109.396  67.3205  0.573134
  5981.602  5981.600  0.500  4.752835  109.34  67.2801  0.580439
  5981.906  5981.900  0.500  4.737287  109.29  67.2587  0.589347
  5982.203  5982.200  0.500  4.718682  109.244  67.2195  0.600064
  5982.501  5982.500  0.500  4.698604  109.142  67.1892  0.611958
  5982.800  5982.800  0.500  4.675416  109.123  67.2009  0.626424
  5983.102  5983.100  0.500  4.649005  109.049  67.1767  0.642956
  5983.403  5983.400  0.500  4.620182  109.01  67.1885  0.661874
  5983.703  5983.700  0.500  4.590922  108.987  67.1308  0.680941
  5983.999  5984.000  0.500  4.562057  108.953  67.1171  0.700740
  5984.302  5984.300  0.500  4.534231  108.807  67.0497  0.719789
  5984.604  5984.600  0.500  4.507550  108.733  67.0337  0.739076
  5984.903  5984.900  0.500  4.482034  108.632  66.9778  0.757545
  5985.202  5985.200  0.500  4.459623  108.527  66.9227  0.774076
  5985.503  5985.500  0.500  4.438821  108.448  66.8826  0.789874
  5985.800  5985.800  0.500  4.421152  108.606  67.0127  0.805518
  5986.100  5986.100  0.500  4.404009  108.406  66.8877  0.817917
  5986.399  5986.400  0.500  4.388612  108.332  66.8383  0.829995
  5986.706  5986.700  0.500  4.374966  108.06  66.6799  0.839405
  5987.002  5987.000  0.500  4.363072  107.874  66.5897  0.848299
  5987.304  5987.300  0.500  4.352223  107.587  66.3977  0.855080
  5987.604  5987.600  0.500  4.341765  107.24  66.1977  0.861467
  5987.903  5987.900  0.500  4.332433  106.873  65.9936  0.866863
  5988.206  5988.200  0.500  4.323613  106.287  65.6663  0.870204
  5988.502  5988.500  0.500  4.316400  105.523  65.2239  0.870599
  5988.802  5988.800  0.500  4.308964  104.61  64.6512  0.869395
  5989.102  5989.100  0.500  4.302622  103.122  63.773  0.863042
  5989.301  5989.300  0.500  4.299186  101.677  62.8714  0.853769
  5990.301  5990.290  0.500  4.283738  84.8936  52.5119  0.724192
  5991.300  5991.290  0.500  4.269737  93.1994  57.6952  0.806894
  5992.329  5992.310  0.500  4.268821  110.776  68.5989  0.960267
  5993.354  5993.360  0.500  4.273209  111.337  68.9541  0.961013
  5994.409  5994.420  0.500  4.283772  111.058  68.8412  0.949358
  5995.493  5995.500  0.500  4.299852  110.787  68.723  0.932610
  5996.594  5996.600  0.500  4.318788  110.591  68.6707  0.914420
  5997.718  5997.720  0.500  4.339178  110.466  68.6583  0.895802
  5998.862  5998.860  0.500  4.361704  110.234  68.5398  0.874337
  6000.012  6000.010  0.500  4.382577  110.107  68.4986  0.855762
  6001.192  6001.190  0.500  4.402751  109.979  68.4682  0.838298
  6002.385  6002.380  0.500  4.416573  109.899  68.4499  0.826570
  6003.601  6003.600  0.500  4.424684  109.757  68.4142  0.819465
  6004.832  6004.830  0.500  4.426517  109.673  68.4039  0.817841
  6006.084  6006.080  0.500  4.426455  109.561  68.3807  0.817614
  6007.348  6007.350  0.500  4.423454  109.465  68.376  0.820015
  6008.642  6008.640  0.500  4.417698  109.365  68.3731  0.824714
  6009.953  6009.950  0.500  4.408855  109.254  68.3619  0.831904
  6011.284  6011.280  0.500  4.397369  109.177  68.3455  0.841312
  6012.635  6012.630  0.500  4.385509  109.091  68.3498  0.851402
  6014.007  6014.000  0.500  4.375893  108.965  68.3399  0.859504
  6015.386  6015.380  0.500  4.368350  108.911  68.3341  0.865939
  6016.797  6016.790  0.500  4.361661  108.766  68.3057  0.871388
  6018.216  6018.210  0.500  4.354738  108.684  68.2905  0.877247
  6019.658  6019.650  0.500  4.346313  108.565  68.2575  0.884242
  6021.114  6021.110  0.500  4.337728  108.428  68.2609  0.891908
  6022.594  6022.590  0.500  4.328699  108.364  68.306  0.900594
  6024.095  6024.090  0.500  4.319664  108.171  68.2225  0.907656
  6025.614  6025.610  0.500  4.311151  108.055  68.1697  0.914707
  6027.154  6027.150  0.500  4.303811  108.023  68.2182  0.922102
  6028.717  6028.710  0.500  4.298133  107.909  68.2102  0.927243
  6030.283  6030.280  0.500  4.293955  107.825  68.2369  0.931491
  6031.885  6031.880  0.500  4.290697  107.68  68.2112  0.934177
  6033.493  6033.490  0.500  4.287874  107.569  68.1673  0.936216
  6035.139  6035.130  0.500  4.284890  107.452  68.1499  0.938773
  6036.789  6036.780  0.500  4.281664  107.282  68.1277  0.941500
  6038.455  6038.450  0.500  4.277642  107.195  68.153  0.945647
  6040.149  6040.140  0.500  4.274496  107.071  68.1243  0.948227
  6041.861  6041.850  0.500  4.272096  106.946  68.1297  0.950579
  6043.585  6043.580  0.500  4.270949  106.755  68.0675  0.950803
  6045.342  6045.330  0.500  4.270322  106.634  68.0348  0.950942
  6047.095  6047.090  0.500  4.270562  106.498  68.0019  0.950253
  6048.890  6048.880  0.500  4.270919  106.37  67.9869  0.949705
  6050.695  6050.680  0.500  4.271850  106.259  67.9789  0.948709
  6052.518  6052.510  0.500  4.272171  106.099  67.9786  0.948401
  6054.354  6054.350  0.500  4.272147  105.893  67.9078  0.947436
  6056.223  6056.210  0.500  4.271931  105.599  67.7905  0.946004
  6058.101  6058.090  0.500  4.271680  105.41  67.7439  0.945591
  6060.003  6059.990  0.500  4.271626  105.209  67.6786  0.944730
  6061.919  6061.910  0.500  4.272030  104.918  67.5533  0.942600
  6063.863  6063.850  0.500  4.272903  104.735  67.508  0.941146
  6065.821  6065.810  0.500  4.273922  104.568  67.4738  0.939710
  6067.787  6067.780  0.500  4.273975  104.341  67.4164  0.938862
  6069.786  6069.780  0.500  4.272576  104.186  67.3828  0.939707
  6071.803  6071.790  0.500  4.268388  103.984  67.3365  0.943003
  6073.839  6073.820  0.500  4.262302  103.791  67.2915  0.948127
  6075.887  6075.880  0.500  4.256238  103.642  67.2731  0.953631
  6077.960  6077.950  0.500  4.248632  103.386  67.183  0.959626
  6080.053  6080.040  0.500  4.241830  103.233  67.1549  0.965771
  6082.158  6082.150  0.500  4.235084  102.994  67.0812  0.971242
  6084.292  6084.280  0.500  4.227535  102.774  67.0426  0.978037
  6086.431  6086.420  0.500  4.220937  102.561  66.99  0.983740
  6088.600  6088.590  0.500  4.215790  102.389  66.919  0.987768
  6090.789  6090.780  0.500  4.211785  102.128  66.8527  0.990749
  6092.987  6092.980  0.500  4.209430  101.923  66.8127  0.992492
  6095.209  6095.200  0.500  4.207419  101.66  66.7049  0.992886
  6097.459  6097.450  0.500  4.206935  101.428  66.6089  0.991936
  6099.720  6099.710  0.500  4.207275  101.141  66.5124  0.990161
  6102.004  6101.990  0.500  4.207979  100.862  66.4191  0.988078
  6104.303  6104.290  0.500  4.207188  100.577  66.3155  0.987317
  6106.620  6106.610  0.500  4.204284  100.312  66.2007  0.988473
  6108.960  6108.950  0.500  4.198659  99.9865  66.0594  0.991927
  6111.311  6111.300  0.500  4.191729  99.6818  65.9195  0.996710
  6113.688  6113.680  0.500  4.184875  99.3986  65.7936  1.001650
  6116.080  6116.070  0.500  4.178737  99.1327  65.7192  1.006676
  6118.501  6118.490  0.500  4.172839  98.8109  65.6101  1.010949
  6120.932  6120.920  0.500  4.166768  98.4602  65.4804  1.015096
  6123.380  6123.370  0.500  4.160482  98.1621  65.3798  1.019928
  6125.864  6125.850  0.500  4.154939  97.8046  65.228  1.023215
  6128.354  6128.340  0.500  4.149902  97.4571  65.0722  1.025925
  6130.873  6130.850  0.500  4.144910  97.0852  64.9269  1.028757
  6133.380  6133.370  0.500  4.140788  96.7225  64.7507  1.030204
  6135.934  6135.920  0.500  4.137611  96.3334  64.5691  1.030584
  6138.502  6138.490  0.500  4.135915  95.8798  64.3554  1.028916
  6141.082  6141.070  0.500  4.134312  95.4217  64.1404  1.027124
  6143.704  6143.680  0.500  4.132298  95.0252  63.9666  1.026406
  6146.326  6146.300  0.500  4.130669  94.6126  63.7917  1.025269
  6148.964  6148.950  0.500  4.127937  94.1401  63.5337  1.023914
  6151.626  6151.610  0.500  4.125131  93.5376  63.1949  1.021317
  6154.303  6154.290  0.500  4.120481  92.9756  62.9031  1.021339
  6157.016  6156.990  0.500  4.115000  92.0606  62.3746  1.018323
  6159.738  6159.710  0.500  4.108791  90.1327  61.1596  1.004707
  6162.465  6162.450  0.500  4.101814  91.7163  62.3421  1.031303
  6165.224  6165.200  0.500  4.094963  90.7353  61.7501  1.028532
  6167.998  6167.980  0.500  4.088671  89.9534  61.301  1.027495
  6170.781  6170.770  0.500  4.082321  92.0559  62.8262  1.059769
  6173.605  6173.590  0.500  4.075989  90.9712  62.1587  1.055170
  6176.433  6176.420  0.500  4.070382  90.2782  61.7793  1.054626
  6179.280  6179.270  0.500  4.065762  89.6241  61.4399  1.053690
  6182.161  6182.150  0.500  4.060988  89.0293  61.1105  1.053055
  6185.062  6185.040  0.500  4.057160  88.4007  60.7823  1.051417
  6187.968  6187.950  0.500  4.053800  87.8503  60.5036  1.050118
  6190.892  6190.870  0.500  4.051467  87.2934  60.2194  1.047627
  6193.846  6193.820  0.500  4.049183  86.6749  59.8463  1.043516
  6196.804  6196.790  0.500  4.045976  86.0758  59.511  1.041005
  6199.796  6199.770  0.500  4.042251  85.4428  59.1808  1.039092
  6202.812  6202.780  0.500  4.037177  84.8202  58.8421  1.038400
  6205.812  6205.800  0.500  4.031560  84.2138  58.5067  1.038296
  6208.876  6208.850  0.500  4.025152  83.5291  58.1292  1.038229
  6211.937  6211.910  0.500  4.019336  82.9408  57.8043  1.038448
  6215.018  6214.990  0.500  4.014307  82.3118  57.4551  1.037378
  6218.121  6218.090  0.500  4.006214  81.6614  57.0667  1.038739
  6221.219  6221.210  0.500  3.998640  81.0233  56.7256  1.040379
  6224.351  6224.350  0.500  3.992380  80.3298  56.3294  1.039600
  6227.492  6227.500  0.500  3.987202  79.6557  55.94  1.037773
  6230.712  6230.680  0.500  3.982861  79.0083  55.5752  1.035491
  6233.859  6233.870  0.500  3.979079  78.2948  55.1737  1.031904
  6237.073  6237.090  0.500  3.975530  77.6504  54.8091  1.028732
  6240.299  6240.320  0.500  3.972296  76.9575  54.4084  1.024518
  6243.553  6243.570  0.500  3.968798  76.3263  54.0658  1.021635
  6246.828  6246.850  0.500  3.965463  75.6215  53.6396  1.016968
  6250.121  6250.140  0.500  3.961000  74.958  53.2396  1.013897
  6253.436  6253.450  0.500  3.955576  74.2059  52.8059  1.011108
  6256.758  6256.770  0.500  3.949489  73.5536  52.4277  1.009995
  6260.109  6260.120  0.500  3.942620  72.8598  52.0043  1.008745
  6263.477  6263.490  0.500  3.935102  72.1897  51.5904  1.008268
  6266.856  6266.870  0.500  3.927206  71.4973  51.1883  1.008340
  6270.261  6270.280  0.500  3.919738  70.8251  50.8073  1.008337
  6273.721  6273.700  0.500  3.912209  70.1268  50.4003  1.007819
  6277.132  6277.150  0.500  3.904826  69.4508  50.0027  1.007277
  6280.625  6280.610  0.500  3.898101  68.7876  49.5632  1.005162
  6284.077  6284.090  0.500  3.891771  68.1128  49.1803  1.003728
  6287.575  6287.590  0.500  3.887085  67.456  48.7901  1.000443
  6291.098  6291.110  0.500  3.882659  66.7521  48.3688  0.996202
  6294.662  6294.650  0.500  3.878725  66.3015  48.1235  0.995058
  6298.181  6298.200  0.500  3.875231  65.6361  47.7131  0.990025
  6301.830  6301.780  0.500  3.870944  64.9903  47.304  0.985752
  6305.368  6305.380  0.500  3.866401  64.3198  46.9277  0.982364
  6308.976  6308.990  0.500  3.861289  63.6688  46.532  0.979074
  6312.616  6312.620  0.500  3.854712  63.077  46.1758  0.977989
  6316.265  6316.280  0.500  3.847627  62.4377  45.7683  0.976251
  6319.961  6319.950  0.500  3.840042  61.7797  45.3671  0.975062
  6323.627  6323.640  0.500  3.832797  61.1346  44.9653  0.973454
  6327.334  6327.350  0.500  3.824910  60.4999  44.5668  0.972464
  6331.072  6331.080  0.500  3.817657  59.8347  44.17  0.970822
  6334.805  6334.820  0.500  3.810191  59.2614  43.8262  0.970485
  6338.566  6338.590  0.500  3.802494  58.6428  43.4506  0.969603
  6342.358  6342.380  0.500  3.795729  58.0215  43.0586  0.967378
  6346.164  6346.180  0.500  3.788819  57.4323  42.6868  0.965673
  6349.994  6350.010  0.500  3.782842  56.8302  42.3092  0.962871
  6353.833  6353.850  0.500  3.777680  56.2441  41.9501  0.959638
  6357.691  6357.710  0.500  3.772673  55.6555  41.6003  0.956414
  6361.575  6361.590  0.500  3.768083  55.0736  41.2437  0.952576
  6365.471  6365.490  0.500  3.762846  54.4792  40.8674  0.948841
  6369.397  6369.410  0.500  3.757389  53.9274  40.5207  0.945941
  6373.337  6373.350  0.500  3.751522  53.3586  40.1661  0.943180
  6377.293  6377.310  0.500  3.744660  52.7669  39.7886  0.940750
  6381.263  6381.280  0.500  3.737261  52.2474  39.4751  0.940268
  6385.264  6385.280  0.500  3.729670  51.6732  39.1159  0.938812
  6389.276  6389.290  0.500  3.721912  51.106  38.7405  0.937042
  6393.316  6393.330  0.500  3.713944  50.5402  38.3827  0.935815
  6397.359  6397.380  0.500  3.705866  50.003  38.0466  0.935144
  6401.438  6401.450  0.500  3.698517  49.4747  37.7149  0.933828
  6405.523  6405.540  0.500  3.690917  48.9266  37.3597  0.932093
  6409.635  6409.650  0.500  3.684238  48.3619  37.0068  0.929474
  6413.760  6413.780  0.500  3.677286  47.8564  36.6902  0.927952
  6417.910  6417.930  0.500  3.671092  47.3553  36.3623  0.925372