File: xdidata/Pr/Pr-L1-PraseodymiumOxide.xdi
# XDI/1.0 BlueSky/1.10.0 BMM/2023-1.0-py310-tiled
# Beamline.name: BMM (06BM) -- Beamline for Materials Measurement (NIST)
# Beamline.xray_source: NSLS-II three-pole wiggler
# Beamline.collimation: paraboloid mirror, 5 nm Rh on 30 nm Pt
# Beamline.focusing: not in use
# Beamline.harmonic_rejection: flat mirror, Si stripe, pitch = 7.0 mrad relative to beam
# Beamline.software: Bluesky 1.10.0, Ophyd 1.7.0, DataBroker 2.0.0b13, Python 3.10.8, 2023-1.0-py310-tiled
# Detector.I0: 10 cm N2
# Detector.I1: 25 cm N2
# Detector.I2: 25 cm N2
# Element.symbol: Pr
# Element.edge: L1
# Element.reference: Pr
# Element.reference_material: Pr6O11
# Facility.name: NSLS-II
# Facility.energy: 3.0
# Facility.current: 399.3
# Facility.mode: top-off
# Facility.GUP: 301027
# Facility.SAF: 310583
# Facility.cycle: 2023-2
# Mono.name: Si(111)
# Mono.d_spacing: 3.13519
# Mono.encoder_resolution: 0.0000050 deg/ct
# Mono.angle_offset: 16.0754 deg
# Mono.scan_mode: pseudo channel cut
# Mono.scan_type: step
# Mono.direction: forward in energy
# Sample.name: Pr6O11
# Sample.prep: PEG pellet
# Sample.x: 109.138 mm
# Sample.y: 153.150 mm
# Sample.SDD_position: 205.000 mm
# Scan.experimenters: Bruce Ravel
# Scan.edge_energy: 6834.8
# Scan.start_time: 2023-05-28T12:57:03
# Scan.end_time: 2023-05-28T13:04:56
# Scan.transient_id: 78700
# Scan.uid: 9b1d83a5-1b2c-460e-ab96-64fd5aa97cf1
# Scan.plot_hint: ln(It/Ir)  --  ln($6/$7)
# Column.1: energy eV
# Column.2: requested_energy eV
# Column.3: measurement_time seconds
# Column.4: xmu
# Column.5: I0 nA
# Column.6: It nA
# Column.7: Ir nA
# ///////////
# sample courtesy Martin Stennett, University of Sheffield
# -----------
# energy  requested_energy  measurement_time  xmu  I0  It  Ir
  6634.801  6634.800  0.500  3.839960  152.209  127.865  2.748384
  6644.815  6644.800  0.500  3.821415  152.36  128.467  2.813019
  6654.815  6654.800  0.500  3.805423  152.517  129.063  2.871631
  6664.851  6664.800  0.500  3.793769  152.698  129.711  2.919864
  6674.818  6674.800  0.500  3.783668  153.323  130.792  2.974093
  6684.806  6684.800  0.500  3.768819  153.491  131.377  3.032097
  6694.806  6694.800  0.500  3.752668  153.662  132.058  3.097432
  6704.806  6704.800  0.500  3.738854  153.774  132.648  3.154556
  6714.809  6714.800  0.500  3.728098  153.914  133.251  3.203151
  6724.810  6724.800  0.500  3.718009  154.054  133.828  3.249658
  6734.810  6734.800  0.500  3.703513  154.176  134.436  3.312065
  6744.815  6744.800  0.500  3.687676  154.284  135.016  3.379474
  6754.810  6754.800  0.500  3.671988  154.394  135.594  3.447602
  6764.796  6764.800  0.500  3.659418  154.505  136.19  3.506552
  6774.789  6774.800  0.500  3.649495  154.673  136.825  3.558042
  6784.794  6784.800  0.500  3.638661  154.842  137.462  3.613522
  6794.793  6794.800  0.500  3.625419  145.008  129.183  3.441172
  6804.798  6804.800  0.500  3.611713  154.829  138.398  3.737525
  6806.797  6806.800  0.500  3.609171  154.868  138.541  3.750892
  6808.791  6808.800  0.500  3.606468  154.798  138.561  3.761582
  6810.793  6810.800  0.500  3.604014  150.832  135.109  3.676882
  6812.794  6812.800  0.500  3.601490  153.382  137.47  3.750590
  6814.790  6814.800  0.500  3.598947  154.701  138.774  3.795821
  6816.795  6816.800  0.500  3.596935  154.868  138.968  3.808790
  6818.794  6818.800  0.500  3.594652  154.9  139.111  3.821424
  6820.795  6820.800  0.500  3.592996  154.873  139.174  3.829473
  6822.797  6822.800  0.500  3.591467  150.688  135.499  3.734052
  6824.795  6824.800  0.500  3.589870  153.328  138.014  3.809460
  6825.084  6825.100  0.500  3.589891  153.893  138.571  3.824736
  6825.381  6825.400  0.500  3.589602  154.177  138.819  3.832693
  6825.682  6825.700  0.500  3.589577  154.344  138.979  3.837223
  6825.982  6826.000  0.500  3.589284  154.468  139.101  3.841691
  6826.283  6826.300  0.500  3.589237  154.542  139.151  3.843257
  6826.582  6826.600  0.500  3.589311  154.601  139.238  3.845370
  6826.885  6826.900  0.500  3.589081  154.647  139.342  3.849131
  6827.188  6827.200  0.500  3.589332  154.677  139.368  3.848895
  6827.486  6827.500  0.500  3.589397  154.701  139.441  3.850655
  6827.787  6827.800  0.500  3.589647  154.716  139.444  3.849777
  6828.086  6828.100  0.500  3.589673  154.732  139.471  3.850417
  6828.388  6828.400  0.500  3.589755  154.74  139.472  3.850151
  6828.693  6828.700  0.500  3.590022  154.745  139.499  3.849846
  6828.992  6829.000  0.500  3.590399  154.759  139.496  3.848326
  6829.292  6829.300  0.500  3.590892  154.767  139.493  3.846350
  6829.587  6829.600  0.500  3.591324  154.771  139.501  3.844908
  6829.887  6829.900  0.500  3.591974  154.788  139.521  3.842943
  6830.184  6830.200  0.500  3.592822  154.79  139.571  3.841064
  6830.484  6830.500  0.500  3.593504  154.79  139.589  3.838959
  6830.791  6830.800  0.500  3.593986  154.786  139.616  3.837849
  6831.095  6831.100  0.500  3.594790  154.801  139.668  3.836176
  6831.397  6831.400  0.500  3.595275  154.797  139.636  3.833432
  6831.696  6831.700  0.500  3.595755  154.804  139.644  3.831830
  6831.996  6832.000  0.500  3.595839  154.798  139.706  3.833216
  6832.296  6832.300  0.500  3.596021  154.813  139.732  3.833219
  6832.594  6832.600  0.500  3.596569  154.815  139.733  3.831147
  6832.897  6832.900  0.500  3.596514  154.808  139.71  3.830720
  6833.195  6833.200  0.500  3.596699  154.81  139.727  3.830479
  6833.493  6833.500  0.500  3.597099  154.797  139.754  3.829678
  6833.791  6833.800  0.500  3.597123  154.808  139.802  3.830911
  6834.091  6834.100  0.500  3.597573  154.811  139.832  3.830003
  6834.397  6834.400  0.500  3.597986  154.813  139.871  3.829513
  6834.693  6834.700  0.500  3.598655  154.822  139.863  3.826728
  6834.997  6835.000  0.500  3.599554  154.815  139.894  3.824142
  6835.299  6835.300  0.500  3.600247  154.809  139.892  3.821426
  6835.601  6835.600  0.500  3.601499  154.819  139.904  3.816973
  6835.903  6835.900  0.500  3.602791  154.812  139.873  3.811193
  6836.201  6836.200  0.500  3.604437  154.808  139.861  3.804606
  6836.501  6836.500  0.500  3.606211  154.81  139.923  3.799536
  6836.795  6836.800  0.500  3.608104  154.809  139.95  3.793080
  6837.095  6837.100  0.500  3.610104  154.809  139.905  3.784292
  6837.397  6837.400  0.500  3.612271  154.786  139.926  3.776662
  6837.694  6837.700  0.500  3.614395  154.756  139.931  3.768786
  6837.996  6838.000  0.500  3.616757  154.716  139.909  3.759299
  6838.302  6838.300  0.500  3.618805  154.607  139.832  3.749548
  6838.603  6838.600  0.500  3.621316  154.454  139.712  3.736931
  6838.901  6838.900  0.500  3.623508  154.291  139.594  3.725618
  6839.199  6839.200  0.500  3.625599  154.133  139.485  3.714924
  6839.500  6839.500  0.500  3.627485  153.859  139.26  3.701944
  6839.800  6839.800  0.500  3.629455  152.725  138.168  3.665693
  6840.099  6840.100  0.500  3.631573  149.282  135.084  3.576289
  6840.397  6840.400  0.500  3.633673  145.618  131.738  3.480371
  6840.694  6840.700  0.500  3.635654  143.769  130.087  3.429967
  6840.994  6841.000  0.500  3.637766  143.002  129.453  3.406033
  6841.297  6841.300  0.500  3.639664  145.387  131.622  3.456537
  6841.599  6841.600  0.500  3.641748  149.944  135.734  3.557124
  6841.902  6841.900  0.500  3.644127  152.057  137.682  3.599595
  6842.201  6842.200  0.500  3.646479  152.899  138.462  3.611481
  6842.499  6842.500  0.500  3.649097  153.33  138.844  3.611976
  6842.802  6842.800  0.500  3.651774  153.6  139.122  3.609537
  6843.101  6843.100  0.500  3.654245  153.758  139.29  3.604972
  6843.401  6843.400  0.500  3.657086  153.871  139.386  3.597229
  6843.696  6843.700  0.500  3.660100  153.962  139.48  3.588816
  6843.997  6844.000  0.500  3.663276  154.045  139.604  3.580600
  6844.300  6844.300  0.500  3.666955  154.097  139.666  3.569037
  6844.601  6844.600  0.500  3.670864  154.145  139.684  3.555578
  6844.902  6844.900  0.500  3.675041  154.18  139.763  3.542765
  6845.201  6845.200  0.500  3.679568  154.196  139.783  3.527263
  6845.502  6845.500  0.500  3.684025  154.229  139.831  3.512793
  6845.802  6845.800  0.500  3.689090  154.242  139.859  3.495735
  6846.103  6846.100  0.500  3.694387  154.271  139.907  3.478464
  6846.403  6846.400  0.500  3.699806  154.294  139.943  3.460549
  6846.698  6846.700  0.500  3.705137  154.316  139.966  3.442733
  6846.999  6847.000  0.500  3.710635  154.344  140.008  3.424874
  6847.298  6847.300  0.500  3.715905  154.338  139.993  3.406517
  6847.597  6847.600  0.500  3.721526  154.354  140.059  3.388999
  6847.900  6847.900  0.500  3.726796  154.358  140.058  3.371164
  6848.201  6848.200  0.500  3.732113  154.362  140.075  3.353701
  6848.501  6848.500  0.500  3.737127  154.379  140.108  3.337709
  6848.802  6848.800  0.500  3.741782  154.378  140.124  3.322604
  6849.103  6849.100  0.500  3.746154  154.381  140.126  3.308153
  6849.402  6849.400  0.500  3.750283  154.376  140.171  3.295579
  6849.700  6849.700  0.500  3.753895  154.381  140.182  3.283955
  6849.997  6850.000  0.500  3.757295  154.378  140.158  3.272247
  6850.297  6850.300  0.500  3.760243  154.376  140.192  3.263405
  6850.596  6850.600  0.500  3.763029  154.363  140.201  3.254535
  6850.899  6850.900  0.500  3.765299  154.371  140.208  3.247302
  6851.199  6851.200  0.500  3.767537  154.365  140.238  3.240753
  6851.502  6851.500  0.500  3.769349  154.353  140.242  3.234980
  6851.804  6851.800  0.500  3.771133  154.356  140.23  3.228940
  6852.102  6852.100  0.500  3.772708  154.346  140.243  3.224140
  6852.399  6852.400  0.500  3.774151  154.355  140.277  3.220275
  6852.701  6852.700  0.500  3.775756  154.333  140.283  3.215258
  6852.998  6853.000  0.500  3.777013  154.33  140.281  3.211172
  6853.298  6853.300  0.500  3.778406  154.322  140.285  3.206788
  6853.598  6853.600  0.500  3.779610  154.324  140.298  3.203215
  6853.898  6853.900  0.500  3.781014  154.334  140.322  3.199291
  6854.197  6854.200  0.500  3.782291  154.332  140.341  3.195626
  6854.497  6854.500  0.500  3.783479  154.324  140.367  3.192437
  6854.805  6854.800  0.500  3.784601  154.321  140.412  3.189867
  6855.105  6855.100  0.500  3.785610  154.32  140.355  3.185351
  6855.403  6855.400  0.500  3.786391  154.334  140.379  3.183414
  6855.705  6855.700  0.500  3.787495  154.318  140.422  3.180880
  6856.002  6856.000  0.500  3.787813  154.32  140.442  3.180314
  6856.300  6856.300  0.500  3.788645  154.301  140.444  3.177714
  6856.600  6856.600  0.500  3.789164  154.316  140.49  3.177102
  6856.898  6856.900  0.500  3.789208  154.311  140.454  3.176158
  6857.198  6857.200  0.500  3.789665  154.312  140.435  3.174267
  6857.501  6857.500  0.500  3.790301  154.308  140.439  3.172354
  6857.803  6857.800  0.500  3.790820  154.303  140.439  3.170706
  6858.103  6858.100  0.500  3.791389  154.289  140.429  3.168674
  6858.403  6858.400  0.500  3.791994  154.283  140.465  3.167570
  6858.705  6858.700  0.500  3.792624  154.272  140.507  3.166529
  6859.003  6859.000  0.500  3.793352  154.256  140.501  3.164082
  6859.301  6859.300  0.500  3.794248  154.26  140.458  3.160280
  6859.602  6859.600  0.500  3.795191  154.266  140.458  3.157304
  6859.799  6859.800  0.500  3.796143  154.245  140.514  3.155555
  6860.793  6860.790  0.500  3.800307  154.113  140.449  3.141000
  6861.800  6861.790  0.500  3.804496  153.849  140.251  3.123454
  6862.823  6862.810  0.500  3.806991  154.194  140.613  3.123710
  6863.864  6863.860  0.500  3.805888  154.306  140.786  3.131007
  6864.933  6864.920  0.500  3.801991  154.334  140.873  3.145160
  6866.013  6866.000  0.500  3.795890  154.369  140.968  3.166543
  6867.111  6867.100  0.500  3.788895  154.383  140.985  3.189152
  6868.233  6868.220  0.500  3.781357  154.375  141.083  3.215533
  6869.374  6869.360  0.500  3.774087  154.616  141.361  3.245368
  6870.517  6870.510  0.500  3.767266  154.86  141.573  3.272484
  6871.698  6871.690  0.500  3.759971  154.908  141.648  3.298180
  6872.888  6872.880  0.500  3.752987  154.937  141.725  3.323114
  6874.104  6874.100  0.500  3.746476  154.948  141.786  3.346269
  6875.341  6875.330  0.500  3.741599  154.979  141.863  3.364435
  6876.586  6876.580  0.500  3.736910  154.99  141.957  3.382504
  6877.850  6877.850  0.500  3.732898  155  142.071  3.398820
  6879.150  6879.140  0.500  3.729480  155.008  142.137  3.412054
  6880.458  6880.450  0.500  3.726329  155.016  142.217  3.424732
  6881.789  6881.780  0.500  3.723844  155.026  142.278  3.434739
  6883.143  6883.130  0.500  3.722087  155.009  142.318  3.441735
  6884.505  6884.500  0.500  3.720492  155.029  142.415  3.449573
  6885.894  6885.880  0.500  3.719346  155.03  142.505  3.455714
  6887.295  6887.290  0.500  3.718511  155.055  142.589  3.460658
  6888.719  6888.710  0.500  3.717483  155.067  142.675  3.466289
  6890.162  6890.150  0.500  3.716697  155.076  142.732  3.470418
  6891.614  6891.610  0.500  3.716084  155.072  142.807  3.474367
  6893.104  6893.090  0.500  3.715675  155.074  142.864  3.477174
  6894.597  6894.590  0.500  3.715328  155.095  142.956  3.480621
  6896.123  6896.110  0.500  3.714980  155.102  143.028  3.483587
  6897.653  6897.650  0.500  3.714394  155.11  143.102  3.487426
  6899.219  6899.210  0.500  3.712994  155.116  143.186  3.494365
  6900.785  6900.780  0.500  3.711280  155.105  143.279  3.502621
  6902.390  6902.380  0.500  3.709648  155.122  143.333  3.509665
  6904.002  6903.990  0.500  3.708127  155.113  143.395  3.516531
  6905.645  6905.630  0.500  3.706625  155.122  143.524  3.524998
  6907.297  6907.280  0.500  3.705531  155.121  143.578  3.530172
  6908.960  6908.950  0.500  3.704194  155.116  143.65  3.536668
  6910.650  6910.640  0.500  3.702775  155.093  143.708  3.543113
  6912.359  6912.350  0.500  3.701258  155.041  143.731  3.549066
  6914.091  6914.080  0.500  3.699468  155.011  143.82  3.557642
  6915.836  6915.830  0.500  3.697649  155.017  143.901  3.566124
  6917.603  6917.590  0.500  3.695700  154.991  143.948  3.574240
  6919.394  6919.380  0.500  3.693168  154.969  143.942  3.583160
  6921.191  6921.180  0.500  3.690296  154.952  144.021  3.595428
  6923.027  6923.010  0.500  3.686653  154.949  144.163  3.612100
  6924.860  6924.850  0.500  3.683115  154.953  144.22  3.626344
  6926.729  6926.710  0.500  3.679396  154.944  144.272  3.641177
  6928.598  6928.590  0.500  3.676150  154.958  144.38  3.655737
  6930.507  6930.490  0.500  3.672920  154.941  144.484  3.670198
  6932.422  6932.410  0.500  3.669426  154.939  144.588  3.685709
  6934.368  6934.350  0.500  3.665759  154.931  144.685  3.701715
  6936.321  6936.310  0.500  3.661238  154.95  144.794  3.721304
  6938.294  6938.280  0.500  3.657045  154.978  144.892  3.739482
  6940.293  6940.280  0.500  3.652646  154.978  144.997  3.758684
  6942.302  6942.290  0.500  3.648196  154.981  145.093  3.777927
  6944.330  6944.320  0.500  3.644254  154.983  145.182  3.795191
  6946.395  6946.380  0.500  3.640907  154.984  145.266  3.810113
  6948.466  6948.450  0.500  3.637892  154.965  145.33  3.823307
  6950.554  6950.540  0.500  3.635107  154.961  145.448  3.837080
  6952.658  6952.650  0.500  3.632497  154.984  145.57  3.850343
  6954.796  6954.780  0.500  3.630337  154.976  145.632  3.860309
  6956.925  6956.920  0.500  3.628112  154.962  145.732  3.871562
  6959.105  6959.090  0.500  3.626346  154.956  145.817  3.880672
  6961.290  6961.280  0.500  3.624249  154.974  145.914  3.891385
  6963.489  6963.480  0.500  3.622405  154.978  146.005  3.901020
  6965.714  6965.700  0.500  3.620321  154.986  146.173  3.913636
  6967.959  6967.950  0.500  3.618359  154.99  146.299  3.924722
  6970.224  6970.210  0.500  3.616070  154.997  146.399  3.936410
  6972.503  6972.490  0.500  3.613526  154.992  146.435  3.947381
  6974.796  6974.790  0.500  3.610360  154.982  146.54  3.962740
  6977.128  6977.110  0.500  3.606785  154.966  146.685  3.980870
  6979.467  6979.450  0.500  3.603461  154.954  146.815  3.997668
  6981.810  6981.800  0.500  3.600207  154.956  146.872  4.012261
  6984.198  6984.180  0.500  3.596836  154.945  146.946  4.027838
  6986.586  6986.570  0.500  3.593238  154.949  147.116  4.047018
  6989.000  6988.990  0.500  3.590320  154.947  147.231  4.062037
  6991.439  6991.420  0.500  3.587716  154.94  147.343  4.075727
  6993.888  6993.870  0.500  3.585085  154.918  147.438  4.089088
  6996.363  6996.350  0.500  3.582805  154.906  147.532  4.101046
  6998.857  6998.840  0.500  3.580368  154.891  147.592  4.112721
  7001.373  7001.350  0.500  3.577602  154.902  147.758  4.128739
  7003.875  7003.870  0.500  3.575049  154.885  147.82  4.141040
  7006.424  7006.420  0.500  3.572292  154.887  147.94  4.155829
  7009.009  7008.990  0.500  3.569417  154.867  148.053  4.170980
  7011.583  7011.570  0.500  3.566064  154.834  148.135  4.187302
  7014.194  7014.180  0.500  3.562076  154.843  148.204  4.206003
  7016.812  7016.800  0.500  3.558325  154.832  148.307  4.224750
  7019.463  7019.450  0.500  3.553901  154.827  148.463  4.247944
  7022.124  7022.110  0.500  3.549744  154.811  148.583  4.269082
  7024.805  7024.790  0.500  3.545551  154.804  148.719  4.290952
  7027.500  7027.490  0.500  3.541202  154.808  148.833  4.312941
  7030.228  7030.210  0.500  3.537165  154.788  148.928  4.333174
  7032.963  7032.950  0.500  3.533492  154.771  149.036  4.352258
  7035.717  7035.700  0.500  3.530225  154.729  149.144  4.369668
  7038.490  7038.480  0.500  3.526976  154.736  149.297  4.388376
  7041.284  7041.270  0.500  3.523977  154.703  149.371  4.403756
  7044.105  7044.090  0.500  3.520738  154.711  149.507  4.422069
  7046.936  7046.920  0.500  3.517717  154.667  149.586  4.437782
  7049.785  7049.770  0.500  3.514739  154.639  149.669  4.453482
  7052.660  7052.650  0.500  3.511755  154.632  149.823  4.471397
  7055.551  7055.540  0.500  3.508693  154.633  149.955  4.489053
  7058.464  7058.450  0.500  3.504960  154.612  150.015  4.507657
  7061.387  7061.370  0.500  3.501067  154.618  150.169  4.529888
  7064.333  7064.320  0.500  3.497170  154.429  150.123  4.546170
  7067.301  7067.290  0.500  3.493133  154.524  150.329  4.570826
  7070.282  7070.270  0.500  3.488977  153.036  149.034  4.550302
  7073.289  7073.280  0.500  3.484806  154.458  150.574  4.616549
  7076.314  7076.300  0.500  3.480700  153.938  150.22  4.624664
  7079.358  7079.350  0.500  3.476672  154.383  150.797  4.661149
  7082.424  7082.410  0.500  3.472784  154.318  150.884  4.682014
  7085.501  7085.490  0.500  3.468895  154.254  150.914  4.701182
  7088.607  7088.590  0.500  3.465472  154.281  151.088  4.722752
  7091.724  7091.710  0.500  3.462014  154.252  151.228  4.743494
  7094.866  7094.850  0.500  3.458687  154.202  151.276  4.760817
  7098.012  7098.000  0.500  3.455183  154.183  151.392  4.781194
  7101.191  7101.180  0.500  3.451827  154.155  151.539  4.801915
  7104.378  7104.370  0.500  3.448023  154.113  151.639  4.823401
  7107.599  7107.590  0.500  3.444506  154.062  151.732  4.843372
  7110.834  7110.820  0.500  3.440443  153.979  151.776  4.864481
  7114.077  7114.070  0.500  3.436383  153.756  151.664  4.880676
  7117.361  7117.350  0.500  3.432230  153.672  151.747  4.903662
  7120.649  7120.640  0.500  3.427617  153.546  151.756  4.926643
  7123.959  7123.950  0.500  3.423138  153.397  151.748  4.948497
  7127.274  7127.270  0.500  3.418612  153.215  151.704  4.969515
  7130.625  7130.620  0.500  3.414115  152.967  151.607  4.988702
  7133.993  7133.990  0.500  3.409704  152.821  151.622  5.011243
  7137.378  7137.370  0.500  3.405510  152.791  151.764  5.037020
  7140.791  7140.780  0.500  3.401402  152.779  151.935  5.063456
  7144.214  7144.200  0.500  3.397623  152.763  152.058  5.086752
  7147.661  7147.650  0.500  3.393858  152.757  152.193  5.110471
  7151.115  7151.110  0.500  3.390120  152.745  152.304  5.133339
  7154.598  7154.590  0.500  3.386842  152.71  152.413  5.153879
  7158.095  7158.090  0.500  3.383117  152.666  152.539  5.177393
  7161.620  7161.610  0.500  3.379250  152.599  152.641  5.200926
  7165.155  7165.150  0.500  3.375468  152.514  152.724  5.223495
  7168.698  7168.700  0.500  3.371204  152.405  152.746  5.246571
  7172.280  7172.280  0.500  3.366968  152.334  152.801  5.270735
  7175.889  7175.880  0.500  3.362190  152.25  152.85  5.297680
  7179.498  7179.490  0.500  3.357582  152.193  152.927  5.324837
  7183.130  7183.120  0.500  3.352804  152.128  153.064  5.355127
  7186.792  7186.780  0.500  3.348190  152.042  153.158  5.383198
  7190.461  7190.450  0.500  3.343491  152.014  153.311  5.413946
  7194.148  7194.140  0.500  3.339086  151.696  153.123  5.431167
  7197.860  7197.850  0.500  3.334611  151.74  153.332  5.462966
  7201.595  7201.580  0.500  3.330221  151.642  153.369  5.488325
  7205.327  7205.320  0.500  3.325983  151.557  153.416  5.513328
  7209.102  7209.090  0.500  3.321437  151.455  153.456  5.539902
  7212.893  7212.880  0.500  3.317374  151.362  153.537  5.565375
  7216.691  7216.680  0.500  3.313031  151.248  153.566  5.590677
  7220.522  7220.510  0.500  3.308925  151.153  153.627  5.615919
  7224.357  7224.350  0.500  3.304974  151.024  153.691  5.640474
  7228.221  7228.210  0.500  3.300734  148.292  151.061  5.567529
  7232.095  7232.090  0.500  3.296375  150.98  153.99  5.700273
  7236.003  7235.990  0.500  3.291862  150.899  154.084  5.729531
  7239.920  7239.910  0.500  3.287099  150.818  154.139  5.758948
  7243.861  7243.850  0.500  3.282404  150.675  154.164  5.786996
  7247.818  7247.810  0.500  3.277584  150.566  154.22  5.817085
  7251.784  7251.780  0.500  3.272609  150.473  154.281  5.848398
  7255.788  7255.780  0.500  3.267852  150.529  154.51  5.885005
  7259.803  7259.790  0.500  3.263015  150.329  154.497  5.913025
  7263.843  7263.830  0.500  3.258307  144.343  148.496  5.710174
  7267.889  7267.880  0.500  3.253682  150.659  155.125  5.992741
  7271.970  7271.950  0.500  3.249253  150.604  155.236  6.023656
  7276.078  7276.040  0.500  3.244698  150.716  155.528  6.062538
  7280.184  7280.150  0.500  3.240165  150.581  155.586  6.092335
  7284.315  7284.280  0.500  3.235742  148.841  153.936  6.054443
  7288.463  7288.430  0.500  3.231269  150.269  155.595  6.147132
  7292.624  7292.590  0.500  3.226912  150.222  155.752  6.180200
  7296.797  7296.780  0.500  3.222412  150.567  156.232  6.227242
  7300.996  7300.980  0.500  3.217818  149.901  155.686  6.234016
  7305.242  7305.210  0.500  3.213149  150.566  156.609  6.300319
  7309.471  7309.450  0.500  3.208262  150.474  156.661  6.333320
  7313.730  7313.710  0.500  3.203202  150.382  156.698  6.366918
  7318.019  7317.990  0.500  3.198262  150.289  156.764  6.401155
  7322.309  7322.290  0.500  3.193349  150.185  156.865  6.436840
  7326.631  7326.610  0.500  3.188189  150.097  156.957  6.473934
  7330.941  7330.950  0.500  3.183412  149.98  157.018  6.507466
  7335.297  7335.310  0.500  3.178495  149.92  157.122  6.543841
  7339.709  7339.690  0.500  3.173651  146.948  154.196  6.453175
  7344.112  7344.080  0.500  3.168745  149.635  157.196  6.611067
  7348.517  7348.500  0.500  3.163928  149.558  157.302  6.647494
  7352.919  7352.930  0.500  3.159214  149.474  157.387  6.682512
  7357.358  7357.380  0.500  3.154518  149.379  157.452  6.716725
  7361.832  7361.850  0.500  3.149648  149.271  157.552  6.753827
  7366.346  7366.340  0.500  3.145103  149.152  157.583  6.785924
  7370.870  7370.850  0.500  3.140415  149.042  157.652  6.820767
  7375.412  7375.380  0.500  3.135689  148.931  157.705  6.855413
  7379.958  7379.930  0.500  3.130769  148.791  157.749  6.891148
  7384.511  7384.500  0.500  3.126034  148.644  157.739  6.923404
  7389.087  7389.080  0.500  3.120875  148.546  157.799  6.961873
  7393.696  7393.690  0.500  3.115807  148.45  157.888  7.001191
  7398.321  7398.310  0.500  3.110807  148.336  157.958  7.039407
  7402.975  7402.960  0.500  3.105899  148.217  158.019  7.076756
  7407.630  7407.620  0.500  3.100649  148.115  158.097  7.117537
  7412.308  7412.300  0.500  3.095372  147.973  158.128  7.156600
  7417.018  7417.000  0.500  3.090242  147.841  158.181  7.195824
  7421.734  7421.720  0.500  3.085132  147.706  158.208  7.233905
  7426.470  7426.460  0.500  3.079915  147.598  158.282  7.275147
  7431.222  7431.210  0.500  3.075097  147.457  158.314  7.311743
  7436.013  7435.990  0.500  3.070113  147.325  158.359  7.350378
  7440.804  7440.790  0.500  3.065183  147.153  158.345  7.386041
  7445.603  7445.600  0.500  3.060544  146.407  157.73  7.391595
  7450.447  7450.430  0.500  3.055480  146.924  158.488  7.464803
  7455.306  7455.290  0.500  3.050765  146.883  158.638  7.507200
  7460.191  7460.160  0.500  3.045775  143.062  154.692  7.357056
  7465.069  7465.050  0.500  3.040832  146.509  158.597  7.580177
  7469.979  7469.960  0.500  3.035789  146.568  158.835  7.629931
  7474.906  7474.890  0.500  3.030486  146.322  158.756  7.666673
  7479.851  7479.830  0.500  3.025330  146.167  158.8  7.708418
  7484.824  7484.800  0.500  3.020271  145.99  158.788  7.746932
  7489.797  7489.790  0.500  3.015412  145.816  158.709  7.780828
  7494.784  7494.790  0.500  3.010118  145.657  158.756  7.824419
  7499.802  7499.820  0.500  3.004966  145.492  158.783  7.866175
  7504.842  7504.860  0.500  2.999724  145.304  158.755  7.906142
  7509.914  7509.920  0.500  2.994508  145.114  158.761  7.947795
  7514.985  7515.000  0.500  2.989211  144.972  158.791  7.991510
  7520.067  7520.100  0.500  2.984038  144.787  158.788  8.032791
  7525.199  7525.220  0.500  2.978866  144.621  158.786  8.074321
  7530.327  7530.360  0.500  2.973796  144.444  158.787  8.115447
  7535.501  7535.520  0.500  2.968778  144.266  158.78  8.155915
  7540.675  7540.700  0.500  2.963669  144.083  158.762  8.196751
  7545.874  7545.890  0.500  2.958667  143.894  158.745  8.236980
  7551.089  7551.110  0.500  2.953470  143.722  158.754  8.280335
  7556.368  7556.340  0.500  2.948382  143.544  158.766  8.323217
  7561.586  7561.590  0.500  2.943013  143.359  158.745  8.366911
  7566.846  7566.860  0.500  2.937957  143.169  158.694  8.406641
  7572.131  7572.150  0.500  2.932694  142.98  158.693  8.450918
  7577.470  7577.460  0.500  2.927480  142.78  158.648  8.492702
  7582.775  7582.790  0.500  2.922174  142.589  158.613  8.536009
  7588.119  7588.140  0.500  2.917150  142.319  158.526  8.574294
  7593.491  7593.510  0.500  2.911832  142.082  158.453  8.616040
  7598.869  7598.890  0.500  2.906467  141.79  158.331  8.655712
  7604.301  7604.300  0.500  2.901184  141.135  157.826  8.673841
  7609.692  7609.720  0.500  2.895954  140.843  157.651  8.709640
  7615.140  7615.170  0.500  2.890643  140.735  157.708  8.759181
  7620.609  7620.630  0.500  2.885354  140.708  157.893  8.815941
  7626.086  7626.110  0.500  2.880151  140.775  158.157  8.876747
  7631.593  7631.610  0.500  2.874826  140.642  158.203  8.926772
  7637.119  7637.130  0.500  2.869621  140.439  158.157  8.970706
  7642.665  7642.670  0.500  2.864292  140.258  158.134  9.017373
  7648.205  7648.220  0.500  2.858915  140.064  158.115  9.064850
  7653.788  7653.800  0.500  2.853672  139.873  158.072  9.110061
  7659.379  7659.400  0.500  2.848542  139.673  158.015  9.153579
  7664.984  7665.010  0.500  2.843127  139.482  157.985  9.201563
  7670.622  7670.650  0.500  2.837991  139.26  157.938  9.246192
  7676.274  7676.300  0.500  2.832551  139.036  157.895  9.294064
  7681.955  7681.970  0.500  2.827288  138.807  157.811  9.338183
  7687.660  7687.660  0.500  2.821960  137.555  156.575  9.314519