File: xdidata/Data/Cu/Cu-Covellite.xdi
# XDI/1.0 BlueSky/1.10.0 BMM/2023-1.0-py310-tiled
# Beamline.name: BMM (06BM) -- Beamline for Materials Measurement (NIST)
# Beamline.xray_source: NSLS-II three-pole wiggler
# Beamline.collimation: paraboloid mirror, 5 nm Rh on 30 nm Pt
# Beamline.focusing: not in use
# Beamline.harmonic_rejection: flat mirror, Pt stripe, pitch = 7.0 mrad relative to beam
# Beamline.software: Bluesky 1.10.0, Ophyd 1.7.0, DataBroker 2.0.0b13, Python 3.10.8, 2023-1.0-py310-tiled
# Detector.I0: 10 cm N2
# Detector.I1: 25 cm N2
# Detector.I2: 25 cm N2
# Element.symbol: Cu
# Element.edge: K
# Element.reference: Cu
# Element.reference_material: Cu foil
# Facility.name: NSLS-II
# Facility.energy: 3.0
# Facility.current: 400.8
# Facility.mode: top-off
# Facility.GUP: 123456
# Facility.SAF: 301027
# Facility.cycle: 2023-2
# Mono.name: Si(111)
# Mono.d_spacing: 3.13519
# Mono.encoder_resolution: 0.0000050 deg/ct
# Mono.angle_offset: 16.0754 deg
# Mono.scan_mode: pseudo channel cut
# Mono.scan_type: step
# Mono.direction: forward in energy
# Sample.name: CuS
# Sample.prep: powder on tape
# Sample.x: 116.329 mm
# Sample.y: 114.126 mm
# Sample.SDD_position: 205.000 mm
# Scan.experimenters: Bruce Ravel
# Scan.edge_energy: 8978.9
# Scan.start_time: 2023-05-06T13:03:00
# Scan.end_time: 2023-05-06T13:11:03
# Scan.transient_id: 74808
# Scan.uid: d45fcbf6-b359-49b2-98eb-745a7a7f281d
# Scan.plot_hint: ln(I0/It)  --  ln($5/$6)
# Column.1: energy eV
# Column.2: requested_energy eV
# Column.3: measurement_time seconds
# Column.4: xmu
# Column.5: I0 nA
# Column.6: It nA
# Column.7: Ir nA
# ///////////
# Welcome to BMM
# -----------
# energy  requested_energy  measurement_time  xmu  I0  It  Ir
  8778.910  8778.900  0.500  0.514488  122.984  73.5207  38.1166
  8788.916  8788.900  0.500  0.510729  122.763  73.6649  38.2707
  8798.923  8798.900  0.500  0.506861  122.554  73.8245  38.4374
  8808.994  8808.900  0.500  0.503238  122.357  73.9736  38.5998
  8819.017  8818.900  0.500  0.499466  122.158  74.1319  38.7656
  8828.967  8828.900  0.500  0.495805  121.943  74.2731  38.9206
  8839.054  8838.900  0.500  0.491824  121.751  74.4518  39.0978
  8849.024  8848.900  0.500  0.488258  121.56  74.6009  39.2591
  8858.929  8858.900  0.500  0.484529  121.351  74.7506  39.4193
  8868.924  8868.900  0.500  0.480871  121.144  74.8968  39.5771
  8878.929  8878.900  0.500  0.477339  120.945  75.0379  39.7336
  8888.943  8888.900  0.500  0.473946  120.742  75.1669  39.8798
  8898.950  8898.900  0.500  0.470414  120.513  75.2897  40.0194
  8908.909  8908.900  0.500  0.466923  120.158  75.3305  40.1152
  8918.911  8918.900  0.500  0.463753  120.189  75.5893  40.3189
  8928.908  8928.900  0.500  0.460462  119.896  75.6535  40.4123
  8938.908  8938.900  0.500  0.457496  119.771  75.7988  40.5391
  8948.917  8948.900  0.500  0.454979  119.559  75.8557  40.5878
  8950.899  8950.900  0.500  0.454676  119.447  75.8076  40.5613
  8952.893  8952.900  0.500  0.454260  119.384  75.7989  40.5533
  8954.888  8954.900  0.500  0.453908  119.414  75.8448  40.5692
  8956.890  8956.900  0.500  0.453686  119.36  75.8275  40.549
  8958.887  8958.900  0.500  0.453517  119.322  75.8163  40.5288
  8960.891  8960.900  0.500  0.453530  119.286  75.7923  40.4922
  8962.889  8962.900  0.500  0.453628  119.24  75.7556  40.4405
  8964.892  8964.900  0.500  0.453855  118.924  75.5377  40.2805
  8966.882  8966.900  0.500  0.454490  119.134  75.6226  40.2663
  8968.897  8968.900  0.500  0.455206  119.097  75.5455  40.1418
  8969.174  8969.200  0.500  0.455336  119.09  75.5309  40.1157
  8969.472  8969.500  0.500  0.455567  119.073  75.5031  40.0828
  8969.769  8969.800  0.500  0.455835  119.063  75.4766  40.0527
  8970.067  8970.100  0.500  0.456051  119.06  75.4578  40.0295
  8970.372  8970.400  0.500  0.456096  119.044  75.4444  40.0019
  8970.674  8970.700  0.500  0.456558  119.033  75.4025  39.9565
  8970.968  8971.000  0.500  0.456573  119.028  75.3986  39.9331
  8971.273  8971.300  0.500  0.456783  119.013  75.3731  39.8954
  8971.567  8971.600  0.500  0.457107  119.01  75.3467  39.8581
  8971.872  8971.900  0.500  0.457541  119.003  75.3094  39.8141
  8972.177  8972.200  0.500  0.457758  118.995  75.2881  39.7664
  8972.475  8972.500  0.500  0.458166  118.982  75.2495  39.7194
  8972.777  8972.800  0.500  0.458620  118.98  75.2137  39.6705
  8973.071  8973.100  0.500  0.459065  118.965  75.1708  39.6106
  8973.380  8973.400  0.500  0.459420  118.961  75.1418  39.5543
  8973.675  8973.700  0.500  0.459912  118.955  75.1012  39.496
  8973.990  8974.000  0.500  0.460424  118.94  75.0531  39.4245
  8974.281  8974.300  0.500  0.460972  118.933  75.0075  39.3509
  8974.593  8974.600  0.500  0.461630  118.925  74.9534  39.2668
  8974.888  8974.900  0.500  0.462313  118.917  74.8972  39.1789
  8975.190  8975.200  0.500  0.463110  118.904  74.8288  39.0754
  8975.492  8975.500  0.500  0.463869  118.9  74.7696  38.9705
  8975.790  8975.800  0.500  0.464740  118.891  74.6992  38.8537
  8976.098  8976.100  0.500  0.465840  118.877  74.6079  38.7149
  8976.390  8976.400  0.500  0.466967  118.877  74.5239  38.5681
  8976.692  8976.700  0.500  0.468214  118.864  74.4233  38.3998
  8976.990  8977.000  0.500  0.469688  118.853  74.3065  38.2111
  8977.278  8977.300  0.500  0.471193  118.839  74.1863  38.005
  8977.587  8977.600  0.500  0.473118  118.832  74.0388  37.7456
  8977.885  8977.900  0.500  0.475407  118.824  73.865  37.4432
  8978.187  8978.200  0.500  0.478235  118.814  73.6501  37.0714
  8978.489  8978.500  0.500  0.481998  118.804  73.3675  36.5973
  8978.791  8978.800  0.500  0.486623  118.801  73.0266  36.0139
  8979.096  8979.100  0.500  0.492824  118.775  72.5594  35.2169
  8979.398  8979.400  0.500  0.500542  118.772  71.9999  34.2172
  8979.693  8979.700  0.500  0.509395  118.773  71.3661  32.9634
  8979.995  8980.000  0.500  0.518928  118.755  70.6783  31.3471
  8980.301  8980.300  0.500  0.527741  118.738  70.0481  29.427
  8980.603  8980.600  0.500  0.534859  118.729  69.5456  27.262
  8980.898  8980.900  0.500  0.540853  118.689  69.1066  25.0902
  8981.204  8981.200  0.500  0.547452  118.589  68.5944  22.9893
  8981.495  8981.500  0.500  0.556448  118.48  67.9174  21.2202
  8981.791  8981.800  0.500  0.569682  118.413  66.987  19.7756
  8982.086  8982.100  0.500  0.587751  118.386  65.7722  18.631
  8982.385  8982.400  0.500  0.609603  118.401  64.3589  17.7455
  8982.697  8982.700  0.500  0.634755  118.482  62.8032  17.0536
  8982.999  8983.000  0.500  0.660829  118.567  61.2309  16.5329
  8983.309  8983.300  0.500  0.688875  118.595  59.5513  16.1065
  8983.607  8983.600  0.500  0.717238  118.603  57.8899  15.7631
  8983.910  8983.900  0.500  0.745485  118.597  56.2748  15.4735
  8984.202  8984.200  0.500  0.771969  118.594  54.8025  15.2219
  8984.504  8984.500  0.500  0.796078  118.585  53.4933  14.9811
  8984.792  8984.800  0.500  0.816496  118.585  52.4118  14.7425
  8985.091  8985.100  0.500  0.834890  118.57  51.4501  14.4623
  8985.390  8985.400  0.500  0.852531  118.569  50.55  14.1099
  8985.686  8985.700  0.500  0.870106  118.555  49.6636  13.6928
  8985.995  8986.000  0.500  0.888348  118.547  48.7625  13.2211
  8986.294  8986.300  0.500  0.906443  118.538  47.8845  12.7451
  8986.607  8986.600  0.500  0.924522  118.53  47.0233  12.2831
  8986.902  8986.900  0.500  0.941447  118.526  46.2327  11.8701
  8987.205  8987.200  0.500  0.956940  118.515  45.5177  11.4939
  8987.504  8987.500  0.500  0.968828  118.507  44.9768  11.1827
  8987.807  8987.800  0.500  0.977097  118.493  44.6011  10.9177
  8988.099  8988.100  0.500  0.981315  118.483  44.4095  10.6937
  8988.394  8988.400  0.500  0.982247  118.473  44.3644  10.4954
  8988.694  8988.700  0.500  0.981122  118.467  44.4122  10.2992
  8988.996  8989.000  0.500  0.979997  118.458  44.4588  10.0875
  8989.299  8989.300  0.500  0.980087  118.449  44.4514  9.836620
  8989.598  8989.600  0.500  0.982590  118.442  44.3375  9.552960
  8989.901  8989.900  0.500  0.987332  118.424  44.1212  9.234398
  8990.210  8990.200  0.500  0.993725  118.414  43.8364  8.894139
  8990.499  8990.500  0.500  1.001006  118.404  43.5147  8.548908
  8990.799  8990.800  0.500  1.008257  118.4  43.1987  8.198615
  8991.105  8991.100  0.500  1.015085  118.381  42.898  7.852345
  8991.408  8991.400  0.500  1.021210  118.362  42.6292  7.507860
  8991.703  8991.700  0.500  1.026360  118.334  42.4001  7.183712
  8992.003  8992.000  0.500  1.030671  118.299  42.2053  6.878695
  8992.299  8992.300  0.500  1.034286  118.251  42.0358  6.589116
  8992.588  8992.600  0.500  1.037306  118.173  41.8815  6.325207
  8992.898  8992.900  0.500  1.040414  117.963  41.6772  6.057311
  8993.190  8993.200  0.500  1.043322  117.36  41.3439  5.809448
  8993.503  8993.500  0.500  1.046902  116.406  40.8612  5.555830
  8993.803  8993.800  0.500  1.051561  115.935  40.5068  5.351905
  8994.106  8994.100  0.500  1.056908  116.193  40.3805  5.200849
  8994.399  8994.400  0.500  1.063107  116.804  40.3417  5.089218
  8994.698  8994.700  0.500  1.069752  117.456  40.2984  5.004117
  8995.012  8995.000  0.500  1.077128  117.994  40.1854  4.936553
  8995.311  8995.300  0.500  1.084505  118.259  39.9798  4.889538
  8995.604  8995.600  0.500  1.091886  118.322  39.7068  4.859259
  8995.903  8995.900  0.500  1.098739  118.329  39.4381  4.853910
  8996.196  8996.200  0.500  1.104908  118.326  39.1945  4.868635
  8996.492  8996.500  0.500  1.109937  118.315  38.9941  4.899509
  8996.792  8996.800  0.500  1.113837  118.302  38.8382  4.948442
  8997.099  8997.100  0.500  1.116415  118.667  38.8578  5.022969
  8997.398  8997.400  0.500  1.117964  118.64  38.7889  5.089707
  8997.698  8997.700  0.500  1.118405  118.629  38.7679  5.159718
  8998.002  8998.000  0.500  1.118508  118.62  38.761  5.230567
  8998.305  8998.300  0.500  1.117979  118.594  38.773  5.299780
  8998.598  8998.600  0.500  1.117229  118.583  38.7986  5.368645
  8998.904  8998.900  0.500  1.116384  118.563  38.8248  5.429370
  8999.208  8999.200  0.500  1.115809  118.545  38.8414  5.480333
  8999.501  8999.500  0.500  1.115350  118.524  38.8522  5.516938
  8999.804  8999.800  0.500  1.115090  118.508  38.8571  5.541681
  9000.097  9000.100  0.500  1.115207  118.491  38.8469  5.549400
  9000.397  9000.400  0.500  1.115202  118.459  38.8365  5.541626
  9000.697  9000.700  0.500  1.115305  118.422  38.8206  5.517699
  9000.986  9001.000  0.500  1.115304  118.394  38.8114  5.480390
  9001.297  9001.300  0.500  1.114996  118.341  38.806  5.425579
  9001.597  9001.600  0.500  1.114520  118.252  38.7952  5.356087
  9001.908  9001.900  0.500  1.113656  118.093  38.7766  5.273217
  9002.204  9002.200  0.500  1.112730  117.704  38.6848  5.172646
  9002.501  9002.500  0.500  1.111595  116.956  38.4826  5.050885
  9002.804  9002.800  0.500  1.110224  116.234  38.2973  4.930544
  9003.104  9003.100  0.500  1.108994  116.065  38.2888  4.836508
  9003.412  9003.400  0.500  1.107538  116.548  38.504  4.777089
  9003.705  9003.700  0.500  1.106138  117.26  38.7937  4.743908
  9003.890  9003.900  0.500  1.105275  117.678  38.9656  4.731186
  9004.895  9004.890  0.500  1.100542  118.457  39.4096  4.735418
  9005.904  9005.890  0.500  1.096389  118.435  39.5662  4.903614
  9006.921  9006.910  0.500  1.093656  118.386  39.6581  5.161688
  9007.969  9007.960  0.500  1.092771  118.317  39.67  5.393063
  9009.034  9009.020  0.500  1.092738  118.173  39.623  5.557022
  9010.125  9010.100  0.500  1.092229  116.748  39.1652  5.653871
  9011.219  9011.200  0.500  1.091570  116.868  39.2313  5.831058
  9012.338  9012.320  0.500  1.089478  118.317  39.801  6.021499
  9013.482  9013.460  0.500  1.086466  118.305  39.9169  6.058082
  9014.629  9014.610  0.500  1.081733  118.263  40.0921  6.048053
  9015.802  9015.790  0.500  1.074861  118.22  40.3537  6.027807
  9016.996  9016.980  0.500  1.066576  118.165  40.6707  5.979311
  9018.218  9018.200  0.500  1.058759  118.084  40.9619  5.883709
  9019.454  9019.430  0.500  1.052574  117.743  41.0969  5.738877
  9020.701  9020.680  0.500  1.047427  116.006  40.6996  5.512955
  9021.980  9021.950  0.500  1.042372  118.067  41.6326  5.479239
  9023.260  9023.240  0.500  1.038603  118.081  41.7945  5.353675
  9024.561  9024.550  0.500  1.036627  118.051  41.8665  5.219409
  9025.904  9025.880  0.500  1.036778  118.022  41.85  5.107861
  9027.245  9027.230  0.500  1.038637  117.986  41.7596  5.055430
  9028.624  9028.600  0.500  1.041923  117.96  41.6135  5.097603
  9029.990  9029.980  0.500  1.045505  117.923  41.4516  5.216624
  9031.405  9031.390  0.500  1.049602  117.882  41.2679  5.378486
  9032.831  9032.810  0.500  1.053044  117.849  41.1146  5.548096
  9034.272  9034.250  0.500  1.055641  117.807  40.9931  5.697657
  9035.745  9035.710  0.500  1.057504  117.752  40.8979  5.797798
  9037.173  9037.190  0.500  1.058987  117.722  40.8269  5.845579
  9038.819  9038.690  0.500  1.060554  117.669  40.7445  5.847368
  9040.265  9040.210  0.500  1.062903  117.36  40.5424  5.788148
  9041.783  9041.750  0.500  1.065391  116.402  40.1114  5.669334
  9043.297  9043.310  0.500  1.068780  117.454  40.3369  5.651923
  9044.868  9044.880  0.500  1.072693  117.48  40.1882  5.622780
  9046.461  9046.480  0.500  1.077209  117.454  39.9984  5.620201
  9048.072  9048.090  0.500  1.081610  117.429  39.8142  5.600767
  9049.722  9049.730  0.500  1.085600  117.395  39.6442  5.531704
  9051.377  9051.380  0.500  1.088835  117.361  39.5048  5.445755
  9053.032  9053.050  0.500  1.090930  117.326  39.4105  5.388841
  9054.730  9054.740  0.500  1.091516  117.293  39.3761  5.380740
  9056.446  9056.450  0.500  1.090441  117.258  39.4068  5.380800
  9058.178  9058.180  0.500  1.088721  117.218  39.4612  5.349320
  9059.924  9059.930  0.500  1.086304  117.171  39.5406  5.283223
  9061.681  9061.690  0.500  1.083911  117.069  39.601  5.210940
  9063.478  9063.480  0.500  1.081606  115.904  39.2973  5.112035
  9065.279  9065.280  0.500  1.078929  117.001  39.7756  5.129531
  9067.096  9067.110  0.500  1.075383  116.998  39.916  5.097374
  9068.941  9068.950  0.500  1.071191  116.967  40.0728  5.051799
  9070.797  9070.810  0.500  1.066421  116.923  40.2495  4.993520
  9072.683  9072.690  0.500  1.061804  116.89  40.4242  4.954747
  9074.570  9074.590  0.500  1.057378  116.842  40.5868  4.965236
  9076.503  9076.510  0.500  1.053351  116.795  40.7341  5.039228
  9078.449  9078.450  0.500  1.049936  116.753  40.8588  5.167903
  9080.405  9080.410  0.500  1.046831  115.995  40.7199  5.294733
  9082.377  9082.380  0.500  1.044450  116.432  40.9706  5.464020
  9084.388  9084.380  0.500  1.042022  116.588  41.1255  5.606925
  9086.390  9086.390  0.500  1.040457  116.556  41.1783  5.724607
  9088.418  9088.420  0.500  1.039367  116.501  41.2039  5.805776
  9090.471  9090.480  0.500  1.038688  116.455  41.2156  5.847618
  9092.561  9092.550  0.500  1.038784  116.414  41.1971  5.914785
  9094.628  9094.640  0.500  1.039585  116.374  41.1499  6.026630
  9096.745  9096.750  0.500  1.040796  116.316  41.0797  6.147661
  9098.888  9098.880  0.500  1.042247  116.282  41.008  6.232193
  9101.010  9101.020  0.500  1.043763  116.234  40.9291  6.239118
  9103.184  9103.190  0.500  1.045057  115.283  40.5418  6.124691
  9105.380  9105.380  0.500  1.046413  115.987  40.734  6.046768
  9107.588  9107.580  0.500  1.047391  116.028  40.7085  5.913232
  9109.793  9109.800  0.500  1.048305  115.993  40.6591  5.788563
  9112.050  9112.050  0.500  1.048956  115.944  40.6156  5.694809
  9114.307  9114.310  0.500  1.049527  115.888  40.5727  5.636222
  9116.598  9116.590  0.500  1.049564  115.837  40.5535  5.622423
  9118.887  9118.890  0.500  1.049138  115.791  40.5546  5.630964
  9121.209  9121.210  0.500  1.048528  115.737  40.5604  5.624886
  9123.551  9123.550  0.500  1.048013  115.68  40.5612  5.559014
  9125.893  9125.900  0.500  1.047274  115.616  40.5689  5.419322
  9128.291  9128.280  0.500  1.046497  115.561  40.581  5.230506
  9130.682  9130.670  0.500  1.045594  115.509  40.5994  5.080134
  9133.093  9133.090  0.500  1.044618  115.443  40.6157  5.019983
  9135.527  9135.520  0.500  1.043392  115.367  40.6388  5.035776
  9137.980  9137.970  0.500  1.041836  115.291  40.6755  5.092474
  9140.453  9140.450  0.500  1.040073  115.182  40.7088  5.169817
  9142.959  9142.940  0.500  1.038213  114.579  40.5709  5.255207
  9145.449  9145.450  0.500  1.036441  115  40.7921  5.431898
  9147.987  9147.970  0.500  1.034289  115.167  40.9395  5.632243
  9150.523  9150.520  0.500  1.032276  115.06  40.9837  5.847813
  9153.100  9153.090  0.500  1.030073  114.935  41.0296  6.083327
  9155.689  9155.670  0.500  1.028026  114.49  40.9546  6.293346
  9158.280  9158.280  0.500  1.026523  114.094  40.874  6.459795
  9160.905  9160.900  0.500  1.024422  114.909  41.2527  6.599563
  9163.563  9163.550  0.500  1.022774  114.762  41.2678  6.558388
  9166.224  9166.210  0.500  1.021132  114.452  41.2241  6.405356
  9168.904  9168.890  0.500  1.019728  112.853  40.7054  6.135222
  9171.608  9171.590  0.500  1.017693  114.719  41.4626  6.071538
  9174.327  9174.310  0.500  1.016155  114.621  41.491  5.958477
  9177.056  9177.050  0.500  1.014999  114.508  41.4981  5.905655
  9179.819  9179.800  0.500  1.014222  114.267  41.4427  5.893320
  9182.587  9182.580  0.500  1.014094  112.283  40.7286  5.818167
  9185.394  9185.370  0.500  1.013500  114.434  41.5336  5.962254
  9188.209  9188.190  0.500  1.013209  114.33  41.5078  5.976450
  9191.041  9191.020  0.500  1.012768  114.231  41.49  5.986402
  9193.893  9193.870  0.500  1.012041  114.142  41.4881  6.012941
  9196.765  9196.750  0.500  1.011328  114.057  41.4866  6.054509
  9199.664  9199.640  0.500  1.010935  113.958  41.467  6.060642
  9202.561  9202.550  0.500  1.010268  113.881  41.4665  5.998984
  9205.490  9205.470  0.500  1.009269  113.81  41.4821  5.880475
  9208.427  9208.420  0.500  1.008488  113.738  41.4881  5.770029
  9211.418  9211.390  0.500  1.007516  113.677  41.5062  5.727151
  9214.382  9214.370  0.500  1.006279  113.906  41.6414  5.749876
  9217.398  9217.380  0.500  1.004873  113.898  41.6969  5.787780
  9220.414  9220.400  0.500  1.003411  113.826  41.7315  5.851268
  9223.475  9223.450  0.500  1.001894  113.762  41.7716  5.952311
  9226.534  9226.510  0.500  1.000241  113.669  41.8065  6.087152
  9229.607  9229.590  0.500  0.998633  113.606  41.8505  6.237769
  9232.696  9232.690  0.500  0.996907  113.526  41.8934  6.380937
  9235.832  9235.810  0.500  0.995246  113.454  41.9364  6.504723
  9238.963  9238.950  0.500  0.993494  113.387  41.9851  6.585434
  9242.125  9242.100  0.500  0.991921  113.315  42.0244  6.615199
  9245.286  9245.280  0.500  0.990185  113.249  42.0731  6.608018
  9248.496  9248.470  0.500  0.988500  113.169  42.1139  6.594585
  9251.698  9251.690  0.500  0.986995  113.1  42.1518  6.598838
  9254.940  9254.920  0.500  0.985361  113.016  42.1895  6.601014
  9258.176  9258.170  0.500  0.983934  112.938  42.2203  6.596473
  9261.466  9261.450  0.500  0.982623  112.863  42.2477  6.587625
  9264.748  9264.740  0.500  0.981115  112.782  42.2812  6.569337
  9268.073  9268.050  0.500  0.979380  112.701  42.3241  6.542244
  9271.381  9271.370  0.500  0.977926  112.625  42.3572  6.517201
  9274.740  9274.720  0.500  0.976227  112.356  42.3279  6.486803
  9278.106  9278.090  0.500  0.974645  112.502  42.4501  6.489286
  9281.492  9281.470  0.500  0.973169  112.403  42.4754  6.482701
  9284.896  9284.880  0.500  0.971778  112.306  42.4976  6.476343
  9288.314  9288.300  0.500  0.970436  112.211  42.5186  6.468689
  9291.772  9291.750  0.500  0.969032  111.615  42.3522  6.436877
  9295.224  9295.210  0.500  0.967719  112.042  42.5703  6.464414
  9298.709  9298.690  0.500  0.966087  110.474  42.0429  6.383860
  9302.201  9302.190  0.500  0.965264  111.96  42.6437  6.502602
  9305.740  9305.710  0.500  0.963883  111.311  42.4551  6.524454
  9309.263  9309.250  0.500  0.962596  111.815  42.7021  6.620930
  9312.830  9312.800  0.500  0.961155  111.714  42.7251  6.688766
  9316.385  9316.380  0.500  0.959776  111.612  42.7451  6.757554
  9319.998  9319.980  0.500  0.958382  111.517  42.7684  6.818587
  9323.611  9323.590  0.500  0.956977  110.502  42.4385  6.798681
  9327.223  9327.220  0.500  0.955443  111.372  42.8382  6.877982
  9330.898  9330.880  0.500  0.953925  111.281  42.8684  6.896127
  9334.569  9334.550  0.500  0.952411  111.183  42.8956  6.930227
  9338.253  9338.240  0.500  0.950728  111.088  42.931  6.987236
  9341.967  9341.950  0.500  0.949019  110.998  42.9695  7.054482
  9345.696  9345.680  0.500  0.947120  110.905  43.0153  7.103585
  9349.438  9349.420  0.500  0.945569  110.82  43.049  7.113093
  9353.203  9353.190  0.500  0.943889  110.732  43.0871  7.112667
  9356.997  9356.980  0.500  0.942030  110.645  43.1335  7.122563
  9360.802  9360.780  0.500  0.940319  110.554  43.1716  7.127546
  9364.633  9364.610  0.500  0.938778  110.466  43.204  7.128043
  9368.463  9368.450  0.500  0.937156  110.375  43.2382  7.129078
  9372.323  9372.310  0.500  0.935406  110.28  43.2768  7.128656
  9376.201  9376.190  0.500  0.933802  110.197  43.3135  7.130372
  9380.113  9380.090  0.500  0.932135  110.1  43.3477  7.133921
  9384.028  9384.010  0.500  0.930544  110.001  43.3779  7.136282
  9387.977  9387.950  0.500  0.928952  109.914  43.4123  7.142533
  9391.933  9391.910  0.500  0.927299  109.821  43.4475  7.153828
  9395.901  9395.880  0.500  0.925652  109.733  43.4842  7.166856
  9399.906  9399.880  0.500  0.924077  109.634  43.5133  7.184936
  9403.911  9403.890  0.500  0.922383  109.537  43.5488  7.213618
  9407.945  9407.930  0.500  0.920825  109.443  43.579  7.252651
  9412.003  9411.980  0.500  0.919283  109.349  43.6089  7.303611
  9416.064  9416.050  0.500  0.917826  109.242  43.6299  7.357088
  9420.167  9420.140  0.500  0.916151  109.149  43.6657  7.405295
  9424.263  9424.250  0.500  0.914539  109.045  43.6945  7.444152
  9428.400  9428.380  0.500  0.913027  108.939  43.7182  7.468571
  9432.560  9432.530  0.500  0.911333  108.838  43.7516  7.489739
  9436.708  9436.690  0.500  0.909719  108.216  43.5718  7.474711
  9440.891  9440.880  0.500  0.908040  108.616  43.8063  7.534521
  9445.101  9445.080  0.500  0.906349  108.529  43.8452  7.568171
  9449.327  9449.310  0.500  0.904782  108.435  43.8761  7.604357
  9453.568  9453.550  0.500  0.903138  108.326  43.9042  7.643711
  9457.831  9457.810  0.500  0.901494  108.209  43.929  7.678340
  9462.103  9462.090  0.500  0.899907  108.098  43.9533  7.702909
  9466.406  9466.390  0.500  0.898083  107.997  43.9924  7.727270
  9470.732  9470.710  0.500  0.896393  107.888  44.0225  7.753576
  9475.066  9475.050  0.500  0.894715  107.79  44.0566  7.778352
  9479.432  9479.410  0.500  0.892865  107.682  44.0938  7.797799
  9483.809  9483.790  0.500  0.891246  107.584  44.1249  7.811240
  9488.198  9488.180  0.500  0.889622  107.458  44.1449  7.818796
  9492.618  9492.600  0.500  0.887792  107.358  44.1846  7.826096
  9497.051  9497.030  0.500  0.886010  107.25  44.2189  7.835505
  9501.495  9501.480  0.500  0.884278  107.136  44.2483  7.844371
  9505.967  9505.950  0.500  0.882474  107.023  44.2814  7.854804
  9510.459  9510.440  0.500  0.880741  106.904  44.309  7.868377
  9514.972  9514.950  0.500  0.878988  106.801  44.3441  7.890999
  9519.500  9519.480  0.500  0.877276  106.696  44.3763  7.923900
  9524.052  9524.030  0.500  0.875528  106.579  44.4051  7.963680
  9528.632  9528.600  0.500  0.873975  106.464  44.4263  8.008722
  9533.205  9533.180  0.500  0.872172  106.356  44.4613  8.050166
  9537.810  9537.790  0.500  0.870563  106.24  44.4843  8.084615
  9542.439  9542.410  0.500  0.868809  106.125  44.5143  8.115255
  9547.088  9547.060  0.500  0.867168  106.007  44.5377  8.144639
  9551.742  9551.720  0.500  0.865352  105.879  44.5649  8.172826
  9556.417  9556.400  0.500  0.863530  105.773  44.6013  8.199900
  9561.123  9561.100  0.500  0.861739  105.655  44.6314  8.227406
  9565.847  9565.820  0.500  0.860096  105.531  44.6522  8.253429
  9570.575  9570.560  0.500  0.858348  105.408  44.6783  8.282407
  9575.320  9575.310  0.500  0.856590  105.283  44.7037  8.312468
  9580.109  9580.090  0.500  0.854781  105.158  44.7317  8.340311
  9584.907  9584.890  0.500  0.852984  105.031  44.7579  8.371472
  9589.710  9589.700  0.500  0.851332  104.915  44.7825  8.399034
  9594.542  9594.530  0.500  0.849561  104.795  44.8107  8.425084
  9599.403  9599.390  0.500  0.847642  104.666  44.8415  8.449943
  9604.280  9604.260  0.500  0.845948  104.54  44.8635  8.472283
  9609.167  9609.150  0.500  0.844264  104.415  44.8854  8.492392
  9614.067  9614.060  0.500  0.842407  104.298  44.9182  8.515472
  9618.999  9618.990  0.500  0.840602  104.146  44.9338  8.535564
  9623.954  9623.930  0.500  0.838808  104.036  44.9669  8.556759
  9628.913  9628.900  0.500  0.836841  103.907  44.9998  8.579055
  9633.909  9633.890  0.500  0.835233  103.577  44.9289  8.583178
  9638.907  9638.890  0.500  0.833427  103.64  45.0376  8.624167
  9643.938  9643.920  0.500  0.831615  103.515  45.0648  8.650747
  9648.975  9648.960  0.500  0.829738  103.156  44.993  8.660425
  9654.037  9654.020  0.500  0.827875  103.237  45.1122  8.706371
  9659.121  9659.100  0.500  0.826140  103.119  45.1389  8.736727
  9664.230  9664.200  0.500  0.824206  102.963  45.1579  8.761888
  9669.329  9669.320  0.500  0.822567  102.823  45.1705  8.788177
  9674.470  9674.460  0.500  0.820665  102.694  45.1997  8.819207
  9679.636  9679.620  0.500  0.818917  102.559  45.2193  8.848985
  9684.804  9684.800  0.500  0.817194  102.419  45.2354  8.877111
  9690.006  9689.990  0.500  0.815461  102.29  45.2569  8.908258
  9695.234  9695.210  0.500  0.813514  102.142  45.2795  8.938414
  9700.464  9700.440  0.500  0.811782  102.004  45.2966  8.964970
  9705.712  9705.690  0.500  0.809904  101.85  45.3134  8.992376
  9710.977  9710.960  0.500  0.808070  101.688  45.3243  9.020897
  9716.269  9716.250  0.500  0.806307  101.607  45.3681  9.053227
  9721.584  9721.560  0.500  0.804392  101.471  45.394  9.081776
  9726.912  9726.890  0.500  0.802632  101.33  45.411  9.111066
  9732.255  9732.240  0.500  0.800987  101.198  45.4265  9.138232
  9737.640  9737.610  0.500  0.799077  101.073  45.4569  9.167377
  9743.011  9742.990  0.500  0.797137  100.925  45.4786  9.192060
  9748.421  9748.400  0.500  0.795300  100.783  45.4982  9.217035
  9753.825  9753.820  0.500  0.793489  100.646  45.5186  9.242461
  9759.300  9759.270  0.500  0.791512  100.505  45.5449  9.267855
  9764.753  9764.730  0.500  0.789732  100.35  45.5555  9.292536
  9770.225  9770.210  0.500  0.787813  100.13  45.5428  9.312790
  9775.716  9775.710  0.500  0.785972  100.093  45.6102  9.349486
  9781.249  9781.230  0.500  0.784192  99.8406  45.5761  9.366460
  9786.798  9786.770  0.500  0.782309  99.8013  45.644  9.405127
  9792.349  9792.320  0.500  0.780413  98.5778  45.17  9.332370
  9797.915  9797.900  0.500  0.778625  99.4988  45.6736  9.459279
  9803.512  9803.500  0.500  0.776736  99.1542  45.6015  9.468717
  9809.136  9809.110  0.500  0.774731  99.2619  45.7426  9.522241
  9814.779  9814.750  0.500  0.772841  99.1133  45.7606  9.552483
  9820.421  9820.400  0.500  0.770952  98.375  45.5056  9.525495
  9826.086  9826.070  0.500  0.769029  98.818  45.7985  9.612702
  9831.775  9831.760  0.500  0.767215  98.6524  45.8048  9.642061