File: xdidata/Data/Hf/Hf-L1-HafniumOxide.xdi
# XDI/1.0 BlueSky/1.10.0 BMM/2023-1.0-py310-tiled
# Beamline.name: BMM (06BM) -- Beamline for Materials Measurement (NIST)
# Beamline.xray_source: NSLS-II three-pole wiggler
# Beamline.collimation: paraboloid mirror, 5 nm Rh on 30 nm Pt
# Beamline.focusing: not in use
# Beamline.harmonic_rejection: flat mirror, Pt stripe, pitch = 7.0 mrad relative to beam
# Beamline.software: Bluesky 1.10.0, Ophyd 1.7.0, DataBroker 2.0.0b13, Python 3.10.8, 2023-1.0-py310-tiled
# Detector.I0: 10 cm N2
# Detector.I1: 25 cm N2
# Detector.I2: 25 cm N2
# Element.symbol: Hf
# Element.edge: L1
# Element.reference: Hf
# Element.reference_material: HfO2
# Facility.name: NSLS-II
# Facility.energy: 3.0
# Facility.current: 400.2
# Facility.mode: top-off
# Facility.GUP: 301027
# Facility.SAF: 310583
# Facility.cycle: 2023-2
# Mono.name: Si(111)
# Mono.d_spacing: 3.13519
# Mono.encoder_resolution: 0.0000050 deg/ct
# Mono.angle_offset: 16.0754 deg
# Mono.scan_mode: pseudo channel cut
# Mono.scan_type: step
# Mono.direction: forward in energy
# Sample.name: HfO2
# Sample.prep: PEG pellet
# Sample.x: 109.138 mm
# Sample.y: 153.150 mm
# Sample.SDD_position: 205.000 mm
# Scan.experimenters: Bruce Ravel
# Scan.edge_energy: 11270.7
# Scan.start_time: 2023-05-28T18:46:13
# Scan.end_time: 2023-05-28T18:54:35
# Scan.transient_id: 78924
# Scan.uid: 71f64184-40ab-423c-a042-6f1c878ffd89
# Scan.plot_hint: ln(It/Ir)  --  ln($6/$7)
# Column.1: energy eV
# Column.2: requested_energy eV
# Column.3: measurement_time seconds
# Column.4: xmu
# Column.5: I0 nA
# Column.6: It nA
# Column.7: Ir nA
# ///////////
# sample courtesy Martin Stennett, University of Sheffield
# -----------
# energy  requested_energy  measurement_time  xmu  I0  It  Ir
  11070.695  11070.700  0.500  2.290282  77.6508  126.9  12.8471
  11080.742  11080.700  0.500  2.286163  77.4949  126.7  12.8798
  11090.775  11090.700  0.500  2.281328  77.2571  126.373  12.9088
  11100.752  11100.700  0.500  2.276973  77.1248  126.204  12.9478
  11110.704  11110.700  0.500  2.272011  76.8964  125.909  12.9818
  11120.712  11120.700  0.500  2.266825  76.7473  125.72  13.0297
  11130.706  11130.700  0.500  2.262399  76.5952  125.532  13.0679
  11140.724  11140.700  0.500  2.259411  76.4304  125.329  13.0858
  11150.728  11150.700  0.500  2.256185  76.2503  125.092  13.1033
  11160.777  11160.700  0.500  2.252568  76.0859  124.874  13.1279
  11170.692  11170.700  0.500  2.248174  75.8744  124.575  13.1541
  11180.713  11180.700  0.500  2.243216  75.6884  124.342  13.1948
  11190.729  11190.700  0.500  2.238640  75.5119  124.104  13.2299
  11200.721  11200.700  0.500  2.234933  75.3518  123.894  13.2565
  11210.725  11210.700  0.500  2.231803  75.1632  123.646  13.2715
  11220.764  11220.700  0.500  2.229237  74.9664  123.366  13.2754
  11230.734  11230.700  0.500  2.226608  74.7744  123.11  13.2828
  11240.743  11240.700  0.500  2.223518  72.7841  119.883  12.9747
  11242.681  11242.700  0.500  2.222601  74.002  121.897  13.2048
  11244.669  11244.700  0.500  2.222210  74.6229  122.949  13.3239
  11246.686  11246.700  0.500  2.221604  74.5582  122.849  13.3212
  11248.670  11248.700  0.500  2.220965  74.5042  122.778  13.322
  11250.666  11250.700  0.500  2.220386  74.4592  122.715  13.3228
  11252.674  11252.700  0.500  2.219899  74.4263  122.666  13.324
  11254.682  11254.700  0.500  2.219572  74.3828  122.606  13.3219
  11256.675  11256.700  0.500  2.219291  74.331  122.531  13.3174
  11258.668  11258.700  0.500  2.219391  74.2882  122.476  13.3101
  11260.668  11260.700  0.500  2.219492  74.2461  122.42  13.3026
  11260.948  11261.000  0.500  2.219571  74.2463  122.41  13.3006
  11261.246  11261.300  0.500  2.219416  74.2308  122.391  13.3005
  11261.555  11261.600  0.500  2.219554  74.2139  122.358  13.2951
  11261.847  11261.900  0.500  2.219678  74.2025  122.349  13.2925
  11262.161  11262.200  0.500  2.219893  74.1999  122.346  13.2893
  11262.458  11262.500  0.500  2.220036  74.1902  122.334  13.2861
  11262.756  11262.800  0.500  2.220092  74.181  122.322  13.284
  11263.065  11263.100  0.500  2.220155  74.1671  122.297  13.2805
  11263.379  11263.400  0.500  2.220375  74.1595  122.287  13.2765
  11263.671  11263.700  0.500  2.220394  74.1596  122.285  13.276
  11263.969  11264.000  0.500  2.220816  74.1476  122.266  13.2684
  11264.272  11264.300  0.500  2.220907  74.1428  122.264  13.267
  11264.570  11264.600  0.500  2.220990  74.1349  122.245  13.2637
  11264.862  11264.900  0.500  2.221274  74.1242  122.229  13.2583
  11265.193  11265.200  0.500  2.221632  74.1144  122.206  13.251
  11265.474  11265.500  0.500  2.221876  74.1041  122.207  13.248
  11265.783  11265.800  0.500  2.222033  74.0974  122.193  13.2443
  11266.080  11266.100  0.500  2.222346  74.0908  122.178  13.2385
  11266.373  11266.400  0.500  2.222689  74.0831  122.164  13.2325
  11266.681  11266.700  0.500  2.222891  74.0752  122.155  13.2288
  11266.979  11267.000  0.500  2.223575  74.0664  122.158  13.2201
  11267.272  11267.300  0.500  2.223942  74.0569  122.148  13.2142
  11267.575  11267.600  0.500  2.224198  74.0511  122.128  13.2087
  11267.878  11267.900  0.500  2.224759  74.0497  122.115  13.1998
  11268.171  11268.200  0.500  2.225448  74.0374  122.101  13.1892
  11268.485  11268.500  0.500  2.226080  74.0203  122.087  13.1794
  11268.778  11268.800  0.500  2.226717  74.0186  122.08  13.1702
  11269.070  11269.100  0.500  2.227347  74.0187  122.079  13.1618
  11269.374  11269.400  0.500  2.228264  74.0151  122.08  13.1498
  11269.661  11269.700  0.500  2.229085  74.0035  122.055  13.1364
  11269.992  11270.000  0.500  2.230162  73.9939  122.043  13.121
  11270.273  11270.300  0.500  2.231148  73.9917  122.034  13.1071
  11270.588  11270.600  0.500  2.232527  73.9797  122.013  13.0867
  11270.880  11270.900  0.500  2.233746  73.9775  122.012  13.0707
  11271.184  11271.200  0.500  2.235434  73.9623  121.99  13.0463
  11271.487  11271.500  0.500  2.237329  73.9553  121.981  13.0207
  11271.797  11271.800  0.500  2.239267  73.946  121.966  12.9939
  11272.084  11272.100  0.500  2.241455  73.95  121.987  12.9677
  11272.398  11272.400  0.500  2.243982  73.9331  121.959  12.932
  11272.691  11272.700  0.500  2.246551  73.9288  121.944  12.8972
  11272.989  11273.000  0.500  2.249385  73.9152  121.927  12.8589
  11273.293  11273.300  0.500  2.252163  73.9129  121.918  12.8223
  11273.597  11273.600  0.500  2.255335  73.9165  121.934  12.7834
  11273.889  11273.900  0.500  2.258021  73.9006  121.913  12.7469
  11274.193  11274.200  0.500  2.260934  73.894  121.903  12.7088
  11274.486  11274.500  0.500  2.263373  74.113  122.267  12.7157
  11274.795  11274.800  0.500  2.265945  74.1185  122.279  12.6842
  11275.082  11275.100  0.500  2.268423  74.1189  122.283  12.6532
  11275.386  11275.400  0.500  2.270631  74.1174  122.277  12.6247
  11275.673  11275.700  0.500  2.272990  74.1064  122.262  12.5935
  11275.983  11276.000  0.500  2.275349  74.1068  122.261  12.5637
  11276.275  11276.300  0.500  2.277602  74.0992  122.242  12.5334
  11276.574  11276.600  0.500  2.279923  74.0994  122.254  12.5056
  11276.878  11276.900  0.500  2.282309  74.0846  122.237  12.4741
  11277.193  11277.200  0.500  2.284691  74.0761  122.227  12.4434
  11277.474  11277.500  0.500  2.286864  74.0783  122.228  12.4165
  11277.801  11277.800  0.500  2.289118  74.0665  122.212  12.3869
  11278.088  11278.100  0.500  2.291264  74.0526  122.199  12.3591
  11278.408  11278.400  0.500  2.293469  74.0507  122.187  12.3306
  11278.685  11278.700  0.500  2.295375  74.0475  122.176  12.306
  11279.005  11279.000  0.500  2.297857  74.0443  122.17  12.2749
  11279.293  11279.300  0.500  2.300082  74.0302  122.147  12.2453
  11279.608  11279.600  0.500  2.302468  74.0304  122.151  12.2165
  11279.890  11279.900  0.500  2.304808  74.0151  122.126  12.1855
  11280.188  11280.200  0.500  2.307646  74.0119  122.126  12.1509
  11280.493  11280.500  0.500  2.310355  74.0046  122.109  12.1163
  11280.802  11280.800  0.500  2.313578  73.9974  122.1  12.0765
  11281.095  11281.100  0.500  2.316841  73.9941  122.108  12.038
  11281.410  11281.400  0.500  2.320485  73.9802  122.09  11.9924
  11281.687  11281.700  0.500  2.324015  73.9731  122.08  11.9491
  11281.975  11282.000  0.500  2.328053  73.964  122.052  11.8983
  11282.400  11282.300  0.500  2.334401  73.9648  122.071  11.8248
  11282.544  11282.600  0.500  2.336827  73.9278  122.018  11.7911
  11282.942  11282.900  0.500  2.343588  73.9069  121.983  11.7082
  11283.241  11283.200  0.500  2.349043  73.9054  121.97  11.6433
  11283.551  11283.500  0.500  2.355078  73.8982  121.966  11.5729
  11283.839  11283.800  0.500  2.360802  73.8915  121.945  11.5048
  11284.132  11284.100  0.500  2.366880  73.8805  121.941  11.4347
  11284.436  11284.400  0.500  2.373314  73.8745  121.936  11.361
  11284.735  11284.700  0.500  2.379504  73.871  121.928  11.2901
  11285.039  11285.000  0.500  2.385976  73.8628  121.916  11.2162
  11285.338  11285.300  0.500  2.392442  73.8533  121.9  11.1424
  11285.626  11285.600  0.500  2.398703  73.8537  121.896  11.0725
  11285.925  11285.900  0.500  2.405041  73.8436  121.879  11.001
  11286.240  11286.200  0.500  2.411418  73.839  121.877  10.9309
  11286.528  11286.500  0.500  2.417261  73.8251  121.864  10.8661
  11286.821  11286.800  0.500  2.422820  73.8208  121.864  10.8059
  11287.131  11287.100  0.500  2.428487  73.8087  121.848  10.7434
  11287.441  11287.400  0.500  2.433833  73.8037  121.833  10.6848
  11287.724  11287.700  0.500  2.438798  73.7909  121.81  10.6299
  11288.028  11288.000  0.500  2.443516  73.7931  121.812  10.58
  11288.344  11288.300  0.500  2.448142  73.7813  121.8  10.5301
  11288.632  11288.600  0.500  2.451966  73.7718  121.779  10.4881
  11288.920  11288.900  0.500  2.455890  73.7614  121.777  10.4469
  11289.224  11289.200  0.500  2.459494  73.7499  121.75  10.407
  11289.512  11289.500  0.500  2.462693  73.7498  121.764  10.375
  11289.806  11289.800  0.500  2.465480  73.7185  121.699  10.3405
  11290.127  11290.100  0.500  2.468155  73.6968  121.661  10.3097
  11290.421  11290.400  0.500  2.470474  73.6747  121.627  10.283
  11290.714  11290.700  0.500  2.472164  73.6637  121.607  10.2639
  11291.019  11291.000  0.500  2.473611  73.6445  121.593  10.2478
  11291.324  11291.300  0.500  2.474636  73.6257  121.565  10.235
  11291.606  11291.600  0.500  2.475324  73.6146  121.542  10.226
  11291.922  11291.900  0.500  2.475568  73.6136  121.537  10.2231
  11292.221  11292.200  0.500  2.475811  73.6056  121.52  10.2192
  11292.509  11292.500  0.500  2.475456  73.595  121.509  10.2219
  11292.808  11292.800  0.500  2.475113  73.5894  121.505  10.2251
  11293.108  11293.100  0.500  2.474382  73.5829  121.496  10.2318
  11293.401  11293.400  0.500  2.473577  73.5757  121.487  10.2393
  11293.695  11293.700  0.500  2.472640  73.5622  121.467  10.2472
  11294.005  11294.000  0.500  2.471425  73.5553  121.455  10.2586
  11294.305  11294.300  0.500  2.470130  73.5459  121.447  10.2713
  11294.593  11294.600  0.500  2.468725  73.5426  121.435  10.2847
  11294.892  11294.900  0.500  2.467102  73.5273  121.414  10.2996
  11295.203  11295.200  0.500  2.465585  73.5073  121.401  10.3141
  11295.497  11295.500  0.500  2.463864  73.508  121.377  10.3298
  11295.696  11295.700  0.500  2.462747  73.4848  121.337  10.338
  11296.705  11296.690  0.500  2.456480  73.4332  121.267  10.3969
  11297.709  11297.690  0.500  2.450422  73.2986  121.046  10.4411
  11298.741  11298.710  0.500  2.444809  72.4707  119.698  10.3829
  11299.795  11299.760  0.500  2.439655  71.7024  118.431  10.3261
  11300.855  11300.820  0.500  2.435266  72.9888  120.547  10.5569
  11301.926  11301.900  0.500  2.431834  73.4858  121.383  10.6666
  11303.019  11303.000  0.500  2.428637  73.4814  121.38  10.7005
  11304.141  11304.120  0.500  2.425970  73.4502  121.334  10.725
  11305.268  11305.260  0.500  2.422345  73.4232  121.286  10.7597
  11306.407  11306.410  0.500  2.417743  73.3974  121.26  10.807
  11307.618  11307.590  0.500  2.411775  73.3609  121.214  10.8676
  11308.807  11308.780  0.500  2.405571  73.3341  121.165  10.9308
  11310.030  11310.000  0.500  2.398825  73.3032  121.127  11.0013
  11311.242  11311.230  0.500  2.392724  73.281  121.097  11.0659
  11312.515  11312.480  0.500  2.387029  73.2525  121.049  11.1247
  11313.772  11313.750  0.500  2.382408  73.2182  120.99  11.1707
  11315.046  11315.040  0.500  2.378945  73.1818  120.944  11.2053
  11316.354  11316.350  0.500  2.376129  73.1311  120.88  11.2309
  11317.700  11317.680  0.500  2.373401  73.0617  120.767  11.251
  11319.036  11319.030  0.500  2.370964  72.7439  120.237  11.229
  11320.417  11320.400  0.500  2.369125  72.7267  120.222  11.2482
  11321.799  11321.780  0.500  2.368074  71.314  117.885  11.0412
  11323.214  11323.190  0.500  2.367039  71.6078  118.4  11.1009
  11324.635  11324.610  0.500  2.366818  73.16  120.968  11.3442
  11326.050  11326.050  0.500  2.366822  73.1136  120.899  11.3377
  11327.522  11327.510  0.500  2.367244  73.0049  120.727  11.3168
  11329.000  11328.990  0.500  2.367855  72.5836  120.034  11.2449
  11330.512  11330.490  0.500  2.369260  72.9362  120.619  11.2839
  11332.030  11332.010  0.500  2.371110  72.9358  120.65  11.2659
  11333.570  11333.550  0.500  2.373240  72.8781  120.558  11.2334
  11335.144  11335.110  0.500  2.375833  72.8109  120.457  11.1949
  11336.674  11336.680  0.500  2.378455  72.7301  120.321  11.153
  11338.289  11338.280  0.500  2.381239  72.5308  119.99  11.0914
  11339.898  11339.890  0.500  2.384466  70.9825  117.441  10.8208
  11341.552  11341.530  0.500  2.387137  72.2976  119.623  10.9924
  11343.213  11343.180  0.500  2.389660  72.665  120.237  11.021
  11344.874  11344.850  0.500  2.391530  72.5554  120.065  10.9847
  11346.547  11346.540  0.500  2.392839  72.265  119.584  10.9264
  11348.259  11348.250  0.500  2.393568  72.2518  119.582  10.9182
  11349.977  11349.980  0.500  2.393438  72.0811  119.303  10.8942
  11351.736  11351.730  0.500  2.393059  72.1462  119.42  10.909
  11353.494  11353.490  0.500  2.392313  71.851  118.957  10.8748
  11355.299  11355.280  0.500  2.391138  71.0852  117.686  10.7713
  11357.098  11357.080  0.500  2.389680  66.0305  109.327  10.0208
  11358.920  11358.910  0.500  2.387181  62.2055  103.002  9.464675
  11360.743  11360.750  0.500  2.384914  72.589  120.205  11.0706
  11362.616  11362.610  0.500  2.382722  72.853  120.646  11.1355
  11364.502  11364.490  0.500  2.380835  72.7252  120.449  11.1384
  11366.394  11366.390  0.500  2.379633  72.3929  119.908  11.1016
  11368.309  11368.310  0.500  2.378640  72.4052  119.94  11.1156
  11370.270  11370.250  0.500  2.377953  72.208  119.618  11.0934
  11372.231  11372.210  0.500  2.376830  72.3782  119.918  11.1337
  11374.187  11374.180  0.500  2.375024  72.1536  119.553  11.1199
  11376.178  11376.180  0.500  2.372854  70.5773  116.95  10.9014
  11378.187  11378.190  0.500  2.370171  72.49  120.127  11.2276
  11380.241  11380.220  0.500  2.367737  72.5018  120.166  11.2587
  11382.301  11382.280  0.500  2.365481  72.4425  120.087  11.2767
  11384.363  11384.350  0.500  2.363436  72.378  119.987  11.2904
  11386.442  11386.440  0.500  2.361296  72.284  119.838  11.3005
  11388.566  11388.550  0.500  2.359082  71.8824  119.185  11.2638
  11390.698  11390.680  0.500  2.357035  72.1591  119.651  11.331
  11392.818  11392.820  0.500  2.355104  71.6649  118.84  11.2759
  11395.002  11394.990  0.500  2.353484  70.466  116.864  11.1064
  11397.209  11397.180  0.500  2.352713  72.1588  119.691  11.3839
  11399.395  11399.380  0.500  2.352053  72.1206  119.631  11.3857
  11401.620  11401.600  0.500  2.351928  72.1194  119.641  11.3881
  11403.847  11403.850  0.500  2.351970  72.0592  119.547  11.3786
  11406.126  11406.110  0.500  2.352346  72.0007  119.468  11.3668
  11408.422  11408.390  0.500  2.352962  71.9487  119.384  11.3519
  11410.697  11410.690  0.500  2.353671  71.8846  119.306  11.3364
  11413.000  11413.010  0.500  2.354429  71.8218  119.2  11.3178
  11415.368  11415.350  0.500  2.355050  71.6834  118.996  11.2914
  11417.724  11417.700  0.500  2.355017  70.019  116.23  11.0293
  11420.094  11420.080  0.500  2.354583  71.7463  119.115  11.3079
  11422.481  11422.470  0.500  2.354034  71.7246  119.097  11.3125
  11424.914  11424.890  0.500  2.353438  71.6649  119.006  11.3106
  11427.332  11427.320  0.500  2.352301  71.6109  118.922  11.3154
  11429.773  11429.770  0.500  2.351093  71.5652  118.848  11.3221
  11432.261  11432.250  0.500  2.349294  71.5085  118.782  11.3361
  11434.756  11434.740  0.500  2.347066  71.4576  118.715  11.355
  11437.263  11437.250  0.500  2.344896  71.4097  118.642  11.3727
  11439.771  11439.770  0.500  2.342731  71.3582  118.578  11.3912
  11442.326  11442.320  0.500  2.340850  71.3113  118.514  11.4065
  11444.916  11444.890  0.500  2.338956  71.2605  118.441  11.421
  11447.490  11447.470  0.500  2.337472  71.214  118.364  11.4306
  11450.089  11450.080  0.500  2.336424  71.1601  118.298  11.4362
  11452.705  11452.700  0.500  2.335791  71.1072  118.222  11.4361
  11455.368  11455.350  0.500  2.335121  71.0547  118.149  11.4367
  11458.016  11458.010  0.500  2.334424  71.0088  118.071  11.4371
  11460.711  11460.690  0.500  2.333452  70.9566  118.005  11.4418
  11463.406  11463.390  0.500  2.332137  70.8978  117.931  11.4497
  11466.126  11466.110  0.500  2.330685  70.8463  117.854  11.4588
  11468.865  11468.850  0.500  2.329100  70.7866  117.762  11.4681
  11471.616  11471.600  0.500  2.327526  70.7143  117.648  11.475
  11474.408  11474.380  0.500  2.326235  70.6017  117.495  11.4748
  11477.179  11477.170  0.500  2.324811  69.5154  115.695  11.3152
  11480.020  11479.990  0.500  2.323323  70.6133  117.522  11.511
  11482.840  11482.820  0.500  2.322048  70.6471  117.597  11.533
  11485.667  11485.670  0.500  2.320396  70.5719  117.497  11.5423
  11488.570  11488.550  0.500  2.318505  70.5009  117.393  11.5539
  11491.462  11491.440  0.500  2.316817  70.4388  117.3  11.5642
  11494.345  11494.350  0.500  2.315076  70.3856  117.219  11.5764
  11497.304  11497.270  0.500  2.313454  70.3225  117.14  11.5874
  11500.242  11500.220  0.500  2.312062  70.2619  117.052  11.5948
  11503.192  11503.190  0.500  2.311228  70.2086  116.968  11.5961
  11506.179  11506.170  0.500  2.310637  70.1502  116.882  11.5945
  11509.196  11509.180  0.500  2.309889  70.0963  116.801  11.5951
  11512.209  11512.200  0.500  2.309144  70.035  116.722  11.5959
  11515.275  11515.250  0.500  2.308127  69.982  116.643  11.5998
  11518.320  11518.310  0.500  2.307203  69.9192  116.551  11.6014
  11521.390  11521.390  0.500  2.306217  69.8611  116.476  11.6054
  11524.519  11524.490  0.500  2.305160  69.8024  116.389  11.6089
  11527.620  11527.610  0.500  2.304080  69.7407  116.299  11.6125
  11530.753  11530.750  0.500  2.302804  69.6785  116.216  11.6191
  11533.933  11533.900  0.500  2.301390  69.6163  116.123  11.6262
  11537.081  11537.080  0.500  2.299887  69.5482  116.028  11.6342
  11540.282  11540.270  0.500  2.298432  69.4725  115.915  11.6397
  11543.503  11543.490  0.500  2.297058  69.4014  115.816  11.6458
  11546.737  11546.720  0.500  2.295559  69.315  115.676  11.6491
  11549.979  11549.970  0.500  2.293906  69.2305  115.546  11.6553
  11553.263  11553.250  0.500  2.292218  69.1193  115.381  11.6584
  11556.555  11556.540  0.500  2.290475  68.9687  115.147  11.655
  11559.877  11559.850  0.500  2.288766  68.7079  114.728  11.6324
  11563.173  11563.170  0.500  2.287180  68.0321  113.62  11.5384
  11566.529  11566.520  0.500  2.285595  67.2167  112.276  11.42
  11569.898  11569.890  0.500  2.283913  67.5267  112.822  11.4948
  11573.293  11573.270  0.500  2.282482  67.6549  113.046  11.5341
  11576.689  11576.680  0.500  2.280945  67.6374  113.022  11.5494
  11580.123  11580.100  0.500  2.279896  67.5359  112.874  11.5464
  11583.576  11583.550  0.500  2.278330  67.5213  112.868  11.5639
  11587.002  11587.010  0.500  2.277218  67.5025  112.858  11.5758
  11590.507  11590.490  0.500  2.275994  67.4147  112.728  11.5766
  11594.007  11593.990  0.500  2.274629  67.2928  112.533  11.5724
  11597.539  11597.510  0.500  2.273286  67.2736  112.512  11.5857
  11601.061  11601.050  0.500  2.271799  67.2684  112.52  11.6038
  11604.615  11604.600  0.500  2.270098  67.2277  112.474  11.6188
  11608.206  11608.180  0.500  2.268342  67.1916  112.429  11.6345
  11611.788  11611.780  0.500  2.266465  67.1172  112.303  11.6433
  11615.419  11615.390  0.500  2.264796  67.0141  112.164  11.6484
  11619.023  11619.020  0.500  2.263294  66.9267  112.041  11.653
  11622.717  11622.680  0.500  2.261559  66.8764  111.96  11.6649
  11626.361  11626.350  0.500  2.259987  66.8353  111.91  11.6781
  11630.083  11630.040  0.500  2.258422  66.7978  111.871  11.6923
  11633.773  11633.750  0.500  2.256567  66.7584  111.808  11.7073
  11637.506  11637.480  0.500  2.254696  66.712  111.749  11.7231
  11641.253  11641.220  0.500  2.252993  66.6725  111.703  11.7382
  11645.009  11644.990  0.500  2.251341  66.6317  111.645  11.7515
  11648.797  11648.780  0.500  2.249801  66.5715  111.563  11.761
  11652.587  11652.580  0.500  2.248351  66.3921  111.288  11.749
  11656.433  11656.410  0.500  2.246700  66.4176  111.336  11.7735
  11660.258  11660.250  0.500  2.245504  66.1806  110.965  11.7483
  11664.132  11664.110  0.500  2.244007  66.2493  111.083  11.7784
  11668.004  11667.990  0.500  2.242674  66.0884  110.829  11.7671
  11671.908  11671.890  0.500  2.240854  66.1272  110.907  11.7969
  11675.838  11675.810  0.500  2.239368  66.0785  110.849  11.8083
  11679.776  11679.750  0.500  2.237655  65.9369  110.643  11.8066
  11683.741  11683.710  0.500  2.235841  65.9516  110.666  11.8304
  11687.709  11687.680  0.500  2.234105  65.874  110.557  11.8394
  11691.721  11691.680  0.500  2.232349  65.8135  110.482  11.852
  11695.730  11695.690  0.500  2.230591  65.7488  110.395  11.8636
  11699.760  11699.730  0.500  2.228946  65.6842  110.305  11.8734
  11703.799  11703.780  0.500  2.227014  65.2919  109.646  11.8253
  11707.864  11707.850  0.500  2.225175  65.5581  110.116  11.8979
  11711.950  11711.940  0.500  2.223285  65.4914  110.009  11.9088
  11716.074  11716.050  0.500  2.221716  65.4267  109.918  11.9176
  11720.196  11720.180  0.500  2.220265  65.3565  109.837  11.9262
  11724.356  11724.330  0.500  2.218685  65.2764  109.716  11.9318
  11728.502  11728.490  0.500  2.217062  65.1963  109.604  11.9391
  11732.710  11732.680  0.500  2.215596  65.1229  109.489  11.944
  11736.904  11736.880  0.500  2.214036  65.0228  109.341  11.9465
  11741.130  11741.110  0.500  2.212280  64.9861  109.295  11.9624
  11745.384  11745.350  0.500  2.210610  64.8465  109.074  11.9582
  11749.634  11749.610  0.500  2.208796  64.8246  109.06  11.9784
  11753.906  11753.890  0.500  2.206926  64.7622  108.977  11.9916
  11758.205  11758.190  0.500  2.205070  64.4833  108.53  11.9646
  11762.526  11762.510  0.500  2.203003  64.6196  108.767  12.0156
  11766.861  11766.850  0.500  2.200854  64.5718  108.705  12.0345
  11771.224  11771.210  0.500  2.198736  64.3827  108.404  12.0267
  11775.614  11775.590  0.500  2.196693  64.3601  108.387  12.0494
  11780.014  11779.980  0.500  2.194665  64.3608  108.402  12.0755
  11784.417  11784.400  0.500  2.192468  64.2996  108.324  12.0934
  11788.842  11788.830  0.500  2.190801  64.2257  108.213  12.1011
  11793.300  11793.280  0.500  2.189032  64.1503  108.104  12.1103
  11797.773  11797.750  0.500  2.187359  64.0805  107.995  12.1184
  11802.269  11802.240  0.500  2.185842  63.9978  107.883  12.1242
  11806.755  11806.750  0.500  2.184090  63.8089  107.575  12.1108
  11811.306  11811.280  0.500  2.182389  63.8285  107.636  12.1384
  11815.848  11815.830  0.500  2.180851  63.7545  107.53  12.145
  11820.443  11820.400  0.500  2.179037  63.6801  107.421  12.1548
  11825.004  11824.980  0.500  2.177370  63.5988  107.302  12.1615
  11829.618  11829.590  0.500  2.175582  63.3278  106.858  12.1329
  11834.223  11834.210  0.500  2.173643  63.4622  107.109  12.185
  11838.893  11838.860  0.500  2.171902  63.4098  107.033  12.1976
  11843.543  11843.520  0.500  2.169941  63.3353  106.932  12.21
  11848.220  11848.200  0.500  2.167748  63.0676  106.491  12.1863
  11852.938  11852.900  0.500  2.165728  63.19  106.72  12.2372
  11857.641  11857.620  0.500  2.163729  63.0574  106.511  12.2377
  11862.397  11862.360  0.500  2.161699  62.8477  106.166  12.2228
  11867.126  11867.110  0.500  2.159695  62.9532  106.365  12.2703
  11871.927  11871.890  0.500  2.157605  62.8146  106.164  12.2728
  11876.713  11876.690  0.500  2.155605  62.8088  106.167  12.2976
  11881.534  11881.500  0.500  2.153620  62.7039  106.013  12.3042
  11886.346  11886.330  0.500  2.151594  62.3049  105.354  12.2525
  11891.212  11891.190  0.500  2.149517  62.5615  105.81  12.3311
  11896.087  11896.060  0.500  2.147788  62.4839  105.692  12.3387
  11900.980  11900.950  0.500  2.145864  62.0451  104.968  12.2777
  11905.900  11905.860  0.500  2.143990  62.3053  105.437  12.3558
  11910.807  11910.790  0.500  2.142127  62.2522  105.362  12.37
  11915.767  11915.730  0.500  2.140457  61.9963  104.938  12.3408
  11920.731  11920.700  0.500  2.138455  62.0752  105.105  12.3852
  11925.718  11925.690  0.500  2.136353  62.0176  105.023  12.4016
  11930.716  11930.690  0.500  2.134341  61.9322  104.89  12.4108
  11935.755  11935.720  0.500  2.131941  61.3906  103.982  12.3329
  11940.792  11940.760  0.500  2.129945  61.7751  104.659  12.4381
  11945.845  11945.820  0.500  2.127896  61.689  104.538  12.4491
  11950.928  11950.900  0.500  2.125683  61.6181  104.429  12.4638
  11956.022  11956.000  0.500  2.123742  61.5423  104.324  12.4754
  11961.157  11961.120  0.500  2.121671  61.4501  104.18  12.484
  11966.285  11966.260  0.500  2.119613  61.3863  104.097  12.4998
  11971.466  11971.420  0.500  2.117693  61.4649  104.247  12.5419
  11976.628  11976.600  0.500  2.115668  61.3968  104.146  12.555
  11981.818  11981.790  0.500  2.113803  61.3094  104.013  12.5625
  11987.026  11987.010  0.500  2.111813  61.2284  103.902  12.5741
  11992.276  11992.240  0.500  2.109790  61.1509  103.79  12.586
  11997.512  11997.490  0.500  2.107686  61.0768  103.684  12.5996
  12002.790  12002.760  0.500  2.105696  60.9917  103.556  12.6091
  12008.092  12008.050  0.500  2.103803  60.9023  103.428  12.6174
  12013.405  12013.360  0.500  2.101766  60.8186  103.306  12.6281
  12018.729  12018.690  0.500  2.099552  60.7408  103.197  12.6428
  12024.082  12024.040  0.500  2.097323  60.6573  103.068  12.6552
  12029.441  12029.410  0.500  2.095090  60.5735  102.938  12.6675
  12034.836  12034.790  0.500  2.092985  60.484  102.806  12.6779
  12040.248  12040.200  0.500  2.090936  60.3745  102.647  12.6843
  12045.653  12045.620  0.500  2.088583  60.1473  102.271  12.6676
  12051.101  12051.070  0.500  2.086464  60.1098  102.23  12.6893
  12056.566  12056.530  0.500  2.084145  60.1049  102.23  12.7188
  12062.056  12062.010  0.500  2.082223  60.0405  102.147  12.733
  12067.544  12067.510  0.500  2.079860  59.943  101.998  12.7444
  12073.075  12073.030  0.500  2.077685  59.852  101.868  12.7559
  12078.611  12078.570  0.500  2.075728  59.7678  101.744  12.7653
  12084.172  12084.120  0.500  2.073489  59.6789  101.604  12.7764
  12089.731  12089.700  0.500  2.071477  59.5902  101.471  12.7853
  12095.353  12095.300  0.500  2.069553  59.5264  101.389  12.7996
  12100.942  12100.910  0.500  2.067514  59.4354  101.244  12.8073
  12106.600  12106.550  0.500  2.065533  59.3366  101.106  12.8152
  12112.238  12112.200  0.500  2.063413  59.2531  100.975  12.8258
  12117.900  12117.870  0.500  2.061428  59.1664  100.855  12.836
  12123.606  12123.560  0.500  2.059115  59.0544  100.681  12.8436