File: xdidata/Co/Co-K-CobaltAluminate.xdi
# XDI/1.0 BlueSky/1.10.0 BMM/2023-1.0-py310-tiled
# Beamline.name: BMM (06BM) -- Beamline for Materials Measurement (NIST)
# Beamline.xray_source: NSLS-II three-pole wiggler
# Beamline.collimation: paraboloid mirror, 5 nm Rh on 30 nm Pt
# Beamline.focusing: not in use
# Beamline.harmonic_rejection: flat mirror, Si stripe, pitch = 7.0 mrad relative to beam
# Beamline.software: Bluesky 1.10.0, Ophyd 1.7.0, DataBroker 2.0.0b13, Python 3.10.8, 2023-1.0-py310-tiled
# Detector.I0: 10 cm N2
# Detector.I1: 25 cm N2
# Detector.I2: 25 cm N2
# Element.symbol: Co
# Element.edge: K
# Element.reference: Co
# Element.reference_material: Co foil
# Facility.name: NSLS-II
# Facility.energy: 3.0
# Facility.current: 399.4
# Facility.mode: top-off
# Facility.GUP: 301027
# Facility.SAF: 310583
# Facility.cycle: 2023-2
# Mono.name: Si(111)
# Mono.d_spacing: 3.13519
# Mono.encoder_resolution: 0.0000050 deg/ct
# Mono.angle_offset: 16.0754 deg
# Mono.scan_mode: pseudo channel cut
# Mono.scan_type: step
# Mono.direction: forward in energy
# Sample.name: CoAlO3
# Sample.prep: powder on tape
# Sample.x: 117.785 mm
# Sample.y: 114.695 mm
# Sample.SDD_position: 205.000 mm
# Scan.experimenters: Bruce Ravel
# Scan.edge_energy: 7708.9
# Scan.start_time: 2023-06-23T15:11:46
# Scan.end_time: 2023-06-23T15:20:04
# Scan.transient_id: 84838
# Scan.uid: fd264746-c7ac-4669-8114-d70a649346df
# Scan.plot_hint: ln(I0/It)  --  ln($5/$6)
# Column.1: energy eV
# Column.2: requested_energy eV
# Column.3: measurement_time seconds
# Column.4: xmu
# Column.5: I0 nA
# Column.6: It nA
# Column.7: Ir nA
# ///////////
# BMM standards collection
# -----------
# energy  requested_energy  measurement_time  xmu  I0  It  Ir
  7508.899  7508.900  0.500  1.171692  147.423  45.6778  17.4648
  7518.913  7518.900  0.500  1.164480  147.339  45.9823  17.6476
  7528.917  7528.900  0.500  1.157297  147.192  46.2675  17.8232
  7538.920  7538.900  0.500  1.150318  147.05  46.5467  17.9988
  7548.906  7548.900  0.500  1.143041  146.903  46.8398  18.1805
  7558.906  7558.900  0.500  1.135867  146.761  47.1313  18.3621
  7568.901  7568.900  0.500  1.128740  146.642  47.43  18.5462
  7578.911  7578.900  0.500  1.121835  146.509  47.7152  18.7262
  7588.907  7588.900  0.500  1.114851  146.282  47.9754  18.8974
  7598.920  7598.900  0.500  1.107875  145.991  48.2148  19.0627
  7608.927  7608.900  0.500  1.100864  145.321  48.3313  19.176
  7618.914  7618.900  0.500  1.094162  145.286  48.6446  19.3699
  7628.913  7628.900  0.500  1.087536  145.528  49.0495  19.5983
  7638.919  7638.900  0.500  1.080684  145.384  49.3379  19.7823
  7648.923  7648.900  0.500  1.073874  145.203  49.6134  19.9602
  7658.914  7658.900  0.500  1.067262  145.035  49.8845  20.1327
  7668.922  7668.900  0.500  1.060657  144.867  50.157  20.3045
  7678.909  7678.900  0.500  1.054259  144.641  50.4004  20.4602
  7680.901  7680.900  0.500  1.052910  144.566  50.4422  20.4871
  7682.899  7682.900  0.500  1.051719  144.526  50.4882  20.5169
  7684.893  7684.900  0.500  1.050475  144.435  50.5191  20.5371
  7686.896  7686.900  0.500  1.049189  144.171  50.4919  20.534
  7688.893  7688.900  0.500  1.048067  143.357  50.2631  20.4483
  7690.903  7690.900  0.500  1.046793  144.527  50.7379  20.6475
  7692.894  7692.900  0.500  1.045573  144.45  50.7728  20.6635
  7694.901  7694.900  0.500  1.044401  144.377  50.8066  20.6785
  7696.897  7696.900  0.500  1.043331  144.341  50.8484  20.6908
  7698.901  7698.900  0.500  1.042284  144.244  50.8674  20.6867
  7699.179  7699.200  0.500  1.042175  144.267  50.8811  20.6921
  7699.480  7699.500  0.500  1.042162  144.24  50.8723  20.6887
  7699.776  7699.800  0.500  1.041908  144.222  50.8788  20.6858
  7700.085  7700.100  0.500  1.041781  144.231  50.8882  20.6884
  7700.380  7700.400  0.500  1.041678  144.206  50.885  20.6823
  7700.676  7700.700  0.500  1.041532  144.196  50.8889  20.6818
  7700.980  7701.000  0.500  1.041276  144.18  50.896  20.6817
  7701.281  7701.300  0.500  1.041196  144.162  50.8939  20.6747
  7701.577  7701.600  0.500  1.041174  144.154  50.8923  20.6718
  7701.878  7701.900  0.500  1.040977  144.136  50.8958  20.6651
  7702.179  7702.200  0.500  1.040847  144.126  50.899  20.6635
  7702.483  7702.500  0.500  1.040741  144.061  50.8815  20.6489
  7702.779  7702.800  0.500  1.040645  144.069  50.8889  20.6471
  7703.085  7703.100  0.500  1.040545  144.058  50.8901  20.6404
  7703.381  7703.400  0.500  1.040444  144.042  50.8897  20.6318
  7703.690  7703.700  0.500  1.040346  144.05  50.8976  20.6254
  7703.991  7704.000  0.500  1.040331  144.012  50.8849  20.6142
  7704.288  7704.300  0.500  1.040169  143.958  50.8739  20.5968
  7704.594  7704.600  0.500  1.040108  143.951  50.8748  20.5842
  7704.893  7704.900  0.500  1.040103  143.899  50.8565  20.5638
  7705.189  7705.200  0.500  1.040056  143.868  50.8478  20.5451
  7705.498  7705.500  0.500  1.039993  143.771  50.8167  20.5148
  7705.794  7705.800  0.500  1.040044  143.688  50.785  20.4835
  7706.086  7706.100  0.500  1.039985  143.345  50.6666  20.4128
  7706.387  7706.400  0.500  1.040051  142.303  50.2951  20.237
  7706.691  7706.700  0.500  1.040085  140.881  49.7908  20.0004
  7706.988  7707.000  0.500  1.040286  140.458  49.6312  19.8992
  7707.284  7707.300  0.500  1.040522  141.482  49.9814  19.9927
  7707.591  7707.600  0.500  1.040863  142.952  50.4835  20.1358
  7707.895  7707.900  0.500  1.041309  143.901  50.7961  20.1824
  7708.191  7708.200  0.500  1.042120  144.101  50.8252  20.0944
  7708.495  7708.500  0.500  1.043342  144.072  50.753  19.922
  7708.797  7708.800  0.500  1.045274  144.053  50.6483  19.6723
  7709.091  7709.100  0.500  1.048304  144.034  50.4884  19.3263
  7709.395  7709.400  0.500  1.052907  144  50.2447  18.8553
  7709.695  7709.700  0.500  1.057384  143.98  50.0134  18.3426
  7709.996  7710.000  0.500  1.060296  143.965  49.8627  17.8496
  7710.288  7710.300  0.500  1.060168  143.934  49.8583  17.4323
  7710.595  7710.600  0.500  1.057379  143.927  49.9951  17.0827
  7710.887  7710.900  0.500  1.053674  143.905  50.1731  16.7757
  7711.196  7711.200  0.500  1.050642  143.9  50.3238  16.4691
  7711.495  7711.500  0.500  1.048869  143.883  50.4071  16.1742
  7711.802  7711.800  0.500  1.048141  143.864  50.4372  15.8946
  7712.104  7712.100  0.500  1.047523  143.841  50.4602  15.6539
  7712.401  7712.400  0.500  1.047063  143.835  50.4814  15.4668
  7712.706  7712.700  0.500  1.046607  143.826  50.5011  15.3163
  7712.997  7713.000  0.500  1.046379  143.803  50.5048  15.202
  7713.299  7713.300  0.500  1.046381  144.37  50.7037  15.1705
  7713.599  7713.600  0.500  1.046844  144.389  50.687  15.1034
  7713.896  7713.900  0.500  1.047400  144.378  50.6549  15.0513
  7714.195  7714.200  0.500  1.048416  144.359  50.5968  14.9996
  7714.498  7714.500  0.500  1.049613  144.342  50.5302  14.9493
  7714.800  7714.800  0.500  1.050973  144.335  50.4592  14.885
  7715.102  7715.100  0.500  1.053008  144.322  50.3522  14.7935
  7715.401  7715.400  0.500  1.055547  144.298  50.216  14.6683
  7715.704  7715.700  0.500  1.058755  144.292  50.053  14.507
  7716.006  7716.000  0.500  1.062698  144.275  49.8501  14.3137
  7716.295  7716.300  0.500  1.067299  144.264  49.6176  14.0984
  7716.595  7716.600  0.500  1.073293  144.24  49.3129  13.8514
  7716.890  7716.900  0.500  1.081077  144.224  48.925  13.5859
  7717.195  7717.200  0.500  1.090857  144.199  48.4405  13.2961
  7717.497  7717.500  0.500  1.102903  144.178  47.8537  12.986
  7717.802  7717.800  0.500  1.117591  144.177  47.1555  12.657
  7718.107  7718.100  0.500  1.134812  144.155  46.3433  12.3031
  7718.402  7718.400  0.500  1.153361  144.138  45.4863  11.9461
  7718.707  7718.700  0.500  1.173068  144.129  44.5958  11.5778
  7719.007  7719.000  0.500  1.190787  144.083  43.7986  11.2382
  7719.304  7719.300  0.500  1.205366  144.016  43.1447  10.9337
  7719.594  7719.600  0.500  1.215915  143.998  42.6866  10.6805
  7719.896  7719.900  0.500  1.222933  143.925  42.3664  10.4601
  7720.199  7720.200  0.500  1.227397  143.8  42.1414  10.2618
  7720.502  7720.500  0.500  1.230557  143.427  41.8992  10.0575
  7720.797  7720.800  0.500  1.233360  142.351  41.4687  9.807371
  7721.102  7721.100  0.500  1.237167  140.835  40.871  9.514325
  7721.397  7721.400  0.500  1.242596  140.357  40.5119  9.274065
  7721.697  7721.700  0.500  1.249859  141.298  40.4882  9.103734
  7722.005  7722.000  0.500  1.258761  142.899  40.584  8.959412
  7722.295  7722.300  0.500  1.268690  143.907  40.4666  8.774625
  7722.598  7722.600  0.500  1.278716  144.142  40.1282  8.541176
  7722.898  7722.900  0.500  1.287534  144.142  39.776  8.311792
  7723.198  7723.200  0.500  1.294801  144.121  39.4823  8.098811
  7723.491  7723.500  0.500  1.299898  144.088  39.2727  7.907462
  7723.801  7723.800  0.500  1.303058  144.081  39.1468  7.733671
  7724.107  7724.100  0.500  1.304514  144.077  39.0886  7.584516
  7724.402  7724.400  0.500  1.305184  144.039  39.0522  7.457174
  7724.705  7724.700  0.500  1.306049  144.054  39.0225  7.343661
  7725.000  7725.000  0.500  1.308004  144.048  38.9448  7.243261
  7725.298  7725.300  0.500  1.311250  144.036  38.8153  7.150476
  7725.593  7725.600  0.500  1.315997  144.022  38.6276  7.061351
  7725.891  7725.900  0.500  1.322709  144.007  38.3652  6.973854
  7726.200  7726.200  0.500  1.331482  143.947  38.0142  6.882724
  7726.500  7726.500  0.500  1.342284  143.979  37.6144  6.793329
  7726.801  7726.800  0.500  1.355054  143.938  37.1263  6.697303
  7727.104  7727.100  0.500  1.369353  143.954  36.6035  6.601666
  7727.407  7727.400  0.500  1.383834  143.932  36.0717  6.511885
  7727.705  7727.700  0.500  1.397456  143.933  35.5838  6.433224
  7728.003  7728.000  0.500  1.409308  143.92  35.1614  6.370885
  7728.299  7728.300  0.500  1.418635  143.883  34.8261  6.322545
  7728.597  7728.600  0.500  1.425379  143.886  34.5927  6.296822
  7728.895  7728.900  0.500  1.429007  143.867  34.4629  6.288349
  7729.203  7729.200  0.500  1.429768  143.855  34.4337  6.298214
  7729.494  7729.500  0.500  1.428074  143.858  34.4928  6.321108
  7729.800  7729.800  0.500  1.424007  143.853  34.6322  6.357300
  7730.093  7730.100  0.500  1.418400  143.853  34.8271  6.398941
  7730.402  7730.400  0.500  1.411379  143.833  35.0676  6.443021
  7730.700  7730.700  0.500  1.403582  143.813  35.3369  6.487132
  7731.003  7731.000  0.500  1.394761  143.795  35.6455  6.532228
  7731.299  7731.300  0.500  1.385373  143.791  35.9809  6.572936
  7731.598  7731.600  0.500  1.375745  143.785  36.3274  6.608532
  7731.899  7731.900  0.500  1.366497  143.787  36.6654  6.635441
  7732.197  7732.200  0.500  1.358041  143.763  36.9707  6.650678
  7732.495  7732.500  0.500  1.351111  143.763  37.2279  6.652671
  7732.802  7732.800  0.500  1.345674  143.748  37.4268  6.641660
  7733.095  7733.100  0.500  1.341699  143.725  37.57  6.623619
  7733.401  7733.400  0.500  1.338403  143.721  37.6928  6.603860
  7733.707  7733.700  0.500  1.335266  143.7  37.8058  6.586955
  7733.904  7733.900  0.500  1.333372  143.709  37.8799  6.579395
  7734.879  7734.890  0.500  1.322740  143.696  38.2814  6.607428
  7735.916  7735.890  0.500  1.312514  143.619  38.654  6.726373
  7736.899  7736.910  0.500  1.304796  143.549  38.9344  6.872688
  7738.000  7737.960  0.500  1.299144  143.471  39.1338  6.998925
  7738.994  7739.020  0.500  1.298637  143.315  39.1112  7.041345
  7740.131  7740.100  0.500  1.304307  141.603  38.4254  6.955740
  7741.184  7741.200  0.500  1.313024  141.422  38.0432  6.936819
  7742.307  7742.320  0.500  1.319898  143.564  38.355  7.055696
  7743.446  7743.460  0.500  1.317476  143.473  38.4237  7.111908
  7744.597  7744.610  0.500  1.304912  143.444  38.9015  7.228464
  7745.785  7745.790  0.500  1.288291  143.429  39.5494  7.366715
  7746.978  7746.980  0.500  1.273608  143.38  40.1206  7.478388
  7748.195  7748.200  0.500  1.261652  143.359  40.5974  7.548934
  7749.425  7749.430  0.500  1.251031  143.292  41.0117  7.573758
  7750.683  7750.680  0.500  1.240978  143.277  41.4216  7.561078
  7751.950  7751.950  0.500  1.235668  143.257  41.6364  7.485272
  7753.248  7753.240  0.500  1.236534  143.227  41.5915  7.343924
  7754.551  7754.550  0.500  1.241820  143.193  41.3624  7.168146
  7755.886  7755.880  0.500  1.247488  143.149  41.1161  6.988782
  7757.231  7757.230  0.500  1.250300  143.128  40.9945  6.861698
  7758.597  7758.600  0.500  1.250134  143.101  40.9936  6.809235
  7759.980  7759.980  0.500  1.248405  143.068  41.055  6.827012
  7761.391  7761.390  0.500  1.247032  143.022  41.0983  6.895015
  7762.805  7762.810  0.500  1.245957  143.009  41.1387  7.018229
  7764.243  7764.250  0.500  1.244599  142.954  41.1789  7.176452
  7765.715  7765.710  0.500  1.244134  142.93  41.1911  7.339377
  7767.188  7767.190  0.500  1.246017  142.889  41.1017  7.468518
  7768.684  7768.690  0.500  1.249511  142.863  40.9509  7.575375
  7770.214  7770.210  0.500  1.253432  142.797  40.772  7.655479
  7771.753  7771.750  0.500  1.257425  142.779  40.6042  7.700340
  7773.310  7773.310  0.500  1.261475  142.734  40.4275  7.703644
  7774.887  7774.880  0.500  1.264916  142.681  40.2737  7.689028
  7776.487  7776.480  0.500  1.268053  142.659  40.1413  7.686918
  7778.090  7778.090  0.500  1.272313  142.595  39.9527  7.685952
  7779.735  7779.730  0.500  1.277745  142.585  39.7333  7.673882
  7781.397  7781.380  0.500  1.282692  142.554  39.5287  7.644397
  7783.056  7783.050  0.500  1.284860  142.508  39.4303  7.608247
  7784.740  7784.740  0.500  1.283504  142.453  39.4688  7.574759
  7786.456  7786.450  0.500  1.279227  142.407  39.6252  7.563106
  7788.175  7788.180  0.500  1.274021  142.36  39.8188  7.565021
  7789.941  7789.930  0.500  1.268759  142.351  40.0263  7.554675
  7791.700  7791.690  0.500  1.264674  142.317  40.1804  7.514379
  7793.484  7793.480  0.500  1.261474  142.277  40.2981  7.462681
  7795.286  7795.280  0.500  1.258551  142.242  40.4061  7.419463
  7797.123  7797.110  0.500  1.256571  142.173  40.4665  7.362325
  7798.954  7798.950  0.500  1.255780  142.14  40.489  7.285593
  7800.818  7800.810  0.500  1.254541  142.078  40.5216  7.186471
  7802.692  7802.690  0.500  1.252236  142.072  40.6135  7.087596
  7804.606  7804.590  0.500  1.248924  142.011  40.7306  7.004423
  7806.525  7806.510  0.500  1.244811  141.976  40.8885  6.962737
  7808.462  7808.450  0.500  1.239819  141.919  41.0766  6.973583
  7810.415  7810.410  0.500  1.234783  141.893  41.2765  7.040640
  7812.389  7812.380  0.500  1.230419  141.851  41.4446  7.146273
  7814.389  7814.380  0.500  1.227845  141.788  41.5329  7.258993
  7816.397  7816.390  0.500  1.228102  141.738  41.5077  7.364859
  7818.424  7818.420  0.500  1.230460  141.694  41.3971  7.473134
  7820.479  7820.480  0.500  1.232672  141.641  41.2902  7.579527
  7822.556  7822.550  0.500  1.233862  141.603  41.2298  7.668457
  7824.644  7824.640  0.500  1.233394  141.52  41.225  7.765443
  7826.762  7826.750  0.500  1.231054  141.507  41.3179  7.911933
  7828.892  7828.880  0.500  1.227449  141.434  41.4458  8.087105
  7831.029  7831.020  0.500  1.223093  141.224  41.5647  8.250029
  7833.198  7833.190  0.500  1.218462  141.266  41.7703  8.388396
  7835.386  7835.380  0.500  1.213904  141.327  41.9792  8.471944
  7837.589  7837.580  0.500  1.210254  141.275  42.1172  8.490960
  7839.804  7839.800  0.500  1.207742  140.308  41.9341  8.407599
  7842.062  7842.050  0.500  1.206186  141.062  42.225  8.391691
  7844.319  7844.310  0.500  1.205148  141.062  42.269  8.316091
  7846.603  7846.590  0.500  1.204199  139.944  41.9736  8.176167
  7848.894  7848.890  0.500  1.203867  140.901  42.2749  8.180462
  7851.219  7851.210  0.500  1.203852  140.895  42.2736  8.165567
  7853.555  7853.550  0.500  1.204539  140.801  42.2163  8.177352
  7855.918  7855.900  0.500  1.205796  140.662  42.1218  8.195575
  7858.294  7858.280  0.500  1.206950  140.718  42.0899  8.192113
  7860.687  7860.670  0.500  1.207383  140.688  42.0629  8.118384
  7863.095  7863.090  0.500  1.207562  140.635  42.0395  7.971960
  7865.539  7865.520  0.500  1.207638  140.549  42.0103  7.794414
  7867.976  7867.970  0.500  1.207645  140.519  42.0011  7.642267
  7870.463  7870.450  0.500  1.207489  140.439  41.9837  7.537960
  7872.946  7872.940  0.500  1.206229  140.408  42.0275  7.485173
  7875.462  7875.450  0.500  1.204070  140.751  42.2212  7.480720
  7877.980  7877.970  0.500  1.201574  140.722  42.318  7.494610
  7880.529  7880.520  0.500  1.198523  140.646  42.4244  7.558464
  7883.101  7883.090  0.500  1.194748  140.602  42.5714  7.691258
  7885.677  7885.670  0.500  1.190652  140.536  42.726  7.877732
  7888.295  7888.280  0.500  1.186807  140.486  42.8757  8.123504
  7890.909  7890.900  0.500  1.183622  140.411  42.9894  8.402058
  7893.565  7893.550  0.500  1.180992  140.344  43.0819  8.690164
  7896.218  7896.210  0.500  1.178401  140.306  43.1822  8.934602
  7898.907  7898.890  0.500  1.175941  139.844  43.1459  9.062224
  7901.611  7901.590  0.500  1.173743  140.076  43.3125  9.123808
  7904.328  7904.310  0.500  1.171383  140.048  43.4063  9.078361
  7907.060  7907.050  0.500  1.169485  139.987  43.4696  8.980544
  7909.810  7909.800  0.500  1.168281  139.878  43.4883  8.870434
  7912.589  7912.580  0.500  1.167584  139.86  43.5129  8.776568
  7915.389  7915.370  0.500  1.166818  139.791  43.5248  8.705989
  7918.214  7918.190  0.500  1.165057  139.716  43.5782  8.677314
  7921.034  7921.020  0.500  1.162239  139.647  43.6794  8.689380
  7923.894  7923.870  0.500  1.159275  139.569  43.7846  8.723648
  7926.769  7926.750  0.500  1.156577  139.51  43.8844  8.769787
  7929.657  7929.640  0.500  1.154401  139.119  43.8569  8.804289
  7932.571  7932.550  0.500  1.151967  139.299  44.0204  8.893679
  7935.493  7935.470  0.500  1.149168  139.195  44.1109  8.973044
  7938.441  7938.420  0.500  1.146490  138.687  44.0678  8.995127
  7941.400  7941.390  0.500  1.144243  139.284  44.357  9.017328
  7944.391  7944.370  0.500  1.142511  139.126  44.3834  8.927991
  7947.403  7947.380  0.500  1.141286  139.013  44.4017  8.826693
  7950.420  7950.400  0.500  1.140095  138.383  44.2532  8.712711
  7953.477  7953.450  0.500  1.138175  138.746  44.4545  8.688482
  7956.531  7956.510  0.500  1.135414  138.694  44.5609  8.670423
  7959.601  7959.590  0.500  1.132399  138.604  44.6665  8.686841
  7962.712  7962.690  0.500  1.129603  138.489  44.7544  8.747766
  7965.830  7965.810  0.500  1.128087  138.417  44.799  8.852317
  7968.965  7968.950  0.500  1.127719  138.287  44.7732  8.980949
  7972.118  7972.100  0.500  1.127640  138.124  44.7242  9.122372
  7975.299  7975.280  0.500  1.126786  137.977  44.7145  9.262205
  7978.482  7978.470  0.500  1.124943  137.756  44.7253  9.375983
  7981.709  7981.690  0.500  1.122625  137.355  44.6987  9.445376
  7984.933  7984.920  0.500  1.120168  137.529  44.8655  9.521060
  7988.186  7988.170  0.500  1.117696  137.417  44.9397  9.555646
  7991.470  7991.450  0.500  1.115071  137.36  45.0392  9.598291
  7994.757  7994.740  0.500  1.112401  137.271  45.1304  9.642061
  7998.068  7998.050  0.500  1.109489  137.142  45.2194  9.686951
  8001.385  8001.370  0.500  1.106495  137.078  45.334  9.731293
  8004.741  8004.720  0.500  1.103648  136.969  45.4269  9.760034
  8008.115  8008.090  0.500  1.101372  136.978  45.5335  9.776203
  8011.490  8011.470  0.500  1.099569  137.007  45.6253  9.777490
  8014.899  8014.880  0.500  1.097756  136.97  45.6958  9.768979
  8018.315  8018.300  0.500  1.095787  136.924  45.7706  9.765983
  8021.784  8021.750  0.500  1.093424  136.834  45.8484  9.771528
  8025.229  8025.210  0.500  1.090481  136.741  45.9525  9.789981
  8028.707  8028.690  0.500  1.087537  136.636  46.0526  9.805096
  8032.211  8032.190  0.500  1.084672  136.539  46.1519  9.815137
  8035.734  8035.710  0.500  1.081875  136.419  46.2405  9.814549
  8039.274  8039.250  0.500  1.079451  136.303  46.3132  9.802368
  8042.817  8042.800  0.500  1.077588  136.202  46.3653  9.795939
  8046.397  8046.380  0.500  1.075675  136.102  46.4199  9.813355
  8049.996  8049.980  0.500  1.073599  135.961  46.4684  9.857093
  8053.613  8053.590  0.500  1.071379  135.78  46.5095  9.918853
  8057.244  8057.220  0.500  1.069015  135.116  46.3916  9.968960
  8060.896  8060.880  0.500  1.066422  135.833  46.7587  10.1265
  8064.567  8064.550  0.500  1.063590  135.605  46.8127  10.2062
  8068.256  8068.240  0.500  1.060779  135.24  46.8182  10.2525
  8071.974  8071.950  0.500  1.058352  135.307  46.9551  10.3004
  8075.697  8075.680  0.500  1.056129  135.202  47.0232  10.327
  8079.442  8079.420  0.500  1.053808  129.636  45.1921  9.953140
  8083.209  8083.190  0.500  1.051366  135.051  47.1948  10.4528
  8087.002  8086.980  0.500  1.048741  134.827  47.2404  10.541
  8090.799  8090.780  0.500  1.046125  133.41  46.8666  10.5184
  8094.644  8094.610  0.500  1.043938  134.859  47.4791  10.6887
  8098.471  8098.450  0.500  1.041824  134.674  47.5144  10.7201
  8102.336  8102.310  0.500  1.039912  134.521  47.5514  10.7535
  8106.204  8106.190  0.500  1.037779  134.392  47.6072  10.7857
  8110.106  8110.090  0.500  1.035418  134.259  47.6723  10.8136
  8114.024  8114.010  0.500  1.032847  134.138  47.7519  10.8402
  8117.972  8117.950  0.500  1.030443  134.022  47.8257  10.8606
  8121.926  8121.910  0.500  1.028086  133.897  47.8938  10.8766
  8125.898  8125.880  0.500  1.026164  133.743  47.9308  10.885
  8129.891  8129.880  0.500  1.024047  133.604  47.9825  10.8938
  8133.905  8133.890  0.500  1.021541  133.409  48.0327  10.9062
  8137.944  8137.930  0.500  1.018651  133.309  48.1353  10.9321
  8142.000  8141.980  0.500  1.015704  133.134  48.2143  10.9538
  8146.075  8146.050  0.500  1.013017  133.037  48.3086  10.9791
  8150.157  8150.140  0.500  1.010537  132.9  48.3788  11.0099
  8154.274  8154.250  0.500  1.008184  132.727  48.4295  11.046
  8158.390  8158.380  0.500  1.005468  132.537  48.4916  11.0977
  8162.548  8162.530  0.500  1.002927  132.46  48.5871  11.1735
  8166.701  8166.690  0.500  1.000195  132.344  48.6773  11.2501
  8170.893  8170.880  0.500  0.997453  132.206  48.7598  11.3177
  8175.089  8175.080  0.500  0.994558  132.026  48.8347  11.3756
  8179.324  8179.310  0.500  0.991735  131.858  48.9102  11.4204
  8183.561  8183.550  0.500  0.988963  131.707  48.9901  11.4611
  8187.825  8187.810  0.500  0.986289  131.55  49.0626  11.4979
  8192.100  8192.090  0.500  0.983910  131.415  49.1291  11.5391
  8196.397  8196.390  0.500  0.981582  131.255  49.1836  11.5856
  8200.709  8200.710  0.500  0.979277  131.079  49.2311  11.6386
  8205.058  8205.050  0.500  0.976859  130.943  49.2989  11.7004
  8209.415  8209.410  0.500  0.974174  130.781  49.3702  11.7577
  8213.805  8213.790  0.500  0.971465  130.538  49.4124  11.8034
  8218.192  8218.180  0.500  0.968811  130.437  49.5054  11.8623
  8222.615  8222.600  0.500  0.966249  130.266  49.5673  11.9137
  8227.043  8227.030  0.500  0.963624  130.144  49.6511  11.9685
  8231.506  8231.480  0.500  0.961082  129.885  49.6783  12.0054
  8235.973  8235.950  0.500  0.958583  129.786  49.7646  12.0484
  8240.459  8240.440  0.500  0.955991  129.615  49.8281  12.0783
  8244.960  8244.950  0.500  0.953361  129.456  49.898  12.1059
  8249.500  8249.480  0.500  0.950779  129.305  49.9686  12.1319
  8254.049  8254.030  0.500  0.948154  129.112  50.0253  12.1491
  8258.614  8258.600  0.500  0.945462  128.927  50.0881  12.1644
  8263.202  8263.180  0.500  0.942690  128.735  50.1522  12.1841
  8267.808  8267.790  0.500  0.940127  128.577  50.2192  12.214
  8272.436  8272.410  0.500  0.937349  128.365  50.2762  12.2536
  8277.084  8277.060  0.500  0.934785  128.184  50.334  12.3109
  8281.746  8281.720  0.500  0.932385  127.932  50.3556  12.3648
  8286.422  8286.400  0.500  0.929777  127.779  50.427  12.4288
  8291.116  8291.100  0.500  0.927090  127.62  50.4997  12.489
  8295.842  8295.820  0.500  0.924391  127.408  50.552  12.54
  8300.576  8300.560  0.500  0.921632  127.213  50.6142  12.5911
  8305.337  8305.310  0.500  0.918901  126.976  50.6579  12.635
  8310.106  8310.090  0.500  0.916226  126.756  50.7055  12.6791
  8314.901  8314.890  0.500  0.913455  125.157  50.2049  12.5828
  8319.735  8319.700  0.500  0.910805  126.118  50.7246  12.7456
  8324.572  8324.530  0.500  0.908181  126.106  50.8533  12.8097
  8329.418  8329.390  0.500  0.905448  125.974  50.9388  12.8642
  8334.311  8334.260  0.500  0.902900  125.645  50.9354  12.887
  8339.203  8339.150  0.500  0.900314  125.419  50.9755  12.9251
  8344.072  8344.060  0.500  0.897606  125.109  50.9873  12.9558
  8348.983  8348.990  0.500  0.894950  124.783  50.99  12.9802
  8353.975  8353.930  0.500  0.892023  124.304  50.943  13.0014
  8358.882  8358.900  0.500  0.889173  124.131  51.0174  13.0467
  8363.877  8363.890  0.500  0.886378  123.929  51.0767  13.0911
  8368.872  8368.890  0.500  0.883601  123.788  51.1605  13.1428
  8373.894  8373.920  0.500  0.880822  123.605  51.2272  13.1835
  8378.973  8378.960  0.500  0.878151  123.394  51.2766  13.218
  8384.011  8384.020  0.500  0.875411  123.168  51.3229  13.2524
  8389.088  8389.100  0.500  0.872653  122.865  51.3383  13.2812
  8394.165  8394.200  0.500  0.869948  122.619  51.3741  13.3206
  8399.303  8399.320  0.500  0.867154  122.346  51.4031  13.3556
  8404.445  8404.460  0.500  0.864389  122.103  51.4429  13.396
  8409.626  8409.620  0.500  0.861758  121.914  51.4989  13.44
  8414.784  8414.800  0.500  0.859014  121.682  51.5422  13.4822
  8419.963  8419.990  0.500  0.856269  121.438  51.5801  13.5248
  8425.207  8425.210  0.500  0.853644  121.181  51.6063  13.5662
  8430.411  8430.440  0.500  0.850844  120.931  51.6443  13.6116
  8435.675  8435.690  0.500  0.848140  120.641  51.6596  13.6529
  8441.015  8440.960  0.500  0.845443  120.382  51.6881  13.6979
  8446.231  8446.250  0.500  0.842582  120.142  51.7328  13.7438
  8451.545  8451.560  0.500  0.839945  119.819  51.7302  13.7818
  8456.878  8456.890  0.500  0.837202  119.579  51.768  13.8309
  8462.222  8462.240  0.500  0.834351  119.298  51.7939  13.8715
  8467.627  8467.610  0.500  0.831575  119.029  51.8211  13.914
  8472.963  8472.990  0.500  0.828861  118.752  51.8409  13.9532
  8478.365  8478.400  0.500  0.826046  118.418  51.8407  13.9888
  8483.798  8483.820  0.500  0.823122  118.133  51.8675  14.0322
  8489.300  8489.270  0.500  0.820444  117.852  51.8826  14.0699
  8494.738  8494.730  0.500  0.817464  117.563  51.9101  14.1133
  8500.268  8500.210  0.500  0.814705  117.275  51.926  14.1503
  8505.727  8505.710  0.500  0.811874  116.945  51.9266  14.1859
  8511.199  8511.230  0.500  0.808894  116.585  51.921  14.2172
  8516.825  8516.770  0.500  0.806124  116.219  51.9017  14.2444
  8522.346  8522.320  0.500  0.803289  115.821  51.8707  14.2668
  8527.891  8527.900  0.500  0.800679  114.877  51.5824  14.2182
  8533.521  8533.500  0.500  0.797927  114.809  51.694  14.2792
  8539.074  8539.110  0.500  0.795156  115.236  52.0304  14.4038
  8544.716  8544.750  0.500  0.792266  114.824  51.9944  14.4302
  8550.422  8550.400  0.500  0.789429  114.45  51.972  14.4586
  8556.051  8556.070  0.500  0.786587  114.093  51.9576  14.4889
  8561.742  8561.760  0.500  0.783726  113.712  51.9323  14.5162