File: xdidata/Co/Co-K-Co3O4.xdi
# XDI/1.0 BlueSky/1.10.0 BMM/2023-1.0-py310-tiled
# Beamline.name: BMM (06BM) -- Beamline for Materials Measurement (NIST)
# Beamline.xray_source: NSLS-II three-pole wiggler
# Beamline.collimation: paraboloid mirror, 5 nm Rh on 30 nm Pt
# Beamline.focusing: not in use
# Beamline.harmonic_rejection: flat mirror, Si stripe, pitch = 7.0 mrad relative to beam
# Beamline.software: Bluesky 1.10.0, Ophyd 1.7.0, DataBroker 2.0.0b13, Python 3.10.8, 2023-1.0-py310-tiled
# Detector.I0: 10 cm N2
# Detector.I1: 25 cm N2
# Detector.I2: 25 cm N2
# Element.symbol: Co
# Element.edge: K
# Element.reference: Co
# Element.reference_material: Co foil
# Facility.name: NSLS-II
# Facility.energy: 3.0
# Facility.current: 399.9
# Facility.mode: top-off
# Facility.GUP: 301027
# Facility.SAF: 310583
# Facility.cycle: 2023-2
# Mono.name: Si(111)
# Mono.d_spacing: 3.13519
# Mono.encoder_resolution: 0.0000050 deg/ct
# Mono.angle_offset: 16.0754 deg
# Mono.scan_mode: pseudo channel cut
# Mono.scan_type: step
# Mono.direction: forward in energy
# Sample.name: Co3O4
# Sample.prep: powder on tape
# Sample.x: 117.785 mm
# Sample.y: 114.695 mm
# Sample.SDD_position: 205.000 mm
# Scan.experimenters: Bruce Ravel
# Scan.edge_energy: 7708.9
# Scan.start_time: 2023-06-23T15:02:25
# Scan.end_time: 2023-06-23T15:11:04
# Scan.transient_id: 84833
# Scan.uid: 5330c073-0a46-423d-ad58-076c11cb520a
# Scan.plot_hint: ln(I0/It)  --  ln($5/$6)
# Column.1: energy eV
# Column.2: requested_energy eV
# Column.3: measurement_time seconds
# Column.4: xmu
# Column.5: I0 nA
# Column.6: It nA
# Column.7: Ir nA
# ///////////
# BMM standards collection
# -----------
# energy  requested_energy  measurement_time  xmu  I0  It  Ir
  7508.901  7508.900  0.500  1.239818  147.663  42.7393  16.3264
  7518.916  7518.900  0.500  1.232438  147.535  43.0183  16.4979
  7528.917  7528.900  0.500  1.224999  147.44  43.3118  16.6707
  7538.927  7538.900  0.500  1.217530  147.299  43.5945  16.8442
  7548.938  7548.900  0.500  1.210235  147.151  43.8696  17.0136
  7558.889  7558.900  0.500  1.202769  146.999  44.1528  17.1868
  7568.879  7568.900  0.500  1.195635  146.862  44.4275  17.3609
  7578.891  7578.900  0.500  1.188293  146.732  44.7151  17.5373
  7588.907  7588.900  0.500  1.181055  146.519  44.9746  17.7034
  7598.918  7598.900  0.500  1.173789  146.245  45.2179  17.8654
  7608.910  7608.900  0.500  1.166578  145.564  45.3332  17.9741
  7618.919  7618.900  0.500  1.159542  145.548  45.6482  18.1634
  7628.918  7628.900  0.500  1.152511  145.785  46.0453  18.3846
  7638.909  7638.900  0.500  1.145694  145.652  46.3178  18.5589
  7648.913  7648.900  0.500  1.138898  145.481  46.5788  18.7279
  7658.906  7658.900  0.500  1.132110  145.306  46.8398  18.8926
  7668.912  7668.900  0.500  1.125549  145.127  47.0901  19.0539
  7678.906  7678.900  0.500  1.119291  144.917  47.317  19.199
  7680.903  7680.900  0.500  1.118158  144.851  47.3491  19.2211
  7682.897  7682.900  0.500  1.117033  144.791  47.3828  19.2442
  7684.899  7684.900  0.500  1.115864  144.715  47.4131  19.2627
  7686.901  7686.900  0.500  1.114801  144.455  47.3785  19.2588
  7688.898  7688.900  0.500  1.113806  143.63  47.1547  19.1726
  7690.893  7690.900  0.500  1.112812  144.796  47.5848  19.3529
  7692.891  7692.900  0.500  1.111909  144.722  47.6035  19.3616
  7694.896  7694.900  0.500  1.111055  144.656  47.6224  19.3699
  7696.894  7696.900  0.500  1.110350  144.611  47.6413  19.3754
  7698.896  7698.900  0.500  1.109733  144.539  47.6467  19.3676
  7699.179  7699.200  0.500  1.109607  144.531  47.6502  19.3681
  7699.478  7699.500  0.500  1.109614  144.516  47.645  19.3639
  7699.779  7699.800  0.500  1.109496  144.483  47.6398  19.3598
  7700.085  7700.100  0.500  1.109475  144.479  47.6393  19.3571
  7700.380  7700.400  0.500  1.109489  144.459  47.6321  19.3507
  7700.676  7700.700  0.500  1.109534  144.464  47.6316  19.3482
  7700.980  7701.000  0.500  1.109462  144.451  47.6308  19.3438
  7701.281  7701.300  0.500  1.109466  144.432  47.6244  19.3391
  7701.585  7701.600  0.500  1.109380  144.434  47.629  19.3341
  7701.881  7701.900  0.500  1.109345  144.425  47.6277  19.3299
  7702.179  7702.200  0.500  1.109364  145.004  47.8178  19.402
  7702.480  7702.500  0.500  1.109362  145.01  47.8198  19.3959
  7702.781  7702.800  0.500  1.109307  144.998  47.8184  19.3908
  7703.080  7703.100  0.500  1.109567  144.991  47.8039  19.3797
  7703.384  7703.400  0.500  1.109564  144.959  47.7933  19.3685
  7703.685  7703.700  0.500  1.109643  144.935  47.7816  19.354
  7703.984  7704.000  0.500  1.109829  144.938  47.7738  19.3411
  7704.285  7704.300  0.500  1.109808  144.91  47.7655  19.3283
  7704.591  7704.600  0.500  1.109841  144.876  47.7528  19.3079
  7704.888  7704.900  0.500  1.110058  144.837  47.7295  19.2895
  7705.192  7705.200  0.500  1.110234  144.782  47.703  19.2644
  7705.498  7705.500  0.500  1.110436  144.708  47.669  19.235
  7705.792  7705.800  0.500  1.110614  144.58  47.6186  19.1937
  7706.091  7706.100  0.500  1.110956  144.224  47.4849  19.1195
  7706.397  7706.400  0.500  1.111403  143.144  47.1081  18.9427
  7706.694  7706.700  0.500  1.111810  141.717  46.6197  18.7157
  7706.990  7707.000  0.500  1.112394  141.415  46.4932  18.6301
  7707.287  7707.300  0.500  1.113071  142.473  46.8093  18.7117
  7707.593  7707.600  0.500  1.114030  143.934  47.2439  18.8303
  7707.887  7707.900  0.500  1.115365  144.841  47.4782  18.8564
  7708.186  7708.200  0.500  1.116930  145.036  47.4678  18.7571
  7708.488  7708.500  0.500  1.119392  145.014  47.344  18.5717
  7708.795  7708.800  0.500  1.123429  145.011  47.1522  18.2974
  7709.101  7709.100  0.500  1.129471  144.987  46.8603  17.9079
  7709.398  7709.400  0.500  1.137893  144.97  46.4618  17.4131
  7709.697  7709.700  0.500  1.147308  144.933  46.0148  16.8531
  7710.004  7710.000  0.500  1.155260  144.902  45.6405  16.3114
  7710.298  7710.300  0.500  1.158756  144.906  45.4826  15.8758
  7710.592  7710.600  0.500  1.157293  144.882  45.5417  15.5351
  7710.897  7710.900  0.500  1.153083  144.889  45.7359  15.26
  7711.196  7711.200  0.500  1.149385  144.891  45.9062  14.9983
  7711.495  7711.500  0.500  1.148055  144.875  45.9619  14.7303
  7711.797  7711.800  0.500  1.148619  144.876  45.9365  14.4595
  7712.097  7712.100  0.500  1.150282  144.837  45.8477  14.2116
  7712.393  7712.400  0.500  1.151893  144.84  45.775  14.0121
  7712.700  7712.700  0.500  1.153065  144.833  45.719  13.8547
  7712.997  7713.000  0.500  1.153998  144.803  45.6669  13.7362
  7713.299  7713.300  0.500  1.154771  144.797  45.6298  13.6443
  7713.599  7713.600  0.500  1.155722  144.784  45.5825  13.5738
  7713.896  7713.900  0.500  1.157014  144.781  45.5227  13.5162
  7714.188  7714.200  0.500  1.158606  144.765  45.445  13.4657
  7714.495  7714.500  0.500  1.160608  144.753  45.3506  13.4069
  7714.792  7714.800  0.500  1.163291  144.744  45.2263  13.3365
  7715.094  7715.100  0.500  1.166867  144.713  45.0551  13.2286
  7715.399  7715.400  0.500  1.172004  144.711  44.8236  13.0834
  7715.701  7715.700  0.500  1.178329  144.701  44.538  12.902
  7716.006  7716.000  0.500  1.186397  144.697  44.1788  12.6747
  7716.303  7716.300  0.500  1.196628  144.683  43.7248  12.4107
  7716.603  7716.600  0.500  1.208567  144.666  43.2008  12.124
  7716.895  7716.900  0.500  1.223190  144.642  42.5667  11.81
  7717.197  7717.200  0.500  1.240671  144.649  41.8312  11.4729
  7717.492  7717.500  0.500  1.260431  144.614  41.0025  11.1217
  7717.792  7717.800  0.500  1.283095  144.613  40.0834  10.7556
  7718.097  7718.100  0.500  1.308232  144.61  39.0878  10.3745
  7718.397  7718.400  0.500  1.335978  144.57  38.0076  9.976822
  7718.699  7718.700  0.500  1.364763  144.549  36.9237  9.580225
  7719.002  7719.000  0.500  1.393156  144.517  35.8821  9.197980
  7719.302  7719.300  0.500  1.418778  144.493  34.9687  8.855227
  7719.604  7719.600  0.500  1.441637  144.442  34.1663  8.539192
  7719.904  7719.900  0.500  1.462299  144.357  33.4479  8.247959
  7720.199  7720.200  0.500  1.481277  144.239  32.7923  7.977593
  7720.499  7720.500  0.500  1.500708  143.851  32.0748  7.693816
  7720.797  7720.800  0.500  1.520900  142.739  31.1906  7.371715
  7721.097  7721.100  0.500  1.542537  141.239  30.2022  7.026752
  7721.397  7721.400  0.500  1.566209  140.814  29.4069  6.727869
  7721.700  7721.700  0.500  1.591886  141.773  28.8567  6.483695
  7722.005  7722.000  0.500  1.620023  143.398  28.3776  6.260045
  7722.300  7722.300  0.500  1.649892  144.385  27.7321  6.008201
  7722.605  7722.600  0.500  1.682558  144.601  26.881  5.716738
  7722.898  7722.900  0.500  1.716153  144.615  25.9954  5.429472
  7723.201  7723.200  0.500  1.750971  144.602  25.1037  5.145497
  7723.501  7723.500  0.500  1.784002  144.578  24.2839  4.884635
  7723.796  7723.800  0.500  1.813540  144.567  23.5754  4.655317
  7724.094  7724.100  0.500  1.838031  144.565  23.0046  4.461799
  7724.402  7724.400  0.500  1.858079  144.565  22.5481  4.302502
  7724.700  7724.700  0.500  1.875060  144.552  22.1664  4.168986
  7724.998  7725.000  0.500  1.890656  144.518  21.8182  4.054739
  7725.301  7725.300  0.500  1.906202  144.512  21.4809  3.953060
  7725.601  7725.600  0.500  1.922143  144.507  21.1404  3.860170
  7725.899  7725.900  0.500  1.938081  144.5  20.8051  3.777894
  7726.200  7726.200  0.500  1.954500  144.493  20.4654  3.702468
  7726.495  7726.500  0.500  1.970752  144.459  20.1306  3.631999
  7726.793  7726.800  0.500  1.988415  144.463  19.7787  3.565390
  7727.099  7727.100  0.500  2.008548  144.457  19.3837  3.493445
  7727.397  7727.400  0.500  2.031780  144.429  18.935  3.415894
  7727.700  7727.700  0.500  2.059333  144.428  18.4202  3.327285
  7728.003  7728.000  0.500  2.091895  144.417  17.8287  3.227211
  7728.301  7728.300  0.500  2.128709  144.409  17.1833  3.117058
  7728.594  7728.600  0.500  2.169587  144.424  16.4968  2.999266
  7728.895  7728.900  0.500  2.213693  144.416  15.7841  2.876307
  7729.191  7729.200  0.500  2.256499  144.397  15.1208  2.762463
  7729.486  7729.500  0.500  2.294219  144.392  14.5605  2.665435
  7729.787  7729.800  0.500  2.323885  144.381  14.1338  2.590815
  7730.091  7730.100  0.500  2.341430  144.365  13.8864  2.547947
  7730.391  7730.400  0.500  2.346952  144.371  13.8106  2.534262
  7730.705  7730.700  0.500  2.340587  144.346  13.8963  2.547247
  7730.998  7731.000  0.500  2.324712  144.347  14.1188  2.583433
  7731.297  7731.300  0.500  2.299914  144.34  14.4726  2.639384
  7731.598  7731.600  0.500  2.268696  144.313  14.9287  2.711233
  7731.904  7731.900  0.500  2.232415  144.312  15.4803  2.795243
  7732.279  7732.200  0.500  2.191675  144.278  16.1201  2.892071
  7732.478  7732.500  0.500  2.162865  144.252  16.5883  2.959574
  7732.776  7732.800  0.500  2.128698  144.249  17.1645  3.041381
  7733.100  7733.100  0.500  2.097180  144.221  17.7107  3.117957
  7733.396  7733.400  0.500  2.070899  144.205  18.1803  3.180820
  7733.679  7733.700  0.500  2.048605  144.181  18.5871  3.234874
  7733.871  7733.900  0.500  2.036008  144.153  18.819  3.266002
  7734.912  7734.890  0.500  1.992441  144.075  19.6464  3.386450
  7735.877  7735.890  0.500  1.973663  144.023  20.0115  3.476961
  7736.894  7736.910  0.500  1.963516  144.011  20.214  3.564768
  7737.941  7737.960  0.500  1.960914  143.952  20.2584  3.619209
  7739.006  7739.020  0.500  1.955199  143.843  20.359  3.662134
  7740.088  7740.100  0.500  1.941072  142.303  20.4275  3.693045
  7741.192  7741.200  0.500  1.926842  142.024  20.6797  3.767581
  7742.307  7742.320  0.500  1.924582  144.064  21.0242  3.864346
  7743.456  7743.460  0.500  1.932418  143.985  20.8487  3.855828
  7744.602  7744.610  0.500  1.934521  143.979  20.8041  3.861769
  7745.790  7745.790  0.500  1.923604  143.934  21.0258  3.912512
  7746.978  7746.980  0.500  1.906271  143.895  21.3876  3.982401
  7748.195  7748.200  0.500  1.884866  143.869  21.8464  4.057569
  7749.435  7749.430  0.500  1.861180  143.825  22.3632  4.124906
  7750.686  7750.680  0.500  1.839511  143.797  22.8487  4.165576
  7751.950  7751.950  0.500  1.823667  143.787  23.212  4.167873
  7753.240  7753.240  0.500  1.810253  143.745  23.5186  4.149262
  7754.554  7754.550  0.500  1.796518  143.718  23.8393  4.125439
  7755.886  7755.880  0.500  1.783109  143.698  24.1578  4.101662
  7757.226  7757.230  0.500  1.771391  143.642  24.4329  4.086266
  7758.597  7758.600  0.500  1.760613  143.621  24.6941  4.098084
  7759.982  7759.980  0.500  1.753302  143.582  24.8685  4.130997
  7761.391  7761.390  0.500  1.751642  143.535  24.9018  4.174453
  7762.808  7762.810  0.500  1.756126  143.506  24.7854  4.225266
  7764.246  7764.250  0.500  1.762716  143.478  24.6178  4.287008
  7765.715  7765.710  0.500  1.768662  143.716  24.5123  4.364599
  7767.193  7767.190  0.500  1.775270  143.677  24.3442  4.420075
  7768.686  7768.690  0.500  1.785211  143.636  24.0966  4.455220
  7770.214  7770.210  0.500  1.798535  143.581  23.7685  4.460225
  7771.758  7771.750  0.500  1.814066  143.553  23.3977  4.433814
  7773.310  7773.310  0.500  1.829962  143.528  23.0248  4.382914
  7774.887  7774.880  0.500  1.843536  143.473  22.7055  4.331526
  7776.489  7776.480  0.500  1.852515  143.427  22.4954  4.303728
  7778.093  7778.090  0.500  1.861162  143.394  22.2966  4.284543
  7779.740  7779.730  0.500  1.874507  143.342  21.9931  4.242897
  7781.386  7781.380  0.500  1.894324  143.306  21.556  4.164786
  7783.051  7783.050  0.500  1.915815  143.272  21.0927  4.066030
  7784.753  7784.740  0.500  1.930265  143.233  20.7845  3.984645
  7786.456  7786.450  0.500  1.934604  143.193  20.6887  3.944522
  7788.185  7788.180  0.500  1.931686  143.154  20.7436  3.935949
  7789.943  7789.930  0.500  1.925509  143.12  20.8672  3.934410
  7791.705  7791.690  0.500  1.918657  143.074  21.0038  3.924230
  7793.479  7793.480  0.500  1.913994  143.044  21.0976  3.902945
  7795.289  7795.280  0.500  1.909325  142.998  21.1894  3.885790
  7797.110  7797.110  0.500  1.900116  142.946  21.3778  3.885077
  7798.959  7798.950  0.500  1.886790  142.903  21.6581  3.891821
  7800.816  7800.810  0.500  1.872018  142.863  21.9741  3.893112
  7802.705  7802.690  0.500  1.855969  142.817  22.3225  3.890845
  7804.595  7804.590  0.500  1.840249  142.737  22.6635  3.893161
  7806.520  7806.510  0.500  1.827471  142.721  22.9524  3.904331
  7808.449  7808.450  0.500  1.817954  142.685  23.166  3.929662
  7810.412  7810.410  0.500  1.811137  142.639  23.317  3.974038
  7812.395  7812.380  0.500  1.808172  142.583  23.377  4.027496
  7814.383  7814.380  0.500  1.809653  142.522  23.3325  4.073808
  7816.402  7816.390  0.500  1.813008  142.51  23.2522  4.122506
  7818.422  7818.420  0.500  1.814005  142.443  23.2182  4.187310
  7820.492  7820.480  0.500  1.812360  142.395  23.2486  4.263872
  7822.556  7822.550  0.500  1.809975  142.35  23.2967  4.328666
  7824.655  7824.640  0.500  1.809348  142.283  23.3004  4.385194
  7826.757  7826.750  0.500  1.810522  142.259  23.2692  4.450732
  7828.892  7828.880  0.500  1.812989  142.209  23.2036  4.524052
  7831.031  7831.020  0.500  1.816887  141.963  23.0733  4.575045
  7833.198  7833.190  0.500  1.820058  141.991  23.0049  4.615864
  7835.389  7835.380  0.500  1.820308  142.049  23.0085  4.639023
  7837.587  7837.580  0.500  1.817504  142.01  23.0668  4.645824
  7839.815  7839.800  0.500  1.813221  140.994  23.0001  4.606144
  7842.062  7842.050  0.500  1.808839  141.798  23.2328  4.613207
  7844.322  7844.310  0.500  1.802872  141.82  23.3755  4.593995
  7846.603  7846.590  0.500  1.791724  140.711  23.4526  4.563391
  7848.900  7848.890  0.500  1.774863  141.644  24.0096  4.641636
  7851.213  7851.210  0.500  1.755172  141.631  24.4849  4.724882
  7853.568  7853.550  0.500  1.738992  141.516  24.8641  4.811961
  7855.910  7855.900  0.500  1.731441  141.387  25.0296  4.864889
  7858.299  7858.280  0.500  1.732432  141.44  25.0142  4.863815
  7860.672  7860.670  0.500  1.740388  141.415  24.8116  4.785628
  7863.108  7863.090  0.500  1.752705  141.343  24.4954  4.640754
  7865.531  7865.520  0.500  1.766550  141.293  24.1499  4.475792
  7867.982  7867.970  0.500  1.780542  141.243  23.806  4.327755
  7870.460  7870.450  0.500  1.794166  141.178  23.4732  4.210757
  7872.959  7872.940  0.500  1.805275  141.096  23.2003  4.128405
  7875.462  7875.450  0.500  1.810524  141.046  23.0707  4.084383
  7877.983  7877.970  0.500  1.811025  140.993  23.0504  4.077644
  7880.529  7880.520  0.500  1.808942  140.921  23.0867  4.109349
  7883.103  7883.090  0.500  1.805692  140.879  23.155  4.178929
  7885.690  7885.670  0.500  1.802284  140.821  23.2245  4.278862
  7888.287  7888.280  0.500  1.799140  140.742  23.2845  4.407317
  7890.920  7890.900  0.500  1.795797  140.679  23.352  4.560897
  7893.562  7893.550  0.500  1.790686  140.612  23.4606  4.727288
  7896.234  7896.210  0.500  1.781950  140.554  23.6567  4.890965
  7898.904  7898.890  0.500  1.769940  140.102  23.8655  5.007828
  7901.611  7901.590  0.500  1.758411  140.351  24.1851  5.090606
  7904.322  7904.310  0.500  1.749634  140.335  24.3955  5.097220
  7907.068  7907.050  0.500  1.743194  140.259  24.5398  5.064921
  7909.810  7909.800  0.500  1.737283  140.19  24.6731  5.027253
  7912.602  7912.580  0.500  1.730716  140.117  24.8229  5.001780
  7915.386  7915.370  0.500  1.722599  140.016  25.0071  4.996694
  7918.201  7918.190  0.500  1.713596  139.975  25.2257  5.018095
  7921.039  7921.020  0.500  1.704986  139.896  25.4295  5.053629
  7923.891  7923.870  0.500  1.699455  139.822  25.557  5.087064
  7926.769  7926.750  0.500  1.698502  139.746  25.5676  5.105483
  7929.665  7929.640  0.500  1.701305  139.35  25.4238  5.099144
  7932.566  7932.550  0.500  1.705883  139.536  25.3413  5.116356
  7935.493  7935.470  0.500  1.711698  139.422  25.1738  5.116805
  7938.436  7938.420  0.500  1.717533  138.944  24.9416  5.085728
  7941.411  7941.390  0.500  1.721710  139.546  24.9453  5.065418
  7944.388  7944.370  0.500  1.721961  139.369  24.9073  5.004523
  7947.389  7947.380  0.500  1.717811  139.277  24.9944  4.963261
  7950.422  7950.400  0.500  1.710980  138.63  25.0488  4.926009
  7953.466  7953.450  0.500  1.704588  139.006  25.2778  4.934821
  7956.528  7956.510  0.500  1.699382  138.948  25.3992  4.936587
  7959.607  7959.590  0.500  1.694741  138.85  25.4994  4.954490
  7962.712  7962.690  0.500  1.689829  138.752  25.6069  4.999967
  7965.819  7965.810  0.500  1.685535  138.656  25.6993  5.073025
  7968.965  7968.950  0.500  1.682405  138.531  25.7566  5.161687
  7972.113  7972.100  0.500  1.679353  138.382  25.8076  5.259567
  7975.302  7975.280  0.500  1.674695  138.199  25.8938  5.358622
  7978.490  7978.470  0.500  1.671154  137.962  25.9411  5.433452
  7981.703  7981.690  0.500  1.670217  137.599  25.8971  5.467111
  7984.933  7984.920  0.500  1.671110  137.732  25.8989  5.490048
  7988.189  7988.170  0.500  1.671939  137.653  25.8626  5.493900
  7991.468  7991.450  0.500  1.670648  137.578  25.8819  5.510909
  7994.757  7994.740  0.500  1.666370  137.509  25.9797  5.545522
  7998.063  7998.050  0.500  1.660349  137.404  26.1167  5.588641
  8001.383  8001.370  0.500  1.654656  137.324  26.2506  5.630172
  8004.738  8004.720  0.500  1.651719  137.22  26.3078  5.646732
  8008.113  8008.090  0.500  1.651557  137.202  26.3086  5.643105
  8011.485  8011.470  0.500  1.652989  137.244  26.279  5.625667
  8014.893  8014.880  0.500  1.654221  137.201  26.2384  5.603580
  8018.318  8018.300  0.500  1.653106  137.129  26.254  5.596785
  8021.771  8021.750  0.500  1.649304  137.053  26.3393  5.608163
  8025.226  8025.210  0.500  1.643716  136.934  26.4639  5.632235
  8028.707  8028.690  0.500  1.638263  136.857  26.5938  5.656999
  8032.205  8032.190  0.500  1.633203  136.754  26.7084  5.674637
  8035.734  8035.710  0.500  1.627736  136.642  26.833  5.690042
  8039.265  8039.250  0.500  1.623594  136.536  26.9233  5.693346
  8042.822  8042.800  0.500  1.621094  136.411  26.966  5.691516
  8046.402  8046.380  0.500  1.618255  136.307  27.022  5.706367
  8049.999  8049.980  0.500  1.614027  136.192  27.1137  5.745764
  8053.613  8053.590  0.500  1.607543  136.016  27.2548  5.808500
  8057.239  8057.220  0.500  1.600399  135.349  27.3156  5.863413
  8060.896  8060.880  0.500  1.595614  136.029  27.5846  5.968284
  8064.570  8064.550  0.500  1.593468  135.836  27.6046  6.013624
  8068.265  8068.240  0.500  1.593362  135.486  27.5363  6.023931
  8071.974  8071.950  0.500  1.594521  135.575  27.5225  6.031368
  8075.706  8075.680  0.500  1.594931  135.429  27.4815  6.029615
  8079.447  8079.420  0.500  1.592628  129.806  26.4014  5.808998
  8083.206  8083.190  0.500  1.587899  135.287  27.6465  6.117544
  8087.005  8086.980  0.500  1.580489  135.076  27.8088  6.199049
  8090.802  8090.780  0.500  1.572076  133.643  27.746  6.222328
  8094.628  8094.610  0.500  1.565028  135.106  28.2482  6.353880
  8098.468  8098.450  0.500  1.561396  134.919  28.3117  6.380883
  8102.324  8102.310  0.500  1.560950  134.767  28.2925  6.392220
  8106.209  8106.190  0.500  1.561577  134.628  28.2456  6.393941
  8110.106  8110.090  0.500  1.561072  134.504  28.2339  6.398909
  8114.030  8114.010  0.500  1.559075  134.363  28.2606  6.409920
  8117.975  8117.950  0.500  1.556199  134.2  28.3077  6.422008
  8121.923  8121.910  0.500  1.553971  134.095  28.3485  6.431940
  8125.906  8125.880  0.500  1.552872  133.951  28.3493  6.432093
  8129.897  8129.880  0.500  1.552271  133.85  28.345  6.429211
  8133.908  8133.890  0.500  1.551020  133.671  28.3425  6.429415
  8137.952  8137.930  0.500  1.547897  133.557  28.4069  6.445532
  8142.023  8141.980  0.500  1.542988  133.414  28.5161  6.471680
  8146.066  8146.050  0.500  1.537630  133.262  28.6366  6.502998
  8150.174  8150.140  0.500  1.532457  133.121  28.7546  6.539408
  8154.269  8154.250  0.500  1.528885  132.98  28.8271  6.569009
  8158.390  8158.380  0.500  1.525852  132.829  28.8819  6.604862
  8162.536  8162.530  0.500  1.522518  132.721  28.9547  6.652553
  8166.692  8166.690  0.500  1.519476  132.577  29.0113  6.700329
  8170.887  8170.880  0.500  1.517133  132.422  29.0454  6.737217
  8175.089  8175.080  0.500  1.513964  132.271  29.1044  6.773396
  8179.319  8179.310  0.500  1.509045  132.114  29.2132  6.815333
  8183.564  8183.550  0.500  1.502800  131.959  29.3616  6.863054
  8187.825  8187.810  0.500  1.496608  131.786  29.5054  6.908484
  8192.106  8192.090  0.500  1.491928  131.654  29.614  6.949736
  8196.402  8196.390  0.500  1.488078  131.507  29.695  6.987675
  8200.721  8200.710  0.500  1.484773  131.357  29.7594  7.030275
  8205.067  8205.050  0.500  1.481851  131.192  29.8091  7.068978
  8209.427  8209.410  0.500  1.478896  131.021  29.8584  7.106185
  8213.814  8213.790  0.500  1.476129  130.87  29.9065  7.137633
  8218.201  8218.180  0.500  1.473759  130.701  29.9387  7.166571
  8222.641  8222.600  0.500  1.472214  130.544  29.9489  7.191634
  8227.046  8227.030  0.500  1.470910  130.372  29.9485  7.212305
  8231.520  8231.480  0.500  1.469321  130.193  29.9551  7.232661
  8235.973  8235.950  0.500  1.467211  130.054  29.9863  7.253102
  8240.468  8240.440  0.500  1.463776  129.902  30.0542  7.278778
  8244.971  8244.950  0.500  1.459514  129.738  30.1445  7.306976
  8249.471  8249.480  0.500  1.455083  129.565  30.2381  7.335303
  8254.060  8254.030  0.500  1.450303  129.382  30.3399  7.361848
  8258.626  8258.600  0.500  1.446056  129.178  30.4211  7.381699
  8263.202  8263.180  0.500  1.442088  129.047  30.511  7.406290
  8267.831  8267.790  0.500  1.437943  128.856  30.5925  7.433232
  8272.397  8272.410  0.500  1.434390  128.694  30.6628  7.467596
  8277.087  8277.060  0.500  1.431351  128.493  30.7079  7.504163
  8281.758  8281.720  0.500  1.428291  128.237  30.7406  7.542667
  8286.446  8286.400  0.500  1.424882  128.12  30.8175  7.588965
  8291.084  8291.100  0.500  1.421223  127.902  30.8779  7.629149
  8295.842  8295.820  0.500  1.417429  127.704  30.9474  7.670699
  8300.532  8300.560  0.500  1.413619  127.518  31.0201  7.710021
  8305.292  8305.310  0.500  1.410472  127.324  31.0707  7.744367
  8310.091  8310.090  0.500  1.407172  127.09  31.1161  7.774228
  8314.845  8314.890  0.500  1.403955  125.521  30.831  7.720319
  8319.682  8319.700  0.500  1.400914  126.621  31.1958  7.832889
  8324.516  8324.530  0.500  1.398257  126.661  31.2887  7.875581
  8329.373  8329.390  0.500  1.396289  126.528  31.3175  7.901981
  8334.254  8334.260  0.500  1.394044  126.23  31.314  7.915443
  8339.141  8339.150  0.500  1.391524  125.93  31.3182  7.934888
  8344.031  8344.060  0.500  1.388120  125.675  31.3615  7.962317
  8349.010  8348.990  0.500  1.384063  125.371  31.4127  7.988389
  8353.915  8353.930  0.500  1.379895  124.884  31.4215  8.011912
  8358.909  8358.900  0.500  1.375599  124.687  31.507  8.050349
  8363.868  8363.890  0.500  1.371422  124.537  31.6008  8.093518
  8368.884  8368.890  0.500  1.367503  124.342  31.675  8.128653
  8373.891  8373.920  0.500  1.363929  124.171  31.7448  8.164069
  8378.940  8378.960  0.500  1.359856  123.957  31.8194  8.196443
  8383.984  8384.020  0.500  1.355327  123.705  31.8989  8.229513
  8389.079  8389.100  0.500  1.350821  123.414  31.9675  8.265338
  8394.165  8394.200  0.500  1.346589  123.173  32.0405  8.300594
  8399.330  8399.320  0.500  1.342922  122.928  32.0942  8.333513
  8404.433  8404.460  0.500  1.339726  122.689  32.1345  8.362353
  8409.599  8409.620  0.500  1.336779  122.442  32.1642  8.389198
  8414.793  8414.800  0.500  1.333553  122.211  32.2073  8.417899
  8420.012  8419.990  0.500  1.330175  121.96  32.2501  8.449865
  8425.188  8425.210  0.500  1.326603  121.688  32.2932  8.482396
  8430.415  8430.440  0.500  1.323223  121.446  32.3382  8.517354
  8435.663  8435.690  0.500  1.319996  121.162  32.3667  8.547287
  8440.929  8440.960  0.500  1.317027  120.949  32.4061  8.580946
  8446.218  8446.250  0.500  1.314282  120.694  32.4265  8.608865
  8451.533  8451.560  0.500  1.311520  120.414  32.4408  8.636714
  8456.881  8456.890  0.500  1.308615  120.119  32.4554  8.665368
  8462.216  8462.240  0.500  1.305328  119.881  32.4978  8.697479
  8467.603  8467.610  0.500  1.301668  119.557  32.5289  8.726952
  8472.969  8472.990  0.500  1.297995  119.299  32.578  8.762722
  8478.445  8478.400  0.500  1.294192  118.995  32.6188  8.794948
  8483.841  8483.820  0.500  1.290311  118.707  32.6665  8.831703
  8489.316  8489.270  0.500  1.286289  118.368  32.7044  8.862773
  8494.757  8494.730  0.500  1.282432  118.073  32.749  8.897110
  8500.215  8500.210  0.500  1.278604  117.798  32.798  8.931605
  8505.733  8505.710  0.500  1.275008  117.491  32.8305  8.962381
  8511.199  8511.230  0.500  1.271469  117.136  32.8473  8.988661
  8516.809  8516.770  0.500  1.267854  116.781  32.8664  9.014173
  8522.306  8522.320  0.500  1.264176  116.365  32.8697  9.035344
  8527.875  8527.900  0.500  1.260699  115.39  32.7079  9.009504
  8533.471  8533.500  0.500  1.257118  115.334  32.8093  9.054981
  8539.086  8539.110  0.500  1.253581  115.749  33.0441  9.141016
  8544.741  8544.750  0.500  1.249908  115.343  33.0494  9.165416
  8550.359  8550.400  0.500  1.246139  114.973  33.0677  9.194784
  8556.045  8556.070  0.500  1.242417  114.595  33.0818  9.219814
  8561.720  8561.760  0.500  1.238686  114.208  33.0934  9.243500