File: xdidata/Co/Co-K-CobaltFoil.xdi
# XDI/1.0 BlueSky/1.10.0 BMM/2023-1.0-py310-tiled
# Beamline.name: BMM (06BM) -- Beamline for Materials Measurement (NIST)
# Beamline.xray_source: NSLS-II three-pole wiggler
# Beamline.collimation: paraboloid mirror, 5 nm Rh on 30 nm Pt
# Beamline.focusing: not in use
# Beamline.harmonic_rejection: flat mirror, Si stripe, pitch = 7.0 mrad relative to beam
# Beamline.software: Bluesky 1.10.0, Ophyd 1.7.0, DataBroker 2.0.0b13, Python 3.10.8, 2023-1.0-py310-tiled
# Detector.I0: 10 cm N2
# Detector.I1: 25 cm N2
# Detector.I2: 25 cm N2
# Element.symbol: Co
# Element.edge: K
# Element.reference: Co
# Element.reference_material: Co foil
# Facility.name: NSLS-II
# Facility.energy: 3.0
# Facility.current: 399.2
# Facility.mode: top-off
# Facility.GUP: 301027
# Facility.SAF: 310583
# Facility.cycle: 2023-2
# Mono.name: Si(111)
# Mono.d_spacing: 3.13519
# Mono.encoder_resolution: 0.0000050 deg/ct
# Mono.angle_offset: 16.0754 deg
# Mono.scan_mode: pseudo channel cut
# Mono.scan_type: step
# Mono.direction: forward in energy
# Sample.name: Co foil
# Sample.prep: reference foil
# Sample.x: 109.138 mm
# Sample.y: 153.150 mm
# Sample.SDD_position: 205.000 mm
# Scan.experimenters: Bruce Ravel
# Scan.edge_energy: 7708.9
# Scan.start_time: 2023-05-28T13:59:46
# Scan.end_time: 2023-05-28T14:07:54
# Scan.transient_id: 78742
# Scan.uid: be5c8c8e-dd20-4abb-873c-5684a41c70ff
# Scan.plot_hint: ln(It/Ir)  --  ln($6/$7)
# Column.1: energy eV
# Column.2: requested_energy eV
# Column.3: measurement_time seconds
# Column.4: xmu
# Column.5: I0 nA
# Column.6: It nA
# Column.7: Ir nA
# ///////////
# standard reference foil
# -----------
# energy  requested_energy  measurement_time  xmu  I0  It  Ir
  7508.918  7508.900  0.500  1.097293  145.256  158.953  53.0542
  7518.909  7518.900  0.500  1.092971  145.17  159.218  53.373
  7528.954  7528.900  0.500  1.088670  145.077  159.491  53.6948
  7538.985  7538.900  0.500  1.084454  144.972  159.758  54.0119
  7548.933  7548.900  0.500  1.080217  144.847  159.959  54.3096
  7558.927  7558.900  0.500  1.075894  144.771  160.238  54.6399
  7568.915  7568.900  0.500  1.071650  144.633  160.45  54.9451
  7578.918  7578.900  0.500  1.067455  144.538  160.694  55.26
  7588.924  7588.900  0.500  1.063280  144.392  160.906  55.5644
  7598.920  7598.900  0.500  1.059117  144.153  160.987  55.824
  7608.915  7608.900  0.500  1.054967  143.502  160.603  55.9226
  7618.916  7618.900  0.500  1.050954  143.526  160.993  56.2837
  7628.915  7628.900  0.500  1.046959  143.84  161.698  56.7567
  7638.917  7638.900  0.500  1.042998  143.753  161.989  57.0846
  7649.008  7648.900  0.500  1.039086  143.885  162.499  57.4885
  7658.871  7658.900  0.500  1.035373  143.986  162.915  57.8502
  7668.871  7668.900  0.500  1.031871  143.865  163.159  58.1402
  7678.881  7678.900  0.500  1.028599  143.716  163.303  58.3821
  7680.883  7680.900  0.500  1.027990  143.697  163.366  58.44
  7682.879  7682.900  0.500  1.027398  143.662  163.401  58.4873
  7684.883  7684.900  0.500  1.026882  143.604  163.398  58.5164
  7686.879  7686.900  0.500  1.026427  143.411  163.274  58.4987
  7688.880  7688.900  0.500  1.025971  142.408  162.18  58.1332
  7690.880  7690.900  0.500  1.025624  143.641  163.632  58.6739
  7692.881  7692.900  0.500  1.025394  143.579  163.631  58.687
  7694.883  7694.900  0.500  1.025225  143.537  163.66  58.7074
  7696.887  7696.900  0.500  1.025321  143.487  163.687  58.7114
  7698.889  7698.900  0.500  1.025638  143.45  163.739  58.7116
  7699.174  7699.200  0.500  1.025745  143.439  163.764  58.7141
  7699.478  7699.500  0.500  1.025890  143.956  164.349  58.9155
  7699.779  7699.800  0.500  1.025931  143.946  164.331  58.9063
  7700.077  7700.100  0.500  1.026124  143.936  164.351  58.9023
  7700.380  7700.400  0.500  1.026238  143.924  164.298  58.8766
  7700.681  7700.700  0.500  1.026376  143.913  164.332  58.8805
  7700.980  7701.000  0.500  1.026550  143.905  164.333  58.8709
  7701.281  7701.300  0.500  1.026749  143.899  164.334  58.8595
  7701.585  7701.600  0.500  1.026950  143.876  164.332  58.847
  7701.886  7701.900  0.500  1.027175  143.863  164.336  58.8352
  7702.177  7702.200  0.500  1.027431  143.855  164.323  58.8154
  7702.483  7702.500  0.500  1.027675  143.819  164.293  58.7903
  7702.779  7702.800  0.500  1.028013  143.807  164.3  58.7728
  7703.080  7703.100  0.500  1.028316  143.786  164.308  58.758
  7703.386  7703.400  0.500  1.028710  143.77  164.264  58.7193
  7703.685  7703.700  0.500  1.029090  143.752  164.218  58.6805
  7703.984  7704.000  0.500  1.029554  143.729  164.193  58.6441
  7704.293  7704.300  0.500  1.030086  143.691  164.134  58.5918
  7704.591  7704.600  0.500  1.030630  143.663  164.161  58.5696
  7704.893  7704.900  0.500  1.031309  143.611  164.143  58.5237
  7705.192  7705.200  0.500  1.032011  143.554  164.106  58.4692
  7705.498  7705.500  0.500  1.032794  143.461  164.002  58.3864
  7705.792  7705.800  0.500  1.033761  143.322  163.857  58.2784
  7706.088  7706.100  0.500  1.034874  142.944  163.386  58.0464
  7706.390  7706.400  0.500  1.036119  141.979  162.322  57.5965
  7706.689  7706.700  0.500  1.037586  140.578  160.741  56.952
  7706.990  7707.000  0.500  1.039528  140.17  160.299  56.6853
  7707.292  7707.300  0.500  1.041884  141.17  161.403  56.9414
  7707.588  7707.600  0.500  1.044727  142.61  163.072  57.3668
  7707.892  7707.900  0.500  1.048358  143.641  164.278  57.5816
  7708.189  7708.200  0.500  1.053157  143.891  164.574  57.409
  7708.490  7708.500  0.500  1.060216  143.888  164.579  57.0069
  7708.795  7708.800  0.500  1.070705  143.849  164.544  56.4001
  7709.096  7709.100  0.500  1.085334  143.824  164.534  55.5778
  7709.406  7709.400  0.500  1.105099  143.801  164.488  54.475
  7709.697  7709.700  0.500  1.127619  143.787  164.477  53.2581
  7709.996  7710.000  0.500  1.151340  143.761  164.464  52.0055
  7710.298  7710.300  0.500  1.174929  143.744  164.425  50.7813
  7710.595  7710.600  0.500  1.197610  143.73  164.419  49.6405
  7710.899  7710.900  0.500  1.219709  143.716  164.44  48.5618
  7711.193  7711.200  0.500  1.240596  143.699  164.42  47.5522
  7711.490  7711.500  0.500  1.260121  143.682  164.422  46.6334
  7711.792  7711.800  0.500  1.278308  143.66  164.424  45.7935
  7712.094  7712.100  0.500  1.293912  143.654  164.393  45.076
  7712.401  7712.400  0.500  1.306872  143.642  164.379  44.4918
  7712.700  7712.700  0.500  1.316844  143.632  164.379  44.0503
  7713.000  7713.000  0.500  1.324685  143.623  164.385  43.7077
  7713.302  7713.300  0.500  1.330674  143.617  164.402  43.4514
  7713.604  7713.600  0.500  1.334985  143.617  164.387  43.2605
  7713.901  7713.900  0.500  1.337981  143.595  164.395  43.1331
  7714.198  7714.200  0.500  1.340105  143.582  164.449  43.0556
  7714.500  7714.500  0.500  1.342291  143.576  164.455  42.9633
  7714.797  7714.800  0.500  1.344906  143.57  164.433  42.8453
  7715.094  7715.100  0.500  1.349146  143.558  164.42  42.6607
  7715.399  7715.400  0.500  1.354667  143.536  164.399  42.4203
  7715.693  7715.700  0.500  1.362220  143.528  164.419  42.1063
  7715.993  7716.000  0.500  1.371423  143.505  164.411  41.7185
  7716.301  7716.300  0.500  1.382269  143.491  164.367  41.2576
  7716.598  7716.600  0.500  1.393510  143.486  164.364  40.7956
  7716.900  7716.900  0.500  1.405166  143.466  164.374  40.3254
  7717.200  7717.200  0.500  1.416487  143.454  164.37  39.8705
  7717.497  7717.500  0.500  1.427415  143.43  164.36  39.4347
  7717.802  7717.800  0.500  1.438366  143.423  164.352  39.0033
  7718.102  7718.100  0.500  1.448874  143.412  164.366  38.5988
  7718.397  7718.400  0.500  1.459511  143.39  164.341  38.1845
  7718.697  7718.700  0.500  1.470479  143.367  164.333  37.7663
  7718.991  7719.000  0.500  1.481887  143.334  164.277  37.3252
  7719.296  7719.300  0.500  1.494315  143.294  164.229  36.8533
  7719.594  7719.600  0.500  1.506830  143.232  164.182  36.3845
  7719.891  7719.900  0.500  1.520098  143.143  164.124  35.8923
  7720.194  7720.200  0.500  1.533715  142.991  163.965  35.3726
  7720.497  7720.500  0.500  1.547981  142.595  163.477  34.7678
  7720.804  7720.800  0.500  1.563134  141.566  162.337  34.0062
  7721.104  7721.100  0.500  1.578938  140.126  160.684  33.1321
  7721.404  7721.400  0.500  1.596107  139.642  160.162  32.4623
  7721.702  7721.700  0.500  1.613912  140.524  161.224  32.1009
  7722.002  7722.000  0.500  1.632396  142.11  163.028  31.8655
  7722.308  7722.300  0.500  1.651017  143.219  164.3  31.5217
  7722.603  7722.600  0.500  1.669399  143.497  164.621  31.0081
  7722.900  7722.900  0.500  1.687792  143.512  164.613  30.4414
  7723.201  7723.200  0.500  1.706307  143.508  164.705  29.8997
  7723.496  7723.500  0.500  1.724913  143.491  164.687  29.3453
  7723.799  7723.800  0.500  1.743610  143.486  164.61  28.7883
  7724.099  7724.100  0.500  1.761258  143.461  164.62  28.2864
  7724.392  7724.400  0.500  1.777583  143.443  164.616  27.8277
  7724.697  7724.700  0.500  1.792096  143.422  164.608  27.4255
  7725.000  7725.000  0.500  1.804537  143.415  164.612  27.0871
  7725.311  7725.300  0.500  1.814456  143.4  164.616  26.8203
  7725.606  7725.600  0.500  1.821965  143.399  164.629  26.6218
  7725.897  7725.900  0.500  1.827310  143.387  164.634  26.4807
  7726.202  7726.200  0.500  1.831134  143.367  164.62  26.3774
  7726.505  7726.500  0.500  1.833505  143.35  164.596  26.311
  7726.808  7726.800  0.500  1.834332  143.338  164.58  26.2868
  7727.101  7727.100  0.500  1.834141  143.337  164.593  26.2938
  7727.389  7727.400  0.500  1.833033  143.322  164.603  26.3247
  7727.702  7727.700  0.500  1.831332  143.312  164.576  26.365
  7727.995  7728.000  0.500  1.829154  143.307  164.573  26.4221
  7728.296  7728.300  0.500  1.826658  143.303  164.578  26.4889
  7728.594  7728.600  0.500  1.823987  143.297  164.606  26.5643
  7728.898  7728.900  0.500  1.821268  143.296  164.619  26.6387
  7729.206  7729.200  0.500  1.818547  143.291  164.62  26.7114
  7729.507  7729.500  0.500  1.816326  143.277  164.589  26.7658
  7729.805  7729.800  0.500  1.814543  143.266  164.62  26.8186
  7730.103  7730.100  0.500  1.813551  143.257  164.616  26.8446
  7730.399  7730.400  0.500  1.813427  143.246  164.624  26.8492
  7730.708  7730.700  0.500  1.814273  143.23  164.596  26.822
  7731.006  7731.000  0.500  1.816125  143.23  164.586  26.7708
  7731.302  7731.300  0.500  1.818981  143.222  164.617  26.6994
  7731.603  7731.600  0.500  1.823319  143.211  164.622  26.5846
  7731.901  7731.900  0.500  1.828534  143.209  164.629  26.4475
  7732.197  7732.200  0.500  1.834677  143.193  164.606  26.2819
  7732.493  7732.500  0.500  1.841390  143.179  164.612  26.1069
  7732.799  7732.800  0.500  1.848465  143.169  164.613  25.9231
  7733.105  7733.100  0.500  1.855365  143.167  164.596  25.7421
  7733.399  7733.400  0.500  1.861692  143.158  164.593  25.5793
  7733.700  7733.700  0.500  1.867338  143.145  164.585  25.434
  7733.904  7733.900  0.500  1.870577  143.138  164.59  25.3526
  7734.899  7734.890  0.500  1.877556  143.12  164.592  25.1765
  7735.900  7735.890  0.500  1.869686  143.11  164.587  25.3747
  7736.924  7736.910  0.500  1.854644  143.072  164.575  25.7574
  7737.979  7737.960  0.500  1.841829  143.014  164.582  26.0907
  7739.037  7739.020  0.500  1.835093  142.925  164.521  26.2573
  7740.111  7740.100  0.500  1.829687  141.403  162.79  26.1219
  7741.210  7741.200  0.500  1.822187  141.355  162.793  26.319
  7742.333  7742.320  0.500  1.813311  143.068  164.815  26.8835
  7743.474  7743.460  0.500  1.806884  143.034  164.797  27.0539
  7744.615  7744.610  0.500  1.803191  143.015  164.807  27.1557
  7745.810  7745.790  0.500  1.800631  142.973  164.783  27.2212
  7746.991  7746.980  0.500  1.799632  142.943  164.784  27.2487
  7748.210  7748.200  0.500  1.801914  142.927  164.807  27.1904
  7749.435  7749.430  0.500  1.808529  142.898  164.792  27.0086
  7750.688  7750.680  0.500  1.820163  142.849  164.779  26.6941
  7751.960  7751.950  0.500  1.835118  142.83  164.827  26.3055
  7753.245  7753.240  0.500  1.852908  142.791  164.849  25.8451
  7754.561  7754.550  0.500  1.872066  142.771  164.898  25.3623
  7755.893  7755.880  0.500  1.891175  142.754  164.908  24.8838
  7757.231  7757.230  0.500  1.906388  142.718  164.906  24.5077
  7758.615  7758.600  0.500  1.914241  142.692  164.91  24.3166
  7759.995  7759.980  0.500  1.913200  142.659  164.934  24.3455
  7761.399  7761.390  0.500  1.904009  142.632  164.955  24.5734
  7762.818  7762.810  0.500  1.887143  142.597  164.978  24.9948
  7764.261  7764.250  0.500  1.865645  142.566  165.005  25.5422
  7765.718  7765.710  0.500  1.843522  142.556  165.016  26.1153
  7767.203  7767.190  0.500  1.824047  142.52  164.981  26.6232
  7768.694  7768.690  0.500  1.806090  142.507  164.99  27.1071
  7770.214  7770.210  0.500  1.791209  142.477  165.015  27.5176
  7771.758  7771.750  0.500  1.781452  142.442  165.069  27.7965
  7773.321  7773.310  0.500  1.776756  142.405  165.09  27.9309
  7774.892  7774.880  0.500  1.774761  142.365  165.057  27.9811
  7776.487  7776.480  0.500  1.771915  142.34  165.074  28.0638
  7778.098  7778.090  0.500  1.767334  142.319  165.127  28.2017
  7779.740  7779.730  0.500  1.763241  142.288  165.131  28.3181
  7781.384  7781.380  0.500  1.761563  142.257  165.168  28.3719
  7783.054  7783.050  0.500  1.763625  142.228  165.167  28.3133
  7784.753  7784.740  0.500  1.768886  142.181  165.159  28.1633
  7786.458  7786.450  0.500  1.774331  142.147  165.179  28.0139
  7788.190  7788.180  0.500  1.778754  142.115  165.228  27.8984
  7789.933  7789.930  0.500  1.784839  142.099  165.261  27.7348
  7791.692  7791.690  0.500  1.793826  142.065  165.28  27.4899
  7793.479  7793.480  0.500  1.803797  142.044  165.333  27.2258
  7795.284  7795.280  0.500  1.812459  142.019  165.325  26.9896
  7797.118  7797.110  0.500  1.821339  142.455  165.961  26.854
  7798.959  7798.950  0.500  1.832286  142.46  166.02  26.571
  7800.821  7800.810  0.500  1.846541  142.45  166.033  26.1971
  7802.695  7802.690  0.500  1.862544  142.42  166.098  25.7913
  7804.606  7804.590  0.500  1.876921  142.395  166.109  25.4247
  7806.512  7806.510  0.500  1.886769  142.365  166.091  25.1728
  7808.462  7808.450  0.500  1.889855  142.336  166.134  25.1018
  7810.417  7810.410  0.500  1.885101  142.297  166.187  25.2295
  7812.397  7812.380  0.500  1.874461  142.262  166.219  25.5043
  7814.386  7814.380  0.500  1.860768  142.219  166.237  25.8587
  7816.402  7816.390  0.500  1.845465  142.192  166.269  26.2625
  7818.427  7818.420  0.500  1.828239  142.157  166.304  26.7244
  7820.492  7820.480  0.500  1.811417  142.115  166.33  27.182
  7822.561  7822.550  0.500  1.798423  142.08  166.355  27.5417
  7824.657  7824.640  0.500  1.785852  142.026  166.369  27.8924
  7826.757  7826.750  0.500  1.769666  142.012  166.412  28.3549
  7828.903  7828.880  0.500  1.750473  141.981  166.455  28.9119
  7831.029  7831.020  0.500  1.733516  141.824  166.363  29.39
  7833.221  7833.190  0.500  1.721304  141.742  166.316  29.7427
  7835.363  7835.380  0.500  1.716259  141.813  166.457  29.9185
  7837.571  7837.580  0.500  1.717123  141.789  166.501  29.9006
  7839.791  7839.800  0.500  1.722598  140.821  165.439  29.5476
  7842.044  7842.050  0.500  1.731347  141.667  166.518  29.4814
  7844.311  7844.310  0.500  1.741614  141.654  166.575  29.1902
  7846.595  7846.590  0.500  1.751525  140.595  165.418  28.7016
  7848.900  7848.890  0.500  1.758388  141.538  166.592  28.7075
  7851.224  7851.210  0.500  1.759950  141.514  166.632  28.6696
  7853.555  7853.550  0.500  1.756682  141.462  166.651  28.7667
  7855.910  7855.900  0.500  1.751926  141.215  166.433  28.866
  7858.292  7858.280  0.500  1.750942  141.332  166.649  28.932
  7860.682  7860.670  0.500  1.758742  141.297  166.69  28.7144
  7863.103  7863.090  0.500  1.776355  141.26  166.74  28.2214
  7865.531  7865.520  0.500  1.798156  141.223  166.762  27.6164
  7867.982  7867.970  0.500  1.817626  141.174  166.773  27.0858
  7870.460  7870.450  0.500  1.830994  141.125  166.781  26.7274
  7872.954  7872.940  0.500  1.839119  141.079  166.783  26.5114
  7875.460  7875.450  0.500  1.843994  141.031  166.84  26.3915
  7877.983  7877.970  0.500  1.844747  140.981  166.864  26.3754
  7880.529  7880.520  0.500  1.838635  140.925  166.884  26.5403
  7883.103  7883.090  0.500  1.825010  140.875  166.921  26.9104
  7885.682  7885.670  0.500  1.804584  140.833  166.945  27.4697
  7888.279  7888.280  0.500  1.777565  140.786  166.976  28.2271
  7890.909  7890.900  0.500  1.746287  140.723  166.989  29.1263
  7893.565  7893.550  0.500  1.714610  140.674  167.027  30.0705
  7896.218  7896.210  0.500  1.688909  140.622  167.047  30.857
  7898.901  7898.890  0.500  1.673410  140.316  166.75  31.2834
  7901.606  7901.590  0.500  1.670287  140.387  166.9  31.4095
  7904.322  7904.310  0.500  1.677263  140.387  167.006  31.2109
  7907.063  7907.050  0.500  1.689626  140.345  167.061  30.8376
  7909.821  7909.800  0.500  1.702472  140.294  167.101  30.4513
  7912.594  7912.580  0.500  1.713540  140.248  167.108  30.1173
  7915.383  7915.370  0.500  1.721986  140.179  167.109  29.8642
  7918.209  7918.190  0.500  1.726463  140.121  167.131  29.7347
  7921.034  7921.020  0.500  1.727359  140.066  167.152  29.7118
  7923.899  7923.870  0.500  1.725537  140.003  167.133  29.7626
  7926.744  7926.750  0.500  1.722334  139.895  167.099  29.8521
  7929.640  7929.640  0.500  1.717704  139.564  166.81  29.9386
  7932.566  7932.550  0.500  1.710947  139.728  167.096  30.1934
  7935.479  7935.470  0.500  1.703726  139.621  167.021  30.3986
  7938.436  7938.420  0.500  1.700087  139.125  166.534  30.4203
  7941.403  7941.390  0.500  1.703975  139.737  167.377  30.4556
  7944.385  7944.370  0.500  1.714403  139.588  167.272  30.1208
  7947.394  7947.380  0.500  1.726309  139.48  167.248  29.7601
  7950.414  7950.400  0.500  1.735761  138.863  166.615  29.3685
  7953.460  7953.450  0.500  1.743107  139.279  167.238  29.2626
  7956.517  7956.510  0.500  1.747500  139.219  167.25  29.1364
  7959.609  7959.590  0.500  1.747848  139.128  167.247  29.1257
  7962.701  7962.690  0.500  1.742871  139.038  167.215  29.2655
  7965.825  7965.810  0.500  1.732082  138.945  167.173  29.5754
  7968.970  7968.950  0.500  1.716623  138.836  167.119  30.0265
  7972.116  7972.100  0.500  1.699959  138.696  167.085  30.525
  7975.291  7975.280  0.500  1.684293  138.505  166.966  30.9847
  7978.479  7978.470  0.500  1.672130  138.313  166.803  31.3334
  7981.711  7981.690  0.500  1.664036  137.855  166.358  31.5038
  7984.933  7984.920  0.500  1.659779  138.07  166.728  31.7084
  7988.184  7988.170  0.500  1.657642  138.012  166.784  31.787
  7991.462  7991.450  0.500  1.655271  137.939  166.765  31.8588
  7994.768  7994.740  0.500  1.652797  137.857  166.758  31.9365
  7998.071  7998.050  0.500  1.650168  137.749  166.749  32.0187
  8001.388  8001.370  0.500  1.647798  137.685  166.772  32.0992
  8004.730  8004.720  0.500  1.646741  137.605  166.76  32.1307
  8008.113  8008.090  0.500  1.647374  137.634  166.902  32.1378
  8011.490  8011.470  0.500  1.649050  137.675  167.037  32.11
  8014.896  8014.880  0.500  1.651247  137.663  167.108  32.0531
  8018.315  8018.300  0.500  1.653083  137.605  167.173  32.0067
  8021.762  8021.750  0.500  1.653936  137.522  167.167  31.9782
  8025.226  8025.210  0.500  1.654215  137.434  167.171  31.9702
  8028.713  8028.690  0.500  1.654736  137.346  167.145  31.9486
  8032.205  8032.190  0.500  1.655669  137.248  167.157  31.9211
  8035.720  8035.710  0.500  1.657483  137.149  167.167  31.865
  8039.257  8039.250  0.500  1.660095  137.038  167.162  31.781
  8042.811  8042.800  0.500  1.661966  136.936  167.126  31.7148
  8046.391  8046.380  0.500  1.661102  136.834  167.047  31.7272
  8049.988  8049.980  0.500  1.657671  136.721  167.04  31.8349
  8053.596  8053.590  0.500  1.651838  136.556  166.946  32.0031
  8057.228  8057.220  0.500  1.644362  136.054  166.407  32.1391
  8060.885  8060.880  0.500  1.636282  136.486  167.042  32.5235
  8064.559  8064.550  0.500  1.629381  136.311  166.968  32.7342
  8068.253  8068.240  0.500  1.625093  135.911  166.593  32.801
  8071.960  8071.950  0.500  1.623227  136.167  167.004  32.9435
  8075.686  8075.680  0.500  1.621973  136  166.909  32.966
  8079.433  8079.420  0.500  1.619004  130.38  160.122  31.7194
  8083.198  8083.190  0.500  1.613298  135.962  167.09  33.2892
  8086.994  8086.980  0.500  1.605622  135.759  166.942  33.516
  8090.793  8090.780  0.500  1.599621  134.634  165.675  33.462
  8094.625  8094.610  0.500  1.596567  135.675  167.049  33.8426
  8098.466  8098.450  0.500  1.594142  135.519  166.974  33.9095
  8102.327  8102.310  0.500  1.591713  135.393  166.924  33.9819
  8106.204  8106.190  0.500  1.589680  135.26  166.895  34.045
  8110.095  8110.090  0.500  1.588262  135.142  166.848  34.0838
  8114.024  8114.010  0.500  1.587298  135.021  166.812  34.1093
  8117.966  8117.950  0.500  1.586859  134.902  166.776  34.1168
  8121.923  8121.910  0.500  1.586603  134.773  166.73  34.1163
  8125.890  8125.880  0.500  1.586583  134.635  166.7  34.1107
  8129.891  8129.880  0.500  1.586534  134.499  166.634  34.0989
  8133.903  8133.890  0.500  1.586420  134.367  166.583  34.0924
  8137.941  8137.930  0.500  1.586046  134.249  166.557  34.0998
  8141.991  8141.980  0.500  1.585545  134.108  166.495  34.1042
  8146.072  8146.050  0.500  1.584843  133.978  166.412  34.111
  8150.151  8150.140  0.500  1.583457  133.846  166.351  34.146
  8154.260  8154.250  0.500  1.581169  133.718  166.302  34.214
  8158.390  8158.380  0.500  1.577337  133.579  166.234  34.3314
  8162.542  8162.530  0.500  1.572491  133.448  166.218  34.4949
  8166.707  8166.690  0.500  1.567253  133.32  166.179  34.6678
  8170.904  8170.880  0.500  1.562647  133.19  166.091  34.8095
  8175.095  8175.080  0.500  1.559158  133.039  166.04  34.9203
  8179.316  8179.310  0.500  1.556629  132.897  166.012  35.0029
  8183.564  8183.550  0.500  1.554588  132.766  165.958  35.063
  8187.828  8187.810  0.500  1.552624  132.621  165.894  35.1184
  8192.103  8192.090  0.500  1.550438  132.471  165.828  35.1812
  8196.411  8196.390  0.500  1.547335  132.346  165.803  35.2852
  8200.729  8200.710  0.500  1.543470  132.186  165.693  35.3984
  8205.102  8205.050  0.500  1.539411  132.042  165.637  35.5303
  8209.429  8209.410  0.500  1.535861  131.906  165.567  35.6417
  8213.817  8213.790  0.500  1.532720  131.755  165.497  35.7386
  8218.230  8218.180  0.500  1.529554  131.588  165.407  35.8325
  8222.656  8222.600  0.500  1.526218  131.446  165.371  35.9445
  8227.090  8227.030  0.500  1.523166  131.295  165.305  36.0398
  8231.500  8231.480  0.500  1.520597  131.146  165.235  36.1174
  8236.005  8235.950  0.500  1.518603  130.989  165.171  36.1753
  8240.442  8240.440  0.500  1.517143  130.828  165.092  36.2108
  8245.024  8244.950  0.500  1.516005  130.674  164.998  36.2315
  8249.553  8249.480  0.500  1.515130  130.503  164.863  36.2336
  8254.098  8254.030  0.500  1.514709  130.324  164.774  36.2291
  8258.667  8258.600  0.500  1.514574  130.161  164.699  36.2176
  8263.156  8263.180  0.500  1.513983  130.002  164.616  36.2208
  8267.810  8267.790  0.500  1.512825  129.831  164.532  36.2442
  8272.397  8272.410  0.500  1.510471  129.655  164.429  36.307
  8277.043  8277.060  0.500  1.506785  129.478  164.324  36.4177
  8281.775  8281.720  0.500  1.502660  129.222  164.116  36.5221
  8286.381  8286.400  0.500  1.498723  129.302  164.347  36.7176
  8291.149  8291.100  0.500  1.495207  129.332  164.493  36.8798
  8295.801  8295.820  0.500  1.492044  129.161  164.414  36.9788
  8300.570  8300.560  0.500  1.489019  129  164.331  37.072
  8305.301  8305.310  0.500  1.486236  128.8  164.192  37.1438
  8310.059  8310.090  0.500  1.483586  128.574  164.025  37.2046
  8314.919  8314.890  0.500  1.481108  126.95  162.068  36.852
  8319.726  8319.700  0.500  1.478466  127.904  163.432  37.2604
  8324.513  8324.530  0.500  1.475603  127.966  163.631  37.4127
  8329.385  8329.390  0.500  1.473027  127.852  163.613  37.5051
  8334.302  8334.260  0.500  1.471042  127.521  163.322  37.5129
  8339.132  8339.150  0.500  1.468543  127.262  163.104  37.5565
  8344.049  8344.060  0.500  1.466316  126.983  162.85  37.5816
  8348.956  8348.990  0.500  1.464411  126.685  162.574  37.5894
  8353.903  8353.930  0.500  1.461778  126.23  162.127  37.5848
  8358.879  8358.900  0.500  1.459387  126.056  162.032  37.6529
  8363.862  8363.890  0.500  1.456915  125.905  161.956  37.7282
  8368.866  8368.890  0.500  1.454516  125.722  161.869  37.7985
  8373.897  8373.920  0.500  1.452505  125.525  161.709  37.8373
  8378.940  8378.960  0.500  1.450736  125.342  161.615  37.8821
  8384.002  8384.020  0.500  1.448874  125.082  161.409  37.9044
  8389.112  8389.100  0.500  1.446725  124.796  161.148  37.9247
  8394.226  8394.200  0.500  1.444534  124.555  160.956  37.9624
  8399.303  8399.320  0.500  1.442193  124.303  160.747  38.0021
  8404.478  8404.460  0.500  1.439763  124.082  160.587  38.0566
  8409.647  8409.620  0.500  1.437387  123.848  160.386  38.0993
  8414.829  8414.800  0.500  1.435009  123.601  160.202  38.1461
  8420.021  8419.990  0.500  1.432307  123.352  160.026  38.2074
  8425.252  8425.210  0.500  1.429562  123.113  159.819  38.263
  8430.466  8430.440  0.500  1.426831  122.854  159.588  38.3119
  8435.705  8435.690  0.500  1.423936  122.6  159.383  38.3738
  8440.975  8440.960  0.500  1.421096  122.343  159.201  38.4389
  8446.274  8446.250  0.500  1.418259  122.061  158.945  38.4862
  8451.588  8451.560  0.500  1.415385  121.799  158.722  38.5428
  8456.875  8456.890  0.500  1.412433  121.519  158.435  38.5868
  8462.265  8462.240  0.500  1.409796  121.233  158.188  38.6283
  8467.664  8467.610  0.500  1.407251  120.939  157.933  38.6645
  8472.957  8472.990  0.500  1.404518  120.646  157.705  38.7142
  8478.386  8478.400  0.500  1.401687  120.359  157.476  38.7677
  8483.795  8483.820  0.500  1.398982  120.063  157.203  38.8053
  8489.328  8489.270  0.500  1.396445  119.753  156.918  38.8333
  8494.788  8494.730  0.500  1.393800  119.437  156.578  38.8519
  8500.230  8500.210  0.500  1.391152  119.101  156.278  38.8801
  8505.770  8505.710  0.500  1.388639  118.77  155.983  38.9045
  8511.264  8511.230  0.500  1.386095  118.427  155.645  38.9191
  8516.750  8516.770  0.500  1.383586  118.064  155.308  38.9322
  8522.306  8522.320  0.500  1.381157  117.654  154.855  38.9132
  8527.960  8527.900  0.500  1.378916  116.847  153.911  38.7628
  8533.527  8533.500  0.500  1.376683  115.71  152.55  38.5059
  8539.130  8539.110  0.500  1.374193  116.667  153.942  38.9541
  8544.807  8544.750  0.500  1.371615  116.306  153.59  38.9652
  8550.381  8550.400  0.500  1.368973  115.91  153.191  38.967
  8556.055  8556.070  0.500  1.366373  115.515  152.804  38.9697
  8561.808  8561.760  0.500  1.363883  115.11  152.369  38.9556