File: xdidata/Co/Co-K-CoO.xdi
# XDI/1.0 BlueSky/1.10.0 BMM/2023-1.0-py310-tiled
# Beamline.name: BMM (06BM) -- Beamline for Materials Measurement (NIST)
# Beamline.xray_source: NSLS-II three-pole wiggler
# Beamline.collimation: paraboloid mirror, 5 nm Rh on 30 nm Pt
# Beamline.focusing: not in use
# Beamline.harmonic_rejection: flat mirror, Si stripe, pitch = 7.0 mrad relative to beam
# Beamline.software: Bluesky 1.10.0, Ophyd 1.7.0, DataBroker 2.0.0b13, Python 3.10.8, 2023-1.0-py310-tiled
# Detector.I0: 10 cm N2
# Detector.I1: 25 cm N2
# Detector.I2: 25 cm N2
# Element.symbol: Co
# Element.edge: K
# Element.reference: Co
# Element.reference_material: Co foil
# Facility.name: NSLS-II
# Facility.energy: 3.0
# Facility.current: 400.8
# Facility.mode: top-off
# Facility.GUP: 301027
# Facility.SAF: 310583
# Facility.cycle: 2023-2
# Mono.name: Si(111)
# Mono.d_spacing: 3.13519
# Mono.encoder_resolution: 0.0000050 deg/ct
# Mono.angle_offset: 16.0754 deg
# Mono.scan_mode: pseudo channel cut
# Mono.scan_type: step
# Mono.direction: forward in energy
# Sample.name: CoO
# Sample.prep: powder on tape
# Sample.x: 117.785 mm
# Sample.y: 114.695 mm
# Sample.SDD_position: 205.000 mm
# Scan.experimenters: Bruce Ravel
# Scan.edge_energy: 7708.9
# Scan.start_time: 2023-06-23T14:53:53
# Scan.end_time: 2023-06-23T15:01:44
# Scan.transient_id: 84828
# Scan.uid: c9c436cf-da2a-4545-b064-bacc79489395
# Scan.plot_hint: ln(I0/It)  --  ln($5/$6)
# Column.1: energy eV
# Column.2: requested_energy eV
# Column.3: measurement_time seconds
# Column.4: xmu
# Column.5: I0 nA
# Column.6: It nA
# Column.7: Ir nA
# ///////////
# BMM standards collection
# -----------
# energy  requested_energy  measurement_time  xmu  I0  It  Ir
  7508.911  7508.900  0.500  1.412910  148.11  36.0551  13.7774
  7518.911  7518.900  0.500  1.404546  148.021  36.336  13.9377
  7528.987  7528.900  0.500  1.396302  147.923  36.6125  14.0965
  7538.951  7538.900  0.500  1.388480  147.813  36.8725  14.2503
  7548.933  7548.900  0.500  1.380411  147.667  37.1347  14.4037
  7558.915  7558.900  0.500  1.372714  147.548  37.3913  14.5584
  7568.920  7568.900  0.500  1.364869  147.438  37.6577  14.7171
  7578.923  7578.900  0.500  1.357113  147.305  37.9167  14.875
  7588.917  7588.900  0.500  1.349336  147.111  38.1625  15.0247
  7598.920  7598.900  0.500  1.341726  146.841  38.3833  15.1677
  7608.915  7608.900  0.500  1.333827  145.888  38.4368  15.2421
  7618.921  7618.900  0.500  1.326153  145.949  38.7489  15.4227
  7628.920  7628.900  0.500  1.318631  146.205  39.1099  15.6196
  7638.919  7638.900  0.500  1.311327  146.095  39.3671  15.7768
  7648.918  7648.900  0.500  1.304163  145.92  39.6025  15.925
  7658.916  7658.900  0.500  1.297362  145.738  39.8231  16.0667
  7668.922  7668.900  0.500  1.290947  145.585  40.0374  16.2024
  7678.914  7678.900  0.500  1.285238  145.361  40.2047  16.316
  7680.906  7680.900  0.500  1.284347  145.305  40.225  16.3321
  7682.902  7682.900  0.500  1.283313  145.244  40.2498  16.3485
  7684.899  7684.900  0.500  1.282449  145.134  40.254  16.3594
  7686.896  7686.900  0.500  1.281942  144.893  40.2074  16.3456
  7688.893  7688.900  0.500  1.281233  144.09  40.0131  16.2718
  7690.895  7690.900  0.500  1.280753  145.233  40.3499  16.4128
  7692.891  7692.900  0.500  1.280492  145.154  40.3383  16.4105
  7694.891  7694.900  0.500  1.280509  145.1  40.3227  16.4049
  7696.892  7696.900  0.500  1.280806  145.046  40.2958  16.3903
  7698.889  7698.900  0.500  1.281612  145.012  40.2539  16.3664
  7699.179  7699.200  0.500  1.281647  144.987  40.2455  16.3594
  7699.478  7699.500  0.500  1.281686  144.943  40.2317  16.3534
  7699.776  7699.800  0.500  1.282042  144.966  40.2238  16.3483
  7700.082  7700.100  0.500  1.282378  144.936  40.202  16.3376
  7700.378  7700.400  0.500  1.282475  144.927  40.1956  16.3328
  7700.684  7700.700  0.500  1.282701  144.932  40.1879  16.3273
  7700.977  7701.000  0.500  1.282989  144.912  40.1707  16.3174
  7701.281  7701.300  0.500  1.283166  144.895  40.1588  16.309
  7701.585  7701.600  0.500  1.283554  144.886  40.1409  16.2984
  7701.881  7701.900  0.500  1.283694  144.88  40.1335  16.2904
  7702.187  7702.200  0.500  1.284061  144.873  40.1169  16.2803
  7702.483  7702.500  0.500  1.284456  144.843  40.0928  16.2673
  7702.779  7702.800  0.500  1.284759  144.845  40.0811  16.2555
  7703.085  7703.100  0.500  1.285199  144.83  40.0592  16.2413
  7703.381  7703.400  0.500  1.285619  144.808  40.0365  16.2262
  7703.685  7703.700  0.500  1.286142  144.787  40.0096  16.2086
  7703.989  7704.000  0.500  1.286632  144.761  39.9828  16.1906
  7704.285  7704.300  0.500  1.287355  144.764  39.9548  16.1704
  7704.591  7704.600  0.500  1.287982  144.702  39.9127  16.1441
  7704.890  7704.900  0.500  1.288677  144.682  39.8795  16.1201
  7705.194  7705.200  0.500  1.289418  144.632  39.8361  16.0904
  7705.488  7705.500  0.500  1.290186  144.548  39.7824  16.0555
  7705.797  7705.800  0.500  1.291062  144.408  39.7092  16.01
  7706.096  7706.100  0.500  1.291926  144.02  39.5681  15.9353
  7706.390  7706.400  0.500  1.292982  142.905  39.2205  15.7746
  7706.691  7706.700  0.500  1.294204  141.517  38.7921  15.5767
  7706.993  7707.000  0.500  1.295616  141.32  38.6834  15.5011
  7707.289  7707.300  0.500  1.297202  142.42  38.9227  15.5604
  7707.586  7707.600  0.500  1.299310  143.831  39.2255  15.6359
  7707.892  7707.900  0.500  1.301684  144.714  39.3727  15.6377
  7708.189  7708.200  0.500  1.304913  144.864  39.2864  15.5224
  7708.490  7708.500  0.500  1.309270  144.864  39.1159  15.3433
  7708.790  7708.800  0.500  1.315250  144.844  38.8771  15.0897
  7709.091  7709.100  0.500  1.321915  144.821  38.6128  14.7609
  7709.393  7709.400  0.500  1.329276  144.811  38.3268  14.3554
  7709.702  7709.700  0.500  1.335681  144.797  38.0785  13.934
  7710.004  7710.000  0.500  1.341278  144.766  37.858  13.5212
  7710.293  7710.300  0.500  1.345274  144.748  37.7023  13.1537
  7710.600  7710.600  0.500  1.347221  144.724  37.6228  12.8275
  7710.897  7710.900  0.500  1.346668  144.729  37.6449  12.5543
  7711.201  7711.200  0.500  1.344738  144.723  37.7161  12.3177
  7711.495  7711.500  0.500  1.343263  144.711  37.7684  12.098
  7711.797  7711.800  0.500  1.343223  144.693  37.7653  11.8846
  7712.089  7712.100  0.500  1.345362  144.676  37.6801  11.6827
  7712.393  7712.400  0.500  1.349146  144.669  37.5361  11.4903
  7712.695  7712.700  0.500  1.354568  144.65  37.3282  11.3132
  7713.002  7713.000  0.500  1.361887  144.645  37.0547  11.1461
  7713.294  7713.300  0.500  1.371967  144.613  36.675  10.9683
  7713.599  7713.600  0.500  1.385598  144.61  36.1776  10.7748
  7713.896  7713.900  0.500  1.402822  144.587  35.5544  10.5595
  7714.200  7714.200  0.500  1.423926  144.59  34.8125  10.3163
  7714.500  7714.500  0.500  1.448692  144.578  33.958  10.0393
  7714.802  7714.800  0.500  1.475863  144.552  33.0419  9.741397
  7715.099  7715.100  0.500  1.505908  144.564  32.0665  9.416158
  7715.399  7715.400  0.500  1.538040  144.557  31.0511  9.066330
  7715.696  7715.700  0.500  1.573913  144.511  29.9475  8.679644
  7715.998  7716.000  0.500  1.615447  144.534  28.7336  8.250097
  7716.295  7716.300  0.500  1.662685  144.5  27.4013  7.784212
  7716.595  7716.600  0.500  1.718183  144.484  25.9193  7.279485
  7716.897  7716.900  0.500  1.781304  144.467  24.3309  6.753801
  7717.197  7717.200  0.500  1.850266  144.472  22.7103  6.229881
  7717.502  7717.500  0.500  1.920813  144.466  21.1624  5.739493
  7717.799  7717.800  0.500  1.990291  144.449  19.7397  5.296597
  7718.099  7718.100  0.500  2.058233  144.414  18.4387  4.892841
  7718.399  7718.400  0.500  2.122966  144.402  17.2814  4.535084
  7718.702  7718.700  0.500  2.186519  144.381  16.215  4.206437
  7719.002  7719.000  0.500  2.246493  144.358  15.2687  3.913247
  7719.299  7719.300  0.500  2.303857  144.324  14.4141  3.649807
  7719.596  7719.600  0.500  2.360003  144.288  13.6237  3.405116
  7719.894  7719.900  0.500  2.416021  144.189  12.8727  3.175431
  7720.191  7720.200  0.500  2.475486  144.059  12.1186  2.948528
  7720.497  7720.500  0.500  2.541174  143.694  11.3194  2.715843
  7720.797  7720.800  0.500  2.617429  142.561  10.4056  2.458633
  7721.102  7721.100  0.500  2.707189  141.087  9.413900  2.190365
  7721.407  7721.400  0.500  2.814639  140.664  8.429461  1.928480
  7721.702  7721.700  0.500  2.932411  141.605  7.543108  1.695426
  7722.007  7722.000  0.500  3.054494  143.229  6.752749  1.489663
  7722.302  7722.300  0.500  3.166771  144.195  6.076302  1.315776
  7722.598  7722.600  0.500  3.268980  144.433  5.494974  1.167678
  7722.898  7722.900  0.500  3.354174  144.444  5.046612  1.051923
  7723.201  7723.200  0.500  3.424993  144.435  4.701294  0.960889
  7723.501  7723.500  0.500  3.484304  144.421  4.430138  0.888649
  7723.794  7723.800  0.500  3.532718  144.408  4.220384  0.830321
  7724.096  7724.100  0.500  3.576416  144.383  4.039239  0.780717
  7724.394  7724.400  0.500  3.615522  144.352  3.883495  0.738120
  7724.697  7724.700  0.500  3.657390  144.358  3.724407  0.698016
  7725.005  7725.000  0.500  3.703819  144.334  3.554854  0.657770
  7725.301  7725.300  0.500  3.756469  144.327  3.372354  0.617922
  7725.609  7725.600  0.500  3.816533  144.301  3.175203  0.577272
  7725.904  7725.900  0.500  3.880169  144.307  2.979551  0.538369
  7726.205  7726.200  0.500  3.942120  144.298  2.800398  0.504068
  7726.503  7726.500  0.500  3.993080  144.294  2.661196  0.477568
  7726.798  7726.800  0.500  4.024328  144.251  2.578542  0.462339
  7727.096  7727.100  0.500  4.029736  144.266  2.564911  0.459446
  7727.394  7727.400  0.500  4.009202  144.254  2.617896  0.469512
  7727.697  7727.700  0.500  3.966084  144.232  2.732841  0.490978
  7728.001  7728.000  0.500  3.905313  144.241  2.904243  0.523207
  7728.304  7728.300  0.500  3.832744  144.232  3.122637  0.563926
  7728.594  7728.600  0.500  3.750412  144.211  3.390117  0.614008
  7728.903  7728.900  0.500  3.660403  144.211  3.709405  0.674180
  7729.201  7729.200  0.500  3.570611  144.223  4.058238  0.738914
  7729.499  7729.500  0.500  3.482505  144.186  4.430888  0.809025
  7729.805  7729.800  0.500  3.400621  144.195  4.809263  0.879390
  7730.103  7730.100  0.500  3.329513  144.15  5.162106  0.944604
  7730.402  7730.400  0.500  3.268405  144.161  5.487811  1.004549
  7730.700  7730.700  0.500  3.217615  144.157  5.773542  1.056481
  7730.991  7731.000  0.500  3.175911  144.151  6.019165  1.098781
  7731.292  7731.300  0.500  3.141521  144.128  6.228783  1.134397
  7731.595  7731.600  0.500  3.113977  144.125  6.402576  1.160759
  7731.899  7731.900  0.500  3.091686  144.089  6.545279  1.180439
  7732.202  7732.200  0.500  3.072008  144.076  6.674741  1.196308
  7732.506  7732.500  0.500  3.051985  144.306  6.820645  1.214128
  7732.804  7732.800  0.500  3.030119  144.321  6.972122  1.233222
  7733.103  7733.100  0.500  3.004367  144.29  7.152492  1.256097
  7733.406  7733.400  0.500  2.974228  144.3  7.371841  1.287350
  7733.705  7733.700  0.500  2.940149  144.28  7.626325  1.324497
  7733.901  7733.900  0.500  2.915224  144.283  7.818969  1.354207
  7734.899  7734.890  0.500  2.796637  144.245  8.801107  1.515437
  7735.908  7735.890  0.500  2.719276  144.216  9.507059  1.651717
  7736.929  7736.910  0.500  2.690304  144.163  9.782924  1.725170
  7737.974  7737.960  0.500  2.707498  144.093  9.611493  1.715977
  7739.029  7739.020  0.500  2.767233  143.962  9.045943  1.625884
  7740.121  7740.100  0.500  2.864951  142.172  8.101790  1.463264
  7741.215  7741.200  0.500  2.952498  142.393  7.434211  1.353288
  7742.333  7742.320  0.500  2.982886  144.182  7.302297  1.340300
  7743.469  7743.460  0.500  2.951873  144.137  7.529994  1.391034
  7744.618  7744.610  0.500  2.889444  144.124  8.014313  1.485822
  7745.798  7745.790  0.500  2.829962  144.072  8.502429  1.580338
  7746.991  7746.980  0.500  2.790566  144.047  8.842564  1.645079
  7748.213  7748.200  0.500  2.760225  144.018  9.113080  1.690542
  7749.443  7749.430  0.500  2.732221  143.998  9.370636  1.726406
  7750.683  7750.680  0.500  2.709805  143.952  9.579957  1.745007
  7751.960  7751.950  0.500  2.697761  143.917  9.693664  1.738583
  7753.253  7753.240  0.500  2.696386  143.871  9.703940  1.709502
  7754.554  7754.550  0.500  2.707642  143.86  9.594571  1.658756
  7755.886  7755.880  0.500  2.733892  143.823  9.343586  1.584163
  7757.239  7757.230  0.500  2.764607  143.788  9.058782  1.513061
  7758.605  7758.600  0.500  2.793708  143.777  8.798252  1.458256
  7759.995  7759.980  0.500  2.817460  143.736  8.589295  1.425129
  7761.396  7761.390  0.500  2.834935  143.706  8.438771  1.412610
  7762.826  7762.810  0.500  2.860040  143.667  8.227289  1.401164
  7764.266  7764.250  0.500  2.912396  143.631  7.805677  1.357365
  7765.720  7765.710  0.500  2.991616  143.608  7.210017  1.281270
  7767.206  7767.190  0.500  3.072913  143.571  6.645343  1.204537
  7768.705  7768.690  0.500  3.139865  143.548  6.214009  1.146710
  7770.217  7770.210  0.500  3.182265  143.494  5.953789  1.115333
  7771.769  7771.750  0.500  3.205518  143.492  5.816865  1.099635
  7773.318  7773.310  0.500  3.222220  143.447  5.718709  1.086142
  7774.897  7774.880  0.500  3.232011  143.391  5.660800  1.077411
  7776.492  7776.480  0.500  3.212477  143.345  5.770587  1.101402
  7778.095  7778.090  0.500  3.165499  143.317  6.046997  1.159418
  7779.743  7779.730  0.500  3.106237  143.274  6.414250  1.235220
  7781.386  7781.380  0.500  3.045777  143.24  6.812400  1.314131
  7783.064  7783.050  0.500  2.985140  143.199  7.236209  1.392405
  7784.756  7784.740  0.500  2.933903  143.175  7.615313  1.457575
  7786.463  7786.450  0.500  2.897197  143.125  7.897298  1.503357
  7788.200  7788.180  0.500  2.863543  143.082  8.165148  1.546896
  7789.938  7789.930  0.500  2.828387  143.058  8.455857  1.592481
  7791.713  7791.690  0.500  2.797849  143.004  8.714789  1.625782
  7793.494  7793.480  0.500  2.776784  142.975  8.898541  1.643728
  7795.299  7795.280  0.500  2.767243  142.895  8.978792  1.644705
  7797.118  7797.110  0.500  2.773411  142.886  8.923051  1.619999
  7798.969  7798.950  0.500  2.794989  142.849  8.730273  1.567083
  7800.824  7800.810  0.500  2.824856  142.818  8.471587  1.498857
  7802.702  7802.690  0.500  2.854108  142.77  8.224569  1.431483
  7804.608  7804.590  0.500  2.871722  142.72  8.078177  1.385813
  7806.520  7806.510  0.500  2.874525  142.668  8.052579  1.367846
  7808.464  7808.450  0.500  2.871483  142.641  8.075631  1.367783
  7810.428  7810.410  0.500  2.871023  142.588  8.076326  1.374501
  7812.397  7812.380  0.500  2.873281  142.548  8.055829  1.385779
  7814.396  7814.380  0.500  2.881560  142.507  7.987148  1.392485
  7816.412  7816.390  0.500  2.902173  142.447  7.820876  1.384970
  7818.430  7818.420  0.500  2.934351  142.395  7.570437  1.363622
  7820.500  7820.480  0.500  2.967678  142.319  7.318401  1.340500
  7822.564  7822.550  0.500  2.984928  142.294  7.192001  1.333629
  7824.662  7824.640  0.500  2.980551  142.26  7.221797  1.356801
  7826.760  7826.750  0.500  2.959574  142.222  7.372934  1.408415
  7828.911  7828.880  0.500  2.926014  142.165  7.621495  1.483699
  7831.029  7831.020  0.500  2.884579  141.918  7.930163  1.570192
  7833.206  7833.190  0.500  2.838798  141.928  8.302209  1.663665
  7835.394  7835.380  0.500  2.793500  141.998  8.691234  1.750116
  7837.597  7837.580  0.500  2.758072  141.969  9.002843  1.810605
  7839.809  7839.800  0.500  2.748513  140.997  9.027076  1.805880
  7842.065  7842.050  0.500  2.771899  141.802  8.868726  1.758438
  7844.332  7844.310  0.500  2.819958  141.804  8.452733  1.658535
  7846.611  7846.590  0.500  2.874057  140.684  7.944362  1.543866
  7848.908  7848.890  0.500  2.913786  141.66  7.687856  1.483847
  7851.224  7851.210  0.500  2.927680  141.618  7.579536  1.460219
  7853.565  7853.550  0.500  2.915286  141.521  7.668788  1.481734
  7855.916  7855.900  0.500  2.888788  141.363  7.865963  1.526184
  7858.299  7858.280  0.500  2.863565  141.451  8.071882  1.567181
  7860.682  7860.670  0.500  2.850185  141.395  8.177395  1.574302
  7863.106  7863.090  0.500  2.853772  141.328  8.144220  1.540659
  7865.536  7865.520  0.500  2.866956  141.283  8.035027  1.485977
  7867.990  7867.970  0.500  2.880769  141.215  7.920972  1.437330
  7870.466  7870.450  0.500  2.894595  141.17  7.809707  1.397973
  7872.959  7872.940  0.500  2.906519  141.117  7.714279  1.370435
  7875.468  7875.450  0.500  2.910493  141.059  7.680492  1.357211
  7877.988  7877.970  0.500  2.904632  141.007  7.722831  1.363881
  7880.540  7880.520  0.500  2.888985  140.909  7.839165  1.393149
  7883.106  7883.090  0.500  2.863597  140.885  8.039331  1.448887
  7885.688  7885.670  0.500  2.829719  140.796  8.311110  1.528837
  7888.303  7888.280  0.500  2.788563  140.756  8.657814  1.637317
  7890.920  7890.900  0.500  2.744877  140.676  9.039336  1.763262
  7893.573  7893.550  0.500  2.704835  140.612  9.404292  1.892616
  7896.226  7896.210  0.500  2.676278  140.555  9.672822  1.997180
  7898.912  7898.890  0.500  2.663956  140.096  9.760771  2.046328
  7901.606  7901.590  0.500  2.671282  140.34  9.706431  2.040366
  7904.333  7904.310  0.500  2.696836  140.304  9.459057  1.973514
  7907.068  7907.050  0.500  2.732206  140.245  9.126511  1.880783
  7909.815  7909.800  0.500  2.766251  140.17  8.816339  1.793392
  7912.602  7912.580  0.500  2.794093  140.107  8.570421  1.724562
  7915.383  7915.370  0.500  2.812980  140.028  8.405304  1.676945
  7918.201  7918.190  0.500  2.822850  139.965  8.318984  1.652397
  7921.045  7921.020  0.500  2.824145  139.886  8.303576  1.647521
  7923.894  7923.870  0.500  2.818934  139.823  8.343167  1.658080
  7926.771  7926.750  0.500  2.811120  139.745  8.403951  1.675469
  7929.659  7929.640  0.500  2.802854  139.393  8.452333  1.692678
  7932.571  7932.550  0.500  2.793296  139.542  8.542630  1.721437
  7935.490  7935.470  0.500  2.782942  139.429  8.624560  1.750203
  7938.441  7938.420  0.500  2.775257  138.902  8.658248  1.763051
  7941.400  7941.390  0.500  2.769022  139.506  8.750284  1.774530
  7944.388  7944.370  0.500  2.760262  139.355  8.817712  1.769063
  7947.389  7947.380  0.500  2.748146  139.222  8.916674  1.768114
  7950.414  7950.400  0.500  2.736094  138.579  8.983106  1.764294
  7953.471  7953.450  0.500  2.726143  138.986  9.099577  1.774084
  7956.520  7956.510  0.500  2.721731  138.946  9.137196  1.773551
  7959.609  7959.590  0.500  2.721299  138.827  9.133327  1.771959
  7962.704  7962.690  0.500  2.719298  138.757  9.146973  1.784377
  7965.822  7965.810  0.500  2.710370  138.658  9.222467  1.817783
  7968.965  7968.950  0.500  2.695130  138.524  9.355057  1.872956
  7972.118  7972.100  0.500  2.678127  138.383  9.505785  1.934919
  7975.304  7975.280  0.500  2.666151  138.191  9.606939  1.986062
  7978.482  7978.470  0.500  2.659409  137.991  9.657960  2.020681
  7981.711  7981.690  0.500  2.657858  137.6  9.645490  2.033834
  7984.938  7984.920  0.500  2.660914  137.743  9.626108  2.038113
  7988.184  7988.170  0.500  2.665956  137.637  9.570326  2.031082
  7991.498  7991.450  0.500  2.673036  137.582  9.499001  2.020026
  7994.782  7994.740  0.500  2.681133  137.528  9.418685  2.008355
  7998.093  7998.050  0.500  2.688501  137.4  9.340802  1.996560
  8001.383  8001.370  0.500  2.692980  137.319  9.293576  1.990387
  8004.733  8004.720  0.500  2.693660  137.231  9.281344  1.989742
  8008.157  8008.090  0.500  2.691628  137.242  9.300941  1.992104
  8011.515  8011.470  0.500  2.688615  137.253  9.329776  1.995446
  8014.893  8014.880  0.500  2.682973  137.199  9.378883  2.000423
  8018.334  8018.300  0.500  2.670865  137.141  9.489137  2.019461
  8021.823  8021.750  0.500  2.652205  137.056  9.661876  2.054934
  8025.191  8025.210  0.500  2.632752  136.955  9.844408  2.093036
  8028.682  8028.690  0.500  2.618740  136.878  9.977701  2.119738
  8032.180  8032.190  0.500  2.611507  136.765  10.0418  2.130717
  8035.775  8035.710  0.500  2.609364  136.671  10.0565  2.129402
  8039.216  8039.250  0.500  2.609596  136.549  10.0452  2.121388
  8042.789  8042.800  0.500  2.609065  136.433  10.0419  2.116864
  8046.460  8046.380  0.500  2.605673  136.329  10.0684  2.124393
  8050.063  8049.980  0.500  2.598980  136.2  10.1264  2.143442
  8053.577  8053.590  0.500  2.591736  136.019  10.1864  2.168630
  8057.203  8057.220  0.500  2.587202  135.34  10.1817  2.183467
  8060.901  8060.880  0.500  2.587685  136.068  10.2315  2.212091
  8064.520  8064.550  0.500  2.590135  135.832  10.1887  2.216495
  8068.209  8068.240  0.500  2.592181  135.473  10.141  2.215784
  8071.935  8071.950  0.500  2.594105  135.594  10.1306  2.217885
  8075.656  8075.680  0.500  2.596640  135.471  10.0958  2.212044
  8079.425  8079.420  0.500  2.598753  129.806  9.653158  2.121498
  8083.167  8083.190  0.500  2.597349  135.302  10.076  2.226825
  8086.977  8086.980  0.500  2.592982  135.09  10.1042  2.249254
  8090.746  8090.780  0.500  2.586520  133.548  10.0537  2.251943
  8094.572  8094.610  0.500  2.577704  135.098  10.2605  2.305217
  8098.536  8098.450  0.500  2.566497  134.952  10.3649  2.333502
  8102.274  8102.310  0.500  2.550801  134.795  10.5166  2.373528
  8106.153  8106.190  0.500  2.534988  134.657  10.6732  2.412606
  8110.059  8110.090  0.500  2.524320  134.509  10.7759  2.439521
  8114.036  8114.010  0.500  2.519179  134.394  10.8222  2.451585
  8117.935  8117.950  0.500  2.518799  134.23  10.8131  2.450806
  8121.869  8121.910  0.500  2.520666  134.133  10.7851  2.444738
  8125.847  8125.880  0.500  2.521263  134.004  10.7683  2.440889
  8129.880  8129.880  0.500  2.518461  133.868  10.7875  2.444506
  8133.871  8133.890  0.500  2.513024  133.732  10.8354  2.455660
  8137.901  8137.930  0.500  2.507243  133.56  10.8841  2.466850
  8141.943  8141.980  0.500  2.502737  133.433  10.9229  2.476624
  8146.032  8146.050  0.500  2.497960  133.293  10.9637  2.487515
  8150.117  8150.140  0.500  2.493006  133.15  11.0063  2.499496
  8154.229  8154.250  0.500  2.488956  133.001  11.0387  2.513215
  8158.356  8158.380  0.500  2.486275  132.85  11.0557  2.525861
  8162.496  8162.530  0.500  2.483786  132.722  11.0725  2.541936
  8166.664  8166.690  0.500  2.480565  133.078  11.1381  2.569663
  8170.853  8170.880  0.500  2.478800  133.094  11.1591  2.585789
  8175.058  8175.080  0.500  2.478980  132.963  11.1461  2.591657
  8179.298  8179.310  0.500  2.478647  132.815  11.1374  2.595304
  8183.512  8183.550  0.500  2.475465  132.677  11.1613  2.605857
  8187.837  8187.810  0.500  2.469559  132.527  11.2148  2.623202
  8192.074  8192.090  0.500  2.462814  132.385  11.2785  2.643667
  8196.362  8196.390  0.500  2.456624  132.22  11.3344  2.665013
  8200.680  8200.710  0.500  2.450306  132.023  11.3893  2.687620
  8205.006  8205.050  0.500  2.443592  131.909  11.4561  2.713704
  8209.383  8209.410  0.500  2.437015  131.76  11.5186  2.738565
  8213.765  8213.790  0.500  2.430144  131.582  11.5824  2.761491
  8218.195  8218.180  0.500  2.423689  131.418  11.6429  2.784263
  8222.572  8222.600  0.500  2.417507  131.271  11.7019  2.807393
  8226.997  8227.030  0.500  2.413178  131.108  11.7381  2.824060
  8231.453  8231.480  0.500  2.409620  130.905  11.7618  2.836969
  8235.935  8235.950  0.500  2.405220  130.778  11.8022  2.852646
  8240.419  8240.440  0.500  2.399444  130.619  11.8561  2.868742
  8244.925  8244.950  0.500  2.394243  130.445  11.902  2.881796
  8249.456  8249.480  0.500  2.389706  130.276  11.9407  2.894108
  8253.999  8254.030  0.500  2.386052  130.091  11.9674  2.900736
  8258.588  8258.600  0.500  2.383850  129.924  11.9783  2.904553
  8263.150  8263.180  0.500  2.382904  129.707  11.9697  2.902873
  8267.761  8267.790  0.500  2.383058  129.578  11.9559  2.902310
  8272.383  8272.410  0.500  2.381342  129.378  11.958  2.909350
  8277.022  8277.060  0.500  2.377126  129.218  11.9936  2.928009
  8281.684  8281.720  0.500  2.370684  128.962  12.0472  2.952470
  8286.367  8286.400  0.500  2.362877  128.793  12.1258  2.983101
  8291.072  8291.100  0.500  2.355794  128.57  12.1908  3.009239
  8295.786  8295.820  0.500  2.350147  128.435  12.247  3.032437
  8300.529  8300.560  0.500  2.345860  128.226  12.2796  3.049039
  8305.275  8305.310  0.500  2.342178  128.04  12.3069  3.064187
  8310.076  8310.090  0.500  2.337549  127.772  12.3382  3.079690
  8314.863  8314.890  0.500  2.331608  126.335  12.2721  3.070300
  8319.688  8319.700  0.500  2.325342  127.154  12.4293  3.117535
  8324.504  8324.530  0.500  2.319781  127.183  12.5014  3.143479
  8329.367  8329.390  0.500  2.315375  127.05  12.5436  3.161959
  8334.281  8334.260  0.500  2.311576  126.719  12.5585  3.170915
  8339.168  8339.150  0.500  2.307355  126.456  12.5854  3.186046
  8344.037  8344.060  0.500  2.302859  126.162  12.6128  3.198219
  8348.980  8348.990  0.500  2.298650  125.841  12.6337  3.210162
  8353.927  8353.930  0.500  2.294503  125.371  12.6388  3.219375
  8358.885  8358.900  0.500  2.290382  125.19  12.6727  3.235312
  8363.856  8363.890  0.500  2.286129  125.043  12.7118  3.252176
  8368.872  8368.890  0.500  2.282698  124.85  12.7358  3.266799
  8373.900  8373.920  0.500  2.279430  124.664  12.7585  3.277281
  8378.931  8378.960  0.500  2.275755  124.475  12.786  3.290348
  8384.008  8384.020  0.500  2.270855  124.261  12.8267  3.306972
  8389.130  8389.100  0.500  2.265231  123.952  12.867  3.323932
  8394.186  8394.200  0.500  2.259231  123.702  12.9183  3.343492
  8399.294  8399.320  0.500  2.253840  123.435  12.9601  3.361719
  8404.436  8404.460  0.500  2.248900  123.215  13.0011  3.380230
  8409.605  8409.620  0.500  2.243895  122.969  13.0402  3.397793
  8414.762  8414.800  0.500  2.239132  122.741  13.0782  3.415284
  8420.003  8419.990  0.500  2.235126  122.479  13.1026  3.429538
  8425.188  8425.210  0.500  2.230966  122.228  13.1303  3.446123
  8430.408  8430.440  0.500  2.226363  121.931  13.1588  3.462895
  8435.663  8435.690  0.500  2.220710  121.684  13.2066  3.485355
  8440.945  8440.960  0.500  2.215161  121.466  13.2563  3.508083
  8446.215  8446.250  0.500  2.209993  121.19  13.2947  3.526481
  8451.536  8451.560  0.500  2.205164  120.927  13.3301  3.545717
  8456.854  8456.890  0.500  2.200183  120.639  13.3648  3.564629
  8462.206  8462.240  0.500  2.195377  120.334  13.3951  3.581487
  8467.578  8467.610  0.500  2.190705  120.082  13.4298  3.599746
  8472.963  8472.990  0.500  2.186121  119.773  13.4567  3.615587
  8478.368  8478.400  0.500  2.181889  119.511  13.4842  3.633677
  8483.779  8483.820  0.500  2.178012  119.224  13.5041  3.648564
  8489.238  8489.270  0.500  2.174768  118.907  13.512  3.659129
  8494.683  8494.730  0.500  2.171367  118.605  13.5236  3.670142
  8500.175  8500.210  0.500  2.167326  118.314  13.545  3.685570
  8505.668  8505.710  0.500  2.162345  118.004  13.5769  3.703245
  8511.202  8511.230  0.500  2.157181  117.639  13.605  3.720185
  8516.744  8516.770  0.500  2.151931  117.294  13.6365  3.736156
  8522.325  8522.320  0.500  2.146712  116.866  13.6579  3.751727
  8527.869  8527.900  0.500  2.141449  115.902  13.6167  3.746972
  8533.474  8533.500  0.500  2.136543  115.777  13.6689  3.769706
  8539.068  8539.110  0.500  2.131596  116.233  13.7908  3.811567
  8544.703  8544.750  0.500  2.126489  115.841  13.8147  3.827687
  8550.375  8550.400  0.500  2.121517  115.461  13.838  3.843080
  8556.042  8556.070  0.500  2.116711  115.086  13.8594  3.858920
  8561.735  8561.760  0.500  2.112028  114.673  13.8745  3.872917