File: xdidata/Data/Gd/Gd-L1-Gd2TiO5.xdi
# XDI/1.0 BlueSky/1.10.0 BMM/2023-1.0-py310-tiled
# Beamline.name: BMM (06BM) -- Beamline for Materials Measurement (NIST)
# Beamline.xray_source: NSLS-II three-pole wiggler
# Beamline.collimation: paraboloid mirror, 5 nm Rh on 30 nm Pt
# Beamline.focusing: not in use
# Beamline.harmonic_rejection: flat mirror, Pt stripe, pitch = 7.0 mrad relative to beam
# Beamline.software: Bluesky 1.10.0, Ophyd 1.7.0, DataBroker 2.0.0b13, Python 3.10.8, 2023-1.0-py310-tiled
# Detector.I0: 10 cm N2
# Detector.I1: 25 cm N2
# Detector.I2: 25 cm N2
# Element.symbol: Gd
# Element.edge: L1
# Element.reference: Gd
# Element.reference_material: Gd2O3
# Facility.name: NSLS-II
# Facility.energy: 3.0
# Facility.current: 400.7
# Facility.mode: top-off
# Facility.GUP: 123456
# Facility.SAF: 301027
# Facility.cycle: 2023-2
# Mono.name: Si(111)
# Mono.d_spacing: 3.13519
# Mono.encoder_resolution: 0.0000050 deg/ct
# Mono.angle_offset: 16.0754 deg
# Mono.scan_mode: pseudo channel cut
# Mono.scan_type: step
# Mono.direction: forward in energy
# Sample.name: Gd2TiO5
# Sample.prep: Powder in PEG pellet
# Sample.x: 149.848 mm
# Sample.y: 114.690 mm
# Sample.SDD_position: 205.000 mm
# Scan.experimenters: Bruce Ravel
# Scan.edge_energy: 8375.6
# Scan.start_time: 2023-05-08T21:44:31
# Scan.end_time: 2023-05-08T21:50:19
# Scan.transient_id: 75642
# Scan.uid: db14f2a7-34ec-48bb-8d73-ce3c7c4dc71f
# Scan.plot_hint: ln(I0/It)  --  ln($5/$6)
# Column.1: energy eV
# Column.2: requested_energy eV
# Column.3: measurement_time seconds
# Column.4: xmu
# Column.5: I0 nA
# Column.6: It nA
# Column.7: Ir nA
# ///////////
# sample courtesy Martin Stennett, University of Sheffield
# -----------
# energy  requested_energy  measurement_time  xmu  I0  It  Ir
  8175.604  8175.600  0.500  1.114759  135.877  44.5668  11.4374
  8185.655  8185.600  0.500  1.108005  135.708  44.8131  11.5468
  8195.631  8195.600  0.500  1.102119  135.543  45.023  11.6533
  8205.649  8205.600  0.500  1.097392  135.37  45.1783  11.7505
  8215.655  8215.600  0.500  1.092563  135.18  45.3332  11.8503
  8225.655  8225.600  0.500  1.087403  135.004  45.5085  11.9438
  8235.621  8235.600  0.500  1.081092  134.788  45.7234  12.0438
  8245.618  8245.600  0.500  1.075241  134.618  45.9337  12.1516
  8255.625  8255.600  0.500  1.070040  134.428  46.1082  12.2542
  8265.623  8265.600  0.500  1.065577  134.258  46.2559  12.3447
  8275.616  8275.600  0.500  1.061454  134.071  46.3822  12.428
  8285.619  8285.600  0.500  1.056712  133.846  46.5246  12.519
  8295.618  8295.600  0.500  1.051262  133.667  46.716  12.618
  8305.624  8305.600  0.500  1.045858  133.48  46.9035  12.718
  8315.616  8315.600  0.500  1.040226  133.288  47.1005  12.8227
  8325.621  8325.600  0.500  1.035170  133.088  47.2684  12.9232
  8335.570  8335.600  0.500  1.030899  132.693  47.3297  12.9949
  8345.580  8345.600  0.500  1.026953  132.335  47.3887  13.0602
  8347.582  8347.600  0.500  1.026119  132.287  47.411  13.0776
  8349.584  8349.600  0.500  1.025460  132.143  47.3906  13.0819
  8351.575  8351.600  0.500  1.024552  131.971  47.3718  13.0868
  8353.580  8353.600  0.500  1.023850  131.833  47.3557  13.092
  8355.579  8355.600  0.500  1.022738  131.826  47.4057  13.114
  8357.579  8357.600  0.500  1.021794  131.793  47.4387  13.1316
  8359.578  8359.600  0.500  1.021016  131.761  47.4642  13.1416
  8361.583  8361.600  0.500  1.020234  131.736  47.4923  13.1558
  8363.580  8363.600  0.500  1.019534  131.712  47.5169  13.1697
  8365.584  8365.600  0.500  1.018968  131.68  47.5322  13.1812
  8366.077  8366.100  0.500  1.018661  131.673  47.5443  13.1868
  8366.575  8366.600  0.500  1.018589  131.658  47.5421  13.1895
  8367.076  8367.100  0.500  1.018378  131.646  47.548  13.1913
  8367.569  8367.600  0.500  1.018381  131.635  47.5438  13.1926
  8368.076  8368.100  0.500  1.018127  131.625  47.5521  13.1962
  8368.575  8368.600  0.500  1.018134  131.612  47.5473  13.1948
  8369.076  8369.100  0.500  1.017979  131.593  47.5477  13.1964
  8369.572  8369.600  0.500  1.017922  131.592  47.5501  13.1992
  8370.074  8370.100  0.500  1.018014  131.577  47.5402  13.1946
  8370.578  8370.600  0.500  1.018040  131.568  47.5357  13.1939
  8371.086  8371.100  0.500  1.018178  131.563  47.5275  13.191
  8371.582  8371.600  0.500  1.018255  131.545  47.5172  13.1876
  8372.090  8372.100  0.500  1.018140  131.533  47.5184  13.1869
  8372.592  8372.600  0.500  1.018297  131.515  47.5045  13.1833
  8373.091  8373.100  0.500  1.018496  131.499  47.4892  13.1752
  8373.590  8373.600  0.500  1.018410  131.487  47.4889  13.1722
  8374.092  8374.100  0.500  1.018672  131.481  47.4743  13.167
  8374.586  8374.600  0.500  1.019198  131.473  47.4467  13.1547
  8375.088  8375.100  0.500  1.019735  131.462  47.4169  13.1432
  8375.581  8375.600  0.500  1.020075  131.447  47.3957  13.13
  8376.090  8376.100  0.500  1.020894  131.438  47.3534  13.1099
  8376.592  8376.600  0.500  1.021859  131.424  47.3029  13.0852
  8377.095  8377.100  0.500  1.023126  131.418  47.2409  13.054
  8377.592  8377.600  0.500  1.024705  131.41  47.1634  13.0163
  8378.097  8378.100  0.500  1.026875  131.402  47.0584  12.9718
  8378.594  8378.600  0.500  1.028761  131.397  46.9677  12.9276
  8379.091  8379.100  0.500  1.030521  131.387  46.8816  12.8926
  8379.594  8379.600  0.500  1.032198  131.382  46.8014  12.8567
  8380.088  8380.100  0.500  1.033723  131.355  46.7203  12.8217
  8380.591  8380.600  0.500  1.035273  131.343  46.6436  12.7862
  8381.088  8381.100  0.500  1.036760  131.331  46.5703  12.7533
  8381.594  8381.600  0.500  1.038171  131.315  46.499  12.7199
  8382.094  8382.100  0.500  1.039503  131.305  46.4336  12.6863
  8382.600  8382.600  0.500  1.040878  131.299  46.3675  12.656
  8383.098  8383.100  0.500  1.042630  131.266  46.2748  12.6171
  8383.604  8383.600  0.500  1.044283  131.249  46.1925  12.5784
  8384.098  8384.100  0.500  1.046115  131.242  46.1054  12.5408
  8384.599  8384.600  0.500  1.048191  131.226  46.0041  12.4999
  8385.099  8385.100  0.500  1.050231  131.21  45.9046  12.4568
  8385.591  8385.600  0.500  1.052681  131.197  45.7879  12.4074
  8386.092  8386.100  0.500  1.055215  131.174  45.6639  12.3542
  8386.589  8386.600  0.500  1.058215  131.153  45.52  12.2929
  8387.093  8387.100  0.500  1.061579  131.135  45.3608  12.2256
  8387.591  8387.600  0.500  1.064960  131.114  45.2005  12.1561
  8388.098  8388.100  0.500  1.068547  131.096  45.0324  12.0861
  8388.596  8388.600  0.500  1.072218  131.076  44.8606  12.0132
  8389.100  8389.100  0.500  1.075725  131.058  44.6974  11.9403
  8389.598  8389.600  0.500  1.078941  131.049  44.5508  11.8746
  8390.105  8390.100  0.500  1.081962  131.026  44.4086  11.8145
  8390.600  8390.600  0.500  1.084548  131.011  44.2887  11.7651
  8391.105  8391.100  0.500  1.086420  130.996  44.201  11.7287
  8391.600  8391.600  0.500  1.088020  130.99  44.1282  11.7026
  8392.102  8392.100  0.500  1.088837  130.976  44.0875  11.6877
  8392.600  8392.600  0.500  1.089232  130.96  44.0649  11.6804
  8393.098  8393.100  0.500  1.089279  130.953  44.0604  11.6818
  8393.603  8393.600  0.500  1.089079  130.93  44.0613  11.6854
  8394.099  8394.100  0.500  1.088541  130.922  44.0824  11.6938
  8394.600  8394.600  0.500  1.088121  130.906  44.0954  11.7024
  8395.102  8395.100  0.500  1.087825  130.909  44.1096  11.7099
  8395.601  8395.600  0.500  1.087522  130.892  44.1174  11.715
  8396.100  8396.100  0.500  1.087020  130.873  44.1328  11.7227
  8396.599  8396.600  0.500  1.086649  130.859  44.1445  11.7247
  8397.098  8397.100  0.500  1.086483  130.839  44.1451  11.7249
  8397.597  8397.600  0.500  1.086476  130.814  44.137  11.724
  8398.093  8398.100  0.500  1.086298  130.809  44.1433  11.7269
  8398.586  8398.600  0.500  1.085778  130.797  44.1621  11.7316
  8399.094  8399.100  0.500  1.085421  130.781  44.1724  11.7336
  8399.597  8399.600  0.500  1.085098  130.768  44.1823  11.7368
  8400.102  8400.100  0.500  1.084783  130.756  44.1923  11.7408
  8400.599  8400.600  0.500  1.084409  130.747  44.2057  11.7458
  8401.592  8401.590  0.500  1.082755  130.717  44.2689  11.7674
  8402.591  8402.590  0.500  1.081064  130.701  44.3383  11.7946
  8403.624  8403.610  0.500  1.079080  130.679  44.4189  11.8296
  8404.672  8404.660  0.500  1.076416  130.655  44.529  11.8767
  8405.733  8405.720  0.500  1.073109  130.64  44.6714  11.938
  8406.803  8406.800  0.500  1.069565  130.615  44.8217  12.0053
  8407.906  8407.900  0.500  1.065962  130.586  44.9735  12.0723
  8409.035  8409.020  0.500  1.062548  130.566  45.1201  12.1394
  8410.175  8410.160  0.500  1.059491  130.535  45.2475  12.2001
  8411.319  8411.310  0.500  1.056886  130.509  45.3567  12.2544
  8412.491  8412.490  0.500  1.054995  130.49  45.4357  12.2969
  8413.690  8413.680  0.500  1.053247  130.457  45.504  12.3338
  8414.914  8414.900  0.500  1.051790  130.427  45.5597  12.364
  8416.136  8416.130  0.500  1.050710  130.397  45.5985  12.3864
  8417.382  8417.380  0.500  1.050069  130.36  45.6147  12.4011
  8418.662  8418.650  0.500  1.049761  130.348  45.6247  12.4127
  8419.954  8419.940  0.500  1.050037  130.323  45.6033  12.4136
  8421.262  8421.250  0.500  1.050369  130.284  45.5746  12.4107
  8422.586  8422.580  0.500  1.050737  130.26  45.5494  12.4082
  8423.943  8423.930  0.500  1.051158  130.219  45.5157  12.403
  8425.316  8425.300  0.500  1.051448  130.191  45.493  12.4003
  8426.684  8426.680  0.500  1.051617  130.163  45.4754  12.3967
  8428.095  8428.090  0.500  1.051552  130.131  45.4671  12.3955
  8429.518  8429.510  0.500  1.051484  130.099  45.4589  12.3964
  8430.957  8430.950  0.500  1.051494  130.056  45.4435  12.3906
  8432.418  8432.410  0.500  1.051673  130.025  45.4244  12.3852
  8433.895  8433.890  0.500  1.051952  129.988  45.3991  12.377
  8435.403  8435.390  0.500  1.052326  129.948  45.3681  12.3653
  8436.924  8436.910  0.500  1.052742  129.915  45.3378  12.3569
  8438.454  8438.450  0.500  1.053214  129.899  45.3108  12.3453
  8440.028  8440.010  0.500  1.053622  129.867  45.2812  12.3316
  8441.584  8441.580  0.500  1.053787  129.817  45.2562  12.3202
  8443.195  8443.180  0.500  1.053563  129.775  45.2517  12.3198
  8444.801  8444.790  0.500  1.052855  129.738  45.2709  12.3259
  8446.436  8446.430  0.500  1.051821  129.687  45.2999  12.338
  8448.092  8448.080  0.500  1.050490  129.639  45.3432  12.3576
  8449.762  8449.750  0.500  1.049030  129.611  45.3998  12.3835
  8451.447  8451.440  0.500  1.047399  129.575  45.4613  12.4148
  8453.160  8453.150  0.500  1.045533  129.531  45.5306  12.449
  8454.896  8454.880  0.500  1.043952  129.486  45.587  12.4851
  8456.633  8456.630  0.500  1.042327  129.435  45.643  12.518
  8458.404  8458.390  0.500  1.040803  129.404  45.7018  12.5522
  8460.188  8460.180  0.500  1.039251  129.35  45.7537  12.5838
  8461.985  8461.980  0.500  1.037632  129.314  45.8151  12.6142
  8463.826  8463.810  0.500  1.036049  129.264  45.8698  12.641
  8465.662  8465.650  0.500  1.034546  129.699  46.0935  12.7119
  8467.529  8467.510  0.500  1.033364  129.66  46.1341  12.733
  8469.397  8469.390  0.500  1.032071  129.605  46.174  12.7483
  8471.303  8471.290  0.500  1.030984  129.564  46.2098  12.7652
  8473.225  8473.210  0.500  1.030170  129.503  46.2255  12.7768
  8475.161  8475.150  0.500  1.029475  129.455  46.2407  12.7912
  8477.122  8477.110  0.500  1.028727  129.422  46.2633  12.8098
  8479.102  8479.080  0.500  1.027919  129.371  46.2827  12.8283
  8481.087  8481.080  0.500  1.026707  129.326  46.3224  12.8521
  8483.100  8483.090  0.500  1.025624  129.284  46.3578  12.8773
  8485.136  8485.120  0.500  1.024528  129.236  46.3914  12.9024
  8487.191  8487.180  0.500  1.023243  129.183  46.4318  12.9267
  8489.260  8489.250  0.500  1.022333  129.137  46.4578  12.9503
  8491.354  8491.340  0.500  1.021292  129.088  46.4883  12.973
  8493.462  8493.450  0.500  1.020659  129.034  46.4985  12.9893
  8495.590  8495.580  0.500  1.020105  128.981  46.5049  13.0026
  8497.738  8497.720  0.500  1.019529  128.929  46.5132  13.0135
  8499.895  8499.890  0.500  1.019101  128.876  46.5137  13.0244
  8502.101  8502.080  0.500  1.018409  128.819  46.5256  13.0338
  8504.289  8504.280  0.500  1.017746  128.76  46.5349  13.0417
  8506.515  8506.500  0.500  1.017115  128.708  46.5454  13.0514
  8508.762  8508.750  0.500  1.016369  128.648  46.5585  13.0572
  8511.025  8511.010  0.500  1.015708  128.584  46.5662  13.0643
  8513.299  8513.290  0.500  1.014798  128.526  46.5874  13.0803
  8515.608  8515.590  0.500  1.013160  128.456  46.6384  13.107
  8517.927  8517.910  0.500  1.011820  128.381  46.6737  13.1281
  8520.267  8520.250  0.500  1.010301  128.301  46.7156  13.153
  8522.618  8522.600  0.500  1.008718  128.195  46.7509  13.1739
  8524.998  8524.980  0.500  1.007074  128.044  46.7726  13.1904
  8527.382  8527.370  0.500  1.005786  127.626  46.6801  13.1773
  8529.802  8529.790  0.500  1.004047  120.764  44.2472  12.5069
  8532.230  8532.220  0.500  1.003078  123.714  45.3718  12.8365
  8534.681  8534.670  0.500  1.001762  127.777  46.9236  13.2939
  8537.152  8537.150  0.500  1.000708  127.916  47.0244  13.3399
  8539.650  8539.640  0.500  0.999297  127.906  47.087  13.3764
  8542.162  8542.150  0.500  0.997783  127.846  47.1363  13.4078
  8544.675  8544.670  0.500  0.996411  127.782  47.1776  13.4343
  8547.228  8547.220  0.500  0.995187  127.72  47.2123  13.4552
  8549.798  8549.790  0.500  0.993982  127.651  47.2435  13.4741
  8552.378  8552.370  0.500  0.992699  127.589  47.2814  13.4958
  8554.992  8554.980  0.500  0.991315  127.522  47.3218  13.515
  8557.611  8557.600  0.500  0.990135  127.438  47.3467  13.5345
  8560.269  8560.250  0.500  0.988964  127.378  47.3798  13.5561
  8562.913  8562.910  0.500  0.987900  127.308  47.4042  13.5754
  8565.606  8565.590  0.500  0.986475  127.242  47.4472  13.6022
  8568.291  8568.290  0.500  0.985298  127.16  47.4723  13.625
  8571.019  8571.010  0.500  0.984124  127.085  47.5001  13.6499
  8573.761  8573.750  0.500  0.982985  127.004  47.5238  13.6713
  8576.512  8576.500  0.500  0.981735  126.908  47.5474  13.6984
  8579.296  8579.280  0.500  0.980405  126.823  47.5787  13.7229
  8582.082  8582.070  0.500  0.979229  126.71  47.5924  13.7447
  8584.904  8584.890  0.500  0.978231  126.611  47.6025  13.7664
  8587.728  8587.720  0.500  0.977042  126.394  47.5775  13.7749
  8590.599  8590.570  0.500  0.975785  125.533  47.3129  13.7135
  8593.465  8593.450  0.500  0.974850  110.709  41.7649  12.1171
  8596.362  8596.340  0.500  0.973393  125.678  47.4812  13.7863
  8599.264  8599.250  0.500  0.972105  126.014  47.6692  13.8548
  8602.194  8602.170  0.500  0.970512  125.936  47.7157  13.88
  8605.138  8605.120  0.500  0.969167  125.783  47.722  13.8967
  8608.109  8608.090  0.500  0.967730  125.52  47.6905  13.8992
  8611.083  8611.070  0.500  0.966252  125.048  47.5817  13.8838
  8614.098  8614.080  0.500  0.964463  123.769  47.1792  13.7801
  8617.117  8617.100  0.500  0.962155  108.298  41.3772  12.1023
  8620.164  8620.150  0.500  0.961047  126.353  48.3292  14.1488
  8623.230  8623.210  0.500  0.959379  126.843  48.5975  14.2419
  8626.301  8626.290  0.500  0.957788  126.516  48.5494  14.2448
  8629.403  8629.390  0.500  0.956475  126.28  48.5224  14.2558
  8632.526  8632.510  0.500  0.955228  126.085  48.508  14.2678
  8635.665  8635.650  0.500  0.953946  125.879  48.4909  14.2838
  8638.809  8638.800  0.500  0.952441  125.549  48.4365  14.2826
  8641.988  8641.980  0.500  0.951006  121.631  46.9923  13.8761
  8645.201  8645.170  0.500  0.949691  123.04  47.5993  14.0716
  8648.407  8648.390  0.500  0.948349  125.356  48.5604  14.3731
  8651.634  8651.620  0.500  0.946879  125.385  48.643  14.4203
  8654.893  8654.870  0.500  0.945346  125.322  48.6933  14.4496
  8658.168  8658.150  0.500  0.943798  125.218  48.7281  14.4789
  8661.464  8661.440  0.500  0.942187  125.139  48.7761  14.5091
  8664.767  8664.750  0.500  0.940649  125.046  48.8146  14.539
  8668.107  8668.070  0.500  0.939024  124.97  48.8646  14.5709
  8671.430  8671.420  0.500  0.937275  124.874  48.9124  14.6019
  8674.802  8674.790  0.500  0.935594  124.779  48.9572  14.6345
  8678.199  8678.170  0.500  0.933985  124.675  48.9953  14.6643
  8681.598  8681.580  0.500  0.932439  124.589  49.0373  14.6988
  8685.026  8685.000  0.500  0.930916  124.497  49.0758  14.7295
  8688.474  8688.450  0.500  0.929734  124.399  49.095  14.757
  8691.930  8691.910  0.500  0.928253  124.267  49.1158  14.7814
  8695.409  8695.390  0.500  0.926814  124.147  49.1389  14.8071
  8698.914  8698.890  0.500  0.925355  123.993  49.1497  14.8277
  8702.424  8702.410  0.500  0.923939  123.714  49.1084  14.8339
  8705.974  8705.950  0.500  0.922148  121.738  48.4109  14.6401
  8709.510  8709.500  0.500  0.920786  121.274  48.292  14.6206
  8713.094  8713.080  0.500  0.919120  123.755  49.3621  14.9654
  8716.705  8716.680  0.500  0.917515  123.716  49.4258  15.004
  8720.305  8720.290  0.500  0.915986  123.601  49.4556  15.0322
  8723.942  8723.920  0.500  0.914307  123.532  49.511  15.068
  8727.608  8727.580  0.500  0.912211  123.429  49.5733  15.1038
  8731.267  8731.250  0.500  0.910402  123.339  49.6271  15.1407
  8734.958  8734.940  0.500  0.908532  123.244  49.6816  15.1769
  8738.673  8738.650  0.500  0.906969  123.139  49.7168  15.2073
  8742.394  8742.380  0.500  0.905337  123.051  49.7623  15.2425
  8746.138  8746.120  0.500  0.903658  122.944  49.8028  15.2758
  8749.915  8749.890  0.500  0.901833  122.849  49.8553  15.3126
  8753.695  8753.680  0.500  0.900069  122.754  49.9047  15.3494
  8757.499  8757.480  0.500  0.898364  122.635  49.9413  15.3829
  8761.329  8761.310  0.500  0.896780  122.539  49.9815  15.4175
  8765.166  8765.150  0.500  0.895113  122.428  50.0194  15.4511
  8769.019  8769.010  0.500  0.893440  122.331  50.0632  15.4882
  8772.916  8772.890  0.500  0.891925  122.228  50.0973  15.5199
  8776.813  8776.790  0.500  0.890300  122.126  50.1365  15.5546
  8780.723  8780.710  0.500  0.888554  122.02  50.1808  15.5905
  8784.660  8784.650  0.500  0.886799  121.9  50.2194  15.6243
  8788.631  8788.610  0.500  0.885097  121.794  50.2612  15.6593
  8792.595  8792.580  0.500  0.883360  121.679  50.301  15.6949
  8796.593  8796.580  0.500  0.881498  121.564  50.3473  15.7324
  8800.615  8800.590  0.500  0.879672  121.471  50.4008  15.7716
  8804.654  8804.630  0.500  0.877845  121.371  50.4511  15.8058
  8808.703  8808.680  0.500  0.875987  121.253  50.496  15.8397
  8812.760  8812.750  0.500  0.874358  121.15  50.5355  15.8746
  8816.860  8816.840  0.500  0.872639  121.035  50.5742  15.9074
  8820.968  8820.950  0.500  0.870831  120.939  50.6256  15.9459
  8825.103  8825.080  0.500  0.868995  120.826  50.6711  15.9827
  8829.242  8829.230  0.500  0.867169  120.711  50.7156  16.0212
  8833.419  8833.390  0.500  0.865604  120.595  50.7461  16.0557
  8837.596  8837.580  0.500  0.863619  120.484  50.8  16.0972
  8841.798  8841.780  0.500  0.861882  120.374  50.8421  16.1335
  8846.030  8846.010  0.500  0.860015  120.25  50.8844  16.1697
  8850.270  8850.250  0.500  0.858293  120.144  50.9274  16.2085
  8854.528  8854.510  0.500  0.856531  120.022  50.9651  16.2453
  8858.811  8858.790  0.500  0.854814  119.904  51.0025  16.282
  8863.107  8863.090  0.500  0.853095  119.785  51.0398  16.3191
  8867.428  8867.410  0.500  0.851151  119.663  51.0871  16.3591
  8871.774  8871.750  0.500  0.849106  119.542  51.1397  16.3996
  8876.131  8876.110  0.500  0.847162  119.446  51.198  16.4431
  8880.510  8880.490  0.500  0.845238  119.303  51.2355  16.4803
  8884.903  8884.880  0.500  0.843377  119.181  51.2783  16.5182
  8889.317  8889.300  0.500  0.841466  119.068  51.3274  16.5571
  8893.764  8893.730  0.500  0.839592  118.93  51.3642  16.5917
  8898.201  8898.180  0.500  0.837832  118.805  51.4009  16.6272
  8902.663  8902.650  0.500  0.835867  118.67  51.4433  16.665
  8907.153  8907.140  0.500  0.834060  118.506  51.4653  16.7001
  8911.676  8911.650  0.500  0.832165  118.032  51.3566  16.6893
  8916.197  8916.180  0.500  0.830244  118.224  51.5388  16.7748
  8920.749  8920.730  0.500  0.828417  118.212  51.628  16.8332