File: xdidata/Data/Gd/Gd-L3-GadoliniumOxide.xdi
# XDI/1.0 BlueSky/1.10.0 BMM/2023-1.0-py310-tiled
# Beamline.name: BMM (06BM) -- Beamline for Materials Measurement (NIST)
# Beamline.xray_source: NSLS-II three-pole wiggler
# Beamline.collimation: paraboloid mirror, 5 nm Rh on 30 nm Pt
# Beamline.focusing: not in use
# Beamline.harmonic_rejection: flat mirror, Si stripe, pitch = 7.0 mrad relative to beam
# Beamline.software: Bluesky 1.10.0, Ophyd 1.7.0, DataBroker 2.0.0b13, Python 3.10.8, 2023-1.0-py310-tiled
# Detector.I0: 10 cm N2
# Detector.I1: 25 cm N2
# Detector.I2: 25 cm N2
# Element.symbol: Gd
# Element.edge: L3
# Element.reference: Gd
# Element.reference_material: Gd2O3
# Facility.name: NSLS-II
# Facility.energy: 3.0
# Facility.current: 399.5
# Facility.mode: top-off
# Facility.GUP: 301027
# Facility.SAF: 310583
# Facility.cycle: 2023-2
# Mono.name: Si(111)
# Mono.d_spacing: 3.13519
# Mono.encoder_resolution: 0.0000050 deg/ct
# Mono.angle_offset: 16.0754 deg
# Mono.scan_mode: pseudo channel cut
# Mono.scan_type: step
# Mono.direction: forward in energy
# Sample.name: Gd2O3
# Sample.prep: PEG pellet
# Sample.x: 109.138 mm
# Sample.y: 153.150 mm
# Sample.SDD_position: 205.000 mm
# Scan.experimenters: Bruce Ravel
# Scan.edge_energy: 7242.8
# Scan.start_time: 2023-05-28T13:39:14
# Scan.end_time: 2023-05-28T13:46:36
# Scan.transient_id: 78728
# Scan.uid: 14216575-1ced-4e4f-b610-4821de4d762e
# Scan.plot_hint: ln(It/Ir)  --  ln($6/$7)
# Column.1: energy eV
# Column.2: requested_energy eV
# Column.3: measurement_time seconds
# Column.4: xmu
# Column.5: I0 nA
# Column.6: It nA
# Column.7: Ir nA
# ///////////
# sample courtesy Martin Stennett, University of Sheffield
# -----------
# energy  requested_energy  measurement_time  xmu  I0  It  Ir
  7042.819  7042.800  0.500  1.945082  154.661  149.401  21.3607
  7052.812  7052.800  0.500  1.937030  154.6  149.833  21.5956
  7062.820  7062.800  0.500  1.928931  153.269  149.013  21.6521
  7072.816  7072.800  0.500  1.920842  154.44  150.554  22.0537
  7082.854  7082.800  0.500  1.912862  153.751  150.295  22.1922
  7092.816  7092.800  0.500  1.904965  154.265  151.305  22.5184
  7102.797  7102.800  0.500  1.897017  154.215  151.704  22.758
  7112.813  7112.800  0.500  1.889046  154.199  152.145  23.0067
  7122.819  7122.800  0.500  1.881409  154.019  152.399  23.2218
  7132.827  7132.800  0.500  1.873868  153.45  152.245  23.3739
  7142.803  7142.800  0.500  1.866169  153.434  152.695  23.6242
  7152.809  7152.800  0.500  1.858355  153.44  153.12  23.8759
  7162.808  7162.800  0.500  1.850794  153.346  153.435  24.1065
  7172.814  7172.800  0.500  1.843280  153.122  153.647  24.3218
  7182.812  7182.800  0.500  1.835961  152.997  153.962  24.5508
  7192.809  7192.800  0.500  1.828753  150.585  151.959  24.4067
  7202.812  7202.800  0.500  1.821844  152.606  154.427  24.9751
  7212.805  7212.800  0.500  1.815825  152.336  154.59  25.1524
  7214.806  7214.800  0.500  1.814676  152.328  154.675  25.1951
  7216.797  7216.800  0.500  1.813699  152.229  154.661  25.2175
  7218.803  7218.800  0.500  1.812809  152.192  154.722  25.2498
  7220.799  7220.800  0.500  1.812137  152.114  154.731  25.2683
  7222.795  7222.800  0.500  1.811532  152.095  154.761  25.2884
  7224.800  7224.800  0.500  1.811211  152.035  154.789  25.3013
  7226.799  7226.800  0.500  1.811228  151.866  154.68  25.2829
  7228.804  7228.800  0.500  1.811735  150.666  153.579  25.0903
  7230.808  7230.800  0.500  1.812972  152.028  155.058  25.3005
  7232.810  7232.800  0.500  1.815385  151.994  155.095  25.2457
  7233.088  7233.100  0.500  1.815790  151.969  155.048  25.2278
  7233.381  7233.400  0.500  1.816294  151.977  155.091  25.2221
  7233.683  7233.700  0.500  1.816888  151.954  155.056  25.2013
  7233.985  7234.000  0.500  1.817488  151.939  155.097  25.1929
  7234.288  7234.300  0.500  1.818155  151.903  155.032  25.1655
  7234.585  7234.600  0.500  1.818942  151.922  155.044  25.1477
  7234.885  7234.900  0.500  1.819770  151.878  155.016  25.1223
  7235.185  7235.200  0.500  1.820669  151.89  155.03  25.102
  7235.487  7235.500  0.500  1.821659  151.864  155.07  25.0837
  7235.788  7235.800  0.500  1.822729  151.879  155.12  25.0649
  7236.083  7236.100  0.500  1.823907  151.857  155.087  25.0301
  7236.390  7236.400  0.500  1.825202  151.856  155.058  24.9931
  7236.690  7236.700  0.500  1.826607  151.852  155.053  24.9572
  7236.990  7237.000  0.500  1.828306  151.836  155.102  24.9226
  7237.284  7237.300  0.500  1.829933  151.825  155.09  24.8802
  7237.584  7237.600  0.500  1.831784  151.828  155.09  24.8342
  7237.893  7237.900  0.500  1.833888  151.847  155.108  24.7848
  7238.189  7238.200  0.500  1.836147  151.813  155.072  24.7232
  7238.483  7238.500  0.500  1.838815  151.801  155.081  24.6588
  7238.790  7238.800  0.500  1.841882  151.806  155.132  24.5914
  7239.090  7239.100  0.500  1.845330  151.808  155.122  24.5052
  7239.397  7239.400  0.500  1.849211  151.815  155.151  24.4147
  7239.697  7239.700  0.500  1.853527  151.77  155.143  24.3083
  7239.993  7240.000  0.500  1.858158  151.752  155.137  24.1951
  7240.298  7240.300  0.500  1.863554  151.748  155.157  24.068
  7240.599  7240.600  0.500  1.869494  151.754  155.166  23.9268
  7240.906  7240.900  0.500  1.875810  151.742  155.153  23.7743
  7241.200  7241.200  0.500  1.882373  151.737  155.165  23.6206
  7241.498  7241.500  0.500  1.889305  151.74  155.186  23.4606
  7241.796  7241.800  0.500  1.896255  151.769  155.245  23.307
  7242.104  7242.100  0.500  1.904393  151.731  155.203  23.1118
  7242.398  7242.400  0.500  1.912903  151.703  155.156  22.909
  7242.694  7242.700  0.500  1.922797  151.71  155.176  22.6864
  7242.995  7243.000  0.500  1.935058  151.682  155.16  22.4076
  7243.302  7243.300  0.500  1.950040  151.648  155.139  22.0714
  7243.605  7243.600  0.500  1.967928  151.639  155.183  21.6862
  7243.915  7243.900  0.500  1.989179  151.558  155.091  21.2176
  7244.209  7244.200  0.500  2.012549  151.326  154.86  20.6967
  7244.579  7244.500  0.500  2.044304  150.513  154.049  19.9448
  7244.781  7244.800  0.500  2.068178  149.803  153.369  19.3883
  7245.084  7245.100  0.500  2.103051  149.121  152.707  18.643
  7245.421  7245.400  0.500  2.143985  148.889  152.505  17.8716
  7245.722  7245.700  0.500  2.181499  149.602  153.198  17.2918
  7246.016  7246.000  0.500  2.213866  150.616  154.252  16.8563
  7246.308  7246.300  0.500  2.243477  151.128  154.781  16.4206
  7246.616  7246.600  0.500  2.269677  151.337  154.953  16.0137
  7246.908  7246.900  0.500  2.290531  151.365  155.004  15.6884
  7247.200  7247.200  0.500  2.308360  151.408  155.054  15.4161
  7247.506  7247.500  0.500  2.324637  151.491  155.143  15.176
  7247.800  7247.800  0.500  2.338809  151.477  155.159  14.9639
  7248.099  7248.100  0.500  2.351613  151.482  155.172  14.7748
  7248.400  7248.400  0.500  2.362564  151.448  155.254  14.6215
  7248.706  7248.700  0.500  2.370820  151.457  155.208  14.4971
  7249.007  7249.000  0.500  2.375979  151.45  155.215  14.4231
  7249.306  7249.300  0.500  2.377145  151.409  155.199  14.4049
  7249.605  7249.600  0.500  2.373897  151.433  155.251  14.4566
  7249.906  7249.900  0.500  2.365645  151.401  155.193  14.5709
  7250.205  7250.200  0.500  2.352750  151.427  155.225  14.763
  7250.507  7250.500  0.500  2.335903  151.406  155.234  15.0147
  7250.799  7250.800  0.500  2.316685  151.373  155.213  15.304
  7251.098  7251.100  0.500  2.295204  151.38  155.208  15.6358
  7251.409  7251.400  0.500  2.271312  151.349  155.167  16.0096
  7251.699  7251.700  0.500  2.247666  151.33  155.193  16.3955
  7251.996  7252.000  0.500  2.223785  151.296  155.129  16.7847
  7252.297  7252.300  0.500  2.199950  151.286  155.181  17.1955
  7252.601  7252.600  0.500  2.178034  151.253  155.151  17.573
  7252.905  7252.900  0.500  2.157651  151.206  155.119  17.9312
  7253.204  7253.200  0.500  2.139651  151.141  155.074  18.2516
  7253.499  7253.500  0.500  2.123332  151.036  154.996  18.5425
  7253.803  7253.800  0.500  2.107991  150.826  154.781  18.8031
  7254.111  7254.100  0.500  2.094314  150.269  154.227  18.9938
  7254.404  7254.400  0.500  2.082363  149.382  153.288  19.1051
  7254.703  7254.700  0.500  2.071465  148.715  152.633  19.2319
  7254.998  7255.000  0.500  2.061946  149.047  153.004  19.4631
  7255.305  7255.300  0.500  2.053485  150.063  154.042  19.7616
  7255.598  7255.600  0.500  2.046372  151.034  155.071  20.0356
  7255.899  7255.900  0.500  2.039647  151.424  155.498  20.2263
  7256.199  7256.200  0.500  2.033559  151.427  155.531  20.3542
  7256.499  7256.500  0.500  2.028074  151.405  155.45  20.4555
  7256.803  7256.800  0.500  2.023215  151.372  155.428  20.5523
  7257.096  7257.100  0.500  2.018913  151.352  155.447  20.6433
  7257.400  7257.400  0.500  2.015138  151.327  155.478  20.7255
  7257.711  7257.700  0.500  2.011628  151.313  155.391  20.7868
  7258.004  7258.000  0.500  2.008676  151.279  155.378  20.8465
  7258.297  7258.300  0.500  2.005959  151.255  155.39  20.9048
  7258.601  7258.600  0.500  2.003394  151.223  155.37  20.9558
  7258.903  7258.900  0.500  2.000860  151.192  155.357  21.0073
  7259.203  7259.200  0.500  1.998715  151.163  155.367  21.0536
  7259.498  7259.500  0.500  1.996745  151.142  155.387  21.0979
  7259.796  7259.800  0.500  1.994988  151.108  155.329  21.1271
  7260.100  7260.100  0.500  1.993392  151.072  155.3  21.1569
  7260.396  7260.400  0.500  1.992008  151.02  155.258  21.1805
  7260.698  7260.700  0.500  1.990928  151  155.255  21.203
  7260.996  7261.000  0.500  1.989991  150.928  155.2  21.2153
  7261.296  7261.300  0.500  1.989422  150.821  155.099  21.2135
  7261.605  7261.600  0.500  1.989011  150.749  155.028  21.2126
  7261.905  7261.900  0.500  1.988745  150.645  154.95  21.2076
  7262.201  7262.200  0.500  1.988859  150.445  154.769  21.1804
  7262.503  7262.500  0.500  1.988965  150.228  154.536  21.1463
  7262.801  7262.800  0.500  1.989304  149.905  154.198  21.0928
  7263.108  7263.100  0.500  1.989725  149.368  153.661  21.0105
  7263.403  7263.400  0.500  1.990078  148.483  152.768  20.881
  7263.697  7263.700  0.500  1.990359  146.673  150.94  20.6253
  7263.997  7264.000  0.500  1.990498  142.322  146.461  20.0106
  7264.298  7264.300  0.500  1.990435  134.14  138.028  18.8596
  7264.596  7264.600  0.500  1.990852  126.355  130.044  17.7613
  7264.896  7264.900  0.500  1.991882  124.116  127.759  17.4313
  7265.196  7265.200  0.500  1.992576  128.18  131.954  17.9911
  7265.503  7265.500  0.500  1.992928  137.007  141.028  19.2216
  7265.799  7265.800  0.500  1.992720  145.718  149.993  20.4477
  7266.100  7266.100  0.500  1.992195  149.499  153.938  20.9964
  7266.402  7266.400  0.500  1.991841  150.558  155.035  21.1537
  7266.707  7266.700  0.500  1.991314  150.993  155.463  21.2231
  7267.001  7267.000  0.500  1.990967  151.155  155.643  21.2552
  7267.300  7267.300  0.500  1.990176  151.258  155.783  21.291
  7267.602  7267.600  0.500  1.989446  151.373  155.877  21.3195
  7267.802  7267.800  0.500  1.988891  151.359  155.872  21.3306
  7268.794  7268.790  0.500  1.985659  151.424  156.001  21.4174
  7269.799  7269.790  0.500  1.982380  151.41  156.013  21.4893
  7270.820  7270.810  0.500  1.980192  151.512  156.19  21.5609
  7271.878  7271.860  0.500  1.979574  151.754  156.489  21.6155
  7272.932  7272.920  0.500  1.981045  151.659  156.458  21.5795
  7274.003  7274.000  0.500  1.984065  150.417  155.23  21.3455
  7275.116  7275.100  0.500  1.988698  150.613  155.459  21.2783
  7276.229  7276.220  0.500  1.993599  151.948  156.891  21.3693
  7277.371  7277.360  0.500  1.999583  151.907  156.858  21.2373
  7278.514  7278.510  0.500  2.006070  151.869  156.873  21.1019
  7279.703  7279.690  0.500  2.013827  151.846  156.92  20.9452
  7280.893  7280.880  0.500  2.020831  151.829  156.897  20.7959
  7282.110  7282.100  0.500  2.027104  151.8  156.938  20.6713
  7283.335  7283.330  0.500  2.030957  151.689  156.887  20.5852
  7284.597  7284.580  0.500  2.032125  149.318  154.494  20.2474
  7285.851  7285.850  0.500  2.030436  151.152  156.462  20.5401
  7287.150  7287.140  0.500  2.026343  151.601  156.953  20.689
  7288.458  7288.450  0.500  2.020819  151.591  157.006  20.8107
  7289.790  7289.780  0.500  2.014695  151.615  157.067  20.9466
  7291.138  7291.130  0.500  2.008294  151.565  157.063  21.0805
  7292.513  7292.500  0.500  2.002698  151.585  157.125  21.2073
  7293.887  7293.880  0.500  1.997978  151.531  157.143  21.3101
  7295.302  7295.290  0.500  1.993840  151.541  157.217  21.4085
  7296.716  7296.710  0.500  1.990032  151.485  157.174  21.4843
  7298.155  7298.150  0.500  1.986485  151.457  157.233  21.5687
  7299.621  7299.610  0.500  1.983061  151.351  157.183  21.6359
  7301.093  7301.090  0.500  1.980142  150.688  156.559  21.6129
  7302.599  7302.590  0.500  1.977538  150.986  156.918  21.719
  7304.122  7304.110  0.500  1.975010  151.441  157.439  21.8462
  7305.655  7305.650  0.500  1.972832  151.415  157.511  21.9039
  7307.220  7307.210  0.500  1.970572  151.365  157.507  21.9528
  7308.785  7308.780  0.500  1.968649  151.344  157.557  22.0021
  7310.395  7310.380  0.500  1.967071  151.31  157.572  22.0389
  7311.996  7311.990  0.500  1.965999  151.301  157.641  22.0723
  7313.639  7313.630  0.500  1.965258  151.256  157.664  22.0919
  7315.294  7315.280  0.500  1.965210  151.213  157.712  22.0996
  7316.961  7316.950  0.500  1.965716  151.201  157.77  22.0965
  7318.661  7318.640  0.500  1.966801  151.151  157.792  22.0757
  7320.352  7320.350  0.500  1.967902  151.123  157.848  22.0592
  7322.090  7322.080  0.500  1.969251  151.095  157.877  22.0336
  7323.836  7323.830  0.500  1.970512  151.042  157.9  22.0089
  7325.601  7325.590  0.500  1.971434  151.025  157.958  21.9968
  7327.389  7327.380  0.500  1.971979  150.99  157.984  21.9884
  7329.190  7329.180  0.500  1.971858  151.005  158.088  22.0055
  7331.026  7331.010  0.500  1.971250  150.94  158.092  22.0195
  7332.871  7332.850  0.500  1.970283  150.901  158.122  22.0449
  7334.730  7334.710  0.500  1.968875  150.844  158.144  22.0791
  7336.601  7336.590  0.500  1.967113  150.846  158.248  22.1326
  7338.507  7338.490  0.500  1.965400  150.329  157.757  22.1017
  7340.419  7340.410  0.500  1.963807  150.017  157.474  22.0973
  7342.368  7342.350  0.500  1.962159  150.533  158.077  22.2184
  7344.325  7344.310  0.500  1.960455  150.551  158.217  22.2761
  7346.298  7346.280  0.500  1.958737  150.543  158.318  22.3286
  7348.292  7348.280  0.500  1.957115  150.541  158.366  22.3716
  7350.310  7350.290  0.500  1.955700  150.511  158.398  22.4079
  7352.333  7352.320  0.500  1.954337  150.458  158.415  22.4408
  7354.393  7354.380  0.500  1.953243  150.44  158.514  22.4794
  7356.463  7356.450  0.500  1.951969  150.452  158.591  22.519
  7358.557  7358.540  0.500  1.950446  150.423  158.662  22.5634
  7360.671  7360.650  0.500  1.948483  150.335  158.655  22.6068
  7362.795  7362.780  0.500  1.945784  150.298  158.698  22.674
  7364.939  7364.920  0.500  1.942627  150.252  158.727  22.7499
  7367.100  7367.090  0.500  1.939051  150.193  158.762  22.8364
  7369.300  7369.280  0.500  1.935389  150.184  158.841  22.9316
  7371.490  7371.480  0.500  1.931742  150.114  158.828  23.0135
  7373.720  7373.700  0.500  1.928315  150.081  158.886  23.1009
  7375.967  7375.950  0.500  1.925866  150.019  158.913  23.1615
  7378.221  7378.210  0.500  1.924322  149.948  158.929  23.1996
  7380.507  7380.490  0.500  1.923618  149.916  158.978  23.2232
  7382.803  7382.790  0.500  1.923259  149.869  159.034  23.2396
  7385.123  7385.110  0.500  1.922888  149.819  159.068  23.2532
  7387.464  7387.450  0.500  1.922341  149.811  159.174  23.2814
  7389.816  7389.800  0.500  1.921820  149.755  159.231  23.3019
  7392.202  7392.180  0.500  1.921484  149.7  159.221  23.3083
  7394.582  7394.570  0.500  1.921729  149.679  159.281  23.3113
  7397.006  7396.990  0.500  1.922146  149.674  159.391  23.3178
  7399.441  7399.420  0.500  1.921788  149.61  159.423  23.3308
  7401.887  7401.870  0.500  1.921239  149.579  159.481  23.3521
  7404.371  7404.350  0.500  1.920482  149.493  159.487  23.3706
  7406.849  7406.840  0.500  1.919068  149.475  159.578  23.4171
  7409.358  7409.350  0.500  1.916765  149.367  159.569  23.4697
  7411.885  7411.870  0.500  1.913539  149.339  159.672  23.5608
  7414.435  7414.420  0.500  1.910068  149.286  159.7  23.6468
  7416.997  7416.990  0.500  1.906627  149.235  159.725  23.7321
  7419.586  7419.570  0.500  1.903665  149.186  159.775  23.81
  7422.193  7422.180  0.500  1.901095  149.143  159.819  23.8778
  7424.812  7424.800  0.500  1.898852  149.044  159.818  23.9312
  7427.467  7427.450  0.500  1.897304  149.037  159.897  23.9801
  7430.123  7430.110  0.500  1.895881  148.947  159.891  24.0133
  7432.806  7432.790  0.500  1.894617  148.891  159.93  24.0497
  7435.503  7435.490  0.500  1.893430  148.811  159.947  24.0807
  7438.228  7438.210  0.500  1.892064  148.744  159.961  24.1158
  7440.964  7440.950  0.500  1.890735  148.643  159.966  24.1486
  7443.707  7443.700  0.500  1.889300  148.509  159.97  24.1839
  7446.497  7446.480  0.500  1.887593  144.588  155.85  23.6013
  7449.285  7449.270  0.500  1.885656  148.533  160.212  24.3089
  7452.108  7452.090  0.500  1.883098  148.276  160.054  24.3471
  7454.933  7454.920  0.500  1.880103  147.953  159.796  24.3807
  7457.779  7457.770  0.500  1.877130  148.28  160.267  24.5254
  7460.665  7460.650  0.500  1.874401  147.148  159.145  24.4203
  7463.551  7463.540  0.500  1.871619  148.286  160.516  24.6993
  7466.459  7466.450  0.500  1.869340  148.033  160.321  24.7255
  7469.378  7469.370  0.500  1.867332  148.3  160.741  24.8403
  7472.333  7472.320  0.500  1.865541  148.161  160.702  24.8786
  7475.300  7475.290  0.500  1.864023  148.022  160.637  24.9065
  7478.279  7478.270  0.500  1.862481  147.968  160.7  24.9546
  7481.296  7481.280  0.500  1.861109  147.886  160.743  24.9955
  7484.311  7484.300  0.500  1.859769  147.804  160.775  25.034
  7487.357  7487.350  0.500  1.858249  147.707  160.772  25.0716
  7490.416  7490.410  0.500  1.856827  147.673  160.861  25.1212
  7493.500  7493.490  0.500  1.855303  147.602  160.898  25.1653
  7496.600  7496.590  0.500  1.853661  147.532  160.949  25.2146
  7499.721  7499.710  0.500  1.851675  147.483  161.011  25.2745
  7502.857  7502.850  0.500  1.849342  147.408  161.05  25.3398
  7506.009  7506.000  0.500  1.847028  147.309  161.066  25.401
  7509.189  7509.180  0.500  1.844756  147.218  161.113  25.4662
  7512.384  7512.370  0.500  1.842227  147.144  161.104  25.5293
  7515.593  7515.590  0.500  1.839653  147.061  161.093  25.5932
  7518.832  7518.820  0.500  1.836952  147.008  161.195  25.6787
  7522.083  7522.070  0.500  1.834174  146.882  161.222  25.7545
  7525.368  7525.350  0.500  1.831381  146.811  161.246  25.8304
  7528.652  7528.640  0.500  1.828887  146.733  161.292  25.9021
  7531.963  7531.950  0.500  1.826691  146.661  161.354  25.9691
  7535.284  7535.270  0.500  1.824678  146.552  161.343  26.0198
  7538.629  7538.620  0.500  1.822623  146.467  161.359  26.0758
  7542.007  7541.990  0.500  1.820837  146.392  161.405  26.1299
  7545.379  7545.370  0.500  1.818988  146.313  161.442  26.1842
  7548.792  7548.780  0.500  1.817052  146.242  161.491  26.243
  7552.204  7552.200  0.500  1.814871  146.142  161.504  26.3024
  7555.660  7555.650  0.500  1.812484  146.031  161.523  26.3683
  7559.127  7559.110  0.500  1.809769  145.937  161.532  26.4415
  7562.602  7562.590  0.500  1.807109  145.841  161.544  26.5139
  7566.100  7566.090  0.500  1.804512  145.742  161.587  26.5899
  7569.623  7569.610  0.500  1.802034  145.632  161.581  26.6549
  7573.167  7573.150  0.500  1.799474  145.565  161.612  26.7282
  7576.716  7576.700  0.500  1.797264  145.431  161.598  26.7852
  7580.299  7580.280  0.500  1.795061  145.326  161.617  26.8473
  7583.897  7583.880  0.500  1.792793  145.209  161.574  26.9012
  7587.508  7587.490  0.500  1.790509  145.095  161.587  26.9649
  7591.133  7591.120  0.500  1.788085  144.95  161.554  27.0247
  7594.804  7594.780  0.500  1.785647  144.818  161.537  27.0879
  7598.470  7598.450  0.500  1.783286  144.668  161.492  27.1444
  7602.163  7602.140  0.500  1.781028  142.268  158.966  26.7802
  7605.871  7605.850  0.500  1.778853  143.985  161.041  27.1888
  7609.596  7609.580  0.500  1.776692  143.74  160.911  27.2256
  7613.334  7613.320  0.500  1.774440  143.656  160.92  27.2885
  7617.110  7617.090  0.500  1.772311  143.647  161.078  27.3736
  7620.898  7620.880  0.500  1.769921  143.691  161.3  27.4769
  7624.700  7624.680  0.500  1.767474  143.749  161.547  27.5864
  7628.526  7628.510  0.500  1.764936  143.769  161.675  27.6783
  7632.378  7632.350  0.500  1.762258  143.662  161.618  27.7428
  7636.229  7636.210  0.500  1.759665  143.536  161.64  27.8187
  7640.113  7640.090  0.500  1.756896  143.433  161.612  27.891
  7644.002  7643.990  0.500  1.754232  143.305  161.603  27.9638
  7647.925  7647.910  0.500  1.751489  143.179  161.597  28.0395
  7651.865  7651.850  0.500  1.748828  143.051  161.603  28.1154
  7655.824  7655.810  0.500  1.746173  142.941  161.656  28.1994
  7659.797  7659.780  0.500  1.743458  142.819  161.656  28.276
  7663.802  7663.780  0.500  1.740696  142.697  161.617  28.3473
  7667.813  7667.790  0.500  1.737944  142.549  161.624  28.4267
  7671.844  7671.830  0.500  1.735172  142.452  161.619  28.5047
  7675.898  7675.880  0.500  1.732685  142.3  161.567  28.5665
  7679.965  7679.950  0.500  1.730246  142.151  161.537  28.631
  7684.057  7684.040  0.500  1.727989  141.939  161.465  28.6829
  7688.177  7688.150  0.500  1.725662  138.597  157.81  28.0989
  7692.298  7692.280  0.500  1.723550  142.283  162.157  28.9339
  7696.447  7696.430  0.500  1.721217  142.14  162.106  28.9924
  7700.598  7700.590  0.500  1.718585  141.986  162.072  29.0627
  7704.786  7704.780  0.500  1.715889  141.735  161.927  29.1151
  7708.992  7708.980  0.500  1.713041  141.826  162.171  29.242
  7713.221  7713.210  0.500  1.710268  141.601  162.135  29.3167
  7717.464  7717.450  0.500  1.707487  141.391  161.988  29.3719
  7721.720  7721.710  0.500  1.704671  138.272  158.533  28.8264
  7726.006  7725.990  0.500  1.702028  141.182  162.043  29.5426
  7730.300  7730.290  0.500  1.699240  141.036  162.049  29.6262
  7734.619  7734.610  0.500  1.696468  140.829  161.914  29.6837
  7738.963  7738.950  0.500  1.693543  140.533  161.705  29.7322
  7743.325  7743.310  0.500  1.690690  140.667  162.033  29.8776
  7747.698  7747.690  0.500  1.687777  140.449  161.976  29.9542
  7752.096  7752.080  0.500  1.684944  140.273  161.909  30.0269
  7756.509  7756.500  0.500  1.682283  140.12  161.872  30.1
  7760.944  7760.930  0.500  1.679706  139.975  161.803  30.1646
  7765.388  7765.380  0.500  1.677186  139.806  161.74  30.229
  7769.864  7769.850  0.500  1.674830  139.671  161.769  30.3057
  7774.347  7774.340  0.500  1.672575  139.492  161.693  30.3599
  7778.862  7778.850  0.500  1.670099  139.311  161.617  30.421
  7783.390  7783.380  0.500  1.667388  139.16  161.583  30.4971
  7787.939  7787.930  0.500  1.664553  139.002  161.572  30.5817
  7792.511  7792.500  0.500  1.661584  138.825  161.51  30.6607
  7797.092  7797.080  0.500  1.658476  138.689  161.481  30.7506
  7801.694  7801.690  0.500  1.655317  138.526  161.459  30.8437
  7806.317  7806.310  0.500  1.652041  138.361  161.429  30.9392
  7810.969  7810.960  0.500  1.648913  138.18  161.383  31.0274
  7815.630  7815.620  0.500  1.645921  138.024  161.364  31.1166
  7820.309  7820.300  0.500  1.643001  137.871  161.337  31.2023
  7825.005  7825.000  0.500  1.640112  137.665  161.217  31.2693
  7829.727  7829.720  0.500  1.637271  137.544  161.237  31.3623
  7834.469  7834.460  0.500  1.634470  137.364  161.128  31.429
  7839.224  7839.210  0.500  1.631784  137.019  160.919  31.4726
  7843.998  7843.990  0.500  1.629307  137.027  161.095  31.5852
  7848.802  7848.790  0.500  1.626700  136.767  160.957  31.6405
  7853.610  7853.600  0.500  1.623971  136.595  160.858  31.7075
  7858.437  7858.430  0.500  1.621293  136.445  160.819  31.7847
  7863.299  7863.290  0.500  1.618561  136.289  160.803  31.8685
  7868.164  7868.160  0.500  1.615834  136.122  160.762  31.9474
  7873.057  7873.050  0.500  1.612847  135.974  160.753  32.0412
  7877.972  7877.960  0.500  1.609882  135.752  160.66  32.1178
  7882.904  7882.890  0.500  1.606741  135.583  160.611  32.209
  7887.846  7887.830  0.500  1.603508  135.385  160.539  32.2988
  7892.817  7892.800  0.500  1.600268  135.212  160.488  32.3933
  7897.811  7897.790  0.500  1.597213  135.025  160.412  32.4771
  7902.801  7902.790  0.500  1.594352  134.797  160.305  32.5484
  7907.832  7907.820  0.500  1.591663  134.629  160.27  32.6288