File: xdidata/Sm/Sm-L3-Sm2TiO5.xdi
# XDI/1.0 BlueSky/1.10.0 BMM/2023-1.0-py310-tiled
# Beamline.name: BMM (06BM) -- Beamline for Materials Measurement (NIST)
# Beamline.xray_source: NSLS-II three-pole wiggler
# Beamline.collimation: paraboloid mirror, 5 nm Rh on 30 nm Pt
# Beamline.focusing: not in use
# Beamline.harmonic_rejection: flat mirror, Si stripe, pitch = 7.0 mrad relative to beam
# Beamline.software: Bluesky 1.10.0, Ophyd 1.7.0, DataBroker 2.0.0b13, Python 3.10.8, 2023-1.0-py310-tiled
# Detector.I0: 10 cm N2
# Detector.I1: 25 cm N2
# Detector.I2: 25 cm N2
# Element.symbol: Sm
# Element.edge: L3
# Element.reference: Sm
# Element.reference_material: Sm2O3
# Facility.name: NSLS-II
# Facility.energy: 3.0
# Facility.current: 400.2
# Facility.mode: top-off
# Facility.GUP: 123456
# Facility.SAF: 301027
# Facility.cycle: 2023-2
# Mono.name: Si(111)
# Mono.d_spacing: 3.13519
# Mono.encoder_resolution: 0.0000050 deg/ct
# Mono.angle_offset: 16.0754 deg
# Mono.scan_mode: pseudo channel cut
# Mono.scan_type: step
# Mono.direction: forward in energy
# Sample.name: Sm2TiO5
# Sample.prep: Powder in PEG pellet
# Sample.x: 149.848 mm
# Sample.y: 114.690 mm
# Sample.SDD_position: 205.000 mm
# Scan.experimenters: Bruce Ravel
# Scan.edge_energy: 6716.2
# Scan.start_time: 2023-05-08T17:11:21
# Scan.end_time: 2023-05-08T17:17:26
# Scan.transient_id: 75434
# Scan.uid: bf9bc973-270c-40ed-9c1e-74203cf8906c
# Scan.plot_hint: ln(I0/It)  --  ln($5/$6)
# Column.1: energy eV
# Column.2: requested_energy eV
# Column.3: measurement_time seconds
# Column.4: xmu
# Column.5: I0 nA
# Column.6: It nA
# Column.7: Ir nA
# ///////////
# sample courtesy Martin Stennett, University of Sheffield
# -----------
# energy  requested_energy  measurement_time  xmu  I0  It  Ir
  6516.205  6516.200  0.500  2.148504  150.957  17.6104  1.500187
  6526.086  6526.200  0.500  2.137225  151.16  17.8341  1.534720
  6536.230  6536.200  0.500  2.125246  151.355  18.0724  1.571740
  6546.269  6546.200  0.500  2.114494  151.506  18.2859  1.606897
  6556.209  6556.200  0.500  2.103080  151.626  18.5105  1.643288
  6566.222  6566.200  0.500  2.091408  151.788  18.7479  1.681456
  6576.214  6576.200  0.500  2.080404  151.988  18.9802  1.718915
  6586.218  6586.200  0.500  2.069314  151.847  19.1741  1.754758
  6596.217  6596.200  0.500  2.058143  152.288  19.4458  1.797126
  6606.216  6606.200  0.500  2.047213  152.401  19.674  1.836826
  6616.216  6616.200  0.500  2.036285  152.56  19.911  1.877485
  6626.214  6626.200  0.500  2.025665  152.688  20.1405  1.917602
  6636.215  6636.200  0.500  2.015340  152.826  20.368  1.958196
  6646.212  6646.200  0.500  2.005066  152.945  20.5942  1.998615
  6657.153  6656.200  0.500  1.993840  152.831  20.8113  2.038046
  6666.179  6666.200  0.500  1.983929  153.155  21.063  2.079774
  6676.178  6676.200  0.500  1.973688  153.234  21.2908  2.116259
  6686.179  6686.200  0.500  1.964808  153.337  21.4952  2.146095
  6688.185  6688.200  0.500  1.962843  153.352  21.5397  2.150796
  6690.183  6690.200  0.500  1.961500  153.374  21.5716  2.153428
  6692.188  6692.200  0.500  1.959887  153.385  21.6079  2.155963
  6694.188  6694.200  0.500  1.958745  153.388  21.6331  2.155235
  6696.190  6696.200  0.500  1.958071  153.398  21.6492  2.152816
  6698.189  6698.200  0.500  1.957114  153.402  21.6704  2.147961
  6700.189  6700.200  0.500  1.956824  153.406  21.6772  2.138666
  6702.193  6702.200  0.500  1.956614  153.421  21.684  2.124497
  6704.196  6704.200  0.500  1.957621  153.428  21.6631  2.101978
  6706.194  6706.200  0.500  1.959911  153.441  21.6154  2.063644
  6706.685  6706.700  0.500  1.961054  153.444  21.5912  2.050275
  6707.184  6707.200  0.500  1.962368  153.449  21.5634  2.034925
  6707.681  6707.700  0.500  1.963335  153.445  21.542  2.018605
  6708.184  6708.200  0.500  1.965133  153.434  21.5018  1.998120
  6708.682  6708.700  0.500  1.967026  153.424  21.4597  1.973339
  6709.190  6709.200  0.500  1.969361  153.423  21.4096  1.944991
  6709.684  6709.700  0.500  1.972045  153.428  21.3529  1.913458
  6710.185  6710.200  0.500  1.975087  153.425  21.2875  1.878672
  6710.687  6710.700  0.500  1.978225  153.418  21.2199  1.844600
  6711.188  6711.200  0.500  1.981079  153.415  21.1591  1.812495
  6711.688  6711.700  0.500  1.984097  153.411  21.0948  1.779495
  6712.189  6712.200  0.500  1.987963  153.416  21.014  1.737974
  6712.689  6712.700  0.500  1.992736  153.412  20.9135  1.687026
  6713.191  6713.200  0.500  1.998734  153.417  20.7891  1.628030
  6713.687  6713.700  0.500  2.005347  153.423  20.6528  1.562943
  6714.189  6714.200  0.500  2.012825  153.417  20.4982  1.491425
  6714.691  6714.700  0.500  2.021201  153.417  20.3272  1.413044
  6715.195  6715.200  0.500  2.031131  153.43  20.1281  1.325075
  6715.693  6715.700  0.500  2.042699  153.433  19.8969  1.226941
  6716.193  6716.200  0.500  2.057197  153.429  19.61  1.111541
  6716.688  6716.700  0.500  2.074460  153.425  19.2738  0.985114
  6717.192  6717.200  0.500  2.093690  153.423  18.9066  0.856617
  6717.691  6717.700  0.500  2.114268  153.422  18.5213  0.731671
  6718.196  6718.200  0.500  2.135293  153.413  18.1349  0.615321
  6718.698  6718.700  0.500  2.154950  153.402  17.7807  0.517541
  6719.197  6719.200  0.500  2.172239  153.391  17.4747  0.441805
  6719.696  6719.700  0.500  2.187544  153.38  17.208  0.383445
  6720.189  6720.200  0.500  2.199921  153.391  16.9976  0.341420
  6720.694  6720.700  0.500  2.209076  153.388  16.8423  0.312632
  6721.195  6721.200  0.500  2.215152  153.393  16.7408  0.294932
  6721.700  6721.700  0.500  2.218928  153.399  16.6784  0.285824
  6722.200  6722.200  0.500  2.220016  153.405  16.661  0.284804
  6722.697  6722.700  0.500  2.218875  153.416  16.6811  0.290785
  6723.195  6723.200  0.500  2.215153  153.404  16.742  0.303531
  6723.696  6723.700  0.500  2.208720  153.401  16.8497  0.322765
  6724.198  6724.200  0.500  2.199822  153.406  17.0009  0.349480
  6724.696  6724.700  0.500  2.189574  153.412  17.1767  0.381356
  6725.199  6725.200  0.500  2.178286  153.405  17.3709  0.418818
  6725.699  6725.700  0.500  2.166066  153.41  17.585  0.461780
  6726.197  6726.200  0.500  2.153570  153.414  17.8066  0.507786
  6726.696  6726.700  0.500  2.142611  153.417  18.0032  0.553522
  6727.198  6727.200  0.500  2.131903  153.419  18.1972  0.600445
  6727.702  6727.700  0.500  2.121899  153.425  18.3809  0.646294
  6728.204  6728.200  0.500  2.113208  153.421  18.5409  0.688220
  6728.700  6728.700  0.500  2.106531  153.414  18.6642  0.722738
  6729.199  6729.200  0.500  2.100466  153.403  18.7764  0.752546
  6729.698  6729.700  0.500  2.094870  153.395  18.8808  0.777825
  6730.200  6730.200  0.500  2.090616  153.397  18.9615  0.796960
  6730.706  6730.700  0.500  2.087604  153.399  19.019  0.810914
  6731.205  6731.200  0.500  2.084288  153.391  19.0811  0.822079
  6731.704  6731.700  0.500  2.081259  153.386  19.1384  0.831104
  6732.207  6732.200  0.500  2.079081  153.37  19.1781  0.837652
  6732.702  6732.700  0.500  2.077428  153.371  19.2101  0.842526
  6733.205  6733.200  0.500  2.076015  153.371  19.2371  0.847318
  6733.701  6733.700  0.500  2.074986  153.368  19.2567  0.851114
  6734.202  6734.200  0.500  2.074217  153.919  19.3406  0.857783
  6734.705  6734.700  0.500  2.074016  153.912  19.3436  0.860569
  6735.205  6735.200  0.500  2.073960  153.903  19.3436  0.863010
  6735.706  6735.700  0.500  2.073983  153.898  19.3426  0.865183
  6736.202  6736.200  0.500  2.074082  153.902  19.3411  0.866536
  6736.702  6736.700  0.500  2.074668  153.901  19.3297  0.867902
  6737.196  6737.200  0.500  2.074878  153.895  19.3248  0.868922
  6737.697  6737.700  0.500  2.075090  153.893  19.3206  0.870034
  6738.199  6738.200  0.500  2.075624  153.887  19.3095  0.870611
  6738.703  6738.700  0.500  2.075828  153.885  19.3053  0.871300
  6739.199  6739.200  0.500  2.075822  153.897  19.3069  0.872134
  6739.696  6739.700  0.500  2.075344  153.895  19.3158  0.872736
  6740.198  6740.200  0.500  2.074854  153.895  19.3253  0.873815
  6740.692  6740.700  0.500  2.074256  153.906  19.3382  0.873943
  6741.201  6741.200  0.500  2.073548  153.907  19.3521  0.874432
  6742.194  6742.190  0.500  2.072054  153.899  19.3801  0.874906
  6743.191  6743.190  0.500  2.069412  153.899  19.4313  0.874676
  6744.218  6744.210  0.500  2.067756  153.892  19.4626  0.871919
  6745.266  6745.260  0.500  2.066829  153.893  19.4807  0.865587
  6746.328  6746.320  0.500  2.067178  153.875  19.4717  0.855405
  6747.415  6747.400  0.500  2.068835  153.873  19.4393  0.840516
  6748.516  6748.500  0.500  2.071195  153.879  19.3942  0.823397
  6749.631  6749.620  0.500  2.074006  153.876  19.3394  0.805713
  6750.781  6750.760  0.500  2.077725  153.875  19.2675  0.786289
  6751.904  6751.910  0.500  2.081342  153.862  19.1962  0.769276
  6753.080  6753.090  0.500  2.084487  153.86  19.1357  0.754161
  6754.273  6754.280  0.500  2.087037  153.849  19.0857  0.741565
  6755.498  6755.500  0.500  2.088225  153.868  19.0654  0.733997
  6756.723  6756.730  0.500  2.088519  153.878  19.0609  0.730418
  6757.979  6757.980  0.500  2.086799  153.875  19.0933  0.733196
  6759.250  6759.250  0.500  2.083812  153.865  19.1492  0.740815
  6760.544  6760.540  0.500  2.079345  153.858  19.2342  0.753590
  6761.858  6761.850  0.500  2.074303  153.858  19.3313  0.769694
  6763.187  6763.180  0.500  2.069455  153.864  19.4261  0.787684
  6764.545  6764.530  0.500  2.064806  153.869  19.5172  0.806421
  6765.905  6765.900  0.500  2.060807  153.871  19.5957  0.823965
  6767.287  6767.280  0.500  2.057578  153.885  19.6608  0.838690
  6768.704  6768.690  0.500  2.054667  153.876  19.717  0.851060
  6770.114  6770.110  0.500  2.052375  153.87  19.7614  0.860490
  6771.555  6771.550  0.500  2.050513  153.883  19.7999  0.867364
  6773.021  6773.010  0.500  2.048841  153.882  19.833  0.872371
  6774.495  6774.490  0.500  2.047328  153.895  19.8647  0.876194
  6775.999  6775.990  0.500  2.045586  153.897  19.8996  0.878918
  6777.517  6777.510  0.500  2.044187  153.902  19.928  0.880320
  6779.059  6779.050  0.500  2.042577  153.921  19.9627  0.882226
  6780.613  6780.610  0.500  2.040855  153.921  19.9971  0.883694
  6782.185  6782.180  0.500  2.039541  153.923  20.0236  0.884563
  6783.780  6783.780  0.500  2.038441  153.929  20.0465  0.885140
  6785.393  6785.390  0.500  2.037352  153.938  20.0695  0.885571
  6787.036  6787.030  0.500  2.036557  153.956  20.0877  0.884794
  6788.686  6788.680  0.500  2.035388  153.977  20.114  0.884463
  6790.350  6790.350  0.500  2.034526  153.996  20.1338  0.883707
  6792.046  6792.040  0.500  2.033668  154.012  20.1532  0.882484
  6793.754  6793.750  0.500  2.032691  152.692  20  0.873384
  6795.485  6795.480  0.500  2.032132  147.164  19.2867  0.834452
  6797.231  6797.230  0.500  2.031248  153.107  20.0833  0.870301
  6798.997  6798.990  0.500  2.030869  153.493  20.1416  0.871180
  6800.780  6800.780  0.500  2.030147  153.61  20.1715  0.872591
  6802.585  6802.580  0.500  2.029383  153.665  20.1941  0.873787
  6804.418  6804.410  0.500  2.028307  153.698  20.2202  0.876445
  6806.253  6806.250  0.500  2.026832  153.711  20.2517  0.878421
  6808.114  6808.110  0.500  2.025227  153.676  20.2797  0.880724
  6809.990  6809.990  0.500  2.023277  152.963  20.225  0.879555
  6811.900  6811.890  0.500  2.021101  145.209  19.2416  0.833219
  6813.813  6813.810  0.500  2.018776  153.269  20.3569  0.887245
  6815.759  6815.750  0.500  2.016651  153.539  20.4361  0.892602
  6817.712  6817.710  0.500  2.014421  153.613  20.4916  0.897102
  6819.685  6819.680  0.500  2.012172  153.619  20.5386  0.901425
  6821.690  6821.680  0.500  2.010247  153.251  20.5289  0.903911
  6823.695  6823.690  0.500  2.007853  142.896  19.1876  0.846265
  6825.728  6825.720  0.500  2.005592  153.076  20.6011  0.912296
  6827.785  6827.780  0.500  2.003335  153.4  20.6913  0.919202
  6829.861  6829.850  0.500  2.000729  153.469  20.7546  0.925143
  6831.949  6831.940  0.500  1.998367  153.508  20.809  0.931362
  6834.061  6834.050  0.500  1.995748  153.529  20.8664  0.937893
  6836.191  6836.180  0.500  1.993144  153.518  20.9193  0.945228
  6838.324  6838.320  0.500  1.990798  153.225  20.9284  0.950891
  6840.500  6840.490  0.500  1.988378  142.447  19.5035  0.891891
  6842.693  6842.680  0.500  1.986142  152.457  20.9208  0.959484
  6844.886  6844.880  0.500  1.984248  152.971  21.0311  0.966597
  6847.112  6847.100  0.500  1.982349  153.105  21.0896  0.970707
  6849.359  6849.350  0.500  1.980507  153.148  21.1342  0.971818
  6851.618  6851.610  0.500  1.979118  153.171  21.1669  0.972203
  6853.904  6853.890  0.500  1.977725  153.2  21.2004  0.972148
  6856.199  6856.190  0.500  1.976263  153.216  21.2337  0.973015
  6858.514  6858.510  0.500  1.974695  153.216  21.267  0.973048
  6860.865  6860.850  0.500  1.973236  152.947  21.2606  0.970827
  6863.207  6863.200  0.500  1.971774  153.212  21.3286  0.973016
  6865.595  6865.580  0.500  1.969860  153.277  21.3785  0.974813
  6867.978  6867.970  0.500  1.967828  153.278  21.4221  0.976524
  6870.399  6870.390  0.500  1.965875  153.304  21.4677  0.980337
  6872.830  6872.820  0.500  1.963530  153.314  21.5195  0.986022
  6875.283  6875.270  0.500  1.961276  153.336  21.571  0.992974
  6877.762  6877.750  0.500  1.959061  153.346  21.6203  0.999845
  6880.254  6880.240  0.500  1.956537  153.342  21.6745  1.007775
  6882.762  6882.750  0.500  1.954064  153.336  21.7273  1.014945
  6885.299  6885.270  0.500  1.951609  153.337  21.7808  1.021664
  6887.833  6887.820  0.500  1.949152  153.354  21.8368  1.027318
  6890.399  6890.390  0.500  1.946806  153.349  21.8874  1.032107
  6892.977  6892.970  0.500  1.944664  153.336  21.9324  1.035326
  6895.596  6895.580  0.500  1.942260  153.339  21.9856  1.038500
  6898.212  6898.200  0.500  1.939673  153.323  22.0403  1.042018
  6900.867  6900.850  0.500  1.937289  153.298  22.0893  1.045183
  6903.522  6903.510  0.500  1.934735  153.282  22.1436  1.048720
  6906.208  6906.190  0.500  1.932379  153.259  22.1924  1.052224
  6908.907  6908.890  0.500  1.929700  153.226  22.2472  1.056729
  6911.621  6911.610  0.500  1.926720  153.15  22.3025  1.062092
  6914.354  6914.350  0.500  1.924179  153.091  22.3506  1.067751
  6917.111  6917.100  0.500  1.921660  153.056  22.4018  1.074455
  6919.892  6919.880  0.500  1.919133  152.972  22.4462  1.080623
  6922.694  6922.670  0.500  1.916557  152.937  22.499  1.087430
  6925.503  6925.490  0.500  1.914263  152.899  22.545  1.094079
  6928.326  6928.320  0.500  1.911980  152.871  22.5924  1.100448
  6931.184  6931.170  0.500  1.909376  152.826  22.6446  1.106797
  6934.067  6934.050  0.500  1.906969  152.797  22.695  1.113218
  6936.950  6936.940  0.500  1.904579  152.788  22.7478  1.118824
  6939.869  6939.850  0.500  1.902521  152.765  22.7913  1.122831
  6942.779  6942.770  0.500  1.900470  152.744  22.835  1.127007
  6945.728  6945.720  0.500  1.898204  152.707  22.8812  1.130683
  6948.701  6948.690  0.500  1.895562  152.663  22.9351  1.134783
  6951.683  6951.670  0.500  1.893317  152.634  22.9824  1.138461
  6954.692  6954.680  0.500  1.890499  152.615  23.0443  1.143068
  6957.712  6957.700  0.500  1.887845  152.581  23.1004  1.147918
  6960.765  6960.750  0.500  1.884964  152.559  23.1637  1.153510
  6963.820  6963.810  0.500  1.881958  152.538  23.2302  1.159833
  6966.899  6966.890  0.500  1.879252  152.52  23.2905  1.167157
  6969.998  6969.990  0.500  1.876655  152.493  23.3469  1.173296
  6973.117  6973.110  0.500  1.873911  152.456  23.4054  1.180115
  6976.261  6976.250  0.500  1.871438  152.427  23.4589  1.187634
  6979.409  6979.400  0.500  1.868524  152.372  23.5188  1.194850
  6982.590  6982.580  0.500  1.865732  152.339  23.5795  1.201779
  6985.782  6985.770  0.500  1.863066  152.295  23.6355  1.209349
  6989.006  6988.990  0.500  1.860370  152.26  23.6939  1.215402
  6992.232  6992.220  0.500  1.857958  152.226  23.7458  1.220642
  6995.485  6995.470  0.500  1.855295  152.161  23.799  1.225766
  6998.762  6998.750  0.500  1.852505  152.116  23.8584  1.230793
  7002.050  7002.040  0.500  1.850050  152.062  23.9085  1.235347
  7005.363  7005.350  0.500  1.847168  152.026  23.972  1.241504
  7008.687  7008.670  0.500  1.844086  151.97  24.037  1.248515
  7012.031  7012.020  0.500  1.841206  151.913  24.0974  1.255914
  7015.401  7015.390  0.500  1.838127  151.875  24.1656  1.262941
  7018.779  7018.770  0.500  1.835084  151.833  24.2325  1.271461
  7022.189  7022.180  0.500  1.831752  151.787  24.306  1.279540
  7025.607  7025.600  0.500  1.828771  151.742  24.3714  1.287398
  7029.058  7029.050  0.500  1.826134  151.691  24.4276  1.294981
  7032.521  7032.510  0.500  1.823336  151.628  24.4857  1.303052
  7036.000  7035.990  0.500  1.820460  151.551  24.5438  1.311540
  7039.497  7039.490  0.500  1.817428  151.51  24.6117  1.320653
  7043.019  7043.010  0.500  1.814486  151.463  24.6766  1.328407
  7046.555  7046.550  0.500  1.811609  151.384  24.7347  1.336873
  7050.109  7050.100  0.500  1.809010  151.317  24.7882  1.343444
  7053.687  7053.680  0.500  1.806129  151.271  24.8522  1.350929
  7057.289  7057.280  0.500  1.803735  151.207  24.9012  1.357514
  7060.897  7060.890  0.500  1.800817  151.17  24.9678  1.364823
  7064.526  7064.520  0.500  1.797876  150.985  25.0108  1.370593
  7068.182  7068.180  0.500  1.794865  150.984  25.086  1.378463
  7071.854  7071.850  0.500  1.791668  150.843  25.1428  1.385409
  7075.544  7075.540  0.500  1.788547  149.424  24.9841  1.380799
  7079.256  7079.250  0.500  1.785380  150.718  25.2805  1.401125
  7082.983  7082.980  0.500  1.782185  149.391  25.1381  1.398600
  7086.727  7086.720  0.500  1.778968  150.525  25.4105  1.418948
  7090.497  7090.490  0.500  1.776210  150.458  25.4693  1.426520
  7094.285  7094.280  0.500  1.772672  150.364  25.5435  1.435775
  7098.089  7098.080  0.500  1.769527  150.299  25.613  1.445856
  7101.914  7101.910  0.500  1.766449  150.227  25.6796  1.455228
  7105.753  7105.750  0.500  1.763465  150.146  25.7424  1.464841
  7109.621  7109.610  0.500  1.760222  150.042  25.8082  1.474221
  7113.498  7113.490  0.500  1.757056  149.728  25.8358  1.481266
  7117.398  7117.390  0.500  1.754462  149.587  25.8787  1.489080
  7121.317  7121.310  0.500  1.751448  149.37  25.919  1.496930
  7125.257  7125.250  0.500  1.748348  149.154  25.9619  1.504351
  7129.220  7129.210  0.500  1.745284  149.429  26.0896  1.516792
  7133.190  7133.180  0.500  1.742157  149.145  26.1217  1.524121
  7137.188  7137.180  0.500  1.739108  149.082  26.1903  1.534013
  7141.193  7141.190  0.500  1.735781  149.016  26.2659  1.543907
  7145.238  7145.230  0.500  1.732618  148.966  26.3403  1.553986
  7149.289  7149.280  0.500  1.729317  148.902  26.4161  1.564346
  7153.354  7153.350  0.500  1.725996  148.826  26.4903  1.574142
  7157.452  7157.440  0.500  1.722695  148.729  26.5607  1.584315
  7161.559  7161.550  0.500  1.719347  148.606  26.6277  1.594011
  7165.689  7165.680  0.500  1.715953  148.443  26.6889  1.604665
  7169.843  7169.830  0.500  1.712910  148.289  26.7425  1.613451
  7173.997  7173.990  0.500  1.709992  148.155  26.7963  1.623458
  7178.199  7178.180  0.500  1.706513  148.031  26.8674  1.634354
  7182.396  7182.380  0.500  1.703287  147.9  26.9302  1.644853
  7186.641  7186.610  0.500  1.700177  147.766  26.9897  1.655384
  7190.871  7190.850  0.500  1.697010  147.547  27.0352  1.664759
  7195.123  7195.110  0.500  1.693918  147.4  27.0919  1.675909
  7199.403  7199.390  0.500  1.690807  147.287  27.1553  1.686577
  7203.706  7203.690  0.500  1.687409  147.134  27.2196  1.697214
  7208.025  7208.010  0.500  1.684295  146.943  27.2689  1.707056
  7212.370  7212.350  0.500  1.680906  146.771  27.3296  1.717312
  7216.729  7216.710  0.500  1.677431  146.59  27.3908  1.727601
  7221.111  7221.090  0.500  1.674191  146.409  27.4458  1.737262
  7225.469  7225.480  0.500  1.670757  146.178  27.4968  1.747316
  7229.900  7229.900  0.500  1.667174  146.223  27.6039  1.759791
  7234.359  7234.330  0.500  1.663546  146.022  27.6661  1.770896
  7238.770  7238.780  0.500  1.659782  145.874  27.7423  1.782724
  7243.286  7243.250  0.500  1.656569  145.715  27.8014  1.794857
  7247.751  7247.740  0.500  1.653170  145.469  27.8488  1.805147
  7252.244  7252.250  0.500  1.649889  145.266  27.9015  1.816866
  7256.767  7256.780  0.500  1.646497  145.304  28.0036  1.832072
  7261.361  7261.330  0.500  1.643082  144.675  27.9777  1.839355
  7265.882  7265.900  0.500  1.641349  138.988  26.9246  1.773330
  7270.497  7270.480  0.500  1.636608  145.278  28.2767  1.875699
  7275.071  7275.090  0.500  1.633259  145.014  28.3202  1.886154
  7279.689  7279.710  0.500  1.629703  145.107  28.4391  1.902463
  7284.340  7284.360  0.500  1.626182  142.412  28.0094  1.881580
  7289.004  7289.020  0.500  1.622933  144.698  28.5518  1.923608