File: xdidata/Sm/Sm-L1-Sm2Ti2O7.xdi
# XDI/1.0 BlueSky/1.10.0 BMM/2023-1.0-py310-tiled
# Beamline.name: BMM (06BM) -- Beamline for Materials Measurement (NIST)
# Beamline.xray_source: NSLS-II three-pole wiggler
# Beamline.collimation: paraboloid mirror, 5 nm Rh on 30 nm Pt
# Beamline.focusing: not in use
# Beamline.harmonic_rejection: flat mirror, Si stripe, pitch = 7.0 mrad relative to beam
# Beamline.software: Bluesky 1.10.0, Ophyd 1.7.0, DataBroker 2.0.0b13, Python 3.10.8, 2023-1.0-py310-tiled
# Detector.I0: 10 cm N2
# Detector.I1: 25 cm N2
# Detector.I2: 25 cm N2
# Element.symbol: Sm
# Element.edge: L1
# Element.reference: Sm
# Element.reference_material: Sm2O3
# Facility.name: NSLS-II
# Facility.energy: 3.0
# Facility.current: 399.9
# Facility.mode: top-off
# Facility.GUP: 123456
# Facility.SAF: 301027
# Facility.cycle: 2023-2
# Mono.name: Si(111)
# Mono.d_spacing: 3.13519
# Mono.encoder_resolution: 0.0000050 deg/ct
# Mono.angle_offset: 16.0754 deg
# Mono.scan_mode: pseudo channel cut
# Mono.scan_type: step
# Mono.direction: forward in energy
# Sample.name: Sm2Ti2O7
# Sample.prep: Powder in PEG pellet
# Sample.x: 149.848 mm
# Sample.y: 114.690 mm
# Sample.SDD_position: 205.000 mm
# Scan.experimenters: Bruce Ravel
# Scan.edge_energy: 7736.8
# Scan.start_time: 2023-05-08T20:52:51
# Scan.end_time: 2023-05-08T20:58:44
# Scan.transient_id: 75603
# Scan.uid: 9830b31c-9ff8-461c-b996-9876594648e7
# Scan.plot_hint: ln(I0/It)  --  ln($5/$6)
# Column.1: energy eV
# Column.2: requested_energy eV
# Column.3: measurement_time seconds
# Column.4: xmu
# Column.5: I0 nA
# Column.6: It nA
# Column.7: Ir nA
# ///////////
# sample courtesy Martin Stennett, University of Sheffield
# -----------
# energy  requested_energy  measurement_time  xmu  I0  It  Ir
  7536.805  7536.800  0.500  0.754188  147.676  69.4656  4.185599
  7546.812  7546.800  0.500  0.749027  147.478  69.7314  4.221504
  7556.820  7556.800  0.500  0.744297  147.309  69.9817  4.261759
  7566.876  7566.800  0.500  0.739424  147.127  70.2367  4.310246
  7576.927  7576.800  0.500  0.734362  146.951  70.5087  4.360351
  7586.814  7586.800  0.500  0.729029  146.696  70.7627  4.407421
  7596.820  7596.800  0.500  0.724100  146.381  70.9598  4.441930
  7606.818  7606.800  0.500  0.719302  145.696  70.9672  4.470924
  7616.826  7616.800  0.500  0.714657  145.521  71.212  4.519515
  7626.822  7626.800  0.500  0.709885  145.75  71.6654  4.578678
  7636.818  7636.800  0.500  0.704808  145.604  71.9582  4.633267
  7646.821  7646.800  0.500  0.699930  145.423  72.2198  4.682119
  7656.813  7656.800  0.500  0.695029  145.245  72.4861  4.727635
  7666.818  7666.800  0.500  0.690437  145.047  72.7206  4.769114
  7676.810  7676.800  0.500  0.685808  144.816  72.9413  4.811155
  7686.813  7686.800  0.500  0.681102  144.207  72.9772  4.845231
  7696.776  7696.800  0.500  0.676572  144.449  73.4314  4.902028
  7706.775  7706.800  0.500  0.672176  140.589  71.7844  4.822981
  7708.774  7708.800  0.500  0.670907  144.254  73.7491  4.960406
  7710.775  7710.800  0.500  0.670235  144.164  73.7525  4.966333
  7712.787  7712.800  0.500  0.669298  144.101  73.7893  4.972819
  7714.779  7714.800  0.500  0.668322  144.025  73.8226  4.981385
  7716.786  7716.800  0.500  0.667316  143.953  73.8599  4.987368
  7718.786  7718.800  0.500  0.666373  143.824  73.8634  4.990866
  7720.784  7720.800  0.500  0.665075  140.958  72.4856  4.913206
  7722.793  7722.800  0.500  0.664411  143.905  74.0502  5.011920
  7724.786  7724.800  0.500  0.663603  143.83  74.0716  5.014748
  7726.790  7726.800  0.500  0.662705  143.764  74.1037  5.019151
  7727.282  7727.300  0.500  0.662592  143.735  74.0974  5.017769
  7727.779  7727.800  0.500  0.662464  143.722  74.1  5.018437
  7728.273  7728.300  0.500  0.662485  143.709  74.0917  5.016947
  7728.780  7728.800  0.500  0.662262  143.681  74.0939  5.016692
  7729.277  7729.300  0.500  0.661682  143.666  74.1291  5.018541
  7729.774  7729.800  0.500  0.661490  143.652  74.136  5.018779
  7730.277  7730.300  0.500  0.661622  143.635  74.1176  5.016229
  7730.776  7730.800  0.500  0.661356  143.621  74.1302  5.015935
  7731.281  7731.300  0.500  0.661248  143.606  74.1305  5.016163
  7731.781  7731.800  0.500  0.660941  143.594  74.1468  5.015225
  7732.286  7732.300  0.500  0.660646  143.575  74.159  5.014391
  7732.791  7732.800  0.500  0.660384  143.557  74.1694  5.012519
  7733.286  7733.300  0.500  0.660186  143.537  74.1733  5.010507
  7733.784  7733.800  0.500  0.660083  143.523  74.1738  5.007095
  7734.284  7734.300  0.500  0.659907  143.501  74.1757  5.002925
  7734.782  7734.800  0.500  0.659693  143.469  74.1751  4.999226
  7735.280  7735.300  0.500  0.659598  143.46  74.1774  4.993581
  7735.783  7735.800  0.500  0.659544  143.442  74.1719  4.986430
  7736.288  7736.300  0.500  0.659249  143.421  74.1832  4.977596
  7736.791  7736.800  0.500  0.659204  143.386  74.1684  4.966746
  7737.290  7737.300  0.500  0.659090  143.353  74.1594  4.952240
  7737.795  7737.800  0.500  0.659042  143.325  74.1485  4.935788
  7738.291  7738.300  0.500  0.659021  143.275  74.1245  4.917619
  7738.789  7738.800  0.500  0.658940  143.196  74.0893  4.897434
  7739.288  7739.300  0.500  0.658954  143.017  73.9958  4.870594
  7739.786  7739.800  0.500  0.658674  142.668  73.8358  4.843555
  7740.290  7740.300  0.500  0.658880  140.254  72.5715  4.746658
  7740.791  7740.800  0.500  0.659400  141.01  72.9251  4.734060
  7741.294  7741.300  0.500  0.659369  143.364  74.1449  4.790946
  7741.796  7741.800  0.500  0.659194  143.967  74.4693  4.805850
  7742.299  7742.300  0.500  0.659526  143.945  74.4337  4.788411
  7742.796  7742.800  0.500  0.659515  143.925  74.4238  4.772639
  7743.300  7743.300  0.500  0.659215  143.892  74.4294  4.758939
  7743.794  7743.800  0.500  0.659416  143.865  74.4004  4.742619
  7744.293  7744.300  0.500  0.659580  143.849  74.3799  4.726008
  7744.794  7744.800  0.500  0.659761  143.828  74.3552  4.706946
  7745.293  7745.300  0.500  0.659645  143.801  74.3504  4.688389
  7745.790  7745.800  0.500  0.659931  143.782  74.3192  4.664514
  7746.297  7746.300  0.500  0.660161  143.761  74.2908  4.639983
  7746.799  7746.800  0.500  0.660279  143.744  74.2737  4.611366
  7747.298  7747.300  0.500  0.660218  143.71  74.2604  4.582219
  7747.803  7747.800  0.500  0.660470  143.7  74.2367  4.547675
  7748.300  7748.300  0.500  0.660724  143.682  74.2084  4.514160
  7748.799  7748.800  0.500  0.660807  143.66  74.191  4.480183
  7749.297  7749.300  0.500  0.661205  143.648  74.1553  4.443860
  7749.789  7749.800  0.500  0.661364  143.627  74.1328  4.409340
  7750.296  7750.300  0.500  0.661424  143.609  74.1191  4.375570
  7750.796  7750.800  0.500  0.661670  143.601  74.0966  4.344576
  7751.301  7751.300  0.500  0.661816  143.583  74.0766  4.318013
  7751.798  7751.800  0.500  0.662147  143.565  74.0426  4.293577
  7752.304  7752.300  0.500  0.662369  143.55  74.0184  4.274478
  7752.801  7752.800  0.500  0.662669  143.533  73.9874  4.260890
  7753.304  7753.300  0.500  0.662544  143.519  73.9893  4.253628
  7753.799  7753.800  0.500  0.662582  143.499  73.9764  4.250815
  7754.299  7754.300  0.500  0.662467  143.485  73.9778  4.251105
  7754.797  7754.800  0.500  0.662419  143.467  73.972  4.253651
  7755.298  7755.300  0.500  0.661992  143.451  73.9953  4.260515
  7755.803  7755.800  0.500  0.661754  143.443  74.009  4.269426
  7756.304  7756.300  0.500  0.661447  143.418  74.0184  4.278570
  7756.805  7756.800  0.500  0.661039  143.403  74.0411  4.288770
  7757.305  7757.300  0.500  0.660484  143.384  74.0723  4.298769
  7757.804  7757.800  0.500  0.659982  143.366  74.1005  4.309316
  7758.305  7758.300  0.500  0.659638  143.352  74.1186  4.317731
  7758.803  7758.800  0.500  0.659107  143.33  74.1467  4.324410
  7759.299  7759.300  0.500  0.658654  143.319  74.1745  4.330665
  7759.797  7759.800  0.500  0.658115  143.303  74.2061  4.337117
  7760.293  7760.300  0.500  0.657735  143.284  74.2244  4.342854
  7760.797  7760.800  0.500  0.657517  143.268  74.2326  4.345946
  7761.298  7761.300  0.500  0.657068  143.253  74.2578  4.350355
  7761.802  7761.800  0.500  0.656408  143.234  74.2969  4.355601
  7762.792  7762.790  0.500  0.655912  143.205  74.319  4.362434
  7763.796  7763.790  0.500  0.655381  143.177  74.3437  4.371689
  7764.812  7764.810  0.500  0.654867  143.152  74.3691  4.383234
  7765.875  7765.860  0.500  0.654330  143.126  74.3953  4.397501
  7766.930  7766.920  0.500  0.654222  143.097  74.3886  4.413536
  7768.001  7768.000  0.500  0.653738  143.066  74.4084  4.433386
  7769.106  7769.100  0.500  0.653467  143.038  74.4138  4.454725
  7770.227  7770.220  0.500  0.652900  143.008  74.4404  4.478278
  7771.369  7771.360  0.500  0.651951  142.973  74.4932  4.503031
  7772.514  7772.510  0.500  0.651267  142.946  74.5299  4.523383
  7773.705  7773.690  0.500  0.650371  142.908  74.5769  4.545661
  7774.892  7774.880  0.500  0.649506  142.87  74.6213  4.562434
  7776.112  7776.100  0.500  0.648671  142.841  74.6686  4.581069
  7777.341  7777.330  0.500  0.647875  142.813  74.7135  4.596024
  7778.596  7778.580  0.500  0.647101  142.787  74.7577  4.607826
  7779.867  7779.850  0.500  0.646323  142.743  74.7931  4.616250
  7781.149  7781.140  0.500  0.645765  142.72  74.8223  4.619859
  7782.459  7782.450  0.500  0.645233  142.682  74.8426  4.621848
  7783.793  7783.780  0.500  0.644822  142.649  74.8557  4.618114
  7785.141  7785.130  0.500  0.644524  142.608  74.8568  4.613067
  7786.507  7786.500  0.500  0.644163  142.572  74.8648  4.605978
  7787.892  7787.880  0.500  0.643883  142.53  74.8638  4.599953
  7789.304  7789.290  0.500  0.643354  142.499  74.8871  4.594276
  7790.721  7790.710  0.500  0.642951  142.464  74.8987  4.587552
  7792.162  7792.150  0.500  0.642619  142.427  74.9044  4.580729
  7793.621  7793.610  0.500  0.642361  142.407  74.913  4.575974
  7795.094  7795.090  0.500  0.642164  142.358  74.9019  4.571135
  7796.602  7796.590  0.500  0.641299  142.313  74.9434  4.573011
  7798.115  7798.110  0.500  0.640419  142.267  74.9851  4.575700
  7799.657  7799.650  0.500  0.639585  142.23  75.0281  4.580639
  7801.219  7801.210  0.500  0.638457  142.183  75.0878  4.584925
  7802.778  7802.780  0.500  0.637899  142.138  75.1061  4.588070
  7804.387  7804.380  0.500  0.636934  142.089  75.1525  4.593135
  7806.000  7805.990  0.500  0.636050  142.046  75.1964  4.600867
  7807.634  7807.630  0.500  0.635234  142.008  75.2374  4.609157
  7809.290  7809.280  0.500  0.634457  141.956  75.2685  4.616283
  7810.956  7810.950  0.500  0.633570  141.897  75.3037  4.626898
  7812.642  7812.640  0.500  0.632845  141.858  75.3381  4.638743
  7814.368  7814.350  0.500  0.631936  141.804  75.3776  4.652937
  7816.084  7816.080  0.500  0.631404  141.759  75.3937  4.666810
  7817.840  7817.830  0.500  0.630724  141.714  75.4211  4.679319
  7819.599  7819.590  0.500  0.629936  141.655  75.4489  4.691711
  7821.378  7821.380  0.500  0.629231  141.609  75.478  4.703016
  7823.196  7823.180  0.500  0.628359  141.55  75.5122  4.711498
  7825.010  7825.010  0.500  0.627549  141.501  75.5472  4.719025
  7826.859  7826.850  0.500  0.626770  141.454  75.5812  4.726674
  7828.714  7828.710  0.500  0.626235  141.394  75.5895  4.732898
  7830.597  7830.590  0.500  0.625325  141.281  75.5979  4.739335
  7832.501  7832.490  0.500  0.624547  140.871  75.4371  4.732422
  7834.414  7834.410  0.500  0.623558  141.206  75.6912  4.759146
  7836.359  7836.350  0.500  0.622728  141.178  75.7389  4.770888
  7838.313  7838.310  0.500  0.621710  141.123  75.7868  4.782822
  7840.290  7840.280  0.500  0.620915  140.193  75.3469  4.760774
  7842.293  7842.280  0.500  0.619866  140.952  75.8344  4.801202
  7844.301  7844.290  0.500  0.618956  140.919  75.8859  4.812881
  7846.333  7846.320  0.500  0.618153  139.769  75.3268  4.786409
  7848.389  7848.380  0.500  0.617342  140.722  75.9019  4.829252
  7850.463  7850.450  0.500  0.616507  140.697  75.952  4.839751
  7852.543  7852.540  0.500  0.615354  140.646  76.0121  4.850407
  7854.666  7854.650  0.500  0.614485  139.525  75.4716  4.823613
  7856.780  7856.780  0.500  0.613578  140.484  76.0593  4.865934
  7858.938  7858.920  0.500  0.612573  140.452  76.1186  4.874673
  7861.096  7861.090  0.500  0.611814  140.399  76.1474  4.879766
  7863.301  7863.280  0.500  0.611009  140.337  76.1753  4.883666
  7865.486  7865.480  0.500  0.610104  140.274  76.2103  4.888770
  7867.717  7867.700  0.500  0.609171  140.207  76.2447  4.895145
  7869.955  7869.950  0.500  0.608057  140.136  76.2909  4.903214
  7872.226  7872.210  0.500  0.606946  140.073  76.3415  4.913147
  7874.498  7874.490  0.500  0.605909  140.009  76.386  4.922942
  7876.808  7876.790  0.500  0.605013  139.947  76.4205  4.931915
  7879.115  7879.110  0.500  0.604026  139.876  76.4572  4.943818
  7881.466  7881.450  0.500  0.602912  139.812  76.5071  4.957027
  7883.802  7883.800  0.500  0.601885  139.736  76.5445  4.970340
  7886.203  7886.180  0.500  0.600816  139.668  76.5891  4.983869
  7888.577  7888.570  0.500  0.599783  139.603  76.6324  4.998512
  7891.005  7890.990  0.500  0.598921  139.536  76.6616  5.009945
  7893.432  7893.420  0.500  0.597905  139.464  76.7002  5.023930
  7895.885  7895.870  0.500  0.596934  139.401  76.74  5.034172
  7898.360  7898.350  0.500  0.595916  139.194  76.7039  5.038185
  7900.851  7900.840  0.500  0.595015  139.111  76.727  5.046628
  7903.364  7903.350  0.500  0.593792  139.114  76.8229  5.059471
  7905.882  7905.870  0.500  0.592622  139.052  76.8787  5.067661
  7908.439  7908.420  0.500  0.591553  138.979  76.9201  5.076262
  7911.008  7910.990  0.500  0.590522  138.9  76.956  5.084400
  7913.582  7913.570  0.500  0.589585  138.814  76.9805  5.092963
  7916.195  7916.180  0.500  0.588457  138.727  77.0187  5.104915
  7918.815  7918.800  0.500  0.587428  138.651  77.0561  5.115851
  7921.474  7921.450  0.500  0.586356  138.576  77.0967  5.127427
  7924.119  7924.110  0.500  0.585252  138.497  77.1383  5.140706
  7926.809  7926.790  0.500  0.584054  138.4  77.1762  5.152460
  7929.506  7929.490  0.500  0.582895  138.038  77.0637  5.154675
  7932.229  7932.210  0.500  0.581793  138.162  77.218  5.178937
  7934.968  7934.950  0.500  0.580559  138.047  77.2491  5.192137
  7937.711  7937.700  0.500  0.579339  137.743  77.1729  5.197899
  7940.494  7940.480  0.500  0.578222  137.744  77.26  5.202963
  7943.290  7943.270  0.500  0.576837  137.952  77.484  5.236577
  7946.109  7946.090  0.500  0.575641  137.841  77.5139  5.248085
  7948.942  7948.920  0.500  0.574450  137.722  77.5396  5.259263
  7951.787  7951.770  0.500  0.573346  137.224  77.3444  5.249894
  7954.667  7954.650  0.500  0.572181  137.476  77.5771  5.277202
  7957.559  7957.540  0.500  0.571047  137.389  77.6158  5.287441
  7960.463  7960.450  0.500  0.569981  137.264  77.6278  5.295631
  7963.384  7963.370  0.500  0.568685  137.157  77.6681  5.307840
  7966.338  7966.320  0.500  0.567499  137.045  77.6963  5.319680
  7969.310  7969.290  0.500  0.566127  136.923  77.734  5.333196
  7972.279  7972.270  0.500  0.565016  136.755  77.7251  5.342821
  7975.302  7975.280  0.500  0.563792  136.544  77.6998  5.352292
  7978.319  7978.300  0.500  0.562491  136.339  77.6843  5.362898
  7981.365  7981.350  0.500  0.561432  135.827  77.4745  5.355431
  7984.425  7984.410  0.500  0.560136  136.103  77.7326  5.390822
  7987.512  7987.490  0.500  0.558792  136  77.7781  5.404177
  7990.602  7990.590  0.500  0.557502  135.897  77.8195  5.418806
  7993.732  7993.710  0.500  0.556143  135.79  77.8644  5.434050
  7996.879  7996.850  0.500  0.554813  135.67  77.899  5.447493
  8000.006  8000.000  0.500  0.553556  135.55  77.9278  5.458952
  8003.190  8003.180  0.500  0.552416  135.469  77.97  5.472168
  8006.388  8006.370  0.500  0.551211  135.39  78.0189  5.485253
  8009.605  8009.590  0.500  0.549911  135.421  78.1382  5.503096
  8012.841  8012.820  0.500  0.548407  135.387  78.236  5.519858
  8016.088  8016.070  0.500  0.547461  135.332  78.2784  5.534945
  8019.374  8019.350  0.500  0.546067  135.252  78.3413  5.549671
  8022.654  8022.640  0.500  0.544614  135.14  78.3902  5.566719
  8025.970  8025.950  0.500  0.543410  135.022  78.416  5.580691
  8029.292  8029.270  0.500  0.541922  134.913  78.4691  5.598011
  8032.636  8032.620  0.500  0.540528  134.799  78.5126  5.614269
  8036.002  8035.990  0.500  0.539170  134.673  78.5454  5.628789
  8039.387  8039.370  0.500  0.537888  134.545  78.5719  5.645299
  8042.803  8042.780  0.500  0.536440  134.41  78.6064  5.658671
  8046.217  8046.200  0.500  0.535142  134.271  78.6273  5.672475
  8049.661  8049.650  0.500  0.533826  134.13  78.6482  5.686371
  8053.128  8053.110  0.500  0.532421  133.948  78.6521  5.698911
  8056.614  8056.590  0.500  0.530851  133.465  78.4913  5.700685
  8060.109  8060.090  0.500  0.529502  133.922  78.8661  5.740590
  8063.630  8063.610  0.500  0.528126  133.746  78.8715  5.752668
  8067.167  8067.150  0.500  0.527210  133.915  79.0434  5.777259
  8070.716  8070.700  0.500  0.526322  130.47  77.0782  5.629009
  8074.294  8074.280  0.500  0.524232  133.757  79.1858  5.811332
  8077.897  8077.880  0.500  0.522666  133.18  78.9677  5.809293
  8081.506  8081.490  0.500  0.521295  133.571  79.3078  5.843639
  8085.136  8085.120  0.500  0.519925  133.376  79.3004  5.855752
  8088.794  8088.780  0.500  0.518602  133.033  79.2016  5.861923
  8092.469  8092.450  0.500  0.517602  131.868  78.5863  5.811462
  8096.156  8096.140  0.500  0.515795  133.103  79.466  5.910815
  8099.867  8099.850  0.500  0.514231  132.935  79.4896  5.925947
  8103.589  8103.580  0.500  0.512805  132.777  79.5085  5.942488
  8107.337  8107.320  0.500  0.511565  132.618  79.512  5.956449
  8111.100  8111.090  0.500  0.510248  132.484  79.5362  5.974375
  8114.893  8114.880  0.500  0.508734  132.344  79.5727  5.991184
  8118.688  8118.680  0.500  0.507073  132.187  79.6105  6.009360
  8122.522  8122.510  0.500  0.505460  132.045  79.6531  6.028062
  8126.350  8126.350  0.500  0.504130  131.899  79.6709  6.043296
  8130.217  8130.210  0.500  0.502576  131.758  79.7095  6.060631
  8134.104  8134.090  0.500  0.501226  131.606  79.7255  6.076821
  8138.000  8137.990  0.500  0.499606  131.454  79.7625  6.092352
  8141.918  8141.910  0.500  0.498171  131.284  79.7734  6.108730
  8145.856  8145.850  0.500  0.496624  131.142  79.8104  6.125892
  8149.818  8149.810  0.500  0.495142  130.964  79.8206  6.141277
  8153.790  8153.780  0.500  0.493668  130.796  79.836  6.156551
  8157.792  8157.780  0.500  0.492153  130.639  79.8605  6.172975
  8161.795  8161.790  0.500  0.490697  130.478  79.8782  6.189489
  8165.836  8165.830  0.500  0.489194  130.323  79.9038  6.205620
  8169.889  8169.880  0.500  0.487617  130.153  79.9251  6.222200
  8173.959  8173.950  0.500  0.485965  129.995  79.9604  6.241424
  8178.058  8178.040  0.500  0.484570  129.819  79.9638  6.256200
  8182.167  8182.150  0.500  0.483022  129.648  79.9817  6.273202
  8186.284  8186.280  0.500  0.481566  129.47  79.9885  6.290124
  8190.433  8190.430  0.500  0.480103  129.314  80.0091  6.308799
  8194.601  8194.590  0.500  0.478569  129.146  80.028  6.328267
  8198.788  8198.780  0.500  0.476957  128.978  80.0525  6.346277
  8202.997  8202.980  0.500  0.475449  128.808  80.0676  6.363717
  8207.225  8207.210  0.500  0.474034  128.647  80.0812  6.382189
  8211.462  8211.450  0.500  0.472577  128.48  80.0935  6.402476
  8215.719  8215.710  0.500  0.470796  128.293  80.1194  6.420505
  8219.998  8219.990  0.500  0.469287  128.114  80.1289  6.437002
  8224.296  8224.290  0.500  0.467694  127.947  80.1516  6.455597
  8228.624  8228.610  0.500  0.466084  127.764  80.1658  6.472268
  8232.960  8232.950  0.500  0.464446  127.567  80.174  6.490197
  8237.333  8237.310  0.500  0.462850  127.386  80.1879  6.508686
  8241.705  8241.690  0.500  0.461243  127.196  80.1969  6.525953
  8246.099  8246.080  0.500  0.459794  127.016  80.1996  6.544270
  8250.515  8250.500  0.500  0.458167  126.811  80.2007  6.561224
  8254.945  8254.930  0.500  0.456638  126.62  80.2023  6.578578
  8259.395  8259.380  0.500  0.455235  126.416  80.1857  6.595344
  8263.867  8263.850  0.500  0.453512  126.223  80.2014  6.615412
  8268.352  8268.340  0.500  0.451857  126.02  80.205  6.636036
  8272.858  8272.850  0.500  0.450217  125.822  80.2101  6.655906
  8277.395  8277.380  0.500  0.448517  125.577  80.1901  6.671921
  8281.952  8281.930  0.500  0.446970  125.38  80.1886  6.691356