File: xdidata/Sm/Sm-L1-SamariumOxide.xdi
# XDI/1.0 BlueSky/1.10.0 BMM/2023-1.0-py310-tiled
# Beamline.name: BMM (06BM) -- Beamline for Materials Measurement (NIST)
# Beamline.xray_source: NSLS-II three-pole wiggler
# Beamline.collimation: paraboloid mirror, 5 nm Rh on 30 nm Pt
# Beamline.focusing: not in use
# Beamline.harmonic_rejection: flat mirror, Si stripe, pitch = 7.0 mrad relative to beam
# Beamline.software: Bluesky 1.10.0, Ophyd 1.7.0, DataBroker 2.0.0b13, Python 3.10.8, 2023-1.0-py310-tiled
# Detector.I0: 10 cm N2
# Detector.I1: 25 cm N2
# Detector.I2: 25 cm N2
# Element.symbol: Sm
# Element.edge: L1
# Element.reference: Sm
# Element.reference_material: Sm2O3
# Facility.name: NSLS-II
# Facility.energy: 3.0
# Facility.current: 400.6
# Facility.mode: top-off
# Facility.GUP: 301027
# Facility.SAF: 310583
# Facility.cycle: 2023-2
# Mono.name: Si(111)
# Mono.d_spacing: 3.13519
# Mono.encoder_resolution: 0.0000050 deg/ct
# Mono.angle_offset: 16.0754 deg
# Mono.scan_mode: pseudo channel cut
# Mono.scan_type: step
# Mono.direction: forward in energy
# Sample.name: Sm2O3
# Sample.prep: PEG pellet
# Sample.x: 109.138 mm
# Sample.y: 153.150 mm
# Sample.SDD_position: 205.000 mm
# Scan.experimenters: Bruce Ravel
# Scan.edge_energy: 7736.8
# Scan.start_time: 2023-05-28T14:10:33
# Scan.end_time: 2023-05-28T14:19:20
# Scan.transient_id: 78749
# Scan.uid: f40b2d96-b019-4ede-9ea4-2faa1af8b936
# Scan.plot_hint: ln(It/Ir)  --  ln($6/$7)
# Column.1: energy eV
# Column.2: requested_energy eV
# Column.3: measurement_time seconds
# Column.4: xmu
# Column.5: I0 nA
# Column.6: It nA
# Column.7: Ir nA
# ///////////
# sample courtesy Martin Stennett, University of Sheffield
# -----------
# energy  requested_energy  measurement_time  xmu  I0  It  Ir
  7536.798  7536.800  0.500  3.339194  145.446  160.208  5.681852
  7546.817  7546.800  0.500  3.332410  145.321  160.38  5.726680
  7556.820  7556.800  0.500  3.324219  145.229  160.696  5.785136
  7566.812  7566.800  0.500  3.313818  145.135  160.924  5.853952
  7576.812  7576.800  0.500  3.302198  145.024  161.141  5.930327
  7586.898  7586.800  0.500  3.292306  144.89  161.385  5.998365
  7596.815  7596.800  0.500  3.284618  144.677  161.519  6.049661
  7606.810  7606.800  0.500  3.275938  144.073  161.213  6.090837
  7616.821  7616.800  0.500  3.265699  143.985  161.464  6.163126
  7626.829  7626.800  0.500  3.255732  144.334  162.189  6.252821
  7636.818  7636.800  0.500  3.245170  144.284  162.506  6.331560
  7646.818  7646.800  0.500  3.235472  144.156  162.719  6.401646
  7656.818  7656.800  0.500  3.226860  144.061  162.989  6.467708
  7666.816  7666.800  0.500  3.218778  143.941  163.189  6.528187
  7676.820  7676.800  0.500  3.210275  143.809  163.384  6.591792
  7686.823  7686.800  0.500  3.201170  143.462  163.335  6.650118
  7696.811  7696.800  0.500  3.192073  143.553  163.817  6.730692
  7706.818  7706.800  0.500  3.183457  139.869  159.94  6.628274
  7708.805  7708.800  0.500  3.181892  143.55  164.227  6.816573
  7710.798  7710.800  0.500  3.180213  143.449  164.174  6.825825
  7712.799  7712.800  0.500  3.178816  143.377  164.093  6.832000
  7714.795  7714.800  0.500  3.177523  143.315  164.123  6.842087
  7716.793  7716.800  0.500  3.176197  143.256  164.171  6.853172
  7718.796  7718.800  0.500  3.175045  143.139  164.097  6.857983
  7720.789  7720.800  0.500  3.174246  141.443  162.223  6.785069
  7722.799  7722.800  0.500  3.173130  143.352  164.478  6.887084
  7724.797  7724.800  0.500  3.172258  143.268  164.448  6.891840
  7726.801  7726.800  0.500  3.171855  143.21  164.449  6.894640
  7727.081  7727.100  0.500  3.171737  143.21  164.403  6.893549
  7727.381  7727.400  0.500  3.171767  143.193  164.437  6.894768
  7727.680  7727.700  0.500  3.171676  143.182  164.42  6.894684
  7727.980  7728.000  0.500  3.171723  143.181  164.444  6.895334
  7728.281  7728.300  0.500  3.171753  143.17  164.457  6.895700
  7728.576  7728.600  0.500  3.171656  143.148  164.435  6.895434
  7728.877  7728.900  0.500  3.171859  143.149  164.429  6.893779
  7729.178  7729.200  0.500  3.172070  143.142  164.395  6.890906
  7729.476  7729.500  0.500  3.172000  143.14  164.446  6.893528
  7729.782  7729.800  0.500  3.172062  143.123  164.451  6.893314
  7730.080  7730.100  0.500  3.172200  143.124  164.433  6.891603
  7730.384  7730.400  0.500  3.172489  143.127  164.454  6.890476
  7730.687  7730.700  0.500  3.172510  143.097  164.429  6.889285
  7730.988  7731.000  0.500  3.172479  143.09  164.459  6.890764
  7731.284  7731.300  0.500  3.172683  143.088  164.429  6.888098
  7731.593  7731.600  0.500  3.172939  143.077  164.404  6.885313
  7731.891  7731.900  0.500  3.173247  143.056  164.393  6.882712
  7732.192  7732.200  0.500  3.173520  143.054  164.418  6.881881
  7732.490  7732.500  0.500  3.173647  143.046  164.442  6.881996
  7732.789  7732.800  0.500  3.174058  143.04  164.454  6.879699
  7733.090  7733.100  0.500  3.174428  143.036  164.461  6.877435
  7733.391  7733.400  0.500  3.174930  143.024  164.463  6.874065
  7733.687  7733.700  0.500  3.175393  143.019  164.5  6.872414
  7733.983  7734.000  0.500  3.175904  143.009  164.491  6.868533
  7734.292  7734.300  0.500  3.176756  143.001  164.437  6.860446
  7734.593  7734.600  0.500  3.177199  142.981  164.417  6.856579
  7734.894  7734.900  0.500  3.178060  142.968  164.413  6.850490
  7735.196  7735.200  0.500  3.178896  142.962  164.455  6.846531
  7735.497  7735.500  0.500  3.179780  142.956  164.441  6.839902
  7735.806  7735.800  0.500  3.180900  142.937  164.401  6.830557
  7736.097  7736.100  0.500  3.182277  142.938  164.424  6.822150
  7736.396  7736.400  0.500  3.183703  142.92  164.417  6.812099
  7736.700  7736.700  0.500  3.185426  142.901  164.431  6.800954
  7737.001  7737.000  0.500  3.187139  142.874  164.38  6.787213
  7737.292  7737.300  0.500  3.189419  142.862  164.389  6.772151
  7737.594  7737.600  0.500  3.191867  142.847  164.336  6.753383
  7737.887  7737.900  0.500  3.194180  142.839  164.353  6.738499
  7738.189  7738.200  0.500  3.196930  142.814  164.345  6.719681
  7738.490  7738.500  0.500  3.200034  142.807  164.372  6.699918
  7738.797  7738.800  0.500  3.203370  142.768  164.327  6.675796
  7739.101  7739.100  0.500  3.206741  142.722  164.316  6.652894
  7739.405  7739.400  0.500  3.210329  142.646  164.211  6.624829
  7739.699  7739.700  0.500  3.214085  142.48  163.989  6.591054
  7740.006  7740.000  0.500  3.217843  141.866  163.295  6.538546
  7740.300  7740.300  0.500  3.221699  140.194  161.397  6.437690
  7740.601  7740.600  0.500  3.224789  139.08  160.152  6.368318
  7740.896  7740.900  0.500  3.228143  139.612  160.8  6.372686
  7741.197  7741.200  0.500  3.231216  140.998  162.376  6.415389
  7741.489  7741.500  0.500  3.234462  142.238  163.795  6.450467
  7741.796  7741.800  0.500  3.237685  142.796  164.438  6.454963
  7742.095  7742.100  0.500  3.240690  142.857  164.524  6.438959
  7742.402  7742.400  0.500  3.243606  142.851  164.566  6.421827
  7742.701  7742.700  0.500  3.246262  142.832  164.564  6.404726
  7743.000  7743.000  0.500  3.248828  142.824  164.551  6.387813
  7743.300  7743.300  0.500  3.251365  142.821  164.571  6.372385
  7743.604  7743.600  0.500  3.253955  142.805  164.56  6.355508
  7743.898  7743.900  0.500  3.256776  142.791  164.549  6.337192
  7744.198  7744.200  0.500  3.259392  142.781  164.548  6.320574
  7744.495  7744.500  0.500  3.262342  142.776  164.526  6.301110
  7744.794  7744.800  0.500  3.265316  142.763  164.529  6.282500
  7745.096  7745.100  0.500  3.268718  142.747  164.541  6.261628
  7745.398  7745.400  0.500  3.272127  142.749  164.532  6.240008
  7745.698  7745.700  0.500  3.275905  142.752  164.554  6.217283
  7745.997  7746.000  0.500  3.279828  142.733  164.525  6.191835
  7746.299  7746.300  0.500  3.284119  142.741  164.529  6.165489
  7746.604  7746.600  0.500  3.288849  142.725  164.52  6.136046
  7746.904  7746.900  0.500  3.293799  142.7  164.531  6.106156
  7747.196  7747.200  0.500  3.299015  142.694  164.54  6.074738
  7747.495  7747.500  0.500  3.304824  142.685  164.548  6.039852
  7747.798  7747.800  0.500  3.311080  142.673  164.558  6.002530
  7748.095  7748.100  0.500  3.316853  142.676  164.567  5.968328
  7748.397  7748.400  0.500  3.323159  142.671  164.58  5.931253
  7748.702  7748.700  0.500  3.329682  142.67  164.58  5.892701
  7749.007  7749.000  0.500  3.336473  142.666  164.591  5.853208
  7749.304  7749.300  0.500  3.343359  142.653  164.586  5.812875
  7749.599  7749.600  0.500  3.350282  142.645  164.59  5.772925
  7749.912  7749.900  0.500  3.357375  142.653  164.604  5.732581
  7750.209  7750.200  0.500  3.364156  142.623  164.605  5.693870
  7750.499  7750.500  0.500  3.370701  142.625  164.639  5.657922
  7750.796  7750.800  0.500  3.376826  142.615  164.553  5.620420
  7751.096  7751.100  0.500  3.382911  142.605  164.581  5.587269
  7751.393  7751.400  0.500  3.388292  142.975  165.032  5.572535
  7751.698  7751.700  0.500  3.393395  142.994  165.075  5.545604
  7752.004  7752.000  0.500  3.398035  143.015  165.106  5.520955
  7752.296  7752.300  0.500  3.401950  143.013  165.123  5.499974
  7752.599  7752.600  0.500  3.405293  143.006  165.117  5.481399
  7752.901  7752.900  0.500  3.408215  143.009  165.102  5.464928
  7753.201  7753.200  0.500  3.410165  142.998  165.11  5.454520
  7753.499  7753.500  0.500  3.411734  142.996  165.11  5.445979
  7753.802  7753.800  0.500  3.412691  142.986  165.088  5.440041
  7754.094  7754.100  0.500  3.413212  142.979  165.11  5.437930
  7754.394  7754.400  0.500  3.413171  142.979  165.144  5.439278
  7754.700  7754.700  0.500  3.412616  142.975  165.132  5.441901
  7755.000  7755.000  0.500  3.411889  142.963  165.127  5.445707
  7755.303  7755.300  0.500  3.410597  142.959  165.117  5.452405
  7755.603  7755.600  0.500  3.409143  142.947  165.126  5.460625
  7755.906  7755.900  0.500  3.407676  142.936  165.12  5.468458
  7756.207  7756.200  0.500  3.406051  142.937  165.122  5.477424
  7756.497  7756.500  0.500  3.404107  142.918  165.111  5.487701
  7756.792  7756.800  0.500  3.402253  142.91  165.115  5.498027
  7757.095  7757.100  0.500  3.400387  142.897  165.082  5.507207
  7757.395  7757.400  0.500  3.398515  142.892  165.105  5.518271
  7757.688  7757.700  0.500  3.396687  142.888  165.116  5.528747
  7757.991  7758.000  0.500  3.395033  142.873  165.103  5.537462
  7758.292  7758.300  0.500  3.393222  142.87  165.119  5.548048
  7758.597  7758.600  0.500  3.391948  142.863  165.102  5.554535
  7758.893  7758.900  0.500  3.390542  142.854  165.125  5.563127
  7759.304  7759.200  0.500  3.389308  142.848  165.108  5.569420
  7759.474  7759.500  0.500  3.388316  142.794  165.031  5.572353
  7759.777  7759.800  0.500  3.387337  142.759  164.996  5.576621
  7760.075  7760.100  0.500  3.386189  142.741  165.006  5.583357
  7760.476  7760.400  0.500  3.385347  142.725  164.968  5.586796
  7760.671  7760.700  0.500  3.384706  142.705  165.01  5.591780
  7760.980  7761.000  0.500  3.384147  142.703  164.989  5.594212
  7761.309  7761.300  0.500  3.383361  142.683  165.02  5.599672
  7761.669  7761.600  0.500  3.382562  142.656  164.975  5.602617
  7761.774  7761.800  0.500  3.382389  142.629  164.919  5.601676
  7762.816  7762.790  0.500  3.380368  142.578  164.941  5.613760
  7763.775  7763.790  0.500  3.377914  142.572  164.987  5.629121
  7764.799  7764.810  0.500  3.374692  142.549  164.97  5.646691
  7765.844  7765.860  0.500  3.370459  142.529  164.993  5.671458
  7766.904  7766.920  0.500  3.365436  142.501  165.011  5.700615
  7767.988  7768.000  0.500  3.359023  142.483  164.996  5.736798
  7769.091  7769.100  0.500  3.352086  142.467  165.038  5.778177
  7770.209  7770.220  0.500  3.345201  142.46  165.094  5.820076
  7771.359  7771.360  0.500  3.338084  142.432  165.092  5.861563
  7772.503  7772.510  0.500  3.331648  142.413  165.086  5.899209
  7773.682  7773.690  0.500  3.325384  142.387  165.068  5.935640
  7774.881  7774.880  0.500  3.319977  142.371  165.075  5.968057
  7776.102  7776.100  0.500  3.315140  142.354  165.088  5.997461
  7777.326  7777.330  0.500  3.310971  142.322  165.102  6.023044
  7778.583  7778.580  0.500  3.307845  142.295  165.098  6.041735
  7779.851  7779.850  0.500  3.305665  142.278  165.111  6.055415
  7781.141  7781.140  0.500  3.304491  142.254  165.141  6.063631
  7782.439  7782.450  0.500  3.304530  142.235  165.183  6.064917
  7783.781  7783.780  0.500  3.305619  142.225  165.201  6.058979
  7785.131  7785.130  0.500  3.307243  142.194  165.193  6.048888
  7786.500  7786.500  0.500  3.309468  142.177  165.232  6.036844
  7787.877  7787.880  0.500  3.311767  142.137  165.226  6.022763
  7789.293  7789.290  0.500  3.314240  142.118  165.246  6.008638
  7790.708  7790.710  0.500  3.316453  142.103  165.307  5.997548
  7792.143  7792.150  0.500  3.318470  142.08  165.345  5.986832
  7793.608  7793.610  0.500  3.320748  142.049  165.352  5.973462
  7795.094  7795.090  0.500  3.322023  142.017  165.374  5.966661
  7796.591  7796.590  0.500  3.322556  141.994  165.384  5.963818
  7798.107  7798.110  0.500  3.322464  141.958  165.377  5.964146
  7799.655  7799.650  0.500  3.322033  141.937  165.4  5.967543
  7801.211  7801.210  0.500  3.321405  141.912  165.423  5.972121
  7802.778  7802.780  0.500  3.320812  141.883  165.439  5.976219
  7804.387  7804.380  0.500  3.319702  141.852  165.477  5.984249
  7805.995  7805.990  0.500  3.318339  141.823  165.536  5.994557
  7807.631  7807.630  0.500  3.316896  141.798  165.507  6.002159
  7809.290  7809.280  0.500  3.314841  141.756  165.519  6.014951
  7810.959  7810.950  0.500  3.312393  141.721  165.529  6.030025
  7812.642  7812.640  0.500  3.309255  141.69  165.555  6.049924
  7814.365  7814.350  0.500  3.305680  141.663  165.578  6.072469
  7816.079  7816.080  0.500  3.301909  141.612  165.586  6.095700
  7817.840  7817.830  0.500  3.298155  141.59  165.635  6.120442
  7819.599  7819.590  0.500  3.294647  141.574  165.639  6.142088
  7821.388  7821.380  0.500  3.291849  141.546  165.642  6.159413
  7823.193  7823.180  0.500  3.289746  141.508  165.656  6.172880
  7825.013  7825.010  0.500  3.287923  141.479  165.692  6.185508
  7826.864  7826.850  0.500  3.286440  141.453  165.726  6.195952
  7828.706  7828.710  0.500  3.284805  141.439  165.777  6.207987
  7830.597  7830.590  0.500  3.282764  141.389  165.797  6.221421
  7832.490  7832.490  0.500  3.280462  140.4  164.683  6.193857
  7834.411  7834.410  0.500  3.278272  141.242  165.72  6.246526
  7836.351  7836.350  0.500  3.275885  141.25  165.801  6.264529
  7838.306  7838.310  0.500  3.273215  141.2  165.832  6.282435
  7840.290  7840.280  0.500  3.270925  140.166  164.666  6.252598
  7842.280  7842.280  0.500  3.268448  141.118  165.821  6.312052
  7844.303  7844.290  0.500  3.266101  141.099  165.893  6.329635
  7846.322  7846.320  0.500  3.263808  140.045  164.738  6.299975
  7848.384  7848.380  0.500  3.261350  140.997  165.93  6.361186
  7850.455  7850.450  0.500  3.259242  140.988  166.006  6.377545
  7852.548  7852.540  0.500  3.256917  140.967  165.998  6.392069
  7854.656  7854.650  0.500  3.255034  139.987  164.922  6.362602
  7856.788  7856.780  0.500  3.253190  140.78  165.941  6.413734
  7858.927  7858.920  0.500  3.251743  140.776  166.025  6.426286
  7861.096  7861.090  0.500  3.250889  140.745  166.065  6.433333
  7863.285  7863.280  0.500  3.250095  140.7  166.053  6.437968
  7865.483  7865.480  0.500  3.249247  140.659  166.039  6.442881
  7867.712  7867.700  0.500  3.248090  140.627  166.09  6.452313
  7869.950  7869.950  0.500  3.246692  140.585  166.127  6.462794
  7872.215  7872.210  0.500  3.244695  140.545  166.162  6.477087
  7874.495  7874.490  0.500  3.242728  140.504  166.205  6.491493
  7876.808  7876.790  0.500  3.240640  140.473  166.228  6.505973
  7879.115  7879.110  0.500  3.237968  140.428  166.247  6.524119
  7881.458  7881.450  0.500  3.235065  140.39  166.3  6.545170
  7883.802  7883.800  0.500  3.232091  140.353  166.312  6.565157
  7886.192  7886.180  0.500  3.228720  140.492  166.569  6.597487
  7888.579  7888.570  0.500  3.225725  140.652  166.834  6.627825
  7891.002  7890.990  0.500  3.222604  140.628  166.866  6.649818
  7893.427  7893.420  0.500  3.219541  140.598  166.916  6.672211
  7895.885  7895.870  0.500  3.217277  140.564  166.972  6.689583
  7898.355  7898.350  0.500  3.215184  140.489  166.956  6.702942
  7900.851  7900.840  0.500  3.213521  140.13  166.607  6.700049
  7903.353  7903.350  0.500  3.211663  140.332  166.89  6.723916
  7905.890  7905.870  0.500  3.209972  140.297  166.937  6.737208
  7908.431  7908.420  0.500  3.208403  140.256  166.976  6.749336
  7911.003  7910.990  0.500  3.206613  140.209  166.999  6.762364
  7913.571  7913.570  0.500  3.204478  140.159  166.979  6.776012
  7916.195  7916.180  0.500  3.202406  140.1  166.988  6.790452
  7918.812  7918.800  0.500  3.199805  140.043  167.022  6.809498
  7921.463  7921.450  0.500  3.197146  139.982  167.05  6.828780
  7924.122  7924.110  0.500  3.194424  139.921  167.059  6.847748
  7926.798  7926.790  0.500  3.191383  139.841  167.041  6.867887
  7929.511  7929.490  0.500  3.188271  139.388  166.564  6.869624
  7932.229  7932.210  0.500  3.185289  139.691  167.026  6.909246
  7934.971  7934.950  0.500  3.182175  139.607  167.018  6.930473
  7937.711  7937.700  0.500  3.179635  139.369  166.822  6.939946
  7940.494  7940.480  0.500  3.176453  138.352  165.66  6.913550
  7943.287  7943.270  0.500  3.174565  139.612  167.272  6.994039
  7946.104  7946.090  0.500  3.171971  139.519  167.253  7.011392
  7948.942  7948.920  0.500  3.169704  139.43  167.25  7.027178
  7951.787  7951.770  0.500  3.167459  138.672  166.487  7.010853
  7954.664  7954.650  0.500  3.165489  139.275  167.27  7.057728
  7957.559  7957.540  0.500  3.163467  139.21  167.23  7.070299
  7960.468  7960.450  0.500  3.160963  139.125  167.24  7.088445
  7963.395  7963.370  0.500  3.158757  139.039  167.245  7.104328
  7966.335  7966.320  0.500  3.156008  138.948  167.241  7.123697
  7969.304  7969.290  0.500  3.153232  138.846  167.195  7.141528
  7972.281  7972.270  0.500  3.150463  138.716  167.137  7.158845
  7975.296  7975.280  0.500  3.147529  138.543  167.032  7.175393
  7978.319  7978.300  0.500  3.144438  138.366  166.899  7.191880
  7981.379  7981.350  0.500  3.141368  137.421  165.856  7.168890
  7984.406  7984.410  0.500  3.138619  138.129  166.809  7.229919
  7987.496  7987.490  0.500  3.135363  138.066  166.831  7.254490
  7990.599  7990.590  0.500  3.132308  138.005  166.858  7.277856
  7993.724  7993.710  0.500  3.129362  137.932  166.877  7.300144
  7996.868  7996.850  0.500  3.126315  137.846  166.791  7.318649
  8000.017  8000.000  0.500  3.123603  137.761  166.789  7.338460
  8003.196  8003.180  0.500  3.120981  137.716  166.817  7.358940
  8006.385  8006.370  0.500  3.118391  137.65  166.837  7.378930
  8009.605  8009.590  0.500  3.115987  137.709  167.052  7.406212
  8012.828  8012.820  0.500  3.113268  137.718  167.16  7.431167
  8016.077  8016.070  0.500  3.110582  137.693  167.235  7.454477
  8019.358  8019.350  0.500  3.107791  137.644  167.269  7.476842
  8022.651  8022.640  0.500  3.104455  137.577  167.288  7.502704
  8025.965  8025.950  0.500  3.101172  137.486  167.288  7.527381
  8029.289  8029.270  0.500  3.098006  137.397  167.28  7.550858
  8032.649  8032.620  0.500  3.094715  137.305  167.247  7.574273
  8035.993  8035.990  0.500  3.091449  137.215  167.237  7.598589
  8039.381  8039.370  0.500  3.088299  137.117  167.206  7.621157
  8042.798  8042.780  0.500  3.085243  137.025  167.188  7.643675
  8046.214  8046.200  0.500  3.082127  136.931  167.166  7.666485
  8049.669  8049.650  0.500  3.078864  136.821  167.156  7.691079
  8053.122  8053.110  0.500  3.075743  136.686  167.085  7.711881
  8056.608  8056.590  0.500  3.072511  136.374  166.809  7.724046
  8060.109  8060.090  0.500  3.069521  136.336  166.864  7.749719
  8063.624  8063.610  0.500  3.066877  136.461  167.128  7.782541
  8067.165  8067.150  0.500  3.063957  136.205  166.896  7.794482
  8070.714  8070.700  0.500  3.060976  131.039  160.662  7.525724
  8074.300  8074.280  0.500  3.058140  136.202  167.112  7.850090
  8077.894  8077.880  0.500  3.055207  135.682  166.607  7.849366
  8081.501  8081.490  0.500  3.052137  136.157  167.296  7.906062
  8085.139  8085.120  0.500  3.049124  135.976  167.167  7.923806
  8088.799  8088.780  0.500  3.045996  135.731  166.938  7.937704
  8092.466  8092.450  0.500  3.042399  132.697  163.341  7.794686
  8096.156  8096.140  0.500  3.039438  135.703  167.144  7.999810
  8099.864  8099.850  0.500  3.036018  135.574  167.109  8.025535
  8103.592  8103.580  0.500  3.032630  135.444  167.06  8.050431
  8107.340  8107.320  0.500  3.029341  135.318  167.015  8.074781
  8111.106  8111.090  0.500  3.025941  135.214  166.974  8.100270
  8114.895  8114.880  0.500  3.022663  135.102  166.97  8.126680
  8118.691  8118.680  0.500  3.019150  134.981  166.922  8.152903
  8122.524  8122.510  0.500  3.015741  134.858  166.88  8.178695
  8126.370  8126.350  0.500  3.012416  134.74  166.801  8.202085
  8130.231  8130.210  0.500  3.009109  134.612  166.746  8.226505
  8134.109  8134.090  0.500  3.005924  134.488  166.687  8.249848
  8137.997  8137.990  0.500  3.002764  134.372  166.643  8.273760
  8141.921  8141.910  0.500  2.999375  134.245  166.603  8.299860
  8145.865  8145.850  0.500  2.995996  134.132  166.571  8.326355
  8149.830  8149.810  0.500  2.992605  134.011  166.53  8.352573
  8153.804  8153.780  0.500  2.989297  133.865  166.468  8.377164
  8157.798  8157.780  0.500  2.986001  133.736  166.42  8.402344
  8161.806  8161.790  0.500  2.982576  133.598  166.347  8.427504
  8165.841  8165.830  0.500  2.979187  133.479  166.314  8.454441
  8169.895  8169.880  0.500  2.975605  133.35  166.266  8.482328
  8173.959  8173.950  0.500  2.972135  133.218  166.245  8.510725
  8178.058  8178.040  0.500  2.968652  133.086  166.217  8.538984
  8182.165  8182.150  0.500  2.965162  132.962  166.189  8.567421
  8186.290  8186.280  0.500  2.961513  132.821  166.107  8.594449
  8190.442  8190.430  0.500  2.958000  132.7  166.073  8.622980
  8194.601  8194.590  0.500  2.954569  132.55  165.977  8.647595
  8198.785  8198.780  0.500  2.951107  132.407  165.927  8.674960
  8202.985  8202.980  0.500  2.947539  132.261  165.875  8.703252
  8207.225  8207.210  0.500  2.943848  132.126  165.833  8.733230
  8211.462  8211.450  0.500  2.940339  131.979  165.747  8.759366
  8215.728  8215.710  0.500  2.936936  131.823  165.676  8.785484
  8220.004  8219.990  0.500  2.933296  131.675  165.58  8.812394
  8224.301  8224.290  0.500  2.929705  131.54  165.505  8.840085
  8228.618  8228.610  0.500  2.926370  131.401  165.43  8.865607
  8232.957  8232.950  0.500  2.922905  131.25  165.365  8.892873
  8237.324  8237.310  0.500  2.919274  131.101  165.344  8.924063
  8241.699  8241.690  0.500  2.915733  130.948  165.251  8.950704
  8246.090  8246.080  0.500  2.912144  130.803  165.179  8.978969
  8250.512  8250.500  0.500  2.908581  130.639  165.077  9.005472
  8254.948  8254.930  0.500  2.904936  130.484  165.007  9.034495
  8259.389  8259.380  0.500  2.901106  130.331  164.924  9.064606
  8263.852  8263.850  0.500  2.897302  130.171  164.855  9.095336
  8268.347  8268.340  0.500  2.893544  130.013  164.775  9.125152
  8272.858  8272.850  0.500  2.889784  129.841  164.676  9.154062
  8277.395  8277.380  0.500  2.885964  129.667  164.581  9.183792
  8281.946  8281.930  0.500  2.882187  129.449  164.417  9.209358
  8286.523  8286.500  0.500  2.878529  129.304  164.381  9.241050
  8291.096  8291.080  0.500  2.874838  129.129  164.278  9.269433
  8295.709  8295.690  0.500  2.871233  128.956  164.166  9.296572
  8300.325  8300.310  0.500  2.867374  128.769  164.031  9.324861
  8304.973  8304.960  0.500  2.863761  128.585  163.92  9.352223
  8309.635  8309.620  0.500  2.860078  128.355  163.751  9.377088
  8314.306  8314.300  0.500  2.856367  126.565  161.559  9.285984
  8319.014  8319.000  0.500  2.852510  127.752  163.196  9.416312
  8323.728  8323.720  0.500  2.848864  127.696  163.262  9.454514
  8328.481  8328.460  0.500  2.845117  127.663  163.341  9.494601
  8333.218  8333.210  0.500  2.841446  127.423  163.149  9.518307
  8338.032  8337.990  0.500  2.837701  127.107  162.877  9.538103
  8342.810  8342.790  0.500  2.833724  126.847  162.609  9.560338
  8347.617  8347.600  0.500  2.829758  126.577  162.368  9.584139
  8352.455  8352.430  0.500  2.825827  126.12  161.905  9.594456
  8357.307  8357.290  0.500  2.821879  125.895  161.741  9.622626
  8362.201  8362.160  0.500  2.818097  125.743  161.676  9.655178
  8367.073  8367.050  0.500  2.814128  125.586  161.601  9.689085
  8371.982  8371.960  0.500  2.810243  125.407  161.487  9.719934
  8376.935  8376.890  0.500  2.806444  125.225  161.372  9.750011
  8381.877  8381.830  0.500  2.802516  125.026  161.23  9.779748
  8386.813  8386.800  0.500  2.798775  124.771  161.029  9.804168
  8391.812  8391.790  0.500  2.794681  124.513  160.838  9.832707
  8396.829  8396.790  0.500  2.790919  124.306  160.702  9.861420
  8401.843  8401.820  0.500  2.786988  124.078  160.523  9.889235
  8406.882  8406.860  0.500  2.783198  123.854  160.346  9.915889
  8411.978  8411.920  0.500  2.779285  123.62  160.172  9.943953
  8417.047  8417.000  0.500  2.775363  123.384  159.954  9.969421
  8422.126  8422.100  0.500  2.771465  123.148  159.801  9.998759
  8427.272  8427.220  0.500  2.767429  122.91  159.605  10.0269
  8432.379  8432.360  0.500  2.763652  122.658  159.397  10.0517
  8437.547  8437.520  0.500  2.759474  122.414  159.206  10.0817
  8442.721  8442.700  0.500  2.755481  122.171  159.008  10.1094
  8447.945  8447.890  0.500  2.751439  121.904  158.771  10.1353
  8453.157  8453.110  0.500  2.747298  121.64  158.554  10.1634
  8458.339  8458.340  0.500  2.743354  121.367  158.316  10.1883
  8463.642  8463.590  0.500  2.739439  121.085  158.078  10.2129
  8468.914  8468.860  0.500  2.735487  120.801  157.823  10.2368
  8474.187  8474.150  0.500  2.731470  120.522  157.578  10.262
  8479.512  8479.460  0.500  2.727520  120.45  157.627  10.3058
  8484.790  8484.790  0.500  2.723570  120.342  157.602  10.345
  8490.200  8490.140  0.500  2.719598  120.053  157.309  10.3668
  8495.538  8495.510  0.500  2.715625  119.744  157.047  10.3908
  8500.872  8500.890  0.500  2.711588  119.425  156.732  10.4119
  8506.282  8506.300  0.500  2.707690  119.096  156.427  10.4322
  8511.756  8511.720  0.500  2.703657  118.773  156.114  10.4534
  8517.161  8517.170  0.500  2.699754  118.424  155.781  10.4719
  8522.693  8522.630  0.500  2.695548  118.028  155.383  10.4892
  8528.122  8528.110  0.500  2.691481  117.198  154.42  10.4667
  8533.624  8533.610  0.500  2.687408  116.358  153.426  10.4417
  8539.180  8539.130  0.500  2.683280  117.088  154.493  10.5578
  8544.697  8544.670  0.500  2.679292  116.729  154.131  10.5752
  8550.250  8550.220  0.500  2.675218  116.351  153.756  10.5925
  8555.822  8555.800  0.500  2.671220  115.962  153.371  10.6083
  8561.421  8561.400  0.500  2.667052  115.552  152.953  10.6236
  8567.021  8567.010  0.500  2.662991  115.123  152.502  10.6354
  8572.688  8572.650  0.500  2.658859  114.68  152.008  10.6449
  8578.306  8578.300  0.500  2.654712  114.216  151.492  10.6527
  8583.989  8583.970  0.500  2.650657  113.724  150.982  10.6601
  8589.715  8589.660  0.500  2.646583  112.964  150.106  10.6415