File: xdidata/Sm/Sm-L3-Sm2O3-m.xdi
# XDI/1.0 BlueSky/1.10.0 BMM/2023-1.0-py310-tiled
# Beamline.name: BMM (06BM) -- Beamline for Materials Measurement (NIST)
# Beamline.xray_source: NSLS-II three-pole wiggler
# Beamline.collimation: paraboloid mirror, 5 nm Rh on 30 nm Pt
# Beamline.focusing: not in use
# Beamline.harmonic_rejection: flat mirror, Si stripe, pitch = 7.0 mrad relative to beam
# Beamline.software: Bluesky 1.10.0, Ophyd 1.7.0, DataBroker 2.0.0b13, Python 3.10.8, 2023-1.0-py310-tiled
# Detector.I0: 10 cm N2
# Detector.I1: 25 cm N2
# Detector.I2: 25 cm N2
# Element.symbol: Sm
# Element.edge: L3
# Element.reference: Sm
# Element.reference_material: Sm2O3
# Facility.name: NSLS-II
# Facility.energy: 3.0
# Facility.current: 400.4
# Facility.mode: top-off
# Facility.GUP: 123456
# Facility.SAF: 301027
# Facility.cycle: 2023-2
# Mono.name: Si(111)
# Mono.d_spacing: 3.13519
# Mono.encoder_resolution: 0.0000050 deg/ct
# Mono.angle_offset: 16.0754 deg
# Mono.scan_mode: pseudo channel cut
# Mono.scan_type: step
# Mono.direction: forward in energy
# Sample.name: monoclinic Sm2O3
# Sample.prep: Powder in PEG pellet
# Sample.x: 123.848 mm
# Sample.y: 114.690 mm
# Sample.SDD_position: 205.000 mm
# Scan.experimenters: Bruce Ravel
# Scan.edge_energy: 6716.2
# Scan.start_time: 2023-05-08T17:04:37
# Scan.end_time: 2023-05-08T17:10:37
# Scan.transient_id: 75429
# Scan.uid: e05edf53-603b-4715-95c1-99ade5ac536b
# Scan.plot_hint: ln(I0/It)  --  ln($5/$6)
# Column.1: energy eV
# Column.2: requested_energy eV
# Column.3: measurement_time seconds
# Column.4: xmu
# Column.5: I0 nA
# Column.6: It nA
# Column.7: Ir nA
# ///////////
# sample courtesy Martin Stennett, University of Sheffield
# -----------
# energy  requested_energy  measurement_time  xmu  I0  It  Ir
  6516.201  6516.200  0.500  2.433968  151.045  13.2448  1.112405
  6526.240  6526.200  0.500  2.420872  151.254  13.4381  1.140938
  6536.214  6536.200  0.500  2.407377  151.423  13.6358  1.169639
  6546.228  6546.200  0.500  2.394105  151.582  13.8325  1.199243
  6556.216  6556.200  0.500  2.380868  151.721  14.0297  1.228071
  6566.216  6566.200  0.500  2.367991  151.869  14.2254  1.258553
  6576.216  6576.200  0.500  2.354843  152.06  14.4317  1.289467
  6586.214  6586.200  0.500  2.342230  151.907  14.6002  1.318076
  6596.215  6596.200  0.500  2.329198  152.341  14.8341  1.352836
  6606.991  6606.200  0.500  2.315953  152.354  15.0331  1.385693
  6616.181  6616.200  0.500  2.304082  152.671  15.2443  1.419009
  6626.180  6626.200  0.500  2.291130  152.795  15.4555  1.452862
  6636.183  6636.200  0.500  2.278839  152.936  15.6612  1.486467
  6646.192  6646.200  0.500  2.267129  153.056  15.858  1.518704
  6656.187  6656.200  0.500  2.255740  153.161  16.0507  1.551129
  6666.187  6666.200  0.500  2.244847  153.268  16.2378  1.581856
  6676.187  6676.200  0.500  2.235833  153.344  16.3929  1.608594
  6686.183  6686.200  0.500  2.230758  153.437  16.4863  1.624152
  6688.193  6688.200  0.500  2.230838  153.449  16.4863  1.624225
  6690.187  6690.200  0.500  2.231336  153.465  16.4799  1.622998
  6692.184  6692.200  0.500  2.232143  153.476  16.4677  1.620465
  6694.190  6694.200  0.500  2.234030  153.497  16.4389  1.615004
  6696.194  6696.200  0.500  2.237079  153.488  16.3879  1.606699
  6698.191  6698.200  0.500  2.241078  153.496  16.3234  1.595017
  6700.191  6700.200  0.500  2.247677  153.497  16.2161  1.577220
  6702.195  6702.200  0.500  2.256722  153.512  16.0716  1.551678
  6704.194  6704.200  0.500  2.270354  153.517  15.8545  1.514227
  6706.194  6706.200  0.500  2.292125  153.524  15.5138  1.457040
  6706.685  6706.700  0.500  2.299329  153.518  15.4019  1.438657
  6707.184  6707.200  0.500  2.308014  153.514  15.2683  1.417297
  6707.685  6707.700  0.500  2.317385  153.515  15.126  1.392658
  6708.186  6708.200  0.500  2.328894  153.512  14.9526  1.365336
  6708.685  6708.700  0.500  2.342922  153.522  14.7452  1.331941
  6709.188  6709.200  0.500  2.359332  153.522  14.5053  1.293345
  6709.688  6709.700  0.500  2.378120  153.527  14.2358  1.251603
  6710.183  6710.200  0.500  2.398856  153.518  13.9427  1.205896
  6710.688  6710.700  0.500  2.419801  153.505  13.6527  1.162202
  6711.188  6711.200  0.500  2.439884  153.516  13.3821  1.121852
  6711.690  6711.700  0.500  2.461419  153.514  13.0969  1.080313
  6712.189  6712.200  0.500  2.488395  153.52  12.7488  1.030420
  6712.689  6712.700  0.500  2.523156  153.515  12.3129  0.969257
  6713.191  6713.200  0.500  2.564827  153.517  11.8104  0.901292
  6713.689  6713.700  0.500  2.612846  153.519  11.2568  0.828541
  6714.189  6714.200  0.500  2.668751  153.523  10.6451  0.751885
  6714.695  6714.700  0.500  2.735167  153.524  9.961099  0.670116
  6715.193  6715.200  0.500  2.812424  153.525  9.220602  0.586561
  6715.691  6715.700  0.500  2.909305  153.523  8.369093  0.496849
  6716.190  6716.200  0.500  3.033839  153.516  7.388798  0.401692
  6716.688  6716.700  0.500  3.188815  153.525  6.328393  0.308350
  6717.191  6717.200  0.500  3.369540  153.518  5.281866  0.226599
  6717.693  6717.700  0.500  3.582513  153.511  4.268486  0.157837
  6718.194  6718.200  0.500  3.821332  153.519  3.361854  0.105303
  6718.692  6718.700  0.500  4.070929  153.515  2.619205  0.068860
  6719.191  6719.200  0.500  4.308508  153.513  2.065305  0.045819
  6719.690  6719.700  0.500  4.531767  153.505  1.651971  0.031401
  6720.189  6720.200  0.500  4.728909  153.512  1.356447  0.022348
  6720.694  6720.700  0.500  4.885449  153.509  1.159876  0.017240
  6721.193  6721.200  0.500  4.994126  153.508  1.040423  0.014185
  6721.691  6721.700  0.500  5.054673  153.511  0.979318  0.012811
  6722.192  6722.200  0.500  5.062487  153.514  0.971713  0.012578
  6722.699  6722.700  0.500  5.019446  153.514  1.014446  0.013492
  6723.199  6723.200  0.500  4.937757  153.515  1.100805  0.015251
  6723.696  6723.700  0.500  4.821107  153.522  1.237059  0.018521
  6724.198  6724.200  0.500  4.681200  153.524  1.422838  0.023447
  6724.694  6724.700  0.500  4.532599  153.525  1.650802  0.030044
  6725.196  6725.200  0.500  4.379515  153.53  1.923947  0.039088
  6725.701  6725.700  0.500  4.226183  153.532  2.242806  0.050890
  6726.203  6726.200  0.500  4.082220  153.543  2.590273  0.064760
  6726.699  6726.700  0.500  3.955188  153.532  2.940922  0.080441
  6727.194  6727.200  0.500  3.840979  153.535  3.296780  0.097751
  6727.698  6727.700  0.500  3.737572  153.532  3.655873  0.116802
  6728.200  6728.200  0.500  3.651387  153.529  3.984871  0.135260
  6728.704  6728.700  0.500  3.582769  153.53  4.267916  0.152197
  6729.203  6729.200  0.500  3.528662  153.519  4.504894  0.167130
  6729.701  6729.700  0.500  3.486655  153.515  4.698014  0.179530
  6730.196  6730.200  0.500  3.456181  153.51  4.843249  0.189361
  6730.699  6730.700  0.500  3.433754  153.507  4.953004  0.196656
  6731.200  6731.200  0.500  3.417770  153.509  5.032846  0.202177
  6731.702  6731.700  0.500  3.405419  153.496  5.094964  0.206546
  6732.205  6732.200  0.500  3.396165  153.487  5.142058  0.209679
  6732.697  6732.700  0.500  3.388737  153.484  5.180273  0.212278
  6733.201  6733.200  0.500  3.382291  153.487  5.213892  0.214710
  6733.703  6733.700  0.500  3.376707  153.482  5.242895  0.216592
  6734.202  6734.200  0.500  3.372639  153.496  5.264748  0.218399
  6734.703  6734.700  0.500  3.368720  153.495  5.285411  0.219849
  6735.205  6735.200  0.500  3.365577  153.492  5.301925  0.221372
  6735.704  6735.700  0.500  3.362977  153.487  5.315570  0.222442
  6736.202  6736.200  0.500  3.361495  153.481  5.323237  0.223299
  6736.696  6736.700  0.500  3.359761  153.486  5.332640  0.223929
  6737.198  6737.200  0.500  3.359170  153.485  5.335771  0.224520
  6737.699  6737.700  0.500  3.358779  153.468  5.337277  0.225036
  6738.203  6738.200  0.500  3.357870  154.064  5.362861  0.226343
  6738.701  6738.700  0.500  3.357292  154.06  5.365835  0.226886
  6739.205  6739.200  0.500  3.356169  154.062  5.371940  0.227300
  6739.701  6739.700  0.500  3.355352  154.052  5.375965  0.227345
  6740.198  6740.200  0.500  3.354260  154.052  5.381836  0.227713
  6740.698  6740.700  0.500  3.352832  154.059  5.389783  0.228016
  6741.199  6741.200  0.500  3.351064  154.056  5.399223  0.228402
  6742.198  6742.190  0.500  3.346843  154.063  5.422298  0.229017
  6743.195  6743.190  0.500  3.343644  154.059  5.439527  0.229176
  6744.218  6744.210  0.500  3.343514  154.058  5.440195  0.227843
  6745.266  6745.260  0.500  3.349450  154.051  5.407746  0.224305
  6746.328  6746.320  0.500  3.361963  154.05  5.340489  0.218687
  6747.411  6747.400  0.500  3.381437  154.05  5.237493  0.210896
  6748.514  6748.500  0.500  3.405493  154.044  5.112787  0.201880
  6749.623  6749.620  0.500  3.433206  154.045  4.973075  0.192272
  6750.769  6750.760  0.500  3.463415  154.048  4.825175  0.182437
  6751.923  6751.910  0.500  3.493726  154.054  4.681298  0.173228
  6753.101  6753.090  0.500  3.522971  154.057  4.546473  0.164930
  6754.287  6754.280  0.500  3.547975  154.051  4.434042  0.158463
  6755.515  6755.500  0.500  3.567735  154.058  4.347474  0.153562
  6756.736  6756.730  0.500  3.578222  154.056  4.302055  0.151134
  6757.989  6757.980  0.500  3.578706  154.054  4.299928  0.151402
  6759.259  6759.250  0.500  3.569485  154.058  4.339860  0.154293
  6760.549  6760.540  0.500  3.550834  154.048  4.421269  0.159420
  6761.856  6761.850  0.500  3.526445  154.053  4.530602  0.166309
  6763.186  6763.180  0.500  3.499259  154.041  4.655088  0.174386
  6764.541  6764.530  0.500  3.471746  154.05  4.785216  0.183132
  6765.907  6765.900  0.500  3.446910  154.049  4.905509  0.191251
  6767.285  6767.280  0.500  3.426207  154.052  5.008244  0.198724
  6768.704  6768.690  0.500  3.409793  154.045  5.090876  0.204678
  6770.112  6770.110  0.500  3.398470  154.046  5.148903  0.208921
  6771.563  6771.550  0.500  3.390130  154.051  5.192191  0.212068
  6773.017  6773.010  0.500  3.385177  154.048  5.217866  0.214038
  6774.495  6774.490  0.500  3.382492  154.059  5.232251  0.215109
  6776.003  6775.990  0.500  3.381602  154.063  5.237061  0.215750
  6777.519  6777.510  0.500  3.381969  154.072  5.235451  0.215772
  6779.062  6779.050  0.500  3.382269  154.081  5.234177  0.215618
  6780.619  6780.610  0.500  3.381581  154.087  5.237993  0.215766
  6782.193  6782.180  0.500  3.380323  154.086  5.244534  0.215808
  6783.788  6783.780  0.500  3.379246  154.091  5.250375  0.216007
  6785.401  6785.390  0.500  3.378293  154.113  5.256123  0.215817
  6787.040  6787.030  0.500  3.377604  154.131  5.260368  0.215637
  6788.686  6788.680  0.500  3.377135  154.142  5.263212  0.215717
  6790.361  6790.350  0.500  3.376895  154.167  5.265317  0.215229
  6792.052  6792.040  0.500  3.377441  154.186  5.263088  0.214495
  6793.754  6793.750  0.500  3.379598  152.746  5.202693  0.211366
  6795.491  6795.480  0.500  3.382553  147.644  5.014101  0.202237
  6797.239  6797.230  0.500  3.386395  153.273  5.185297  0.208858
  6798.999  6798.990  0.500  3.389137  153.646  5.183665  0.208298
  6800.791  6800.780  0.500  3.389969  153.767  5.183434  0.208156
  6802.593  6802.580  0.500  3.389101  153.828  5.190005  0.208632
  6804.422  6804.410  0.500  3.388352  153.853  5.194734  0.209216
  6806.265  6806.250  0.500  3.388779  153.868  5.193012  0.209292
  6808.124  6808.110  0.500  3.390176  153.827  5.184384  0.208910
  6810.007  6809.990  0.500  3.391987  153.05  5.148858  0.207918
  6811.902  6811.890  0.500  3.393104  145.748  4.897736  0.197344
  6813.833  6813.810  0.500  3.393653  153.413  5.152484  0.208516
  6815.745  6815.750  0.500  3.392847  153.673  5.165374  0.209566
  6817.710  6817.710  0.500  3.391500  153.739  5.174557  0.210423
  6819.685  6819.680  0.500  3.389407  153.748  5.185716  0.211616
  6821.682  6821.680  0.500  3.386036  153.364  5.190229  0.212588
  6823.701  6823.690  0.500  3.381314  143.23  4.870202  0.199996
  6825.732  6825.720  0.500  3.377032  153.208  5.231855  0.215566
  6827.789  6827.780  0.500  3.371553  153.515  5.271135  0.217971
  6829.859  6829.850  0.500  3.365289  153.593  5.306954  0.220093
  6831.947  6831.940  0.500  3.358401  153.62  5.344558  0.222788
  6834.063  6834.050  0.500  3.350280  153.632  5.388574  0.225824
  6836.187  6836.180  0.500  3.340989  153.632  5.438877  0.229030
  6838.330  6838.320  0.500  3.331637  153.317  5.478736  0.232092
  6840.498  6840.490  0.500  3.323822  142.431  5.129650  0.218885
  6842.685  6842.680  0.500  3.317439  152.568  5.529913  0.236840
  6844.890  6844.880  0.500  3.314218  153.076  5.566205  0.238746
  6847.114  6847.100  0.500  3.313813  153.201  5.573034  0.239273
  6849.357  6849.350  0.500  3.314569  153.247  5.570500  0.239282
  6851.621  6851.610  0.500  3.317112  153.272  5.557252  0.238174
  6853.898  6853.890  0.500  3.319612  153.293  5.544130  0.237287
  6856.199  6856.190  0.500  3.320180  153.31  5.541598  0.236671
  6858.522  6858.510  0.500  3.322414  153.308  5.529146  0.235924
  6860.861  6860.850  0.500  3.324839  153.028  5.505697  0.234378
  6863.213  6863.200  0.500  3.325366  153.299  5.512513  0.234485
  6865.589  6865.580  0.500  3.325262  153.348  5.514856  0.234240
  6867.982  6867.970  0.500  3.324541  153.356  5.519150  0.234458
  6870.399  6870.390  0.500  3.320931  153.364  5.539380  0.235707
  6872.826  6872.820  0.500  3.314814  153.38  5.573954  0.238047
  6875.283  6875.270  0.500  3.307762  153.401  5.614167  0.240651
  6877.762  6877.750  0.500  3.300902  153.41  5.653146  0.243888
  6880.254  6880.240  0.500  3.294489  153.404  5.689303  0.246742
  6882.762  6882.750  0.500  3.289483  153.39  5.717328  0.249295
  6885.278  6885.270  0.500  3.285992  153.385  5.737133  0.251308
  6887.833  6887.820  0.500  3.283238  153.388  5.753079  0.252951
  6890.403  6890.390  0.500  3.281519  153.386  5.762875  0.253665
  6892.983  6892.970  0.500  3.281144  153.376  5.764680  0.254232
  6895.594  6895.580  0.500  3.280622  153.374  5.767615  0.254626
  6898.208  6898.200  0.500  3.280131  153.362  5.769989  0.254661
  6900.861  6900.850  0.500  3.279058  153.335  5.775182  0.255122
  6903.520  6903.510  0.500  3.277605  153.325  5.783185  0.255951
  6906.204  6906.190  0.500  3.275524  153.3  5.794272  0.256637
  6908.903  6908.890  0.500  3.272404  153.264  5.811044  0.257771
  6911.624  6911.610  0.500  3.268151  153.191  5.833005  0.259738
  6914.358  6914.350  0.500  3.262848  153.14  5.862070  0.261636
  6917.109  6917.100  0.500  3.256412  153.092  5.898078  0.264147
  6919.888  6919.880  0.500  3.249827  153.015  5.934076  0.267182
  6922.682  6922.670  0.500  3.243235  152.973  5.971670  0.270144
  6925.503  6925.490  0.500  3.237520  152.941  6.004631  0.272635
  6928.332  6928.320  0.500  3.231963  152.911  6.036903  0.275206
  6931.182  6931.170  0.500  3.226727  152.87  6.066983  0.277746
  6934.061  6934.050  0.500  3.222117  152.834  6.093588  0.279545
  6936.948  6936.940  0.500  3.218964  152.827  6.112540  0.281394
  6939.861  6939.850  0.500  3.216655  152.804  6.125768  0.282695
  6942.779  6942.770  0.500  3.214756  152.784  6.136605  0.283621
  6945.728  6945.720  0.500  3.212899  152.749  6.146581  0.284308
  6948.697  6948.690  0.500  3.211278  152.71  6.154992  0.285264
  6951.683  6951.670  0.500  3.209608  152.682  6.164160  0.285965
  6954.690  6954.680  0.500  3.207191  152.663  6.178281  0.286896
  6957.710  6957.700  0.500  3.204381  152.619  6.193906  0.288230
  6960.751  6960.750  0.500  3.200741  152.604  6.215862  0.290218
  6963.816  6963.810  0.500  3.196712  152.58  6.239984  0.292006
  6966.897  6966.890  0.500  3.192423  152.56  6.265993  0.293862
  6969.996  6969.990  0.500  3.188765  152.53  6.287698  0.296148
  6973.121  6973.110  0.500  3.184514  152.5  6.313249  0.298425
  6976.258  6976.250  0.500  3.179563  152.47  6.343333  0.301050
  6979.403  6979.400  0.500  3.174432  152.422  6.373967  0.303680
  6982.584  6982.580  0.500  3.169335  152.387  6.405056  0.306420
  6985.774  6985.770  0.500  3.164438  152.339  6.434484  0.308906
  6988.994  6988.990  0.500  3.160570  152.3  6.457752  0.310992
  6992.223  6992.220  0.500  3.158026  152.259  6.472467  0.312250
  6995.474  6995.470  0.500  3.155713  152.205  6.485167  0.313613
  6998.757  6998.750  0.500  3.153714  152.157  6.496075  0.314418
  7002.048  7002.040  0.500  3.151125  152.115  6.511104  0.315875
  7005.360  7005.350  0.500  3.147363  152.077  6.534033  0.317752
  7008.682  7008.670  0.500  3.142861  152.012  6.560714  0.320037
  7012.031  7012.020  0.500  3.137747  151.958  6.592010  0.322756
  7015.395  7015.390  0.500  3.132389  151.914  6.625500  0.325503
  7018.779  7018.770  0.500  3.127302  151.874  6.657554  0.328274
  7022.187  7022.180  0.500  3.122460  151.835  6.688123  0.330931
  7025.603  7025.600  0.500  3.117987  151.786  6.715955  0.333486
  7029.058  7029.050  0.500  3.113496  151.739  6.744104  0.336276
  7032.525  7032.510  0.500  3.108446  151.677  6.775437  0.339278
  7036.019  7035.990  0.500  3.103270  151.611  6.807662  0.342111
  7039.501  7039.490  0.500  3.097535  151.573  6.845108  0.345468
  7043.021  7043.010  0.500  3.091962  151.505  6.880259  0.348483
  7046.566  7046.550  0.500  3.086882  151.433  6.912009  0.351646
  7050.105  7050.100  0.500  3.082464  151.366  6.939527  0.354409
  7053.693  7053.680  0.500  3.078239  151.312  6.966450  0.356438
  7057.287  7057.280  0.500  3.074402  151.241  6.989961  0.358699
  7060.893  7060.890  0.500  3.070538  151.213  7.015693  0.360862
  7064.534  7064.520  0.500  3.067090  151.034  7.031582  0.363163
  7068.196  7068.180  0.500  3.063899  151.029  7.053861  0.365198
  7071.865  7071.850  0.500  3.060672  150.901  7.070660  0.366904
  7075.558  7075.540  0.500  3.056676  149.524  7.034182  0.366214
  7079.269  7079.250  0.500  3.052124  150.768  7.125048  0.372188
  7082.998  7082.980  0.500  3.047565  149.417  7.093464  0.371881
  7086.766  7086.720  0.500  3.042889  150.587  7.182539  0.377950
  7090.501  7090.490  0.500  3.038612  150.525  7.210361  0.380932
  7094.324  7094.280  0.500  3.033565  150.429  7.242206  0.383996
  7098.097  7098.080  0.500  3.028136  150.376  7.279062  0.387412
  7101.950  7101.910  0.500  3.022572  150.295  7.315748  0.391078
  7105.775  7105.750  0.500  3.016761  150.204  7.353935  0.394803
  7109.621  7109.610  0.500  3.011217  150.1  7.389658  0.398400
  7113.517  7113.490  0.500  3.005883  149.788  7.413743  0.401182
  7117.406  7117.390  0.500  3.001080  149.651  7.442662  0.404490
  7121.309  7121.310  0.500  2.996490  149.424  7.465534  0.406912
  7125.289  7125.250  0.500  2.991960  149.209  7.488659  0.409991
  7129.226  7129.210  0.500  2.987329  148.925  7.509100  0.412456
  7133.220  7133.180  0.500  2.982423  148.654  7.532294  0.414945
  7137.192  7137.180  0.500  2.977697  148.577  7.564065  0.418506
  7141.176  7141.190  0.500  2.972904  148.536  7.598293  0.422108
  7145.266  7145.230  0.500  2.968394  148.47  7.629233  0.425185
  7149.267  7149.280  0.500  2.963194  148.393  7.665029  0.428970
  7153.391  7153.350  0.500  2.957882  148.302  7.701132  0.432549
  7157.478  7157.440  0.500  2.952808  148.212  7.735599  0.436190
  7161.572  7161.550  0.500  2.947668  148.083  7.768701  0.440002
  7165.660  7165.680  0.500  2.942397  148.421  7.827579  0.445013
  7169.849  7169.830  0.500  2.936895  148.259  7.862188  0.448877
  7173.971  7173.990  0.500  2.931082  148.125  7.900885  0.452678
  7178.159  7178.180  0.500  2.925347  148.006  7.939948  0.457178
  7182.386  7182.380  0.500  2.919723  147.874  7.977620  0.461200
  7186.593  7186.610  0.500  2.913978  147.729  8.015693  0.465430
  7190.833  7190.850  0.500  2.908433  147.515  8.048615  0.469412
  7195.088  7195.110  0.500  2.902795  147.361  8.085638  0.473457
  7199.366  7199.390  0.500  2.897286  147.239  8.123567  0.477800
  7203.682  7203.690  0.500  2.891954  147.077  8.158022  0.482146
  7207.990  7208.010  0.500  2.886970  146.905  8.189176  0.485628
  7212.335  7212.350  0.500  2.881807  146.731  8.221817  0.489455
  7216.687  7216.710  0.500  2.876859  146.554  8.252634  0.493266
  7221.073  7221.090  0.500  2.871721  146.378  8.285198  0.497261
  7225.474  7225.480  0.500  2.866667  146.144  8.313889  0.501021
  7229.884  7229.900  0.500  2.861753  146.198  8.357934  0.505240
  7234.321  7234.330  0.500  2.856777  146.008  8.388675  0.509183
  7238.763  7238.780  0.500  2.851354  145.856  8.425516  0.513705
  7243.231  7243.250  0.500  2.845490  145.69  8.465456  0.518225
  7247.722  7247.740  0.500  2.839148  145.444  8.504916  0.523123
  7252.250  7252.250  0.500  2.832787  145.247  8.547574  0.528276
  7256.787  7256.780  0.500  2.826302  145.297  8.606167  0.534160
  7261.327  7261.330  0.500  2.820381  144.662  8.619424  0.537889
  7265.882  7265.900  0.500  2.814125  144.197  8.645616  0.541965
  7270.459  7270.480  0.500  2.808208  145.262  8.761193  0.552181
  7275.071  7275.090  0.500  2.802507  145.011  8.796030  0.556442
  7279.730  7279.710  0.500  2.797239  145.081  8.846751  0.562341
  7284.343  7284.360  0.500  2.792568  142.369  8.722060  0.556759
  7289.009  7289.020  0.500  2.787905  144.674  8.904697  0.570232