File: xdidata/Data/Sr/Sr-K-StrontiumTitanate.xdi
# XDI/1.0 BlueSky/1.10.0 BMM/2023-1.0-py310-tiled
# Beamline.name: BMM (06BM) -- Beamline for Materials Measurement (NIST)
# Beamline.xray_source: NSLS-II three-pole wiggler
# Beamline.collimation: paraboloid mirror, 5 nm Rh on 30 nm Pt
# Beamline.focusing: not in use
# Beamline.harmonic_rejection: flat mirror, Pt stripe, pitch = 7.0 mrad relative to beam
# Beamline.software: Bluesky 1.10.0, Ophyd 1.7.0, DataBroker 2.0.0b13, Python 3.10.8, 2023-1.0-py310-tiled
# Detector.I0: 10 cm N2
# Detector.I1: 25 cm N2
# Detector.I2: 25 cm N2
# Element.symbol: Sr
# Element.edge: K
# Element.reference: Sr
# Element.reference_material: SrTiO3
# Facility.name: NSLS-II
# Facility.energy: 3.0
# Facility.current: 400.7
# Facility.mode: top-off
# Facility.GUP: 301027
# Facility.SAF: 310583
# Facility.cycle: 2023-2
# Mono.name: Si(111)
# Mono.d_spacing: 3.13519
# Mono.encoder_resolution: 0.0000050 deg/ct
# Mono.angle_offset: 16.0754 deg
# Mono.scan_mode: pseudo channel cut
# Mono.scan_type: step
# Mono.direction: forward in energy
# Sample.name: SrTiO3
# Sample.prep: PEG pellet
# Sample.x: 109.138 mm
# Sample.y: 153.150 mm
# Sample.SDD_position: 205.000 mm
# Scan.experimenters: Bruce Ravel
# Scan.edge_energy: 16104.6
# Scan.start_time: 2023-05-28T21:46:57
# Scan.end_time: 2023-05-28T21:54:39
# Scan.transient_id: 79043
# Scan.uid: 1726707c-3c5f-4bdf-900f-8e550f634988
# Scan.plot_hint: ln(It/Ir)  --  ln($6/$7)
# Column.1: energy eV
# Column.2: requested_energy eV
# Column.3: measurement_time seconds
# Column.4: xmu
# Column.5: I0 nA
# Column.6: It nA
# Column.7: Ir nA
# ///////////
# sample courtesy Martin Stennett, University of Sheffield
# -----------
# energy  requested_energy  measurement_time  xmu  I0  It  Ir
  15904.582  15904.600  0.500  0.218742  22.5446  41.4003  33.2664
  15914.602  15914.600  0.500  0.218495  22.4434  41.2247  33.1334
  15924.635  15924.600  0.500  0.218156  22.4606  41.2588  33.1721
  15934.625  15934.600  0.500  0.217713  22.4147  41.1769  33.1209
  15944.662  15944.600  0.500  0.217353  22.3512  41.0656  33.0433
  15954.644  15954.600  0.500  0.217019  22.3141  41.0047  33.0053
  15964.649  15964.600  0.500  0.216855  22.2547  40.8985  32.9252
  15974.690  15974.600  0.500  0.216482  22.2086  40.8207  32.8748
  15984.632  15984.600  0.500  0.215996  22.0359  40.5082  32.639
  15994.665  15994.600  0.500  0.215718  22.099  40.6259  32.743
  16004.631  16004.600  0.500  0.215394  22.044  40.5312  32.6772
  16014.667  16014.600  0.500  0.215216  21.9933  40.4409  32.6102
  16024.648  16024.600  0.500  0.214921  21.7599  40.0118  32.2737
  16035.834  16034.600  0.500  0.214738  21.8775  40.2429  32.4661
  16044.714  16044.600  0.500  0.214475  21.8235  40.1392  32.391
  16054.575  16054.600  0.500  0.214302  21.7735  40.0521  32.3262
  16064.526  16064.600  0.500  0.214259  21.7184  39.9554  32.2496
  16074.547  16074.600  0.500  0.214390  21.6556  39.8432  32.1548
  16076.494  16076.600  0.500  0.214579  21.5997  39.7439  32.0686
  16078.509  16078.600  0.500  0.214673  21.6081  39.7595  32.0782
  16080.491  16080.600  0.500  0.214741  21.633  39.8049  32.1126
  16082.496  16082.600  0.500  0.214861  21.6248  39.7926  32.0988
  16084.501  16084.600  0.500  0.214987  21.6162  39.7757  32.0812
  16086.496  16086.600  0.500  0.215214  21.6001  39.748  32.0516
  16088.525  16088.600  0.500  0.215550  21.5894  39.7287  32.0252
  16090.498  16090.600  0.500  0.215887  21.58  39.7161  32.0043
  16092.517  16092.600  0.500  0.216204  21.5743  39.7005  31.9816
  16094.536  16094.600  0.500  0.216932  21.5585  39.6766  31.9391
  16094.797  16094.900  0.500  0.216931  21.5578  39.6733  31.9364
  16095.103  16095.200  0.500  0.217097  21.5572  39.6729  31.9308
  16095.398  16095.500  0.500  0.217165  21.5572  39.6735  31.9291
  16095.693  16095.800  0.500  0.217207  21.5524  39.6634  31.9196
  16096.034  16096.100  0.500  0.217368  21.5579  39.6723  31.9216
  16096.306  16096.400  0.500  0.217487  21.546  39.6512  31.9009
  16096.601  16096.700  0.500  0.217605  21.5483  39.6537  31.8992
  16096.907  16097.000  0.500  0.217747  21.5388  39.6432  31.8862
  16097.236  16097.300  0.500  0.217832  21.5391  39.6431  31.8834
  16097.520  16097.600  0.500  0.217977  21.5408  39.6403  31.8765
  16097.872  16097.900  0.500  0.218140  21.5365  39.6317  31.8644
  16098.167  16098.200  0.500  0.218219  21.535  39.627  31.8581
  16098.451  16098.500  0.500  0.218476  21.5277  39.618  31.8427
  16098.746  16098.800  0.500  0.218705  21.5273  39.6189  31.8361
  16099.030  16099.100  0.500  0.218746  21.5213  39.6097  31.8274
  16099.314  16099.400  0.500  0.218963  21.5187  39.6034  31.8154
  16099.643  16099.700  0.500  0.219210  21.512  39.589  31.7961
  16099.927  16100.000  0.500  0.219335  21.5114  39.5856  31.7893
  16100.256  16100.300  0.500  0.219548  21.5022  39.573  31.7724
  16100.540  16100.600  0.500  0.219976  21.4975  39.5697  31.7562
  16100.824  16100.900  0.500  0.220051  21.5005  39.5675  31.7521
  16101.119  16101.200  0.500  0.220422  21.4941  39.5582  31.7328
  16101.448  16101.500  0.500  0.220600  21.4934  39.5574  31.7265
  16101.766  16101.800  0.500  0.220978  21.4952  39.5596  31.7163
  16102.073  16102.100  0.500  0.221448  21.4969  39.5662  31.7067
  16102.357  16102.400  0.500  0.221692  21.5  39.5711  31.7029
  16102.663  16102.700  0.500  0.221936  21.4993  39.5662  31.6912
  16102.936  16103.000  0.500  0.222447  21.4995  39.5709  31.6788
  16103.254  16103.300  0.500  0.222794  21.4961  39.5646  31.6628
  16103.561  16103.600  0.500  0.223252  21.4996  39.5708  31.6532
  16103.867  16103.900  0.500  0.223771  21.5033  39.5788  31.6432
  16104.174  16104.200  0.500  0.224144  21.4955  39.5595  31.6159
  16104.447  16104.500  0.500  0.224802  21.4941  39.5601  31.5957
  16104.753  16104.800  0.500  0.225499  21.4946  39.5643  31.5769
  16105.060  16105.100  0.500  0.226209  21.4911  39.5546  31.5468
  16105.378  16105.400  0.500  0.227065  21.489  39.5516  31.5174
  16105.696  16105.700  0.500  0.227918  21.4888  39.5502  31.4894
  16105.992  16106.000  0.500  0.229098  21.4857  39.5463  31.4492
  16106.287  16106.300  0.500  0.230239  21.4873  39.5533  31.4189
  16106.571  16106.600  0.500  0.231355  21.4814  39.5401  31.3734
  16106.867  16106.900  0.500  0.232563  21.4842  39.5433  31.3381
  16107.162  16107.200  0.500  0.234356  21.4734  39.5221  31.2651
  16107.480  16107.500  0.500  0.236082  21.4758  39.5234  31.2123
  16107.798  16107.800  0.500  0.238246  21.4747  39.5308  31.1507
  16108.105  16108.100  0.500  0.240385  21.4808  39.5358  31.088
  16108.378  16108.400  0.500  0.242571  21.4757  39.5261  31.0125
  16108.674  16108.700  0.500  0.245130  21.4699  39.5223  30.9302
  16108.980  16109.000  0.500  0.248037  21.4718  39.5228  30.8409
  16109.299  16109.300  0.500  0.251129  21.4714  39.5204  30.7438
  16109.594  16109.600  0.500  0.254315  21.4682  39.5095  30.6375
  16109.935  16109.900  0.500  0.258100  21.4667  39.5121  30.5238
  16110.208  16110.200  0.500  0.261952  21.4628  39.5089  30.404
  16110.492  16110.500  0.500  0.265974  21.4652  39.5117  30.2841
  16110.788  16110.800  0.500  0.270235  21.4628  39.5067  30.1515
  16111.106  16111.100  0.500  0.275622  21.462  39.5075  29.9902
  16111.390  16111.400  0.500  0.281072  21.4582  39.4989  29.8207
  16111.709  16111.700  0.500  0.287322  21.4528  39.4916  29.6293
  16112.004  16112.000  0.500  0.294279  21.45  39.4863  29.42
  16112.300  16112.300  0.500  0.301232  21.4464  39.4834  29.214
  16112.573  16112.600  0.500  0.308621  21.4483  39.4882  29.0024
  16112.903  16112.900  0.500  0.317153  21.4509  39.4825  28.7519
  16113.210  16113.200  0.500  0.325833  21.4446  39.4759  28.4987
  16113.517  16113.500  0.500  0.334998  21.4424  39.4704  28.2347
  16113.824  16113.800  0.500  0.343779  21.4456  39.4784  27.9936
  16114.120  16114.100  0.500  0.352457  21.4404  39.4728  27.7477
  16114.404  16114.400  0.500  0.360737  21.4394  39.4665  27.5146
  16114.700  16114.700  0.500  0.368865  21.4338  39.4548  27.2837
  16114.984  16115.000  0.500  0.377510  21.43  39.4498  27.0455
  16115.314  16115.300  0.500  0.386646  21.4256  39.449  26.7989
  16115.598  16115.600  0.500  0.394585  21.4267  39.4456  26.5847
  16115.917  16115.900  0.500  0.403991  21.4244  39.444  26.3348
  16116.213  16116.200  0.500  0.412755  21.4195  39.4324  26.0973
  16116.508  16116.500  0.500  0.422073  21.4218  39.4344  25.8566
  16116.793  16116.800  0.500  0.431238  21.4264  39.444  25.6269
  16117.100  16117.100  0.500  0.441249  21.4165  39.4282  25.3615
  16117.430  16117.400  0.500  0.451457  21.4147  39.4266  25.1029
  16117.714  16117.700  0.500  0.460981  21.4154  39.4253  24.8641
  16118.010  16118.000  0.500  0.469358  21.4135  39.4269  24.6577
  16118.295  16118.300  0.500  0.476507  21.4086  39.4176  24.4763
  16118.591  16118.600  0.500  0.482359  21.4097  39.4236  24.3372
  16118.887  16118.900  0.500  0.486868  21.4032  39.4076  24.2179
  16119.194  16119.200  0.500  0.489294  21.4033  39.4051  24.1577
  16119.535  16119.500  0.500  0.489852  21.4004  39.4033  24.1431
  16119.808  16119.800  0.500  0.488705  21.4054  39.4107  24.1753
  16120.104  16120.100  0.500  0.485901  21.3959  39.3913  24.2313
  16120.377  16120.400  0.500  0.481680  21.4585  39.5067  24.405
  16120.685  16120.700  0.500  0.476078  21.4568  39.5018  24.5391
  16121.004  16121.000  0.500  0.469554  21.4495  39.4974  24.697
  16121.288  16121.300  0.500  0.462098  21.4584  39.4998  24.8833
  16121.607  16121.600  0.500  0.453684  21.4433  39.4737  25.077
  16121.903  16121.900  0.500  0.445840  21.4341  39.4626  25.2674
  16122.199  16122.200  0.500  0.437953  21.4242  39.445  25.456
  16122.472  16122.500  0.500  0.430127  21.414  39.4302  25.6465
  16122.768  16122.800  0.500  0.422536  21.4064  39.4157  25.8324
  16123.076  16123.100  0.500  0.414386  21.3958  39.3979  26.032
  16123.383  16123.400  0.500  0.406674  21.3922  39.3823  26.2232
  16123.713  16123.700  0.500  0.399014  21.3867  39.3746  26.4196
  16123.987  16124.000  0.500  0.392863  21.3896  39.3799  26.5862
  16124.271  16124.300  0.500  0.386953  21.3854  39.3702  26.7372
  16124.567  16124.600  0.500  0.381353  21.395  39.3899  26.9008
  16124.886  16124.900  0.500  0.376083  21.4027  39.4033  27.0522
  16125.182  16125.200  0.500  0.371678  21.4124  39.4175  27.1814
  16125.501  16125.500  0.500  0.367659  21.4158  39.4236  27.2951
  16125.797  16125.800  0.500  0.364373  21.4193  39.4331  27.3915
  16126.093  16126.100  0.500  0.361639  21.4202  39.437  27.4692
  16126.378  16126.400  0.500  0.359400  21.4221  39.4388  27.532
  16126.663  16126.700  0.500  0.357450  21.4216  39.4389  27.5859
  16126.959  16127.000  0.500  0.355922  21.4265  39.4469  27.6336
  16127.278  16127.300  0.500  0.354734  21.424  39.4505  27.669
  16127.597  16127.600  0.500  0.353825  21.4264  39.4421  27.6883
  16127.893  16127.900  0.500  0.353460  21.4236  39.4413  27.6978
  16128.201  16128.200  0.500  0.353259  21.421  39.4369  27.7003
  16128.474  16128.500  0.500  0.353467  21.4224  39.4377  27.6951
  16128.782  16128.800  0.500  0.354126  21.4159  39.4303  27.6717
  16129.101  16129.100  0.500  0.355089  21.4116  39.4237  27.6404
  16129.420  16129.400  0.500  0.356191  21.4098  39.4217  27.6085
  16129.614  16129.600  0.500  0.356905  21.4092  39.4191  27.587
  16130.583  16130.590  0.500  0.361201  21.4011  39.3996  27.4552
  16131.631  16131.590  0.500  0.365210  21.3923  39.3833  27.334
  16132.623  16132.610  0.500  0.366966  21.389  39.3793  27.2833
  16133.717  16133.660  0.500  0.366449  21.3845  39.377  27.2958
  16134.732  16134.720  0.500  0.364727  21.3866  39.3821  27.3464
  16135.827  16135.800  0.500  0.362774  21.3719  39.3571  27.3825
  16136.945  16136.900  0.500  0.361665  21.3716  39.3496  27.4076
  16138.051  16138.020  0.500  0.361215  21.3655  39.3439  27.416
  16139.169  16139.160  0.500  0.361562  21.3591  39.3305  27.3972
  16140.321  16140.310  0.500  0.363178  21.3496  39.3124  27.3403
  16141.508  16141.490  0.500  0.366718  21.3407  39.3029  27.2371
  16142.695  16142.680  0.500  0.371115  21.3355  39.2924  27.1103
  16143.882  16143.900  0.500  0.375667  21.3136  39.2502  26.9582
  16145.127  16145.130  0.500  0.380232  21.289  39.2057  26.8051
  16146.383  16146.380  0.500  0.385108  21.2891  39.2044  26.6738
  16147.662  16147.650  0.500  0.390671  21.2998  39.2297  26.5429
  16148.941  16148.940  0.500  0.395919  21.3059  39.2363  26.4084
  16150.266  16150.250  0.500  0.399579  21.3072  39.2365  26.3121
  16151.592  16151.580  0.500  0.399888  21.2992  39.2217  26.294
  16152.952  16152.930  0.500  0.396196  21.291  39.2126  26.3852
  16154.323  16154.300  0.500  0.389396  21.2857  39.1947  26.553
  16155.684  16155.680  0.500  0.382389  21.2864  39.2011  26.7442
  16157.101  16157.090  0.500  0.376881  21.2719  39.1776  26.8757
  16158.508  16158.510  0.500  0.374585  21.2672  39.1627  26.9273
  16159.972  16159.950  0.500  0.375609  21.2599  39.1499  26.8909
  16161.425  16161.410  0.500  0.379375  21.2513  39.1372  26.7812
  16162.924  16162.890  0.500  0.385031  21.2446  39.1277  26.6237
  16164.434  16164.390  0.500  0.389649  21.2393  39.1177  26.4942
  16165.945  16165.910  0.500  0.391002  21.2276  39.1024  26.448
  16167.468  16167.450  0.500  0.388286  21.2299  39.1044  26.5213
  16169.014  16169.010  0.500  0.382793  21.2177  39.0748  26.6473
  16170.594  16170.580  0.500  0.376247  21.2077  39.0639  26.8148
  16172.209  16172.180  0.500  0.370395  21.1863  39.025  26.9453
  16173.779  16173.790  0.500  0.366360  21.1428  38.9437  26.9978
  16175.429  16175.430  0.500  0.363750  21.1445  38.9495  27.0725
  16177.057  16177.080  0.500  0.362391  21.1707  39.0012  27.1452
  16178.742  16178.750  0.500  0.361288  21.1665  38.9884  27.1663
  16180.428  16180.440  0.500  0.360101  21.1636  38.9836  27.1952
  16182.171  16182.150  0.500  0.359530  21.1561  38.9729  27.2032
  16183.915  16183.880  0.500  0.360102  21.1439  38.9476  27.1701
  16185.670  16185.630  0.500  0.362718  21.141  38.9448  27.0971
  16187.403  16187.390  0.500  0.366686  21.1245  38.9147  26.969
  16189.206  16189.180  0.500  0.371256  21.1128  38.9035  26.8383
  16190.997  16190.980  0.500  0.375050  21.1106  38.892  26.7287
  16192.823  16192.810  0.500  0.377694  21.0999  38.8713  26.6439
  16194.661  16194.650  0.500  0.379522  21.0884  38.8532  26.5829
  16196.511  16196.510  0.500  0.380286  21.0767  38.8358  26.5507
  16198.407  16198.390  0.500  0.380695  21.0605  38.8057  26.5193
  16200.303  16200.290  0.500  0.380989  21.0445  38.7741  26.4899
  16202.212  16202.210  0.500  0.382095  21.044  38.7754  26.4615
  16204.179  16204.150  0.500  0.382640  21.0401  38.7625  26.4383
  16206.134  16206.110  0.500  0.381629  21.0265  38.7453  26.4533
  16208.102  16208.080  0.500  0.378666  21.0217  38.7355  26.5251
  16210.058  16210.080  0.500  0.375155  21.0119  38.7211  26.6085
  16212.096  16212.090  0.500  0.372195  20.9998  38.6991  26.6722
  16214.145  16214.120  0.500  0.369864  20.9906  38.6813  26.7221
  16216.184  16216.180  0.500  0.368238  20.9817  38.6672  26.7559
  16218.258  16218.250  0.500  0.366600  20.9636  38.6299  26.7739
  16220.378  16220.340  0.500  0.365300  20.9567  38.6241  26.8047
  16222.464  16222.450  0.500  0.364278  20.9428  38.5968  26.8132
  16224.586  16224.580  0.500  0.363169  20.9282  38.5729  26.8263
  16226.719  16226.720  0.500  0.362193  20.9173  38.5506  26.8369
  16228.888  16228.890  0.500  0.361403  20.9032  38.5248  26.8402
  16231.069  16231.080  0.500  0.361645  20.8875  38.4983  26.8152
  16233.308  16233.280  0.500  0.362434  20.8764  38.481  26.782
  16235.513  16235.500  0.500  0.363563  20.8292  38.3934  26.6909
  16237.777  16237.750  0.500  0.364364  20.8237  38.385  26.6637
  16240.064  16240.010  0.500  0.365371  20.8499  38.4345  26.6712
  16242.306  16242.290  0.500  0.366609  20.838  38.4073  26.6193
  16244.594  16244.590  0.500  0.368540  20.8214  38.3834  26.5514
  16246.907  16246.910  0.500  0.370225  20.8138  38.3704  26.4978
  16249.243  16249.250  0.500  0.371206  20.804  38.3436  26.4533
  16251.602  16251.600  0.500  0.372066  20.7899  38.324  26.4171
  16254.009  16253.980  0.500  0.372362  20.7552  38.2637  26.3677
  16256.394  16256.370  0.500  0.371707  20.74  38.2376  26.367
  16258.814  16258.790  0.500  0.370395  20.7543  38.2634  26.4194
  16261.223  16261.220  0.500  0.368429  20.7453  38.2507  26.4626
  16263.679  16263.670  0.500  0.366168  20.7365  38.2269  26.506
  16266.113  16266.150  0.500  0.364272  20.7207  38.2014  26.5386
  16268.663  16268.640  0.500  0.362942  20.7129  38.1908  26.5666
  16271.168  16271.150  0.500  0.362369  20.6988  38.1681  26.566
  16273.696  16273.670  0.500  0.362367  20.6813  38.1412  26.5473
  16276.249  16276.220  0.500  0.362320  20.6624  38.1027  26.5217
  16278.803  16278.790  0.500  0.362574  20.6533  38.0848  26.5026
  16281.380  16281.370  0.500  0.363220  20.648  38.0754  26.4789
  16283.947  16283.980  0.500  0.363912  20.6277  38.0358  26.433
  16286.619  16286.600  0.500  0.364696  20.6188  38.0252  26.405
  16289.269  16289.250  0.500  0.364875  20.6005  37.9936  26.3784
  16291.931  16291.910  0.500  0.364472  20.5844  37.9654  26.3693
  16294.630  16294.590  0.500  0.363445  20.5734  37.9471  26.3838
  16297.317  16297.290  0.500  0.362701  20.5631  37.9236  26.387
  16300.005  16300.010  0.500  0.362403  20.5487  37.8982  26.3772
  16302.753  16302.750  0.500  0.362940  20.5299  37.8652  26.3401
  16305.547  16305.500  0.500  0.363467  20.4656  37.7474  26.2443
  16308.332  16308.280  0.500  0.364031  20.4862  37.795  26.2626
  16311.082  16311.070  0.500  0.363887  20.4924  37.8006  26.2703
  16313.926  16313.890  0.500  0.363682  20.4829  37.7818  26.2626
  16316.748  16316.720  0.500  0.363705  20.4654  37.7501  26.2399
  16319.560  16319.570  0.500  0.363951  20.4537  37.7287  26.2186
  16322.442  16322.450  0.500  0.364115  20.4392  37.7059  26.1985
  16325.372  16325.340  0.500  0.363619  20.4179  37.6671  26.1845
  16328.268  16328.250  0.500  0.362634  20.4004  37.6411  26.1922
  16331.212  16331.170  0.500  0.361508  20.3904  37.6225  26.2088
  16334.134  16334.120  0.500  0.360082  20.3763  37.5928  26.2254
  16337.080  16337.090  0.500  0.359123  20.3628  37.5753  26.2384
  16340.074  16340.070  0.500  0.358414  20.3468  37.5384  26.2313
  16343.104  16343.080  0.500  0.358597  20.3207  37.499  26.1989
  16346.112  16346.100  0.500  0.358904  20.3176  37.4904  26.1849
  16349.144  16349.150  0.500  0.359633  20.2979  37.4569  26.1424
  16352.201  16352.210  0.500  0.359835  20.2849  37.4302  26.1185
  16355.283  16355.290  0.500  0.360171  20.2695  37.4062  26.0929
  16358.401  16358.390  0.500  0.360049  20.2552  37.3805  26.0782
  16361.543  16361.510  0.500  0.360222  20.2386  37.3529  26.0545
  16364.687  16364.650  0.500  0.360511  20.2219  37.3219  26.0253
  16367.820  16367.800  0.500  0.360687  20.2074  37.2944  26.0016
  16370.990  16370.980  0.500  0.360415  20.1543  37.2006  25.9432
  16374.196  16374.170  0.500  0.359657  20.0983  37.0958  25.8897
  16377.427  16377.390  0.500  0.358945  20.1527  37.1996  25.9807
  16380.671  16380.620  0.500  0.358447  20.144  37.1819  25.9813
  16383.881  16383.870  0.500  0.357766  20.1287  37.1511  25.9774
  16387.151  16387.150  0.500  0.357351  20.1133  37.1229  25.9685
  16390.434  16390.440  0.500  0.357041  20.0956  37.0972  25.9585
  16393.777  16393.750  0.500  0.357095  20.0764  37.0629  25.9331
  16397.110  16397.070  0.500  0.356942  20.0551  37.0281  25.9127
  16400.456  16400.420  0.500  0.356487  20.0326  36.9847  25.8942
  16403.804  16403.790  0.500  0.355994  20.0017  36.9299  25.8686
  16407.152  16407.170  0.500  0.355375  20.0035  36.9367  25.8893
  16410.597  16410.580  0.500  0.354695  19.993  36.9097  25.888
  16414.019  16414.000  0.500  0.354626  19.9802  36.8901  25.876
  16417.491  16417.450  0.500  0.354784  19.9583  36.852  25.8452
  16420.940  16420.910  0.500  0.354916  19.9225  36.7849  25.7948
  16424.390  16424.390  0.500  0.355181  19.9259  36.7967  25.7962
  16427.913  16427.890  0.500  0.355671  19.91  36.772  25.7662
  16431.449  16431.410  0.500  0.356155  19.946  36.8333  25.7967
  16434.987  16434.950  0.500  0.356397  19.9266  36.8011  25.7679
  16438.502  16438.500  0.500  0.356404  19.9007  36.7476  25.7303
  16442.067  16442.080  0.500  0.356138  19.8702  36.7012  25.7046
  16445.692  16445.680  0.500  0.355252  19.8575  36.6802  25.7127
  16449.331  16449.290  0.500  0.354218  19.864  36.6904  25.7465
  16452.912  16452.920  0.500  0.353380  19.8503  36.6627  25.7486
  16456.589  16456.580  0.500  0.353099  19.8274  36.6294  25.7325
  16460.269  16460.250  0.500  0.352745  19.7886  36.5544  25.6888
  16463.973  16463.940  0.500  0.352601  19.7972  36.5727  25.7054
  16467.703  16467.650  0.500  0.352522  19.7794  36.5401  25.6845
  16471.388  16471.380  0.500  0.352157  19.756  36.4985  25.6646
  16475.097  16475.120  0.500  0.352066  19.736  36.4661  25.6442
  16478.916  16478.890  0.500  0.351967  19.7178  36.4357  25.6253
  16482.676  16482.680  0.500  0.351809  19.7033  36.4068  25.609
  16486.522  16486.480  0.500  0.351732  19.6836  36.3687  25.5843
  16490.322  16490.310  0.500  0.351461  19.6655  36.3373  25.5691
  16494.160  16494.150  0.500  0.351316  19.6438  36.2997  25.5464
  16498.047  16498.010  0.500  0.351067  19.6279  36.27  25.5317
  16501.900  16501.890  0.500  0.350891  19.6037  36.2288  25.5073
  16505.814  16505.790  0.500  0.350795  19.5823  36.1912  25.4832
  16509.695  16509.710  0.500  0.350752  19.5684  36.1629  25.4644
  16513.685  16513.650  0.500  0.350729  19.5516  36.1344  25.445
  16517.629  16517.610  0.500  0.350489  19.5329  36.1025  25.4286
  16521.634  16521.580  0.500  0.350143  19.5107  36.0588  25.4066
  16525.582  16525.580  0.500  0.349909  19.4903  36.024  25.388
  16529.604  16529.590  0.500  0.349585  19.472  35.9934  25.3746
  16533.628  16533.630  0.500  0.349230  19.4456  35.9416  25.3471
  16537.725  16537.680  0.500  0.348965  19.4294  35.9151  25.3351
  16541.753  16541.750  0.500  0.348530  19.4141  35.8866  25.3261
  16545.830  16545.840  0.500  0.348305  19.3714  35.8171  25.2827
  16549.970  16549.950  0.500  0.347737  19.3643  35.7995  25.2846
  16554.148  16554.080  0.500  0.347422  19.349  35.7758  25.2759
  16558.219  16558.230  0.500  0.347272  19.3315  35.7465  25.259
  16562.413  16562.390  0.500  0.347056  19.3052  35.6961  25.2288
  16566.585  16566.580  0.500  0.346993  19.2955  35.6754  25.2158
  16570.819  16570.780  0.500  0.346778  19.2699  35.638  25.1948
  16575.056  16575.010  0.500  0.346601  19.2498  35.5978  25.1707
  16579.246  16579.250  0.500  0.346289  19.2267  35.5522  25.1464
  16583.535  16583.510  0.500  0.346205  19.2024  35.5185  25.1246
  16587.814  16587.790  0.500  0.346077  19.1847  35.4827  25.1025
  16592.144  16592.090  0.500  0.345808  19.1537  35.4281  25.0706
  16596.416  16596.410  0.500  0.345623  19.1433  35.4086  25.0615
  16600.774  16600.750  0.500  0.345425  19.1212  35.3722  25.0407
  16605.147  16605.110  0.500  0.345107  19.0965  35.3258  25.0158
  16609.534  16609.490  0.500  0.344632  19.0786  35.2959  25.0065
  16613.923  16613.880  0.500  0.344313  19.0573  35.2514  24.9829
  16618.303  16618.300  0.500  0.344005  19.0234  35.1932  24.9493
  16622.770  16622.730  0.500  0.343717  19.0129  35.1741  24.943
  16627.215  16627.180  0.500  0.343670  18.9913  35.1359  24.9171
  16631.674  16631.650  0.500  0.343381  18.9709  35.103  24.901
  16636.160  16636.140  0.500  0.343177  18.9514  35.0625  24.8773
  16640.673  16640.650  0.500  0.342871  18.927  35.0234  24.8571
  16645.225  16645.180  0.500  0.342576  18.9052  34.9837  24.8363
  16649.779  16649.730  0.500  0.342208  18.8813  34.9427  24.8163
  16654.288  16654.300  0.500  0.341937  18.8558  34.8986  24.7917
  16658.920  16658.880  0.500  0.341654  18.8378  34.8594  24.7709
  16663.542  16663.490  0.500  0.341402  18.8136  34.8183  24.7479
  16668.155  16668.110  0.500  0.341197  18.7839  34.7671  24.7166
  16672.783  16672.760  0.500  0.341020  18.7609  34.7297  24.6944
  16677.450  16677.420  0.500  0.340770  18.7364  34.6818  24.6665
  16682.156  16682.100  0.500  0.340435  18.7104  34.6332  24.6401
  16686.817  16686.800  0.500  0.340331  18.6832  34.5853  24.6087
  16691.552  16691.520  0.500  0.339968  18.6532  34.533  24.5804
  16696.291  16696.260  0.500  0.339699  18.6206  34.4696  24.5418
  16701.045  16701.010  0.500  0.339334  18.5773  34.3929  24.4962
  16705.813  16705.790  0.500  0.338980  18.5148  34.28  24.4244
  16710.621  16710.590  0.500  0.338899  18.3704  34.02  24.2411
  16715.420  16715.400  0.500  0.338774  16.9173  31.3285  22.326
  16720.282  16720.230  0.500  0.338297  18.0012  33.3336  23.7663
  16725.148  16725.090  0.500  0.338208  18.6082  34.4607  24.5721
  16729.967  16729.960  0.500  0.337778  18.5758  34.3952  24.5359
  16734.887  16734.850  0.500  0.337498  18.5349  34.3266  24.4939
  16739.847  16739.760  0.500  0.337220  18.5043  34.2708  24.4608
  16744.736  16744.690  0.500  0.336823  18.4738  34.2128  24.4291
  16749.653  16749.630  0.500  0.336669  18.4464  34.168  24.4009
  16754.622  16754.600  0.500  0.336180  18.415  34.109  24.3707
  16759.655  16759.590  0.500  0.335871  18.3893  34.0597  24.343
  16764.630  16764.590  0.500  0.335759  18.3606  34.0117  24.3114
  16769.632  16769.620  0.500  0.335617  18.3311  33.9632  24.2802
  16774.712  16774.660  0.500  0.335136  18.3047  33.9127  24.2558
  16779.769  16779.720  0.500  0.335031  18.2762  33.8642  24.2236
  16784.806  16784.800  0.500  0.334620  18.2495  33.8128  24.1967
  16789.907  16789.900  0.500  0.334330  18.2199  33.7556  24.1629
  16795.048  16795.020  0.500  0.334233  18.1894  33.704  24.1283
  16800.192  16800.160  0.500  0.333876  18.1531  33.6424  24.0928
  16805.340  16805.320  0.500  0.333467  17.8781  33.1296  23.7352
  16810.515  16810.500  0.500  0.333343  18.1052  33.5566  24.0441
  16815.731  16815.690  0.500  0.332986  18.0666  33.4835  24.0003
  16820.975  16820.910  0.500  0.332806  18.0159  33.3903  23.9378
  16826.185  16826.140  0.500  0.332405  17.9325  33.2369  23.8374
  16831.423  16831.390  0.500  0.332116  17.6572  32.7273  23.4787
  16836.714  16836.660  0.500  0.331684  15.1685  28.1173  20.1802
  16841.996  16841.950  0.500  0.331527  18.0653  33.4881  24.0387
  16847.269  16847.260  0.500  0.331338  18.0473  33.4598  24.0228
  16852.645  16852.590  0.500  0.330914  17.9936  33.3609  23.962
  16857.975  16857.940  0.500  0.330668  17.9587  33.2962  23.9214
  16863.382  16863.310  0.500  0.330278  17.805  33.0135  23.7276
  16868.731  16868.690  0.500  0.330103  17.8896  33.1727  23.8462
  16874.195  16874.100  0.500  0.329798  17.8393  33.0787  23.7859
  16879.576  16879.520  0.500  0.329579  17.8455  33.0968  23.8041
  16885.048  16884.970  0.500  0.329307  17.8077  33.0253  23.7591
  16890.510  16890.430  0.500  0.328905  17.7827  32.9777  23.7344
  16895.989  16895.910  0.500  0.328678  17.751  32.9221  23.6998
  16901.509  16901.410  0.500  0.328414  17.7176  32.8597  23.6611
  16907.020  16906.930  0.500  0.328229  17.6946  32.8179  23.6354
  16912.522  16912.470  0.500  0.327980  17.6305  32.7043  23.5594
  16918.103  16918.020  0.500  0.327523  17.6141  32.6716  23.5466
  16923.700  16923.600  0.500  0.327267  17.4317  32.3402  23.3138
  16929.301  16929.200  0.500  0.327104  17.5688  32.5956  23.5017
  16934.906  16934.810  0.500  0.326625  17.5112  32.4906  23.4372
  16940.489  16940.450  0.500  0.326286  17.4412  32.3625  23.3528
  16946.151  16946.100  0.500  0.326070  17.1784  31.8749  23.0059
  16951.830  16951.770  0.500  0.325620  14.9445  27.7344  20.0265
  16957.538  16957.460  0.500  0.325358  17.5493  32.5633  23.5195