File: xdidata/Data/Eu/Eu-L1-EuropiumOxide.xdi
# XDI/1.0 BlueSky/1.10.0 BMM/2023-1.0-py310-tiled
# Beamline.name: BMM (06BM) -- Beamline for Materials Measurement (NIST)
# Beamline.xray_source: NSLS-II three-pole wiggler
# Beamline.collimation: paraboloid mirror, 5 nm Rh on 30 nm Pt
# Beamline.focusing: not in use
# Beamline.harmonic_rejection: flat mirror, Pt stripe, pitch = 7.0 mrad relative to beam
# Beamline.software: Bluesky 1.10.0, Ophyd 1.7.0, DataBroker 2.0.0b13, Python 3.10.8, 2023-1.0-py310-tiled
# Detector.I0: 10 cm N2
# Detector.I1: 25 cm N2
# Detector.I2: 25 cm N2
# Element.symbol: Eu
# Element.edge: L1
# Element.reference: Eu
# Element.reference_material: Eu2O3
# Facility.name: NSLS-II
# Facility.energy: 3.0
# Facility.current: 400.2
# Facility.mode: top-off
# Facility.GUP: 301027
# Facility.SAF: 310583
# Facility.cycle: 2023-2
# Mono.name: Si(111)
# Mono.d_spacing: 3.13519
# Mono.encoder_resolution: 0.0000050 deg/ct
# Mono.angle_offset: 16.0754 deg
# Mono.scan_mode: pseudo channel cut
# Mono.scan_type: step
# Mono.direction: forward in energy
# Sample.name: Eu2O3
# Sample.prep: PEG pellet
# Sample.x: 109.138 mm
# Sample.y: 153.150 mm
# Sample.SDD_position: 205.000 mm
# Scan.experimenters: Bruce Ravel
# Scan.edge_energy: 8052.0
# Scan.start_time: 2023-05-28T14:34:35
# Scan.end_time: 2023-05-28T14:42:42
# Scan.transient_id: 78763
# Scan.uid: 97f92405-185c-420c-af31-0743c30560e7
# Scan.plot_hint: ln(It/Ir)  --  ln($6/$7)
# Column.1: energy eV
# Column.2: requested_energy eV
# Column.3: measurement_time seconds
# Column.4: xmu
# Column.5: I0 nA
# Column.6: It nA
# Column.7: Ir nA
# ///////////
# sample courtesy Martin Stennett, University of Sheffield
# -----------
# energy  requested_energy  measurement_time  xmu  I0  It  Ir
  7852.001  7852.000  0.500  1.518279  140.881  165.913  36.3496
  7862.010  7862.000  0.500  1.514488  140.749  166.119  36.533
  7872.040  7872.000  0.500  1.509829  140.676  166.36  36.7569
  7882.068  7882.000  0.500  1.504526  140.571  166.555  36.9956
  7892.027  7892.000  0.500  1.499030  140.466  166.74  37.2408
  7902.046  7902.000  0.500  1.493645  140.264  166.821  37.46
  7912.011  7912.000  0.500  1.488954  140.186  167.031  37.6835
  7922.029  7922.000  0.500  1.484403  140.073  167.186  37.8907
  7932.022  7932.000  0.500  1.479511  139.906  167.299  38.1021
  7942.025  7942.000  0.500  1.474221  139.974  167.735  38.4041
  7952.014  7952.000  0.500  1.469216  139.383  167.326  38.5027
  7962.012  7962.000  0.500  1.464557  139.633  167.924  38.8208
  7972.023  7972.000  0.500  1.460200  139.512  168.097  39.0304
  7982.016  7982.000  0.500  1.455778  139.173  167.974  39.1748
  7992.022  7992.000  0.500  1.451220  139.239  168.379  39.4486
  8002.415  8002.000  0.500  1.446364  139.156  168.597  39.6918
  8011.965  8012.000  0.500  1.441720  139.003  168.678  39.8959
  8021.974  8022.000  0.500  1.436924  138.868  168.836  40.1252
  8023.979  8024.000  0.500  1.436122  138.82  168.825  40.1548
  8025.976  8026.000  0.500  1.435174  138.782  168.826  40.193
  8027.977  8028.000  0.500  1.434421  138.748  168.85  40.2291
  8029.984  8030.000  0.500  1.433584  138.703  168.89  40.2724
  8031.981  8032.000  0.500  1.432745  138.675  168.933  40.3164
  8033.977  8034.000  0.500  1.432039  138.637  168.943  40.3472
  8035.974  8036.000  0.500  1.431253  138.604  168.948  40.3801
  8037.974  8038.000  0.500  1.430591  138.571  168.978  40.414
  8039.979  8040.000  0.500  1.430007  138.524  168.971  40.436
  8041.976  8042.000  0.500  1.429407  138.487  168.985  40.4635
  8042.275  8042.300  0.500  1.429363  138.463  168.971  40.462
  8042.573  8042.600  0.500  1.429293  138.45  168.984  40.468
  8042.875  8042.900  0.500  1.429185  138.437  168.948  40.4637
  8043.177  8043.200  0.500  1.429098  138.436  168.962  40.4706
  8043.484  8043.500  0.500  1.429111  138.425  168.969  40.4718
  8043.783  8043.800  0.500  1.429055  138.424  168.971  40.4745
  8044.079  8044.100  0.500  1.428964  138.414  168.969  40.4777
  8044.386  8044.400  0.500  1.428946  138.409  169.005  40.487
  8044.685  8044.700  0.500  1.428891  138.396  168.944  40.4747
  8044.981  8045.000  0.500  1.428835  138.391  168.927  40.4729
  8045.286  8045.300  0.500  1.428770  138.383  168.97  40.4858
  8045.585  8045.600  0.500  1.428696  138.38  168.958  40.486
  8045.893  8045.900  0.500  1.428631  138.37  168.928  40.4813
  8046.192  8046.200  0.500  1.428674  138.357  168.954  40.4859
  8046.485  8046.500  0.500  1.428613  138.35  168.983  40.4952
  8046.787  8046.800  0.500  1.428576  138.349  168.961  40.4915
  8047.081  8047.100  0.500  1.428636  138.328  168.916  40.4782
  8047.388  8047.400  0.500  1.428597  138.319  168.912  40.4789
  8047.685  8047.700  0.500  1.428661  138.315  168.917  40.4774
  8047.981  8048.000  0.500  1.428719  138.32  168.935  40.4795
  8048.289  8048.300  0.500  1.428765  138.3  168.922  40.4745
  8048.591  8048.600  0.500  1.428788  138.296  168.913  40.4713
  8048.887  8048.900  0.500  1.428856  138.29  168.927  40.472
  8049.198  8049.200  0.500  1.429012  138.274  168.923  40.4646
  8049.492  8049.500  0.500  1.429068  138.274  168.927  40.4635
  8049.797  8049.800  0.500  1.429185  138.261  168.936  40.4609
  8050.091  8050.100  0.500  1.429305  138.258  168.939  40.4567
  8050.398  8050.400  0.500  1.429423  138.242  168.935  40.4511
  8050.698  8050.700  0.500  1.429533  138.216  168.911  40.4409
  8051.003  8051.000  0.500  1.429763  138.221  168.912  40.4317
  8051.300  8051.300  0.500  1.430022  138.213  168.913  40.4214
  8051.593  8051.600  0.500  1.430314  138.198  168.903  40.4073
  8051.893  8051.900  0.500  1.430691  138.18  168.885  40.3878
  8052.201  8052.200  0.500  1.430986  138.172  168.875  40.3736
  8052.489  8052.500  0.500  1.431363  138.168  168.904  40.3651
  8052.795  8052.800  0.500  1.431764  138.153  168.871  40.3411
  8053.091  8053.100  0.500  1.432392  138.129  168.852  40.3112
  8053.394  8053.400  0.500  1.432931  138.124  168.876  40.2952
  8053.699  8053.700  0.500  1.433638  138.104  168.878  40.2674
  8053.988  8054.000  0.500  1.434488  138.109  168.902  40.2388
  8054.296  8054.300  0.500  1.435302  138.082  168.884  40.2017
  8054.598  8054.600  0.500  1.436241  138.064  168.87  40.1606
  8054.898  8054.900  0.500  1.437269  138.049  168.844  40.1132
  8055.201  8055.200  0.500  1.438310  138.026  168.815  40.0646
  8055.503  8055.500  0.500  1.439295  138  168.795  40.0205
  8055.800  8055.800  0.500  1.440213  137.964  168.792  39.983
  8056.103  8056.100  0.500  1.441220  137.931  168.749  39.9325
  8056.400  8056.400  0.500  1.442232  137.885  168.716  39.8843
  8056.697  8056.700  0.500  1.443166  137.812  168.62  39.8243
  8056.997  8057.000  0.500  1.443951  137.725  168.509  39.7671
  8057.300  8057.300  0.500  1.444813  137.579  168.343  39.6937
  8057.600  8057.600  0.500  1.445627  137.344  168.075  39.5982
  8057.894  8057.900  0.500  1.446455  136.809  167.431  39.4139
  8058.200  8058.200  0.500  1.447167  135.317  165.593  38.9534
  8058.495  8058.500  0.500  1.447935  133.037  162.803  38.2677
  8058.789  8058.800  0.500  1.448654  131.982  161.528  37.9407
  8059.098  8059.100  0.500  1.449488  132.777  162.496  38.1362
  8059.398  8059.400  0.500  1.450436  134.494  164.641  38.6031
  8059.695  8059.700  0.500  1.451360  136.422  166.994  39.1185
  8060.006  8060.000  0.500  1.452375  137.66  168.528  39.4379
  8060.301  8060.300  0.500  1.453275  138.009  168.972  39.5062
  8060.596  8060.600  0.500  1.454221  138.07  169.024  39.481
  8060.910  8060.900  0.500  1.455235  138.088  169.043  39.4454
  8061.196  8061.200  0.500  1.456320  138.085  169.079  39.4111
  8061.505  8061.500  0.500  1.457528  138.064  169.064  39.36
  8061.805  8061.800  0.500  1.458799  138.053  169.064  39.31
  8062.100  8062.100  0.500  1.460070  138.033  169.063  39.2599
  8062.400  8062.400  0.500  1.461548  138.024  169.056  39.2001
  8062.703  8062.700  0.500  1.463037  138.003  169.036  39.1372
  8062.993  8063.000  0.500  1.464482  138.003  169.044  39.0826
  8063.293  8063.300  0.500  1.466130  137.992  169.046  39.0187
  8063.596  8063.600  0.500  1.467768  137.97  169.002  38.9448
  8063.891  8063.900  0.500  1.469562  138.262  169.354  38.9559
  8064.194  8064.200  0.500  1.471320  138.428  169.577  38.9387
  8064.492  8064.500  0.500  1.473331  138.442  169.609  38.8677
  8064.796  8064.800  0.500  1.475168  138.416  169.582  38.7903
  8065.102  8065.100  0.500  1.477173  138.394  169.554  38.7061
  8065.405  8065.400  0.500  1.479120  138.393  169.578  38.6364
  8065.708  8065.700  0.500  1.481040  138.366  169.585  38.5638
  8066.003  8066.000  0.500  1.482795  138.346  169.571  38.493
  8066.301  8066.300  0.500  1.484510  138.317  169.526  38.4168
  8066.602  8066.600  0.500  1.486115  138.302  169.465  38.3415
  8066.900  8066.900  0.500  1.487693  138.266  169.466  38.2812
  8067.203  8067.200  0.500  1.489067  138.236  169.425  38.2194
  8067.499  8067.500  0.500  1.490311  138.199  169.397  38.1655
  8067.791  8067.800  0.500  1.491448  138.157  169.372  38.1165
  8068.095  8068.100  0.500  1.492503  138.1  169.34  38.0693
  8068.398  8068.400  0.500  1.493416  138.011  169.239  38.0117
  8068.705  8068.700  0.500  1.494057  137.908  169.082  37.9522
  8069.003  8069.000  0.500  1.494730  137.724  168.824  37.8687
  8069.304  8069.300  0.500  1.495252  137.396  168.436  37.7621
  8069.607  8069.600  0.500  1.495614  136.574  167.432  37.5233
  8069.903  8069.900  0.500  1.495948  134.809  165.276  37.0278
  8070.204  8070.200  0.500  1.495939  132.743  162.769  36.4664
  8070.507  8070.500  0.500  1.496041  132.225  162.181  36.3309
  8070.800  8070.800  0.500  1.496122  133.452  163.71  36.6707
  8071.096  8071.100  0.500  1.495968  135.392  166.085  37.2083
  8071.402  8071.400  0.500  1.495872  137.16  168.243  37.6953
  8071.698  8071.700  0.500  1.495787  138.104  169.402  37.9582
  8071.996  8072.000  0.500  1.495555  138.316  169.661  38.0252
  8072.297  8072.300  0.500  1.495371  138.35  169.708  38.0427
  8072.601  8072.600  0.500  1.495068  138.361  169.762  38.0664
  8072.891  8072.900  0.500  1.494786  138.356  169.756  38.0757
  8073.198  8073.200  0.500  1.494507  138.334  169.74  38.0828
  8073.505  8073.500  0.500  1.494141  138.317  169.735  38.0955
  8073.803  8073.800  0.500  1.493807  138.302  169.741  38.1095
  8074.096  8074.100  0.500  1.493440  138.281  169.722  38.1192
  8074.406  8074.400  0.500  1.493099  138.252  169.697  38.1267
  8074.707  8074.700  0.500  1.492756  138.241  169.698  38.1401
  8074.997  8075.000  0.500  1.492487  138.225  169.665  38.1429
  8075.298  8075.300  0.500  1.492085  138.199  169.643  38.1532
  8075.605  8075.600  0.500  1.491677  138.181  169.662  38.1731
  8075.896  8075.900  0.500  1.491396  138.147  169.595  38.1687
  8076.189  8076.200  0.500  1.490941  138.116  169.525  38.1704
  8076.496  8076.500  0.500  1.490633  138.09  169.513  38.1795
  8076.794  8076.800  0.500  1.490186  138.05  169.472  38.1873
  8076.993  8077.000  0.500  1.490038  138.017  169.432  38.1838
  8078.000  8077.990  0.500  1.488714  137.714  169.081  38.1552
  8079.009  8078.990  0.500  1.487426  135.327  166.174  37.5475
  8080.025  8080.010  0.500  1.485740  133.311  163.771  37.0671
  8081.070  8081.060  0.500  1.483999  138.13  169.704  38.4768
  8082.132  8082.120  0.500  1.481898  138.262  169.916  38.6059
  8083.217  8083.200  0.500  1.479565  138.213  169.886  38.6894
  8084.325  8084.300  0.500  1.477149  138.161  169.875  38.7802
  8085.429  8085.420  0.500  1.474641  138.12  169.844  38.8706
  8086.568  8086.560  0.500  1.472086  138.065  169.799  38.9598
  8087.730  8087.710  0.500  1.469711  137.996  169.767  39.0451
  8088.903  8088.890  0.500  1.467600  137.911  169.691  39.1101
  8090.087  8090.080  0.500  1.465756  137.664  169.396  39.1141
  8091.309  8091.300  0.500  1.464267  134.325  165.333  38.2328
  8092.539  8092.530  0.500  1.462737  135.289  166.594  38.5834
  8093.798  8093.780  0.500  1.461461  138.065  170.046  39.4333
  8095.054  8095.050  0.500  1.460376  138.065  170.067  39.4808
  8096.355  8096.340  0.500  1.459441  138.019  170.007  39.5038
  8097.663  8097.650  0.500  1.458956  137.98  170.004  39.5224
  8098.991  8098.980  0.500  1.458551  137.944  170.008  39.5393
  8100.338  8100.330  0.500  1.458546  137.933  170.04  39.5469
  8101.709  8101.700  0.500  1.458684  137.912  170.06  39.5461
  8103.091  8103.080  0.500  1.458810  137.868  170.038  39.5361
  8104.500  8104.490  0.500  1.459215  137.834  170.051  39.5231
  8105.922  8105.910  0.500  1.459673  137.795  170.055  39.5059
  8107.363  8107.350  0.500  1.460040  137.765  170.072  39.4953
  8108.814  8108.810  0.500  1.460489  137.751  170.09  39.4818
  8110.301  8110.290  0.500  1.460806  137.724  170.093  39.4699
  8111.804  8111.790  0.500  1.461181  137.682  170.081  39.4524
  8113.320  8113.310  0.500  1.461503  137.677  170.127  39.4503
  8114.861  8114.850  0.500  1.461666  137.649  170.114  39.4409
  8116.426  8116.410  0.500  1.461845  137.622  170.16  39.4445
  8117.986  8117.980  0.500  1.461803  137.599  170.153  39.4446
  8119.600  8119.580  0.500  1.461472  137.567  170.15  39.4568
  8121.197  8121.190  0.500  1.460983  137.547  170.179  39.483
  8122.838  8122.830  0.500  1.460302  137.527  170.19  39.5122
  8124.499  8124.480  0.500  1.459425  137.478  170.185  39.5459
  8126.164  8126.150  0.500  1.458268  137.45  170.203  39.5959
  8127.854  8127.840  0.500  1.456919  137.419  170.221  39.6534
  8129.569  8129.550  0.500  1.455388  137.387  170.226  39.7155
  8131.281  8131.280  0.500  1.453767  137.352  170.237  39.7824
  8133.044  8133.030  0.500  1.452114  137.317  170.229  39.8462
  8134.800  8134.790  0.500  1.450558  137.294  170.25  39.9133
  8136.591  8136.580  0.500  1.449167  137.251  170.246  39.9679
  8138.392  8138.380  0.500  1.447867  137.227  170.286  40.0293
  8140.218  8140.210  0.500  1.446641  137.191  170.337  40.0905
  8142.062  8142.050  0.500  1.445520  137.153  170.336  40.1351
  8143.922  8143.910  0.500  1.444597  137.116  170.319  40.1682
  8145.796  8145.790  0.500  1.443672  137.082  170.334  40.209
  8147.700  8147.690  0.500  1.442848  137.048  170.328  40.2408
  8149.622  8149.610  0.500  1.442062  137.011  170.346  40.2765
  8151.568  8151.550  0.500  1.441152  136.977  170.358  40.316
  8153.526  8153.510  0.500  1.440052  136.936  170.369  40.363
  8155.501  8155.480  0.500  1.439059  136.899  170.369  40.403
  8157.490  8157.480  0.500  1.438052  136.873  170.393  40.4495
  8159.505  8159.490  0.500  1.436809  136.838  170.407  40.5031
  8161.532  8161.520  0.500  1.435737  136.784  170.406  40.5464
  8163.592  8163.580  0.500  1.434590  136.75  170.423  40.597
  8165.661  8165.650  0.500  1.433437  136.727  170.462  40.6532
  8167.746  8167.740  0.500  1.432414  136.675  170.468  40.6962
  8169.864  8169.850  0.500  1.431401  136.636  170.468  40.7374
  8171.985  8171.980  0.500  1.430541  136.603  170.476  40.7744
  8174.139  8174.120  0.500  1.429685  136.558  170.487  40.8118
  8176.306  8176.290  0.500  1.428857  136.512  170.493  40.8472
  8178.491  8178.480  0.500  1.428080  136.468  170.496  40.8796
  8180.697  8180.680  0.500  1.427350  136.421  170.486  40.9071
  8182.910  8182.900  0.500  1.426703  136.378  170.514  40.9404
  8185.165  8185.150  0.500  1.426170  136.35  170.524  40.9646
  8187.426  8187.410  0.500  1.425458  136.292  170.48  40.9831
  8189.706  8189.690  0.500  1.424647  136.269  170.541  41.031
  8192.008  8191.990  0.500  1.423671  136.235  170.577  41.0797
  8194.322  8194.310  0.500  1.422601  136.174  170.539  41.1147
  8196.664  8196.650  0.500  1.421371  136.144  170.577  41.1744
  8199.013  8199.000  0.500  1.420144  136.093  170.607  41.2322
  8201.389  8201.380  0.500  1.418930  136.049  170.571  41.2735
  8203.787  8203.770  0.500  1.417580  136.007  170.598  41.3357
  8206.200  8206.190  0.500  1.416201  135.959  170.621  41.3985
  8208.636  8208.620  0.500  1.414880  135.915  170.644  41.4588
  8211.081  8211.070  0.500  1.413408  135.864  170.667  41.5254
  8213.571  8213.550  0.500  1.411972  135.823  170.657  41.5826
  8216.054  8216.040  0.500  1.410642  135.766  170.647  41.6356
  8218.568  8218.550  0.500  1.409478  135.704  170.646  41.6839
  8221.092  8221.070  0.500  1.408415  135.653  170.662  41.732
  8223.638  8223.620  0.500  1.407398  135.612  170.652  41.7721
  8226.211  8226.190  0.500  1.406383  135.567  170.667  41.8182
  8228.778  8228.770  0.500  1.405407  135.51  170.647  41.8541
  8231.407  8231.380  0.500  1.404445  135.464  170.686  41.9039
  8234.011  8234.000  0.500  1.403413  135.4  170.699  41.9505
  8236.679  8236.650  0.500  1.402254  135.339  170.677  41.9937
  8239.299  8239.310  0.500  1.401121  135.262  170.671  42.0397
  8241.981  8241.990  0.500  1.400063  135.209  170.676  42.0855
  8244.698  8244.690  0.500  1.398689  135.168  170.696  42.1484
  8247.416  8247.410  0.500  1.397355  135.111  170.657  42.1951
  8250.159  8250.150  0.500  1.396166  135.035  170.663  42.2467
  8252.922  8252.900  0.500  1.394812  134.976  170.699  42.3127
  8255.699  8255.680  0.500  1.393393  134.914  170.675  42.367
  8258.486  8258.470  0.500  1.392039  134.847  170.685  42.4269
  8261.292  8261.290  0.500  1.390645  134.783  170.662  42.4802
  8264.139  8264.120  0.500  1.389385  134.714  170.656  42.5322
  8266.984  8266.970  0.500  1.388106  134.655  170.628  42.5799
  8269.859  8269.850  0.500  1.386890  134.581  170.581  42.62
  8272.752  8272.740  0.500  1.385715  134.512  170.597  42.6739
  8275.666  8275.650  0.500  1.384612  134.458  170.627  42.7286
  8278.590  8278.570  0.500  1.383419  133.23  169.115  42.4004
  8281.537  8281.520  0.500  1.382244  134.228  170.448  42.785
  8284.501  8284.490  0.500  1.381069  134.211  170.511  42.851
  8287.488  8287.470  0.500  1.379881  134.145  170.504  42.9003
  8290.498  8290.480  0.500  1.378418  134.067  170.515  42.9659
  8293.515  8293.500  0.500  1.377137  134.002  170.54  43.0273
  8296.562  8296.550  0.500  1.375659  133.953  170.555  43.0946
  8299.614  8299.610  0.500  1.374211  133.882  170.533  43.1515
  8302.700  8302.690  0.500  1.372804  133.797  170.509  43.2062
  8305.795  8305.790  0.500  1.371326  133.709  170.497  43.2671
  8308.916  8308.910  0.500  1.369940  133.627  170.468  43.3197
  8312.051  8312.050  0.500  1.368512  133.574  170.475  43.3834
  8315.216  8315.200  0.500  1.367076  133.508  170.503  43.4528
  8318.380  8318.380  0.500  1.365572  133.496  170.552  43.5309
  8321.576  8321.570  0.500  1.364200  133.813  171.028  43.7121
  8324.801  8324.790  0.500  1.362762  133.774  171.052  43.7813
  8328.029  8328.020  0.500  1.361433  133.699  171.031  43.8339
  8331.280  8331.270  0.500  1.359968  133.606  170.983  43.8862
  8334.558  8334.550  0.500  1.358688  133.401  170.825  43.9015
  8337.847  8337.840  0.500  1.357292  133.28  170.738  43.9405
  8341.154  8341.150  0.500  1.355928  133.163  170.676  43.9846
  8344.469  8344.470  0.500  1.354515  133.033  170.591  44.0248
  8347.824  8347.820  0.500  1.353149  132.903  170.536  44.0708
  8351.205  8351.190  0.500  1.351594  132.641  170.263  44.0687
  8354.582  8354.570  0.500  1.350125  132.454  170.139  44.1015
  8357.996  8357.980  0.500  1.348699  132.383  170.145  44.1659
  8361.403  8361.400  0.500  1.347469  132.326  170.176  44.2283
  8364.858  8364.850  0.500  1.345802  132.306  170.207  44.3101
  8368.325  8368.310  0.500  1.344149  132.241  170.222  44.3873
  8371.792  8371.790  0.500  1.342565  132.182  170.209  44.4544
  8375.305  8375.290  0.500  1.340966  132.101  170.204  44.5241
  8378.832  8378.810  0.500  1.339508  132.036  170.214  44.5919
  8382.362  8382.350  0.500  1.338088  131.97  170.232  44.6599
  8385.908  8385.900  0.500  1.336687  131.866  170.196  44.7129
  8389.495  8389.480  0.500  1.335290  131.726  170.116  44.7545
  8393.095  8393.080  0.500  1.333836  131.646  170.122  44.8211
  8396.702  8396.690  0.500  1.332379  131.553  170.104  44.8818
  8400.338  8400.320  0.500  1.330876  131.463  170.054  44.9359
  8403.990  8403.980  0.500  1.329369  131.363  170.041  45.0002
  8407.667  8407.650  0.500  1.327899  131.289  170.028  45.0631
  8411.350  8411.340  0.500  1.326294  131.22  170.008  45.1301
  8415.069  8415.050  0.500  1.324728  131.132  169.992  45.1967
  8418.804  8418.780  0.500  1.323089  131.054  169.997  45.272
  8422.540  8422.520  0.500  1.321480  130.976  169.984  45.3416
  8426.309  8426.290  0.500  1.319925  130.879  169.978  45.4106
  8430.097  8430.080  0.500  1.318240  130.768  169.879  45.4605
  8433.917  8433.880  0.500  1.316672  130.709  169.902  45.5382
  8437.733  8437.710  0.500  1.314992  130.598  169.87  45.6062
  8441.568  8441.550  0.500  1.313377  130.503  169.854  45.6754
  8445.429  8445.410  0.500  1.311705  130.418  169.807  45.7394
  8449.311  8449.290  0.500  1.310045  130.334  169.786  45.8095
  8453.213  8453.190  0.500  1.308379  130.206  169.73  45.8709
  8457.130  8457.110  0.500  1.306771  130.116  169.719  45.9416
  8461.070  8461.050  0.500  1.305085  130.04  169.7  46.0142
  8465.031  8465.010  0.500  1.303573  129.937  169.665  46.0741
  8469.000  8468.980  0.500  1.301980  129.871  169.713  46.1608
  8473.003  8472.980  0.500  1.300314  129.783  169.688  46.231
  8477.008  8476.990  0.500  1.298730  129.656  169.6  46.28
  8481.043  8481.030  0.500  1.297095  129.583  169.634  46.3652
  8485.099  8485.080  0.500  1.295559  129.48  169.576  46.4206
  8489.173  8489.150  0.500  1.293877  129.361  169.489  46.4748
  8493.277  8493.240  0.500  1.292327  129.276  169.476  46.5435
  8497.384  8497.350  0.500  1.290598  129.155  169.412  46.6063
  8501.496  8501.480  0.500  1.288967  129.071  169.411  46.682
  8505.646  8505.630  0.500  1.287267  128.911  169.306  46.7326
  8509.812  8509.790  0.500  1.285540  128.845  169.326  46.819
  8514.005  8513.980  0.500  1.283847  128.724  169.283  46.8863
  8518.205  8518.180  0.500  1.282181  128.592  169.23  46.9498
  8522.437  8522.410  0.500  1.280484  128.422  169.08  46.9879
  8526.676  8526.650  0.500  1.278723  128.044  168.643  46.9488
  8530.927  8530.910  0.500  1.277124  114.106  150.392  41.935
  8535.206  8535.190  0.500  1.275316  128.073  168.937  47.1912
  8539.509  8539.490  0.500  1.273584  128.166  169.151  47.3331
  8543.860  8543.810  0.500  1.271839  128.071  169.107  47.4033
  8548.169  8548.150  0.500  1.270205  127.954  169.066  47.4694
  8552.526  8552.510  0.500  1.268521  127.812  168.992  47.5285
  8556.919  8556.890  0.500  1.266836  127.705  168.957  47.5989
  8561.307  8561.280  0.500  1.265095  127.594  168.887  47.662
  8565.722  8565.700  0.500  1.263390  127.457  168.804  47.7197
  8570.152  8570.130  0.500  1.261635  127.346  168.729  47.7825
  8574.620  8574.580  0.500  1.259912  127.221  168.68  47.8509
  8579.109  8579.050  0.500  1.258092  127.045  168.559  47.9037
  8583.594  8583.540  0.500  1.256339  126.931  168.522  47.9772
  8588.102  8588.050  0.500  1.254597  126.667  168.282  47.9924
  8592.603  8592.580  0.500  1.253064  118.237  157.185  44.8965
  8597.149  8597.130  0.500  1.250953  125.957  167.562  47.9615
  8601.730  8601.700  0.500  1.249115  126.155  167.929  48.155
  8606.283  8606.280  0.500  1.247298  125.909  167.702  48.1775
  8610.902  8610.890  0.500  1.245598  125.356  167.067  48.0765
  8615.523  8615.510  0.500  1.243842  122.875  163.85  47.2338
  8620.174  8620.160  0.500  1.242123  124.952  166.737  48.1487
  8624.847  8624.820  0.500  1.240294  126.906  169.451  49.0219
  8629.512  8629.500  0.500  1.238624  126.52  169.039  48.9845
  8634.211  8634.200  0.500  1.236793  126.227  168.752  48.9909
  8638.940  8638.920  0.500  1.235011  125.86  168.373  48.9681
  8643.711  8643.660  0.500  1.233267  110.675  148.142  43.1597
  8648.432  8648.410  0.500  1.231488  125.367  167.905  49.0043
  8653.204  8653.190  0.500  1.229715  125.479  168.132  49.1577
  8658.013  8657.990  0.500  1.227899  125.362  168.101  49.2381
  8662.818  8662.800  0.500  1.226003  125.221  168.014  49.306
  8667.681  8667.630  0.500  1.224184  125.099  167.969  49.3826
  8672.510  8672.490  0.500  1.222396  124.965  167.909  49.4531
  8677.367  8677.360  0.500  1.220423  124.783  167.771  49.5101
  8682.269  8682.250  0.500  1.218602  124.669  167.738  49.5905
  8687.209  8687.160  0.500  1.216707  124.52  167.641  49.656
  8692.157  8692.090  0.500  1.214826  124.319  167.467  49.6979
  8697.047  8697.030  0.500  1.212990  124.18  167.393  49.767
  8702.047  8702.000  0.500  1.211119  123.819  166.998  49.7427
  8707.049  8706.990  0.500  1.209467  117.14  158.106  47.172
  8712.057  8711.990  0.500  1.207493  123.853  167.28  50.0076
  8717.074  8717.020  0.500  1.205619  123.873  167.401  50.1377
  8722.084  8722.060  0.500  1.203803  123.736  167.311  50.2018
  8727.139  8727.120  0.500  1.201988  123.575  167.233  50.2696
  8732.220  8732.200  0.500  1.200087  123.418  167.092  50.3229
  8737.373  8737.300  0.500  1.198360  123.278  167.004  50.3832
  8742.417  8742.420  0.500  1.196400  123.103  166.882  50.4451
  8747.546  8747.560  0.500  1.194559  122.958  166.794  50.5115
  8752.770  8752.720  0.500  1.192694  122.834  166.744  50.5906
  8757.891  8757.900  0.500  1.190803  122.71  166.665  50.6622
  8763.082  8763.090  0.500  1.188887  122.559  166.577  50.7326
  8768.315  8768.310  0.500  1.186987  122.421  166.507  50.8078
  8773.568  8773.540  0.500  1.185112  122.277  166.413  50.8745
  8778.754  8778.790  0.500  1.183206  122.098  166.27  50.9279
  8784.103  8784.060  0.500  1.181320  121.962  166.192  50.9997
  8789.382  8789.350  0.500  1.179325  121.792  166.074  51.0655
  8794.727  8794.660  0.500  1.177465  121.627  165.978  51.131
  8799.986  8799.990  0.500  1.175527  121.487  165.903  51.207
  8805.404  8805.340  0.500  1.173682  121.329  165.802  51.2703
  8810.679  8810.710  0.500  1.171760  121.176  165.701  51.3377
  8816.054  8816.090  0.500  1.169876  121.034  165.612  51.4068
  8821.467  8821.500  0.500  1.168000  120.872  165.481  51.4627
  8826.919  8826.920  0.500  1.166071  120.731  165.4  51.5367
  8832.395  8832.370  0.500  1.164173  120.57  165.29  51.6004
  8837.858  8837.830  0.500  1.162298  120.376  165.119  51.6437
  8843.288  8843.310  0.500  1.160206  120.257  165.066  51.7351
  8848.788  8848.810  0.500  1.158352  120.101  164.975  51.8026
  8854.302  8854.330  0.500  1.156553  119.928  164.844  51.8548
  8859.834  8859.870  0.500  1.154613  119.773  164.752  51.9264
  8865.382  8865.420  0.500  1.152726  119.564  164.548  51.96
  8870.968  8871.000  0.500  1.150787  119.467  164.536  52.0572
  8876.572  8876.600  0.500  1.148748  119.268  164.38  52.114
  8882.183  8882.210  0.500  1.146724  119.066  164.201  52.1628
  8887.818  8887.850  0.500  1.144877  118.953  164.154  52.2443
  8893.464  8893.500  0.500  1.142902  118.757  163.982  52.2927
  8899.138  8899.170  0.500  1.140912  118.609  163.904  52.3718
  8904.836  8904.860  0.500  1.138999  118.375  163.703  52.4079