File: xdidata/Data/Eu/Eu-L1-Eu2Ti2O7.xdi
# XDI/1.0 BlueSky/1.10.0 BMM/2023-1.0-py310-tiled
# Beamline.name: BMM (06BM) -- Beamline for Materials Measurement (NIST)
# Beamline.xray_source: NSLS-II three-pole wiggler
# Beamline.collimation: paraboloid mirror, 5 nm Rh on 30 nm Pt
# Beamline.focusing: not in use
# Beamline.harmonic_rejection: flat mirror, Pt stripe, pitch = 7.0 mrad relative to beam
# Beamline.software: Bluesky 1.10.0, Ophyd 1.7.0, DataBroker 2.0.0b13, Python 3.10.8, 2023-1.0-py310-tiled
# Detector.I0: 10 cm N2
# Detector.I1: 25 cm N2
# Detector.I2: 25 cm N2
# Element.symbol: Eu
# Element.edge: L1
# Element.reference: Eu
# Element.reference_material: Eu2O3
# Facility.name: NSLS-II
# Facility.energy: 3.0
# Facility.current: 399.5
# Facility.mode: top-off
# Facility.GUP: 123456
# Facility.SAF: 301027
# Facility.cycle: 2023-2
# Mono.name: Si(111)
# Mono.d_spacing: 3.13519
# Mono.encoder_resolution: 0.0000050 deg/ct
# Mono.angle_offset: 16.0754 deg
# Mono.scan_mode: pseudo channel cut
# Mono.scan_type: step
# Mono.direction: forward in energy
# Sample.name: Eu2Ti2O7
# Sample.prep: powder on tape
# Sample.x: 123.848 mm
# Sample.y: 114.690 mm
# Sample.SDD_position: 205.000 mm
# Scan.experimenters: Bruce Ravel
# Scan.edge_energy: 8052.0
# Scan.start_time: 2023-05-08T21:09:57
# Scan.end_time: 2023-05-08T21:15:50
# Scan.transient_id: 75615
# Scan.uid: a11347a3-585f-473e-94f1-571af7eb0034
# Scan.plot_hint: ln(I0/It)  --  ln($5/$6)
# Column.1: energy eV
# Column.2: requested_energy eV
# Column.3: measurement_time seconds
# Column.4: xmu
# Column.5: I0 nA
# Column.6: It nA
# Column.7: Ir nA
# ///////////
# material made by Fatih Dogan
# -----------
# energy  requested_energy  measurement_time  xmu  I0  It  Ir
  7852.003  7852.000  0.500  0.746211  135.709  64.3476  17.3246
  7862.015  7862.000  0.500  0.741894  135.49  64.5218  17.4249
  7872.051  7872.000  0.500  0.737655  135.323  64.7161  17.5438
  7882.060  7882.000  0.500  0.732656  135.167  64.9654  17.6918
  7892.061  7892.000  0.500  0.726895  135.009  65.2642  17.857
  7902.046  7902.000  0.500  0.721921  134.745  65.4618  17.9926
  7912.038  7912.000  0.500  0.717629  134.543  65.6444  18.1143
  7922.034  7922.000  0.500  0.713316  134.329  65.8233  18.2329
  7932.017  7932.000  0.500  0.708716  134.065  65.9972  18.3585
  7942.028  7942.000  0.500  0.703547  134.071  66.3421  18.5345
  7952.022  7952.000  0.500  0.698232  133.571  66.447  18.6401
  7962.021  7962.000  0.500  0.693188  133.492  66.7432  18.7982
  7972.021  7972.000  0.500  0.688844  133.308  66.9413  18.9219
  7982.016  7982.000  0.500  0.684412  132.999  67.0829  19.0299
  7992.019  7992.000  0.500  0.680139  132.844  67.2918  19.1637
  8002.018  8002.000  0.500  0.675693  132.563  67.4483  19.2821
  8011.979  8012.000  0.500  0.671185  132.583  67.7636  19.4497
  8021.972  8022.000  0.500  0.666669  132.208  67.8778  19.5599
  8023.981  8024.000  0.500  0.665917  132.213  67.9316  19.587
  8025.976  8026.000  0.500  0.665094  132.129  67.944  19.6048
  8027.985  8028.000  0.500  0.664352  132.117  67.9882  19.6322
  8029.987  8030.000  0.500  0.663544  132.053  68.0105  19.6524
  8031.984  8032.000  0.500  0.662433  132.008  68.0628  19.6797
  8033.985  8034.000  0.500  0.661675  131.949  68.0837  19.6987
  8035.988  8036.000  0.500  0.660895  131.905  68.1143  19.7176
  8037.988  8038.000  0.500  0.660322  131.828  68.1134  19.7283
  8039.987  8040.000  0.500  0.659717  131.78  68.13  19.7434
  8041.984  8042.000  0.500  0.659071  131.716  68.1407  19.7523
  8042.471  8042.500  0.500  0.659167  131.701  68.1265  19.7515
  8042.972  8043.000  0.500  0.659098  131.672  68.116  19.7504
  8043.473  8043.500  0.500  0.658689  131.655  68.1351  19.7537
  8043.974  8044.000  0.500  0.658762  132.005  68.3115  19.8089
  8044.478  8044.500  0.500  0.658506  132.151  68.4048  19.8354
  8044.979  8045.000  0.500  0.658515  132.123  68.3892  19.8314
  8045.474  8045.500  0.500  0.658415  132.11  68.3895  19.8307
  8045.981  8046.000  0.500  0.658272  132.098  68.3932  19.8309
  8046.480  8046.500  0.500  0.658264  132.091  68.3898  19.83
  8046.981  8047.000  0.500  0.658416  132.041  68.3535  19.8221
  8047.480  8047.500  0.500  0.658430  132.056  68.3605  19.8208
  8047.981  8048.000  0.500  0.658486  132.027  68.3418  19.814
  8048.483  8048.500  0.500  0.658501  131.879  68.2644  19.7878
  8048.984  8049.000  0.500  0.658641  131.988  68.3109  19.7977
  8049.489  8049.500  0.500  0.658601  131.986  68.3127  19.7926
  8049.991  8050.000  0.500  0.658845  131.957  68.2811  19.7792
  8050.490  8050.500  0.500  0.659132  131.955  68.2605  19.7661
  8050.989  8051.000  0.500  0.659475  131.912  68.2148  19.7457
  8051.491  8051.500  0.500  0.659625  131.868  68.1815  19.7258
  8051.993  8052.000  0.500  0.660069  131.875  68.1552  19.7067
  8052.492  8052.500  0.500  0.660719  131.853  68.0996  19.676
  8052.986  8053.000  0.500  0.661403  131.814  68.0328  19.6366
  8053.488  8053.500  0.500  0.662192  131.793  67.9684  19.5938
  8053.988  8054.000  0.500  0.663470  131.75  67.8593  19.5336
  8054.493  8054.500  0.500  0.664607  131.712  67.7628  19.4731
  8054.995  8055.000  0.500  0.665923  131.68  67.6572  19.4108
  8055.501  8055.500  0.500  0.667205  131.626  67.5428  19.3428
  8056.000  8056.000  0.500  0.668524  131.548  67.4137  19.2751
  8056.500  8056.500  0.500  0.669985  131.4  67.2394  19.1946
  8056.992  8057.000  0.500  0.671641  131.096  66.9729  19.0929
  8057.497  8057.500  0.500  0.672895  130.348  66.5075  18.9329
  8057.994  8058.000  0.500  0.673938  127.623  65.0492  18.4932
  8058.495  8058.500  0.500  0.675616  125.918  64.0725  18.1888
  8058.986  8059.000  0.500  0.677262  127.845  64.9462  18.4109
  8059.492  8059.500  0.500  0.679139  131.024  66.436  18.802
  8059.990  8060.000  0.500  0.680790  131.88  66.76  18.8638
  8060.504  8060.500  0.500  0.682358  131.927  66.6791  18.8095
  8060.999  8061.000  0.500  0.684099  131.917  66.558  18.7418
  8061.499  8061.500  0.500  0.686113  131.853  66.3917  18.6548
  8061.997  8062.000  0.500  0.688243  131.834  66.2411  18.5682
  8062.503  8062.500  0.500  0.690430  131.819  66.0888  18.4784
  8062.993  8063.000  0.500  0.692575  131.795  65.9354  18.3839
  8063.493  8063.500  0.500  0.694751  131.769  65.7788  18.2872
  8063.989  8064.000  0.500  0.696926  131.715  65.6089  18.1857
  8064.492  8064.500  0.500  0.699454  131.631  65.4016  18.0695
  8064.993  8065.000  0.500  0.702122  131.679  65.2512  17.97
  8065.500  8065.500  0.500  0.704878  131.618  65.0413  17.8516
  8065.998  8066.000  0.500  0.707767  131.618  64.8539  17.7502
  8066.496  8066.500  0.500  0.710544  131.568  64.6493  17.6455
  8066.995  8067.000  0.500  0.713513  131.538  64.4431  17.5481
  8067.501  8067.500  0.500  0.716437  131.476  64.2247  17.4543
  8068.003  8068.000  0.500  0.718775  131.411  64.0427  17.377
  8068.499  8068.500  0.500  0.720574  131.263  63.8561  17.3043
  8068.992  8069.000  0.500  0.721980  130.867  63.5739  17.2136
  8069.496  8069.500  0.500  0.722907  129.04  62.628  16.9481
  8069.995  8070.000  0.500  0.723490  126.041  61.137  16.5414
  8070.499  8070.500  0.500  0.723514  127.181  61.6887  16.6877
  8071.004  8071.000  0.500  0.723103  130.241  63.1985  17.0952
  8071.500  8071.500  0.500  0.722238  131.442  63.8365  17.2738
  8072.002  8072.000  0.500  0.721208  131.519  63.9398  17.3069
  8072.503  8072.500  0.500  0.719713  131.502  64.0274  17.3382
  8072.997  8073.000  0.500  0.718413  131.473  64.0965  17.3661
  8073.499  8073.500  0.500  0.716977  131.48  64.1917  17.4011
  8073.998  8074.000  0.500  0.715255  131.446  64.2858  17.4336
  8074.498  8074.500  0.500  0.713670  131.415  64.3725  17.4684
  8074.994  8075.000  0.500  0.712214  131.392  64.455  17.4988
  8075.499  8075.500  0.500  0.710466  131.376  64.5604  17.5382
  8075.999  8076.000  0.500  0.708955  131.332  64.6363  17.5687
  8076.507  8076.500  0.500  0.707149  131.269  64.7219  17.6031
  8077.001  8077.000  0.500  0.705518  131.192  64.7894  17.6308
  8077.992  8077.990  0.500  0.702932  130.843  64.7843  17.6516
  8078.995  8078.990  0.500  0.700976  126.674  62.8431  17.1474
  8080.023  8080.010  0.500  0.700031  128.937  64.0263  17.4943
  8081.068  8081.060  0.500  0.699782  131.249  65.1906  17.8449
  8082.132  8082.120  0.500  0.700014  131.25  65.176  17.8793
  8083.198  8083.200  0.500  0.700194  131.239  65.1586  17.9155
  8084.308  8084.300  0.500  0.699650  131.181  65.1655  17.9612
  8085.435  8085.420  0.500  0.698725  131.133  65.202  18.0163
  8086.571  8086.560  0.500  0.697294  131.061  65.2593  18.0732
  8087.713  8087.710  0.500  0.695404  130.974  65.3396  18.1384
  8088.900  8088.890  0.500  0.693128  130.809  65.4056  18.1904
  8090.090  8090.080  0.500  0.690829  130.35  65.3262  18.1993
  8091.312  8091.300  0.500  0.688760  125.356  62.9538  17.5644
  8092.533  8092.530  0.500  0.686680  130.316  65.581  18.317
  8093.789  8093.780  0.500  0.684895  131.153  66.1199  18.4908
  8095.062  8095.050  0.500  0.683527  131.044  66.1554  18.5206
  8096.341  8096.340  0.500  0.682503  131.028  66.2151  18.5494
  8097.657  8097.650  0.500  0.681849  131.021  66.2549  18.5663
  8098.993  8098.980  0.500  0.681769  130.972  66.2354  18.5641
  8100.347  8100.330  0.500  0.682021  130.904  66.1841  18.5505
  8101.706  8101.700  0.500  0.682684  130.866  66.121  18.5259
  8103.091  8103.080  0.500  0.683500  130.803  66.0355  18.4952
  8104.502  8104.490  0.500  0.684542  130.768  65.949  18.4619
  8105.914  8105.910  0.500  0.685633  130.742  65.8641  18.4291
  8107.368  8107.350  0.500  0.686721  130.68  65.7611  18.391
  8108.820  8108.810  0.500  0.687669  130.647  65.6824  18.3594
  8110.298  8110.290  0.500  0.688267  130.65  65.6447  18.3403
  8111.799  8111.790  0.500  0.688422  130.575  65.5969  18.3166
  8113.328  8113.310  0.500  0.687542  130.524  65.6291  18.3185
  8114.859  8114.850  0.500  0.686522  130.502  65.6845  18.3293
  8116.418  8116.410  0.500  0.685036  130.462  65.762  18.3459
  8117.994  8117.980  0.500  0.683295  130.426  65.8585  18.3744
  8119.594  8119.580  0.500  0.681933  130.348  65.9091  18.3916
  8121.200  8121.190  0.500  0.680737  130.282  65.9547  18.4109
  8122.846  8122.830  0.500  0.679252  130.311  66.0673  18.4556
  8124.485  8124.480  0.500  0.678188  130.249  66.1063  18.4796
  8126.164  8126.150  0.500  0.677134  130.212  66.1568  18.5158
  8127.852  8127.840  0.500  0.676187  130.182  66.2046  18.5526
  8129.557  8129.550  0.500  0.675584  130.146  66.2261  18.5864
  8131.292  8131.280  0.500  0.674766  130.105  66.2592  18.6236
  8133.042  8133.030  0.500  0.673989  130.021  66.2679  18.6553
  8134.803  8134.790  0.500  0.673211  129.998  66.3076  18.6924
  8136.591  8136.580  0.500  0.672401  129.953  66.3388  18.7227
  8138.392  8138.380  0.500  0.671800  129.885  66.3439  18.7459
  8140.221  8140.210  0.500  0.670936  129.814  66.3648  18.7727
  8142.060  8142.050  0.500  0.670171  129.75  66.3828  18.7949
  8143.922  8143.910  0.500  0.669419  129.692  66.4033  18.8153
  8145.805  8145.790  0.500  0.668636  129.692  66.4554  18.8453
  8147.700  8147.690  0.500  0.667595  129.635  66.4949  18.8679
  8149.622  8149.610  0.500  0.666421  129.484  66.4954  18.8814
  8151.565  8151.550  0.500  0.665433  129.497  66.5681  18.9168
  8153.526  8153.510  0.500  0.664531  129.449  66.6037  18.9415
  8155.496  8155.480  0.500  0.663601  129.411  66.646  18.9732
  8157.481  8157.480  0.500  0.662444  129.272  66.6512  18.9907
  8159.505  8159.490  0.500  0.661137  129.372  66.7901  19.0494
  8161.524  8161.520  0.500  0.660070  129.304  66.8264  19.0792
  8163.601  8163.580  0.500  0.658643  129.192  66.864  19.1101
  8165.653  8165.650  0.500  0.657535  129.165  66.9241  19.1464
  8167.755  8167.740  0.500  0.656531  129.131  66.9733  19.1754
  8169.858  8169.850  0.500  0.655613  129.092  67.0146  19.2037
  8171.996  8171.980  0.500  0.654931  129.008  67.0168  19.2167
  8174.128  8174.120  0.500  0.654055  128.963  67.0519  19.2416
  8176.309  8176.290  0.500  0.653268  128.903  67.0737  19.2618
  8178.488  8178.480  0.500  0.652717  128.849  67.0826  19.2755
  8180.697  8180.680  0.500  0.652100  128.783  67.0894  19.2893
  8182.907  8182.900  0.500  0.651309  128.702  67.1006  19.3
  8185.168  8185.150  0.500  0.650454  128.642  67.1268  19.3167
  8187.426  8187.410  0.500  0.649344  128.655  67.2081  19.3491
  8189.704  8189.690  0.500  0.648208  128.568  67.2387  19.3699
  8192.008  8191.990  0.500  0.646887  128.514  67.2995  19.4029
  8194.320  8194.310  0.500  0.645457  128.434  67.3535  19.4393
  8196.670  8196.650  0.500  0.644306  128.396  67.4114  19.4754
  8199.013  8199.000  0.500  0.643010  128.313  67.4551  19.5076
  8201.392  8201.380  0.500  0.641997  128.297  67.5149  19.548
  8203.781  8203.770  0.500  0.641028  128.201  67.5301  19.5757
  8206.200  8206.190  0.500  0.639983  128.181  67.5902  19.6154
  8208.636  8208.620  0.500  0.638779  128.068  67.6116  19.6458
  8211.084  8211.070  0.500  0.637251  128.04  67.7003  19.6961
  8213.574  8213.550  0.500  0.636053  127.936  67.7267  19.7303
  8216.052  8216.040  0.500  0.634995  127.866  67.761  19.7622
  8218.562  8218.550  0.500  0.634024  127.829  67.8075  19.7926
  8221.086  8221.070  0.500  0.633119  127.778  67.8418  19.8234
  8223.632  8223.620  0.500  0.632222  127.713  67.8679  19.8488
  8226.211  8226.190  0.500  0.631415  127.636  67.8819  19.8672
  8228.778  8228.770  0.500  0.630574  127.575  67.9063  19.891
  8231.401  8231.380  0.500  0.629539  127.54  67.9579  19.9217
  8234.017  8234.000  0.500  0.628505  127.47  67.9909  19.9512
  8236.661  8236.650  0.500  0.627421  127.412  68.034  19.9795
  8239.345  8239.310  0.500  0.626181  127.322  68.0702  20.0092
  8241.984  8241.990  0.500  0.624906  127.159  68.0695  20.0301
  8244.695  8244.690  0.500  0.623698  127.154  68.1491  20.0752
  8247.419  8247.410  0.500  0.622054  127.069  68.2158  20.1173
  8250.156  8250.150  0.500  0.620729  127.016  68.2778  20.1577
  8252.919  8252.900  0.500  0.619225  126.922  68.3297  20.1949
  8255.701  8255.680  0.500  0.618262  126.868  68.3665  20.233
  8258.489  8258.470  0.500  0.616830  126.821  68.4392  20.2777
  8261.304  8261.290  0.500  0.615432  126.689  68.4638  20.3084
  8264.127  8264.120  0.500  0.614218  126.643  68.5221  20.3468
  8266.984  8266.970  0.500  0.612930  126.533  68.5509  20.3784
  8269.864  8269.850  0.500  0.611637  126.483  68.6124  20.4193
  8272.749  8272.740  0.500  0.610537  126.398  68.6414  20.4471
  8275.669  8275.650  0.500  0.609335  126.327  68.6856  20.4783
  8278.584  8278.570  0.500  0.608031  124.759  67.9214  20.269
  8281.534  8281.520  0.500  0.606922  126.104  68.73  20.5312
  8284.510  8284.490  0.500  0.605846  126.021  68.7588  20.5601
  8287.485  8287.470  0.500  0.604664  125.994  68.8251  20.6013
  8290.498  8290.480  0.500  0.603433  125.929  68.8747  20.6421
  8293.524  8293.500  0.500  0.602182  125.809  68.8948  20.6712
  8296.559  8296.550  0.500  0.600727  125.728  68.9508  20.7147
  8299.631  8299.610  0.500  0.599503  125.961  69.1634  20.8033
  8302.700  8302.690  0.500  0.598086  126.054  69.3125  20.8726
  8305.798  8305.790  0.500  0.596786  125.98  69.362  20.9154
  8308.916  8308.910  0.500  0.595283  125.915  69.4304  20.9614
  8312.063  8312.050  0.500  0.593701  125.81  69.4821  21.0017
  8315.213  8315.200  0.500  0.592291  125.717  69.5287  21.0446
  8318.394  8318.380  0.500  0.590821  125.644  69.5908  21.0881
  8321.576  8321.570  0.500  0.589396  125.518  69.62  21.1228
  8324.798  8324.790  0.500  0.588151  125.463  69.6763  21.1655
  8328.029  8328.020  0.500  0.587025  125.397  69.7179  21.2026
  8331.271  8331.270  0.500  0.585726  125.262  69.7338  21.232
  8334.555  8334.550  0.500  0.584469  125.001  69.6757  21.2394
  8337.853  8337.840  0.500  0.583201  124.903  69.7095  21.2759
  8341.157  8341.150  0.500  0.581841  124.788  69.7402  21.3079
  8344.472  8344.470  0.500  0.580472  124.626  69.745  21.3348
  8347.836  8347.820  0.500  0.578978  124.473  69.7637  21.3671
  8351.205  8351.190  0.500  0.577668  124.207  69.7056  21.3744
  8354.576  8354.570  0.500  0.576403  124.022  69.6901  21.3994
  8357.990  8357.980  0.500  0.574830  123.968  69.7693  21.4474
  8361.415  8361.400  0.500  0.573310  123.913  69.8444  21.4948
  8364.858  8364.850  0.500  0.571643  123.843  69.9214  21.5481
  8368.319  8368.310  0.500  0.570041  123.751  69.9817  21.5984
  8371.798  8371.790  0.500  0.568576  123.715  70.0636  21.6513
  8375.302  8375.290  0.500  0.566997  123.576  70.0953  21.6923
  8378.814  8378.810  0.500  0.565449  123.514  70.1691  21.7396
  8382.362  8382.350  0.500  0.563885  123.411  70.22  21.7825
  8385.911  8385.900  0.500  0.562488  123.205  70.2012  21.804
  8389.489  8389.480  0.500  0.561111  123.077  70.2249  21.8352
  8393.086  8393.080  0.500  0.559744  122.983  70.267  21.8759
  8396.711  8396.690  0.500  0.558401  122.855  70.2882  21.9083
  8400.332  8400.320  0.500  0.556837  122.715  70.3179  21.9469
  8403.996  8403.980  0.500  0.555356  122.642  70.3803  21.9934
  8407.670  8407.650  0.500  0.553894  122.569  70.4413  22.0423
  8411.359  8411.340  0.500  0.552615  122.469  70.4741  22.0812
  8415.063  8415.050  0.500  0.551314  122.344  70.4939  22.1175
  8418.798  8418.780  0.500  0.549623  122.181  70.5191  22.1548
  8422.537  8422.520  0.500  0.548013  122.152  70.616  22.2183
  8426.312  8426.290  0.500  0.546459  122.036  70.6585  22.2612
  8430.091  8430.080  0.500  0.544886  121.925  70.7051  22.3069
  8433.901  8433.880  0.500  0.543193  121.838  70.7743  22.3611
  8437.730  8437.710  0.500  0.541535  121.699  70.8114  22.4044
  8441.565  8441.550  0.500  0.539837  121.597  70.8722  22.4546
  8445.420  8445.410  0.500  0.538386  121.477  70.905  22.4973
  8449.314  8449.290  0.500  0.536822  121.369  70.9528  22.5448
  8453.213  8453.190  0.500  0.535285  121.252  70.9931  22.5892
  8457.133  8457.110  0.500  0.533581  121.099  71.0245  22.6308
  8461.073  8461.050  0.500  0.532024  120.983  71.0669  22.675
  8465.031  8465.010  0.500  0.530335  120.869  71.1204  22.7245
  8468.997  8468.980  0.500  0.528745  120.741  71.1577  22.7678
  8473.006  8472.980  0.500  0.527317  120.607  71.1808  22.8084
  8477.014  8476.990  0.500  0.525797  120.444  71.1923  22.8411
  8481.046  8481.030  0.500  0.524475  120.329  71.2184  22.8818
  8485.092  8485.080  0.500  0.522818  120.191  71.2547  22.9243
  8489.173  8489.150  0.500  0.521187  120.065  71.2967  22.9694
  8493.264  8493.240  0.500  0.519469  119.919  71.3324  23.0128
  8497.381  8497.350  0.500  0.517816  119.67  71.3019  23.0366
  8501.508  8501.480  0.500  0.516280  119.622  71.383  23.0957
  8505.643  8505.630  0.500  0.514480  119.509  71.4436  23.1479
  8509.812  8509.790  0.500  0.512796  119.326  71.4545  23.1838
  8514.008  8513.980  0.500  0.511140  119.164  71.4756  23.2279
  8518.195  8518.180  0.500  0.509491  118.956  71.4688  23.2575
  8522.440  8522.410  0.500  0.507755  118.734  71.4596  23.2888
  8526.673  8526.650  0.500  0.506071  118.152  71.2289  23.247
  8530.927  8530.910  0.500  0.504501  102.871  62.1144  20.303
  8535.216  8535.190  0.500  0.502823  118.738  71.8155  23.5071
  8539.515  8539.490  0.500  0.501296  118.646  71.8694  23.5612
  8543.832  8543.810  0.500  0.499729  118.464  71.8712  23.5964
  8548.172  8548.150  0.500  0.498181  118.26  71.8589  23.6261
  8552.529  8552.510  0.500  0.496176  118.086  71.8973  23.671
  8556.913  8556.890  0.500  0.494622  117.944  71.9222  23.7134
  8561.301  8561.280  0.500  0.493113  117.805  71.9464  23.7586
  8565.729  8565.700  0.500  0.491420  117.614  71.9513  23.7958
  8570.174  8570.130  0.500  0.489757  117.492  71.9961  23.8452
  8574.607  8574.580  0.500  0.487999  117.311  72.0116  23.8848
  8579.075  8579.050  0.500  0.486230  117.163  72.0483  23.936
  8583.553  8583.540  0.500  0.484524  116.996  72.0682  23.9767
  8588.070  8588.050  0.500  0.482734  116.789  72.0696  24.0152
  8592.609  8592.580  0.500  0.480869  105.162  65.0162  21.701
  8597.152  8597.130  0.500  0.479352  115.685  71.6305  23.9447