File: xdidata/Data/Eu/Eu-L3-Eu2O3-c.xdi
# XDI/1.0 BlueSky/1.10.0 BMM/2023-1.0-py310-tiled
# Beamline.name: BMM (06BM) -- Beamline for Materials Measurement (NIST)
# Beamline.xray_source: NSLS-II three-pole wiggler
# Beamline.collimation: paraboloid mirror, 5 nm Rh on 30 nm Pt
# Beamline.focusing: not in use
# Beamline.harmonic_rejection: flat mirror, Si stripe, pitch = 7.0 mrad relative to beam
# Beamline.software: Bluesky 1.10.0, Ophyd 1.7.0, DataBroker 2.0.0b13, Python 3.10.8, 2023-1.0-py310-tiled
# Detector.I0: 10 cm N2
# Detector.I1: 25 cm N2
# Detector.I2: 25 cm N2
# Element.symbol: Eu
# Element.edge: L3
# Element.reference: Eu
# Element.reference_material: Eu2O3
# Facility.name: NSLS-II
# Facility.energy: 3.0
# Facility.current: 400.6
# Facility.mode: top-off
# Facility.GUP: 123456
# Facility.SAF: 301027
# Facility.cycle: 2023-2
# Mono.name: Si(111)
# Mono.d_spacing: 3.13519
# Mono.encoder_resolution: 0.0000050 deg/ct
# Mono.angle_offset: 16.0754 deg
# Mono.scan_mode: pseudo channel cut
# Mono.scan_type: step
# Mono.direction: forward in energy
# Sample.name: cubic Eu2O3
# Sample.prep: Powder in PEG pellet
# Sample.x: 123.848 mm
# Sample.y: 114.690 mm
# Sample.SDD_position: 205.000 mm
# Scan.experimenters: Bruce Ravel
# Scan.edge_energy: 6976.9
# Scan.start_time: 2023-05-08T17:47:38
# Scan.end_time: 2023-05-08T17:53:56
# Scan.transient_id: 75461
# Scan.uid: 5d66c1c3-85af-421d-b804-066f6f0d0a01
# Scan.plot_hint: ln(I0/It)  --  ln($5/$6)
# Column.1: energy eV
# Column.2: requested_energy eV
# Column.3: measurement_time seconds
# Column.4: xmu
# Column.5: I0 nA
# Column.6: It nA
# Column.7: Ir nA
# ///////////
# sample courtesy Martin Stennett, University of Sheffield
# -----------
# energy  requested_energy  measurement_time  xmu  I0  It  Ir
  6776.906  6776.900  0.500  1.808529  151.799  24.8791  6.085219
  6786.912  6786.900  0.500  1.797661  151.961  25.1779  6.196481
  6796.911  6796.900  0.500  1.787292  151.044  25.2867  6.262593
  6806.922  6806.900  0.500  1.776723  151.886  25.6979  6.403864
  6816.891  6816.900  0.500  1.766221  151.924  25.9756  6.512820
  6826.901  6826.900  0.500  1.755709  151.816  26.2315  6.617222
  6836.900  6836.900  0.500  1.745575  152.099  26.548  6.737985
  6846.912  6846.900  0.500  1.735112  151.755  26.7666  6.834856
  6856.916  6856.900  0.500  1.724884  152.005  27.0863  6.958370
  6866.910  6866.900  0.500  1.715153  152.191  27.3846  7.076545
  6876.914  6876.900  0.500  1.705127  152.37  27.6932  7.199274
  6886.918  6886.900  0.500  1.694912  152.47  27.9959  7.320541
  6896.909  6896.900  0.500  1.684972  152.575  28.295  7.442545
  6906.910  6906.900  0.500  1.675434  152.607  28.5722  7.558143
  6916.906  6916.900  0.500  1.666269  152.515  28.8178  7.665808
  6926.905  6926.900  0.500  1.657801  152.463  29.053  7.771663
  6936.879  6936.900  0.500  1.650535  152.51  29.2739  7.871076
  6946.883  6946.900  0.500  1.646463  152.509  29.3932  7.935582
  6948.882  6948.900  0.500  1.646301  152.49  29.3943  7.940793
  6950.883  6950.900  0.500  1.646787  152.485  29.3789  7.940074
  6952.881  6952.900  0.500  1.647345  152.5  29.3654  7.940278
  6954.888  6954.900  0.500  1.648392  152.495  29.3338  7.934086
  6956.886  6956.900  0.500  1.650947  152.485  29.2569  7.912328
  6958.890  6958.900  0.500  1.654215  152.507  29.1658  7.884408
  6960.890  6960.900  0.500  1.658385  152.511  29.0451  7.846447
  6962.896  6962.900  0.500  1.665459  152.51  28.8403  7.779165
  6964.893  6964.900  0.500  1.675697  152.51  28.5465  7.681363
  6966.893  6966.900  0.500  1.692555  152.516  28.0704  7.520258
  6967.386  6967.400  0.500  1.698640  152.523  27.9014  7.463238
  6967.881  6967.900  0.500  1.705225  152.508  27.7155  7.399563
  6968.381  6968.400  0.500  1.712609  152.5  27.5102  7.328469
  6968.882  6968.900  0.500  1.721780  152.496  27.2582  7.243281
  6969.384  6969.400  0.500  1.732004  152.497  26.9812  7.148723
  6969.881  6969.900  0.500  1.742757  152.502  26.6935  7.051137
  6970.387  6970.400  0.500  1.752902  152.517  26.4268  6.959751
  6970.885  6970.900  0.500  1.763338  152.509  26.151  6.868039
  6971.388  6971.400  0.500  1.775264  152.506  25.8404  6.763028
  6971.888  6971.900  0.500  1.790039  152.495  25.4596  6.635080
  6972.384  6972.400  0.500  1.808077  152.474  25.001  6.481530
  6972.886  6972.900  0.500  1.830783  152.472  24.4395  6.295424
  6973.386  6973.400  0.500  1.859112  152.469  23.7564  6.068679
  6973.886  6973.900  0.500  1.893301  152.475  22.9587  5.804873
  6974.391  6974.400  0.500  1.930724  152.468  22.1145  5.530964
  6974.889  6974.900  0.500  1.972415  152.465  21.2109  5.241519
  6975.393  6975.400  0.500  2.021438  152.466  20.1964  4.919742
  6975.890  6975.900  0.500  2.080198  152.461  19.0433  4.558764
  6976.388  6976.400  0.500  2.150134  152.456  17.7564  4.163618
  6976.889  6976.900  0.500  2.235919  152.441  16.295  3.726210
  6977.392  6977.400  0.500  2.345236  152.435  14.607  3.232569
  6977.892  6977.900  0.500  2.482630  152.429  12.7314  2.704347
  6978.399  6978.400  0.500  2.650208  152.415  10.7661  2.173280
  6978.894  6978.900  0.500  2.847309  152.405  8.839499  1.680057
  6979.397  6979.400  0.500  3.083273  152.412  6.981837  1.232189
  6979.890  6979.900  0.500  3.336784  152.405  5.418162  0.880809
  6980.389  6980.400  0.500  3.577732  152.411  4.258195  0.637715
  6980.892  6980.900  0.500  3.789783  152.407  3.444465  0.478068
  6981.393  6981.400  0.500  3.969479  152.401  2.877836  0.374306
  6981.893  6981.900  0.500  4.111178  152.4  2.497597  0.308135
  6982.398  6982.400  0.500  4.207636  152.402  2.267973  0.269731
  6982.894  6982.900  0.500  4.251390  152.403  2.170897  0.254453
  6983.397  6983.400  0.500  4.237740  152.4  2.200679  0.259955
  6983.895  6983.900  0.500  4.164088  152.389  2.368715  0.288320
  6984.390  6984.400  0.500  4.042147  152.39  2.675927  0.341162
  6984.896  6984.900  0.500  3.889793  152.385  3.116220  0.420043
  6985.398  6985.400  0.500  3.719299  152.382  3.695421  0.528225
  6985.898  6985.900  0.500  3.542531  152.386  4.410035  0.668596
  6986.402  6986.400  0.500  3.375235  152.375  5.212762  0.834719
  6986.894  6986.900  0.500  3.230323  152.367  6.025301  1.010144
  6987.398  6987.400  0.500  3.100256  152.371  6.862415  1.198896
  6987.896  6987.900  0.500  2.988318  152.366  7.674982  1.387954
  6988.390  6988.400  0.500  2.896550  152.372  8.412951  1.565125
  6988.895  6988.900  0.500  2.823082  152.373  9.054381  1.723159
  6989.399  6989.400  0.500  2.762700  152.374  9.618017  1.865003
  6989.898  6989.900  0.500  2.713906  152.366  10.0984  1.987661
  6990.404  6990.400  0.500  2.674354  152.359  10.5053  2.092774
  6990.901  6990.900  0.500  2.644391  152.354  10.8245  2.175451
  6991.398  6991.400  0.500  2.619900  152.355  11.093  2.247015
  6991.896  6991.900  0.500  2.599831  152.343  11.3169  2.306760
  6992.397  6992.400  0.500  2.582800  152.342  11.5113  2.358523
  6992.896  6992.900  0.500  2.568760  152.338  11.6737  2.401962
  6993.401  6993.400  0.500  2.557090  152.33  11.8102  2.438638
  6993.900  6993.900  0.500  2.547015  152.317  11.9287  2.470205
  6994.407  6994.400  0.500  2.539032  152.317  12.0243  2.497539
  6994.905  6994.900  0.500  2.533392  152.307  12.0916  2.516341
  6995.402  6995.400  0.500  2.529814  152.304  12.1346  2.528236
  6995.903  6995.900  0.500  2.527520  152.307  12.1628  2.536558
  6996.394  6996.400  0.500  2.526767  152.31  12.1721  2.539924
  6996.896  6996.900  0.500  2.526847  152.298  12.1702  2.539731
  6997.401  6997.400  0.500  2.527522  152.303  12.1624  2.539098
  6997.899  6997.900  0.500  2.528528  152.3  12.1499  2.536994
  6998.401  6998.400  0.500  2.529251  152.272  12.1389  2.535549
  6998.900  6998.900  0.500  2.529693  152.291  12.1351  2.535887
  6999.400  6999.400  0.500  2.529708  152.277  12.1337  2.537075
  6999.892  6999.900  0.500  2.528477  152.281  12.1491  2.542538
  7000.394  7000.400  0.500  2.526781  152.279  12.1695  2.548834
  7000.900  7000.900  0.500  2.524448  152.269  12.1972  2.556648
  7001.402  7001.400  0.500  2.521955  152.266  12.2273  2.565509
  7001.903  7001.900  0.500  2.519030  152.261  12.2627  2.574890
  7002.889  7002.890  0.500  2.513715  152.537  12.3504  2.597249
  7003.892  7003.890  0.500  2.510214  152.811  12.416  2.612263
  7004.924  7004.910  0.500  2.511250  152.811  12.4031  2.607392
  7005.965  7005.960  0.500  2.518710  152.803  12.3103  2.580131
  7007.023  7007.020  0.500  2.533745  152.793  12.1258  2.527854
  7008.113  7008.100  0.500  2.555424  152.783  11.865  2.456493
  7009.209  7009.200  0.500  2.581617  152.774  11.5576  2.372464
  7010.328  7010.320  0.500  2.609923  152.766  11.2345  2.286280
  7011.469  7011.460  0.500  2.640080  152.764  10.9006  2.198020
  7012.622  7012.610  0.500  2.669444  152.767  10.5853  2.115766
  7013.805  7013.790  0.500  2.698120  152.761  10.2857  2.039536
  7014.990  7014.980  0.500  2.722950  152.748  10.0326  1.976044
  7016.214  7016.200  0.500  2.741175  152.758  9.852047  1.931736
  7017.436  7017.430  0.500  2.751717  152.757  9.748653  1.907515
  7018.687  7018.680  0.500  2.752337  152.748  9.742044  1.906894
  7019.960  7019.950  0.500  2.744071  152.728  9.821623  1.928290
  7021.241  7021.240  0.500  2.728556  152.732  9.975441  1.968491
  7022.563  7022.550  0.500  2.708728  152.719  10.1744  2.020064
  7023.889  7023.880  0.500  2.686255  152.704  10.4045  2.080749
  7025.239  7025.230  0.500  2.663376  152.699  10.645  2.144996
  7026.611  7026.600  0.500  2.641707  152.689  10.8775  2.208540
  7027.985  7027.980  0.500  2.622196  152.681  11.0913  2.266880
  7029.395  7029.390  0.500  2.605422  152.682  11.2789  2.318353
  7030.827  7030.810  0.500  2.590990  152.669  11.4419  2.363332
  7032.261  7032.250  0.500  2.579250  152.649  11.5755  2.400650
  7033.715  7033.710  0.500  2.569194  152.625  11.6906  2.433085
  7035.201  7035.190  0.500  2.561262  152.616  11.7831  2.459649
  7036.700  7036.690  0.500  2.554539  152.606  11.8618  2.481431
  7038.225  7038.210  0.500  2.549418  152.608  11.9228  2.499016
  7039.747  7039.750  0.500  2.545359  152.603  11.9709  2.511743
  7041.322  7041.310  0.500  2.542365  152.594  12.0061  2.522031
  7042.891  7042.880  0.500  2.540613  152.571  12.0254  2.527716
  7044.488  7044.480  0.500  2.540238  152.566  12.0295  2.529328
  7046.099  7046.090  0.500  2.541433  152.552  12.014  2.524913
  7047.737  7047.730  0.500  2.544151  152.542  11.9806  2.516900
  7049.392  7049.380  0.500  2.548776  152.523  11.9239  2.502002
  7051.061  7051.050  0.500  2.554742  152.513  11.8521  2.483463
  7052.753  7052.740  0.500  2.561596  152.516  11.7714  2.462466
  7054.460  7054.450  0.500  2.569091  152.517  11.6836  2.439966
  7056.194  7056.180  0.500  2.576231  152.509  11.5998  2.417830
  7057.937  7057.930  0.500  2.582773  152.498  11.5234  2.399169
  7059.710  7059.690  0.500  2.588682  152.5  11.4556  2.381972
  7061.490  7061.480  0.500  2.592954  152.502  11.407  2.370096
  7063.297  7063.280  0.500  2.595412  151.805  11.327  2.352070
  7065.114  7065.110  0.500  2.596382  152.371  11.3582  2.359250
  7066.969  7066.950  0.500  2.595689  152.394  11.3678  2.362564
  7068.821  7068.810  0.500  2.593558  152.351  11.3888  2.368697
  7070.710  7070.690  0.500  2.590320  152.024  11.4012  2.375190
  7072.598  7072.590  0.500  2.586540  152.323  11.4669  2.393193
  7074.528  7074.510  0.500  2.582484  152.142  11.4998  2.404119
  7076.467  7076.450  0.500  2.578813  152.157  11.5432  2.417302
  7078.428  7078.410  0.500  2.575095  152.256  11.5937  2.432246
  7080.390  7080.380  0.500  2.571948  152.267  11.6312  2.443760
  7082.394  7082.380  0.500  2.568538  151.9  11.6427  2.449242
  7084.402  7084.390  0.500  2.565634  152.078  11.6903  2.463514
  7086.434  7086.420  0.500  2.562890  152.158  11.7286  2.475081
  7088.494  7088.480  0.500  2.560072  152.166  11.7623  2.486929
  7090.567  7090.550  0.500  2.556709  152.144  11.8002  2.499488
  7092.647  7092.640  0.500  2.551930  152.107  11.8538  2.516185
  7094.761  7094.750  0.500  2.546315  152.102  11.9202  2.535628
  7096.900  7096.880  0.500  2.539519  152.085  12.0002  2.559434
  7099.024  7099.020  0.500  2.531984  152.077  12.0903  2.584444
  7101.210  7101.190  0.500  2.524029  152.057  12.1852  2.611639
  7103.370  7103.380  0.500  2.516252  152.034  12.2785  2.638142
  7105.576  7105.580  0.500  2.508792  152.016  12.369  2.664676
  7107.805  7107.800  0.500  2.502999  151.973  12.4374  2.685641
  7110.054  7110.050  0.500  2.500097  151.923  12.4694  2.696894
  7112.316  7112.310  0.500  2.499703  151.741  12.4594  2.695937
  7114.603  7114.590  0.500  2.502043  151.627  12.4209  2.688342
  7116.902  7116.890  0.500  2.505643  151.605  12.3744  2.676149
  7119.220  7119.210  0.500  2.508838  151.513  12.3275  2.664761
  7121.560  7121.550  0.500  2.511273  151.415  12.2896  2.655723
  7123.909  7123.900  0.500  2.514555  151.333  12.2427  2.644545
  7126.294  7126.280  0.500  2.517723  151.209  12.1939  2.632170
  7128.679  7128.670  0.500  2.520491  151.063  12.1485  2.621545
  7131.102  7131.090  0.500  2.523442  150.88  12.098  2.610289
  7133.533  7133.520  0.500  2.525329  150.805  12.0692  2.605428
  7135.979  7135.970  0.500  2.524757  150.794  12.0753  2.608691
  7138.459  7138.450  0.500  2.522062  150.785  12.1071  2.620156
  7140.951  7140.940  0.500  2.517672  150.802  12.1618  2.637571
  7143.456  7143.450  0.500  2.511338  150.813  12.2399  2.661192
  7145.983  7145.970  0.500  2.503283  150.799  12.3378  2.690283
  7148.533  7148.520  0.500  2.495790  150.809  12.4314  2.718509
  7151.093  7151.090  0.500  2.489241  150.798  12.5122  2.742888
  7153.682  7153.670  0.500  2.484127  150.787  12.5754  2.762600
  7156.294  7156.280  0.500  2.480402  150.761  12.6201  2.776749
  7158.915  7158.900  0.500  2.477831  150.753  12.652  2.787669
  7161.557  7161.550  0.500  2.475936  150.711  12.6725  2.796386
  7164.221  7164.210  0.500  2.474666  150.64  12.6825  2.800748
  7166.904  7166.890  0.500  2.473891  150.575  12.6869  2.805129
  7169.598  7169.590  0.500  2.472626  150.519  12.6983  2.810827
  7172.319  7172.310  0.500  2.470792  150.474  12.7178  2.818255
  7175.059  7175.050  0.500  2.468942  150.414  12.7362  2.826369
  7177.816  7177.800  0.500  2.466633  150.382  12.7629  2.836118
  7180.593  7180.580  0.500  2.463763  150.351  12.797  2.848178
  7183.382  7183.370  0.500  2.459911  150.302  12.8422  2.863118
  7186.198  7186.190  0.500  2.454661  150.252  12.9055  2.883564
  7189.030  7189.020  0.500  2.449022  150.253  12.9786  2.904864
  7191.885  7191.870  0.500  2.443818  147.944  12.8458  2.882008
  7194.763  7194.750  0.500  2.438894  150.013  13.0897  2.943118
  7197.653  7197.640  0.500  2.434423  150.023  13.1492  2.962949
  7200.556  7200.550  0.500  2.431027  149.966  13.189  2.977210
  7203.482  7203.470  0.500  2.428285  149.913  13.2205  2.988827
  7206.440  7206.420  0.500  2.426576  149.843  13.2369  2.996543
  7209.406  7209.390  0.500  2.425379  149.784  13.2475  3.002154
  7212.376  7212.370  0.500  2.424624  149.701  13.2502  3.006003
  7215.389  7215.380  0.500  2.423852  149.625  13.2538  3.009460
  7218.416  7218.400  0.500  2.423146  149.558  13.2572  3.012763
  7221.460  7221.450  0.500  2.422290  149.493  13.2628  3.017410
  7224.525  7224.510  0.500  2.420992  149.415  13.2731  3.023218
  7227.606  7227.590  0.500  2.418948  147.292  13.1112  2.990214
  7230.708  7230.690  0.500  2.415574  149.436  13.347  3.048698
  7233.819  7233.810  0.500  2.412074  149.359  13.387  3.063276
  7236.957  7236.950  0.500  2.407838  149.283  13.4369  3.080557
  7240.114  7240.100  0.500  2.403753  149.237  13.4877  3.098944
  7243.289  7243.280  0.500  2.399338  149.173  13.5416  3.117360
  7246.487  7246.470  0.500  2.394755  148.929  13.5816  3.133529
  7249.701  7249.690  0.500  2.390014  149.013  13.6538  3.156546
  7252.932  7252.920  0.500  2.385809  148.781  13.69  3.171622
  7256.185  7256.170  0.500  2.381190  149.07  13.7801  3.200051
  7259.462  7259.450  0.500  2.376591  148.83  13.8213  3.215329
  7262.752  7262.740  0.500  2.373135  147.25  13.7219  3.199012
  7266.057  7266.050  0.500  2.369795  148.339  13.8697  3.238244
  7269.377  7269.370  0.500  2.366980  149.237  13.993  3.272785
  7272.729  7272.720  0.500  2.364560  149.013  14.0058  3.279912
  7276.101  7276.090  0.500  2.362451  149.261  14.0588  3.297781
  7279.475  7279.470  0.500  2.359818  149.166  14.0869  3.308594
  7282.891  7282.880  0.500  2.356884  149.056  14.1179  3.321854
  7286.308  7286.300  0.500  2.353422  148.829  14.1452  3.334479
  7289.761  7289.750  0.500  2.349676  148.896  14.2047  3.355361
  7293.223  7293.210  0.500  2.344805  148.853  14.2699  3.376777
  7296.702  7296.690  0.500  2.340325  148.776  14.3266  3.398031
  7300.198  7300.190  0.500  2.335770  148.503  14.3656  3.415308
  7303.719  7303.710  0.500  2.331401  148.806  14.4579  3.444335
  7307.256  7307.250  0.500  2.327687  148.707  14.5021  3.462080
  7310.811  7310.800  0.500  2.323989  148.617  14.547  3.479435
  7314.387  7314.380  0.500  2.320384  148.528  14.5907  3.496170
  7317.987  7317.980  0.500  2.317115  148.452  14.6311  3.512432
  7321.596  7321.590  0.500  2.313669  148.379  14.6743  3.528759
  7325.231  7325.220  0.500  2.310299  148.305  14.7165  3.546930
  7328.893  7328.880  0.500  2.306978  148.217  14.7568  3.561304
  7332.565  7332.550  0.500  2.303809  148.152  14.797  3.576982
  7336.255  7336.240  0.500  2.300665  148.089  14.8373  3.592666
  7339.965  7339.950  0.500  2.297781  147.102  14.781  3.586175
  7343.695  7343.680  0.500  2.294734  147.84  14.9006  3.621035
  7347.433  7347.420  0.500  2.291431  147.807  14.9465  3.639765
  7351.201  7351.190  0.500  2.287824  147.742  14.9938  3.657825
  7354.989  7354.980  0.500  2.283751  147.673  15.048  3.678845
  7358.794  7358.780  0.500  2.279338  147.584  15.1055  3.700307
  7362.622  7362.610  0.500  2.275068  147.509  15.1625  3.722126
  7366.461  7366.450  0.500  2.270725  147.416  15.2188  3.743174
  7370.321  7370.310  0.500  2.266092  147.355  15.2831  3.768151
  7374.201  7374.190  0.500  2.261568  147.263  15.3428  3.792249
  7378.103  7378.090  0.500  2.256718  147.171  15.4079  3.816501
  7382.024  7382.010  0.500  2.252094  147.074  15.4691  3.840702
  7385.965  7385.950  0.500  2.247672  146.985  15.5282  3.863414
  7389.932  7389.910  0.500  2.243359  146.91  15.5874  3.886785
  7393.898  7393.880  0.500  2.238729  146.827  15.6508  3.910080
  7397.902  7397.880  0.500  2.234215  146.734  15.7117  3.934366
  7401.903  7401.890  0.500  2.230060  146.63  15.7659  3.956149
  7405.929  7405.930  0.500  2.225957  146.534  15.8204  3.977723
  7410.005  7409.980  0.500  2.222382  146.429  15.8656  3.996185
  7414.068  7414.050  0.500  2.219220  146.328  15.9049  4.015092
  7418.158  7418.140  0.500  2.215729  146.226  15.9495  4.033357
  7422.268  7422.250  0.500  2.212521  146.118  15.9889  4.051491
  7426.374  7426.380  0.500  2.208797  146.015  16.0372  4.072732
  7430.520  7430.530  0.500  2.204691  145.907  16.0913  4.094788
  7434.677  7434.690  0.500  2.200033  145.806  16.1553  4.120264
  7438.887  7438.880  0.500  2.195377  145.653  16.2136  4.145032
  7443.078  7443.080  0.500  2.190862  145.466  16.2661  4.167183
  7447.316  7447.310  0.500  2.186120  145.517  16.3491  4.198186
  7451.571  7451.550  0.500  2.181516  145.208  16.3896  4.218006
  7455.801  7455.810  0.500  2.176748  145.777  16.5325  4.264223
  7460.087  7460.090  0.500  2.172184  143.542  16.3536  4.228181
  7464.381  7464.390  0.500  2.167378  145.524  16.6592  4.316290
  7468.704  7468.710  0.500  2.162635  145.422  16.7266  4.343728
  7473.051  7473.050  0.500  2.157899  145.38  16.8012  4.373935
  7477.396  7477.410  0.500  2.152990  145.229  16.8664  4.400396
  7481.778  7481.790  0.500  2.148607  145.093  16.9246  4.426212
  7486.200  7486.180  0.500  2.144329  144.936  16.9788  4.450086
  7490.578  7490.600  0.500  2.140132  144.794  17.0335  4.473738
  7495.014  7495.030  0.500  2.136425  144.672  17.0823  4.495133
  7499.474  7499.480  0.500  2.133000  144.556  17.1272  4.516608
  7503.933  7503.950  0.500  2.129278  144.411  17.1738  4.538839
  7508.462  7508.440  0.500  2.125124  144.238  17.2247  4.562094
  7512.936  7512.950  0.500  2.120564  144.093  17.286  4.587925
  7517.462  7517.480  0.500  2.115764  143.924  17.3488  4.616724
  7522.006  7522.030  0.500  2.110463  143.795  17.4253  4.648593
  7526.594  7526.600  0.500  2.104802  143.657  17.5074  4.682361
  7531.170  7531.180  0.500  2.099333  143.515  17.586  4.715799
  7535.779  7535.790  0.500  2.093443  143.354  17.6701  4.749723
  7540.399  7540.410  0.500  2.088015  143.201  17.7473  4.782846
  7545.039  7545.060  0.500  2.082832  143.053  17.8211  4.814933
  7549.702  7549.720  0.500  2.077676  142.882  17.8918  4.846096
  7554.386  7554.400  0.500  2.072881  142.727  17.9583  4.875686
  7559.076  7559.100  0.500  2.068031  142.566  18.0252  4.905636
  7563.796  7563.820  0.500  2.063466  142.397  18.0863  4.933214
  7568.586  7568.560  0.500  2.059245  142.235  18.1421  4.959552
  7573.311  7573.310  0.500  2.055227  142.079  18.1952  4.984940
  7578.125  7578.090  0.500  2.051126  141.904  18.2475  5.011210
  7582.875  7582.890  0.500  2.047266  141.717  18.2938  5.034815
  7587.714  7587.700  0.500  2.043361  141.508  18.3384  5.057085
  7592.565  7592.530  0.500  2.040083  141.287  18.3699  5.074704