File: xdidata/Data/Eu/Eu-L3-Eu2TiO5.xdi
# XDI/1.0 BlueSky/1.10.0 BMM/2023-1.0-py310-tiled
# Beamline.name: BMM (06BM) -- Beamline for Materials Measurement (NIST)
# Beamline.xray_source: NSLS-II three-pole wiggler
# Beamline.collimation: paraboloid mirror, 5 nm Rh on 30 nm Pt
# Beamline.focusing: not in use
# Beamline.harmonic_rejection: flat mirror, Si stripe, pitch = 7.0 mrad relative to beam
# Beamline.software: Bluesky 1.10.0, Ophyd 1.7.0, DataBroker 2.0.0b13, Python 3.10.8, 2023-1.0-py310-tiled
# Detector.I0: 10 cm N2
# Detector.I1: 25 cm N2
# Detector.I2: 25 cm N2
# Element.symbol: Eu
# Element.edge: L3
# Element.reference: Eu
# Element.reference_material: Eu2O3
# Facility.name: NSLS-II
# Facility.energy: 3.0
# Facility.current: 400.3
# Facility.mode: top-off
# Facility.GUP: 123456
# Facility.SAF: 301027
# Facility.cycle: 2023-2
# Mono.name: Si(111)
# Mono.d_spacing: 3.13519
# Mono.encoder_resolution: 0.0000050 deg/ct
# Mono.angle_offset: 16.0754 deg
# Mono.scan_mode: pseudo channel cut
# Mono.scan_type: step
# Mono.direction: forward in energy
# Sample.name: Eu2TiO5
# Sample.prep: Powder in PEG pellet
# Sample.x: 149.848 mm
# Sample.y: 114.690 mm
# Sample.SDD_position: 205.000 mm
# Scan.experimenters: Bruce Ravel
# Scan.edge_energy: 6976.9
# Scan.start_time: 2023-05-08T17:54:46
# Scan.end_time: 2023-05-08T18:01:04
# Scan.transient_id: 75466
# Scan.uid: c3750c6d-ddaa-49b8-908a-367c6a850081
# Scan.plot_hint: ln(I0/It)  --  ln($5/$6)
# Column.1: energy eV
# Column.2: requested_energy eV
# Column.3: measurement_time seconds
# Column.4: xmu
# Column.5: I0 nA
# Column.6: It nA
# Column.7: Ir nA
# ///////////
# sample courtesy Martin Stennett, University of Sheffield
# -----------
# energy  requested_energy  measurement_time  xmu  I0  It  Ir
  6776.910  6776.900  0.500  1.415636  151.75  36.8406  9.103873
  6786.915  6786.900  0.500  1.407483  151.903  37.1796  9.245036
  6796.915  6796.900  0.500  1.398704  150.972  37.2776  9.325142
  6806.906  6806.900  0.500  1.390597  151.839  37.7967  9.513384
  6816.903  6816.900  0.500  1.381985  151.885  38.1353  9.656251
  6826.907  6826.900  0.500  1.373588  151.772  38.4282  9.788946
  6836.920  6836.900  0.500  1.364527  152.021  38.8416  9.954219
  6846.918  6846.900  0.500  1.356301  151.692  39.0778  10.0755
  6856.914  6856.900  0.500  1.347738  151.932  39.476  10.2383
  6866.912  6866.900  0.500  1.339656  152.113  39.8438  10.3933
  6876.912  6876.900  0.500  1.331356  152.301  40.2257  10.5544
  6886.910  6886.900  0.500  1.323785  152.398  40.5572  10.703
  6896.911  6896.900  0.500  1.315403  152.5  40.9259  10.8629
  6906.916  6906.900  0.500  1.307343  152.539  41.2676  11.0133
  6916.909  6916.900  0.500  1.299299  152.452  41.577  11.1577
  6926.913  6926.900  0.500  1.291805  152.382  41.8707  11.2954
  6936.883  6936.900  0.500  1.283938  152.4  42.2064  11.4413
  6947.906  6946.900  0.500  1.276298  152.432  42.5389  11.5804
  6948.978  6948.900  0.500  1.275692  152.439  42.5667  11.5903
  6950.885  6950.900  0.500  1.274196  152.411  42.6226  11.6114
  6952.883  6952.900  0.500  1.272841  152.426  42.6845  11.6315
  6955.210  6954.900  0.500  1.271930  152.415  42.7205  11.6438
  6956.895  6956.900  0.500  1.271109  152.404  42.7524  11.6512
  6958.900  6958.900  0.500  1.270038  152.404  42.7982  11.6581
  6960.892  6960.900  0.500  1.269161  152.42  42.8404  11.6594
  6962.898  6962.900  0.500  1.268605  152.43  42.8668  11.6498
  6964.893  6964.900  0.500  1.268613  152.428  42.8659  11.6186
  6966.899  6966.900  0.500  1.269440  152.44  42.8341  11.5575
  6967.386  6967.400  0.500  1.269954  152.434  42.8103  11.5326
  6967.883  6967.900  0.500  1.270336  152.433  42.7936  11.5042
  6968.383  6968.400  0.500  1.270775  152.435  42.7754  11.4773
  6968.884  6968.900  0.500  1.271603  152.431  42.7389  11.4359
  6969.384  6969.400  0.500  1.272405  152.435  42.7057  11.3928
  6969.885  6969.900  0.500  1.273218  152.424  42.6681  11.3482
  6970.385  6970.400  0.500  1.274308  152.42  42.6203  11.3021
  6970.889  6970.900  0.500  1.275095  152.424  42.588  11.2603
  6971.388  6971.400  0.500  1.276202  152.411  42.5373  11.2078
  6971.886  6971.900  0.500  1.277471  152.416  42.4848  11.1468
  6972.390  6972.400  0.500  1.279202  152.406  42.4083  11.0681
  6972.884  6972.900  0.500  1.281266  152.403  42.32  10.9735
  6973.386  6973.400  0.500  1.283897  152.399  42.2078  10.8511
  6973.890  6973.900  0.500  1.287098  152.391  42.0706  10.7067
  6974.391  6974.400  0.500  1.290388  152.395  41.9336  10.556
  6974.893  6974.900  0.500  1.294007  152.393  41.7815  10.3884
  6975.391  6975.400  0.500  1.298297  152.395  41.6034  10.1961
  6975.888  6975.900  0.500  1.303233  152.395  41.3983  9.971400
  6976.392  6976.400  0.500  1.309061  152.381  41.1542  9.706563
  6976.889  6976.900  0.500  1.315472  152.374  40.8892  9.402989
  6977.396  6977.400  0.500  1.323332  152.37  40.568  9.023811
  6977.892  6977.900  0.500  1.332183  152.358  40.2074  8.576359
  6978.393  6978.400  0.500  1.342080  152.348  39.8088  8.070634
  6978.894  6978.900  0.500  1.352649  152.352  39.3914  7.500773
  6979.395  6979.400  0.500  1.363324  152.352  38.9731  6.888325
  6979.892  6979.900  0.500  1.373488  152.359  38.5807  6.285570
  6980.393  6980.400  0.500  1.382153  152.348  38.2451  5.749590
  6980.892  6980.900  0.500  1.389006  152.346  37.9833  5.319270
  6981.393  6981.400  0.500  1.393916  152.344  37.7968  4.972537
  6981.901  6981.900  0.500  1.397406  152.34  37.6642  4.710726
  6982.396  6982.400  0.500  1.399685  152.337  37.5778  4.545509
  6982.898  6982.900  0.500  1.400578  152.34  37.5449  4.477865
  6983.399  6983.400  0.500  1.400197  152.342  37.5597  4.511464
  6983.899  6983.900  0.500  1.398782  152.34  37.6124  4.646058
  6984.401  6984.400  0.500  1.395954  152.339  37.7187  4.874184
  6984.894  6984.900  0.500  1.391704  152.339  37.8793  5.157083
  6985.396  6985.400  0.500  1.386125  152.336  38.0905  5.496640
  6985.900  6985.900  0.500  1.379510  152.335  38.343  5.868488
  6986.400  6986.400  0.500  1.372709  152.328  38.6028  6.234147
  6986.900  6986.900  0.500  1.365882  152.312  38.8631  6.579082
  6987.400  6987.400  0.500  1.359384  152.32  39.1187  6.901120
  6987.898  6987.900  0.500  1.353465  152.329  39.3533  7.186189
  6988.399  6988.400  0.500  1.348084  152.326  39.5649  7.437511
  6988.897  6988.900  0.500  1.343517  152.317  39.7435  7.642191
  6989.391  6989.400  0.500  1.339707  152.321  39.8963  7.815031
  6989.900  6989.900  0.500  1.336189  152.32  40.0366  7.961362
  6990.396  6990.400  0.500  1.333099  152.317  40.1597  8.082101
  6990.899  6990.900  0.500  1.330512  152.316  40.2634  8.178125
  6991.398  6991.400  0.500  1.328359  152.304  40.3471  8.255379
  6991.894  6991.900  0.500  1.326468  152.306  40.4239  8.321842
  6992.397  6992.400  0.500  1.325342  152.304  40.4691  8.374884
  6992.896  6992.900  0.500  1.323967  152.298  40.5231  8.422310
  6993.397  6993.400  0.500  1.322877  152.288  40.5646  8.461783
  6993.902  6993.900  0.500  1.322131  152.28  40.5928  8.494112
  6994.401  6994.400  0.500  1.321282  152.271  40.6248  8.521841
  6994.905  6994.900  0.500  1.320855  152.275  40.6432  8.540900
  6995.404  6995.400  0.500  1.320356  152.273  40.6629  8.556475
  6995.893  6995.900  0.500  1.320151  152.269  40.6703  8.565744
  6996.398  6996.400  0.500  1.319881  152.257  40.6781  8.570556
  6996.892  6996.900  0.500  1.319749  152.257  40.6836  8.573916
  6997.399  6997.400  0.500  1.320175  152.259  40.6667  8.572293
  6997.897  6997.900  0.500  1.320078  152.247  40.6675  8.574069
  6998.397  6998.400  0.500  1.320135  152.248  40.6653  8.576275
  6998.900  6998.900  0.500  1.320183  152.245  40.6625  8.580295
  6999.396  6999.400  0.500  1.320099  152.232  40.6626  8.584489
  6999.892  6999.900  0.500  1.320057  152.239  40.6661  8.591683
  7000.398  7000.400  0.500  1.319836  152.24  40.6753  8.602926
  7000.902  7000.900  0.500  1.319638  152.243  40.6841  8.611890
  7001.402  7001.400  0.500  1.319209  152.233  40.699  8.622641
  7001.905  7001.900  0.500  1.318532  152.234  40.7269  8.636126
  7002.893  7002.890  0.500  1.317272  152.23  40.7771  8.658183
  7003.896  7003.890  0.500  1.315980  152.216  40.826  8.672024
  7004.924  7004.910  0.500  1.314706  152.223  40.88  8.674964
  7005.967  7005.960  0.500  1.313973  152.226  40.9109  8.656299
  7007.027  7007.020  0.500  1.313907  152.216  40.9107  8.611951
  7008.111  7008.100  0.500  1.314274  152.19  40.8888  8.547900
  7009.217  7009.200  0.500  1.314997  152.189  40.859  8.470047
  7010.324  7010.320  0.500  1.316300  152.183  40.8042  8.384504
  7011.469  7011.460  0.500  1.317949  152.183  40.7368  8.296284
  7012.616  7012.610  0.500  1.319414  152.166  40.6727  8.211901
  7013.801  7013.790  0.500  1.320678  152.154  40.618  8.136475
  7014.988  7014.980  0.500  1.321855  152.156  40.5708  8.075729
  7016.208  7016.200  0.500  1.322496  152.15  40.5434  8.033206
  7017.440  7017.430  0.500  1.322648  152.143  40.5354  8.012837
  7018.685  7018.680  0.500  1.321775  152.144  40.5708  8.024912
  7019.962  7019.950  0.500  1.319879  152.154  40.6506  8.064804
  7021.243  7021.240  0.500  1.317210  152.13  40.7529  8.125765
  7022.559  7022.550  0.500  1.314237  152.124  40.8726  8.200875
  7023.894  7023.880  0.500  1.311477  152.111  40.9819  8.282678
  7025.233  7025.230  0.500  1.308731  152.111  41.0946  8.366667
  7026.609  7026.600  0.500  1.306334  152.104  41.1913  8.448069
  7027.989  7027.980  0.500  1.304208  152.094  41.2765  8.521253
  7029.403  7029.390  0.500  1.302621  152.092  41.3415  8.583663
  7030.821  7030.810  0.500  1.301139  152.092  41.4027  8.637949
  7032.253  7032.250  0.500  1.299643  152.073  41.4595  8.685064
  7033.715  7033.710  0.500  1.298307  152.057  41.5107  8.726386
  7035.199  7035.190  0.500  1.297107  152.055  41.5598  8.761233
  7036.698  7036.690  0.500  1.295854  152.04  41.608  8.790225
  7038.219  7038.210  0.500  1.294683  152.042  41.6572  8.817985
  7039.751  7039.750  0.500  1.293761  152.029  41.692  8.837820
  7041.324  7041.310  0.500  1.292716  152.029  41.7358  8.854894
  7042.893  7042.880  0.500  1.291656  152.016  41.7763  8.870668
  7044.488  7044.480  0.500  1.290502  152.002  41.8206  8.879595
  7046.107  7046.090  0.500  1.289364  151.988  41.8643  8.887552
  7047.737  7047.730  0.500  1.288293  151.97  41.9045  8.889622
  7049.392  7049.380  0.500  1.287594  151.945  41.9267  8.885037
  7051.055  7051.050  0.500  1.286661  151.949  41.967  8.881796
  7052.753  7052.740  0.500  1.285847  151.942  41.9993  8.874157
  7054.456  7054.450  0.500  1.285022  151.933  42.0313  8.866595
  7056.194  7056.180  0.500  1.283991  151.931  42.0741  8.859606
  7057.943  7057.930  0.500  1.283678  151.921  42.0846  8.848948
  7059.708  7059.690  0.500  1.283123  151.93  42.1104  8.844320
  7061.490  7061.480  0.500  1.282169  151.939  42.1531  8.845470
  7063.291  7063.280  0.500  1.281342  151.209  41.9853  8.806991
  7065.122  7065.110  0.500  1.280409  151.8  42.1889  8.851983
  7066.965  7066.950  0.500  1.279215  151.825  42.2463  8.869705
  7068.827  7068.810  0.500  1.277897  151.794  42.2932  8.888245
  7070.708  7070.690  0.500  1.276452  151.457  42.2603  8.892662
  7072.602  7072.590  0.500  1.274846  151.762  42.4136  8.940637
  7074.521  7074.510  0.500  1.272969  151.585  42.4435  8.961898
  7076.467  7076.450  0.500  1.271272  151.589  42.517  8.993411
  7078.428  7078.410  0.500  1.269735  151.694  42.6117  9.028260
  7080.390  7080.380  0.500  1.268326  151.709  42.6762  9.057176
  7082.394  7082.380  0.500  1.266543  151.352  42.6515  9.065504
  7084.400  7084.390  0.500  1.265203  151.522  42.7568  9.102211
  7086.438  7086.420  0.500  1.263803  151.604  42.8399  9.135198
  7088.490  7088.480  0.500  1.262223  151.603  42.9074  9.163152
  7090.567  7090.550  0.500  1.260394  151.585  42.9808  9.195200
  7092.652  7092.640  0.500  1.258978  151.558  43.034  9.227103
  7094.767  7094.750  0.500  1.256809  151.532  43.1201  9.264189
  7096.893  7096.880  0.500  1.255052  151.525  43.1938  9.303739
  7099.029  7099.020  0.500  1.253320  151.523  43.268  9.342386
  7101.206  7101.190  0.500  1.251417  151.504  43.3451  9.383862
  7103.391  7103.380  0.500  1.249672  151.48  43.4141  9.423530
  7105.602  7105.580  0.500  1.247825  151.456  43.4874  9.462826
  7107.800  7107.800  0.500  1.246425  151.42  43.5378  9.495475
  7110.058  7110.050  0.500  1.244814  151.359  43.5907  9.519969
  7112.324  7112.310  0.500  1.243767  151.189  43.5873  9.526758
  7114.594  7114.590  0.500  1.242278  151.084  43.6219  9.533794
  7116.904  7116.890  0.500  1.241053  151.038  43.6619  9.537257
  7119.217  7119.210  0.500  1.239961  150.944  43.6827  9.536893
  7121.560  7121.550  0.500  1.238830  150.842  43.7024  9.539567
  7123.914  7123.900  0.500  1.237600  150.761  43.7326  9.539096
  7126.286  7126.280  0.500  1.236069  150.636  43.7634  9.540979
  7128.683  7128.670  0.500  1.234895  150.499  43.7748  9.541991
  7131.102  7131.090  0.500  1.233404  150.305  43.7838  9.543804
  7133.526  7133.520  0.500  1.231620  150.231  43.8403  9.559296
  7135.985  7135.970  0.500  1.229654  150.221  43.9235  9.585718
  7138.459  7138.450  0.500  1.228005  150.206  43.9919  9.617141
  7140.951  7140.940  0.500  1.226237  150.209  44.0705  9.654020
  7143.463  7143.450  0.500  1.224357  150.217  44.1559  9.695708
  7145.983  7145.970  0.500  1.222367  150.219  44.2444  9.743360
  7148.533  7148.520  0.500  1.220457  150.225  44.3308  9.789914
  7151.102  7151.090  0.500  1.218683  150.213  44.4058  9.830713
  7153.684  7153.670  0.500  1.216832  150.196  44.4831  9.867783
  7156.294  7156.280  0.500  1.215088  150.17  44.553  9.899475
  7158.906  7158.900  0.500  1.213467  150.156  44.6212  9.928557
  7161.561  7161.550  0.500  1.211777  150.112  44.6834  9.957248
  7164.223  7164.210  0.500  1.209918  150.048  44.7475  9.980990
  7166.902  7166.890  0.500  1.207852  149.973  44.8176  10.0073
  7169.598  7169.590  0.500  1.206028  149.914  44.8818  10.0331
  7172.317  7172.310  0.500  1.204213  149.864  44.9483  10.0603
  7175.061  7175.050  0.500  1.202026  149.811  45.0309  10.0915
  7177.812  7177.800  0.500  1.199858  149.778  45.1188  10.1252
  7180.591  7180.580  0.500  1.197792  149.73  45.1976  10.1573
  7183.377  7183.370  0.500  1.195920  149.706  45.2751  10.1945
  7186.200  7186.190  0.500  1.194026  149.669  45.3496  10.2302
  7189.035  7189.020  0.500  1.192044  149.657  45.4358  10.2721
  7191.882  7191.870  0.500  1.190042  147.365  44.8296  10.1572
  7194.759  7194.750  0.500  1.188277  149.403  45.53  10.3367
  7197.653  7197.640  0.500  1.186561  149.417  45.6123  10.3791
  7200.565  7200.550  0.500  1.184695  149.359  45.6799  10.412
  7203.486  7203.470  0.500  1.183079  149.318  45.7412  10.4422
  7206.434  7206.420  0.500  1.181337  149.246  45.7987  10.469
  7209.402  7209.390  0.500  1.179276  149.163  45.8678  10.4957
  7212.379  7212.370  0.500  1.177436  149.097  45.9321  10.5198
  7215.391  7215.380  0.500  1.175461  149.024  46.0002  10.5444
  7218.416  7218.400  0.500  1.173402  148.957  46.0742  10.5719
  7221.465  7221.450  0.500  1.171337  148.888  46.1481  10.5992
  7224.525  7224.510  0.500  1.169061  148.809  46.2288  10.6302
  7227.600  7227.590  0.500  1.166920  146.754  45.688  10.5199
  7230.699  7230.690  0.500  1.164895  148.837  46.4305  10.7084
  7233.825  7233.810  0.500  1.162991  148.755  46.4934  10.7423
  7236.961  7236.950  0.500  1.160773  148.693  46.5771  10.7826
  7240.116  7240.100  0.500  1.158771  148.634  46.6519  10.821
  7243.295  7243.280  0.500  1.156854  148.565  46.7197  10.8602
  7246.487  7246.470  0.500  1.154558  148.317  46.7491  10.89
  7249.699  7249.690  0.500  1.152463  148.404  46.8744  10.9417
  7252.929  7252.920  0.500  1.150359  148.173  46.9002  10.9707
  7256.181  7256.170  0.500  1.148500  148.454  47.0766  11.0337
  7259.458  7259.450  0.500  1.146200  148.212  47.1082  11.0632
  7262.754  7262.740  0.500  1.144263  146.658  46.7045  10.9889
  7266.066  7266.050  0.500  1.141982  147.719  47.1497  11.1128
  7269.384  7269.370  0.500  1.139870  148.608  47.5337  11.2222
  7272.732  7272.720  0.500  1.137516  148.393  47.5771  11.2505
  7276.105  7276.090  0.500  1.135386  148.631  47.755  11.3078
  7279.484  7279.470  0.500  1.133050  148.531  47.8342  11.344
  7282.889  7282.880  0.500  1.130785  148.43  47.9103  11.3814
  7286.308  7286.300  0.500  1.128365  148.204  47.9532  11.4104
  7289.761  7289.750  0.500  1.126185  148.263  48.0771  11.4623
  7293.221  7293.210  0.500  1.123884  148.216  48.1724  11.5092
  7296.695  7296.690  0.500  1.122028  148.142  48.2378  11.5507
  7300.198  7300.190  0.500  1.119622  147.863  48.263  11.5808
  7303.716  7303.710  0.500  1.117236  148.147  48.471  11.6559
  7307.258  7307.250  0.500  1.115030  148.031  48.5401  11.6931
  7310.808  7310.800  0.500  1.112885  147.968  48.6238  11.7374
  7314.387  7314.380  0.500  1.110621  147.875  48.7035  11.7792
  7317.992  7317.980  0.500  1.109078  147.805  48.7553  11.813
  7321.600  7321.590  0.500  1.107009  147.73  48.8316  11.8534
  7325.233  7325.220  0.500  1.104717  147.637  48.9129  11.8921
  7328.891  7328.880  0.500  1.102571  147.554  48.9903  11.9336
  7332.568  7332.550  0.500  1.100205  147.495  49.0866  11.9753
  7336.251  7336.240  0.500  1.097592  147.435  49.1953  12.023
  7339.965  7339.950  0.500  1.095014  146.426  48.9845  11.9927
  7343.688  7343.680  0.500  1.092514  147.181  49.3603  12.1056
  7347.424  7347.420  0.500  1.089982  147.086  49.4537  12.1507
  7351.199  7351.190  0.500  1.087733  147.049  49.5524  12.1993
  7354.986  7354.980  0.500  1.085279  146.981  49.6515  12.248
  7358.789  7358.780  0.500  1.082995  146.907  49.7398  12.2967
  7362.620  7362.610  0.500  1.080574  146.832  49.8348  12.3458
  7366.461  7366.450  0.500  1.078182  146.716  49.9149  12.3928
  7370.325  7370.310  0.500  1.075594  146.651  50.0218  12.4471
  7374.201  7374.190  0.500  1.073321  146.568  50.1075  12.4959
  7378.106  7378.090  0.500  1.071014  146.471  50.1899  12.5437
  7382.024  7382.010  0.500  1.068983  146.384  50.262  12.5907
  7385.965  7385.950  0.500  1.066574  146.287  50.3498  12.6396
  7389.927  7389.910  0.500  1.064097  146.197  50.4436  12.6908
  7393.896  7393.880  0.500  1.061482  146.126  50.5514  12.7453
  7397.897  7397.880  0.500  1.059207  146.037  50.6354  12.7937
  7401.919  7401.890  0.500  1.057025  145.935  50.7108  12.8375
  7405.957  7405.930  0.500  1.054302  145.828  50.8118  12.8894
  7410.000  7409.980  0.500  1.051773  145.731  50.9063  12.9403
  7414.078  7414.050  0.500  1.049154  145.624  51.0024  12.9883
  7418.153  7418.140  0.500  1.046580  145.51  51.0938  13.0365
  7422.271  7422.250  0.500  1.044138  145.401  51.1803  13.0844
  7426.381  7426.380  0.500  1.041657  145.29  51.2685  13.1332
  7430.529  7430.530  0.500  1.039208  145.19  51.3588  13.1856
  7434.680  7434.690  0.500  1.036695  145.074  51.4469  13.2358
  7438.885  7438.880  0.500  1.034208  144.952  51.5315  13.286
  7443.092  7443.080  0.500  1.031690  144.739  51.5858  13.3309
  7447.300  7447.310  0.500  1.029266  144.789  51.7288  13.3981
  7451.540  7451.550  0.500  1.026712  144.493  51.7547  13.4347
  7455.808  7455.810  0.500  1.024308  144.521  51.8895  13.5
  7460.080  7460.090  0.500  1.021921  142.229  51.1885  13.347
  7464.379  7464.390  0.500  1.019235  144.249  52.0554  13.6046
  7468.733  7468.710  0.500  1.016844  144.163  52.1489  13.661
  7473.049  7473.050  0.500  1.014350  144.124  52.265  13.7212
  7477.420  7477.410  0.500  1.011788  143.959  52.3388  13.7733
  7481.790  7481.790  0.500  1.009572  143.828  52.4072  13.8212
  7486.181  7486.180  0.500  1.006943  143.676  52.4898  13.8725
  7490.585  7490.600  0.500  1.004318  143.514  52.5684  13.9236
  7495.014  7495.030  0.500  1.001636  143.389  52.6637  13.976
  7499.465  7499.480  0.500  0.998884  143.272  52.7655  14.033
  7503.930  7503.950  0.500  0.996212  143.116  52.8492  14.0834
  7508.416  7508.440  0.500  0.993597  142.967  52.9326  14.1369
  7512.927  7512.950  0.500  0.990984  142.82  53.0163  14.1908
  7517.462  7517.480  0.500  0.988509  142.679  53.0953  14.2467
  7522.015  7522.030  0.500  0.985912  142.528  53.1769  14.3037
  7526.584  7526.600  0.500  0.983298  142.383  53.2621  14.361
  7531.163  7531.180  0.500  0.980614  142.228  53.347  14.4198
  7535.808  7535.790  0.500  0.977972  142.068  53.4278  14.4799
  7540.404  7540.410  0.500  0.975435  141.919  53.5074  14.5385
  7545.044  7545.060  0.500  0.972731  141.74  53.5847  14.5956
  7549.705  7549.720  0.500  0.970160  141.588  53.6652  14.6523
  7554.379  7554.400  0.500  0.967378  141.443  53.7593  14.713
  7559.078  7559.100  0.500  0.964653  141.276  53.8424  14.7709
  7563.799  7563.820  0.500  0.962012  141.105  53.9197  14.8255
  7568.532  7568.560  0.500  0.959449  140.959  54.002  14.8819
  7573.289  7573.310  0.500  0.956753  140.804  54.0882  14.9364
  7578.120  7578.090  0.500  0.954068  140.633  54.1679  14.9915
  7582.873  7582.890  0.500  0.951360  140.458  54.247  15.044
  7587.722  7587.700  0.500  0.948674  140.24  54.3085  15.0943
  7592.526  7592.530  0.500  0.946162  140.037  54.3664  15.1401