File: xdidata/Y/Y-K-foil.xdi
# XDI/1.0 BlueSky/1.13.0a3 BMM/2024-2.0-py310-tiled
# Beamline.name: BMM (06BM) -- Beamline for Materials Measurement (NIST)
# Beamline.collimation: paraboloid mirror, 5 nm Rh on 30 nm Pt
# Beamline.xray_source: NSLS-II three-pole wiggler
# Beamline.focusing: not in use
# Beamline.harmonic_rejection: flat mirror, Pt stripe, pitch = 7.0 mrad relative to beam
# Beamline.software: Bluesky 1.13.0a4, Ophyd 1.9.0, DataBroker 2.0.0b45, Python 3.11.6, 2024-2.3-py311-tiled
# Detector.I0: 25 cm N2, NSLS2 IC
# Detector.It: 25 cm N2, NSLS2 IC
# Detector.Ir: 25 cm N2, NSLS2 IC
# Element.edge: K
# Element.symbol: Y
# Element.reference: Y
# Element.reference_material: Y foil
# Facility.name: NSLS-II
# Facility.energy: 3.0
# Facility.GUP: 316837
# Facility.SAF: 314472
# Facility.cycle: 2024-3
# Facility.current: 400.1
# Facility.mode: top-off
# Mono.name: Si(111)
# Mono.d_spacing: 3.13549
# Mono.encoder_resolution: 5e-06
# Mono.angle_offset: 16.094
# Mono.direction: forward
# Mono.scan_type: step
# Mono.scan_mode: pseudo channel cut
# Sample.name: Y foil
# Sample.prep: foil on reference wheel
# Sample.SDD_position: 205
# Sample.x: 99.5883
# Sample.y: 168.835
# Sample.wheel_slot: 5
# Sample.wheel_ring: inner
# Scan.edge_energy: 17038.4
# Scan.experimenters: Bruce Ravel
# Scan.start_time: 2024-10-28T09:25:27
# Scan.end_time: 2024-10-28T09:36:41
# Scan.uid: a1219360-4b83-40b6-aaf3-194f8ad55711
# Scan.transient_id: 1465
# Scan.plot_hint: ln(It/Ir)  --  ln($6/$7)
# Column.1: energy eV
# Column.2: requested_energy eV
# Column.3: measurement_time seconds
# Column.4: xmu
# Column.5: I0 nA
# Column.6: Itrans nA
# Column.7: Irefer nA
# //////////////////////////////////////////////////////////
# Y foil sample provided by Arjen van Veelen, LANL
# ----------------------------------------------------------
# energy requested_energy measurement_time xmu I0 It Ir
16838.4 16838.4 0.500000 -0.110452 20.3594 30.4079 27.2282
16848.5 16848.4 0.500000 -0.114422 22.6655 33.6884 30.046
16858.4 16858.4 0.500000 -0.113917 22.5624 33.5376 29.9266
16868.5 16868.4 0.500000 -0.113843 22.4329 33.3392 29.7518
16878.5 16878.4 0.500000 -0.113191 22.4214 33.3369 29.7692
16888.5 16888.4 0.500000 -0.112961 22.3438 33.2279 29.6786
16898.5 16898.4 0.500000 -0.112631 22.2575 33.1082 29.5815
16908.5 16908.4 0.500000 -0.112253 22.1485 32.9515 29.4526
16918.6 16918.4 0.500000 -0.112370 21.8839 32.5468 29.0875
16928.4 16928.4 0.500000 -0.111934 21.9853 32.7186 29.2538
16938.4 16938.4 0.500000 -0.111186 21.5592 32.0907 28.7139
16948.4 16948.4 0.500000 -0.112397 21.9836 32.725 29.246
16958.4 16958.4 0.500000 -0.112283 21.9581 32.701 29.2279
16968.4 16968.4 0.500000 -0.112476 21.8784 32.5813 29.1152
16978.4 16978.4 0.500000 -0.113089 21.791 32.4601 28.9891
16988.4 16988.4 0.500000 -0.114377 21.7051 32.3254 28.8317
16998.4 16998.4 0.500000 -0.115809 21.6675 32.2797 28.7498
17008.4 17008.4 0.500000 -0.119480 21.6009 32.1883 28.5634
17010.4 17010.4 0.500000 -0.120262 21.5883 32.1706 28.5253
17012.3 17012.4 0.500000 -0.121363 21.5731 32.1457 28.4719
17014.4 17014.4 0.500000 -0.122971 21.5572 32.1281 28.4105
17016.3 17016.4 0.500000 -0.124465 21.5518 32.1136 28.3553
17018.3 17018.4 0.500000 -0.126583 21.5537 32.1222 28.3029
17020.3 17020.4 0.500000 -0.129030 21.5376 32.1036 28.2174
17022.3 17022.4 0.500000 -0.132091 21.5227 32.0747 28.1058
17024.3 17024.4 0.500000 -0.136170 21.5085 32.0583 27.9771
17026.3 17026.4 0.500000 -0.141493 21.4928 32.0362 27.8094
17028.3 17028.4 0.500000 -0.148946 21.4856 32.0262 27.5943
17028.6 17028.7 0.500000 -0.150179 21.4839 32.0251 27.5593
17028.9 17029 0.500000 -0.151682 21.4824 32.0201 27.5136
17029.2 17029.3 0.500000 -0.153363 21.4803 32.0174 27.4651
17029.5 17029.6 0.500000 -0.155212 21.4774 32.0191 27.4158
17029.8 17029.9 0.500000 -0.157125 21.4766 32.0174 27.362
17030.1 17030.2 0.500000 -0.159148 21.4753 32.0151 27.3047
17030.4 17030.5 0.500000 -0.161319 21.4731 32.0134 27.2441
17030.7 17030.8 0.500000 -0.163612 21.4758 32.0135 27.1818
17031 17031.1 0.500000 -0.166155 21.4728 32.0067 27.1069
17031.3 17031.4 0.500000 -0.169069 21.4651 31.9978 27.0205
17031.6 17031.7 0.500000 -0.172480 21.4597 31.9915 26.9233
17032 17032 0.500000 -0.175973 21.4573 31.9946 26.8319
17032.2 17032.3 0.500000 -0.180035 21.4588 31.9901 26.7194
17032.5 17032.6 0.500000 -0.184267 21.4554 31.9855 26.6028
17032.9 17032.9 0.500000 -0.188811 21.4492 31.9795 26.4772
17033.2 17033.2 0.500000 -0.194348 21.4499 31.9802 26.3315
17033.5 17033.5 0.500000 -0.200707 21.45 31.9797 26.1642
17033.8 17033.8 0.500000 -0.208053 21.4473 31.9777 25.9711
17034.1 17034.1 0.500000 -0.216354 21.4481 31.9775 25.7563
17034.4 17034.4 0.500000 -0.225787 21.4458 31.9741 25.5118
17034.7 17034.7 0.500000 -0.236526 21.4441 31.9753 25.2402
17035 17035 0.500000 -0.248585 21.4434 31.9718 24.9349
17035.3 17035.3 0.500000 -0.262625 21.4351 31.9631 24.5805
17035.6 17035.6 0.500000 -0.278471 21.434 31.9594 24.1914
17035.9 17035.9 0.500000 -0.296190 21.4326 31.9619 23.7684
17036.2 17036.2 0.500000 -0.316763 21.4316 31.9598 23.2828
17036.5 17036.5 0.500000 -0.339018 21.4297 31.9616 22.7717
17036.8 17036.8 0.500000 -0.361742 21.4225 31.9505 22.2523
17037.1 17037.1 0.500000 -0.384988 21.4217 31.9515 21.7417
17037.4 17037.4 0.500000 -0.407727 21.419 31.9459 21.2492
17037.7 17037.7 0.500000 -0.430843 21.4167 31.9487 20.7654
17038 17038 0.500000 -0.451821 21.4135 31.9358 20.3261
17038.3 17038.3 0.500000 -0.473478 21.4091 31.9387 19.8924
17038.6 17038.6 0.500000 -0.493413 21.478 32.0414 19.5625
17038.9 17038.9 0.500000 -0.510801 21.4703 32.0344 19.2211
17039.2 17039.2 0.500000 -0.526091 21.4687 32.0349 18.9298
17039.4 17039.5 0.500000 -0.538911 21.4598 32.021 18.6805
17039.8 17039.8 0.500000 -0.550957 21.4588 32.0185 18.4554
17040.1 17040.1 0.500000 -0.561485 21.4592 32.0203 18.2632
17040.4 17040.4 0.500000 -0.570729 21.4541 32.0076 18.0879
17040.7 17040.7 0.500000 -0.580426 21.4506 32.0067 17.9129
17041 17041 0.500000 -0.590373 21.4483 32.0085 17.7366
17041.3 17041.3 0.500000 -0.600884 21.4461 32.0072 17.5504
17041.6 17041.6 0.500000 -0.611810 21.4415 32.0009 17.3563
17041.9 17041.9 0.500000 -0.623806 21.4398 31.9917 17.1444
17042.1 17042.2 0.500000 -0.637494 21.4393 31.991 16.9109
17042.5 17042.5 0.500000 -0.653623 21.4344 31.9886 16.6391
17042.8 17042.8 0.500000 -0.671765 21.4294 31.9817 16.3365
17043.1 17043.1 0.500000 -0.691951 21.4307 31.9832 16.0107
17043.4 17043.4 0.500000 -0.713702 21.4292 31.9807 15.665
17043.7 17043.7 0.500000 -0.736435 21.426 31.9798 15.3125
17044 17044 0.500000 -0.760697 21.4228 31.9778 14.9445
17044.2 17044.3 0.500000 -0.785866 21.4201 31.9743 14.5715
17044.6 17044.6 0.500000 -0.813026 21.419 31.972 14.18
17044.9 17044.9 0.500000 -0.839925 21.4144 31.9674 13.8017
17045.2 17045.2 0.500000 -0.868894 21.409 31.9589 13.404
17045.5 17045.5 0.500000 -0.899099 21.4063 31.9599 13.0057
17045.8 17045.8 0.500000 -0.928200 21.408 31.9583 12.632
17046.1 17046.1 0.500000 -0.956511 21.401 31.9488 12.2757
17046.4 17046.4 0.500000 -0.983324 21.4021 31.9528 11.9524
17046.7 17046.7 0.500000 -1.010341 21.3981 31.9488 11.6324
17047 17047 0.500000 -1.035167 21.3929 31.9442 11.3455
17047.3 17047.3 0.500000 -1.059735 21.4004 31.9503 11.0723
17047.6 17047.6 0.500000 -1.081745 21.3903 31.9415 10.8283
17047.9 17047.9 0.500000 -1.101292 21.3876 31.9333 10.616
17048.2 17048.2 0.500000 -1.117892 21.3773 31.9245 10.4383
17048.5 17048.5 0.500000 -1.132388 21.3799 31.9313 10.2903
17048.8 17048.8 0.500000 -1.144566 21.3777 31.9237 10.1633
17049.1 17049.1 0.500000 -1.154422 21.3715 31.9178 10.0617
17049.4 17049.4 0.500000 -1.162115 21.3673 31.9102 9.982282
17049.7 17049.7 0.500000 -1.167625 21.3592 31.8969 9.923283
17050 17050 0.500000 -1.171516 21.355 31.8948 9.884083
17050.3 17050.3 0.500000 -1.173305 21.353 31.8886 9.864527
17050.6 17050.6 0.500000 -1.173908 21.3518 31.8897 9.858895
17050.9 17050.9 0.500000 -1.172934 21.346 31.8777 9.864807
17051.1 17051.2 0.500000 -1.171009 21.3508 31.8815 9.884991
17051.5 17051.5 0.500000 -1.168388 21.3405 31.8697 9.907263
17051.8 17051.8 0.500000 -1.164541 21.3336 31.8595 9.942263
17052.1 17052.1 0.500000 -1.160791 21.3319 31.8562 9.978581
17052.4 17052.4 0.500000 -1.156205 21.3259 31.8502 10.0226
17052.7 17052.7 0.500000 -1.151997 21.3283 31.85 10.0648
17052.9 17053 0.500000 -1.147578 21.3255 31.8463 10.1082
17053.3 17053.3 0.500000 -1.142783 21.3249 31.8475 10.1571
17053.5 17053.6 0.500000 -1.138200 21.3216 31.8409 10.2017
17053.9 17053.9 0.500000 -1.133753 21.3178 31.8392 10.2466
17054.2 17054.2 0.500000 -1.129250 21.3098 31.8278 10.2892
17054.5 17054.5 0.500000 -1.124722 21.3094 31.8245 10.3348
17054.8 17054.8 0.500000 -1.120834 21.3072 31.8241 10.3749
17055.1 17055.1 0.500000 -1.117552 21.3065 31.8223 10.4084
17055.4 17055.4 0.500000 -1.114518 21.2996 31.8148 10.4376
17055.7 17055.7 0.500000 -1.111620 21.2981 31.8083 10.4658
17056 17056 0.500000 -1.109035 21.2913 31.7974 10.4892
17056.3 17056.3 0.500000 -1.107003 21.2876 31.7945 10.5096
17056.6 17056.6 0.500000 -1.105365 21.2839 31.7904 10.5255
17056.9 17056.9 0.500000 -1.104351 21.2826 31.7858 10.5346
17057.2 17057.2 0.500000 -1.103947 21.279 31.7817 10.5375
17057.5 17057.5 0.500000 -1.103654 21.2718 31.774 10.5381
17057.8 17057.8 0.500000 -1.104220 21.2689 31.7657 10.5294
17058.1 17058.1 0.500000 -1.105124 21.2711 31.7683 10.5207
17058.4 17058.4 0.500000 -1.106910 21.2669 31.7684 10.502
17058.7 17058.7 0.500000 -1.108663 21.2647 31.7627 10.4817
17059 17059 0.500000 -1.111156 21.2568 31.7518 10.452
17059.3 17059.3 0.500000 -1.113636 21.2566 31.7506 10.4257
17059.6 17059.6 0.500000 -1.116341 21.2529 31.7406 10.3943
17059.9 17059.9 0.500000 -1.119324 21.2453 31.7344 10.3613
17060.2 17060.2 0.500000 -1.122494 21.2493 31.741 10.3307
17060.5 17060.5 0.500000 -1.125250 21.2451 31.7303 10.2988
17060.8 17060.8 0.500000 -1.128358 21.2331 31.7198 10.2634
17061.1 17061.1 0.500000 -1.130486 21.2337 31.7158 10.2403
17061.4 17061.4 0.500000 -1.132757 21.2306 31.712 10.2158
17061.7 17061.7 0.500000 -1.134347 21.2313 31.7111 10.1993
17062 17062 0.500000 -1.136023 21.2284 31.71 10.1819
17062.3 17062.3 0.500000 -1.137226 21.2282 31.7058 10.1683
17062.6 17062.6 0.500000 -1.137558 21.2197 31.6948 10.1614
17062.9 17062.9 0.500000 -1.137932 21.2136 31.6901 10.1561
17063.2 17063.2 0.500000 -1.137330 21.2128 31.6888 10.1618
17063.4 17063.4 0.500000 -1.136784 21.2072 31.6813 10.1649
17064.4 17064.4 0.500000 -1.131099 21.1944 31.6592 10.2157
17065.4 17065.4 0.500000 -1.121667 21.1792 31.6394 10.3061
17066.4 17066.4 0.500000 -1.109518 21.1637 31.6156 10.4242
17067.5 17067.5 0.500000 -1.097380 21.1402 31.5827 10.5406
17068.5 17068.5 0.500000 -1.087878 21.1209 31.5568 10.6324
17069.6 17069.6 0.500000 -1.081395 21.0976 31.5201 10.6892
17070.7 17070.7 0.500000 -1.078326 21.074 31.4864 10.7106
17071.8 17071.8 0.500000 -1.076492 21.0281 31.4232 10.7087
17072.9 17073 0.500000 -1.074671 20.9666 31.3354 10.6982
17074.1 17074.1 0.500000 -1.072294 20.878 31.2123 10.6815
17075.3 17075.3 0.500000 -1.069122 20.7227 30.9911 10.6396
17076.5 17076.5 0.500000 -1.066689 20.3895 30.5329 10.5078
17077.7 17077.7 0.500000 -1.063823 19.4994 29.3156 10.1178
17079 17078.9 0.500000 -1.063140 18.0938 27.2378 9.407127
17080.2 17080.2 0.500000 -1.070346 17.7289 26.4517 9.070016
17081.5 17081.5 0.500000 -1.078803 19.0585 28.2441 9.603067
17082.8 17082.7 0.500000 -1.082647 20.5885 30.5897 10.3607
17084 17084 0.500000 -1.086348 21.1756 31.5926 10.6608
17085.4 17085.4 0.500000 -1.091115 21.2821 31.7787 10.6726
17086.8 17086.7 0.500000 -1.093576 21.2858 31.792 10.6508
17088.1 17088.1 0.500000 -1.092565 21.2726 31.7783 10.657
17089.5 17089.5 0.500000 -1.087688 21.2558 31.752 10.7003
17090.9 17090.9 0.500000 -1.079814 21.2382 31.7247 10.7756
17092.3 17092.3 0.500000 -1.071192 21.2214 31.7082 10.8632
17093.8 17093.8 0.500000 -1.063197 21.2016 31.6784 10.9401
17095.2 17095.2 0.500000 -1.057740 21.1837 31.6479 10.9894
17096.7 17096.7 0.500000 -1.054583 21.1665 31.6257 11.0164
17098.2 17098.2 0.500000 -1.052846 21.1586 31.6114 11.0306
17099.7 17099.7 0.500000 -1.051846 21.1443 31.5923 11.035
17101.3 17101.2 0.500000 -1.051324 21.1252 31.567 11.0319
17102.9 17102.8 0.500000 -1.051366 21.1152 31.5526 11.0264
17104.4 17104.4 0.500000 -1.052688 21.1092 31.5425 11.0083
17106 17106 0.500000 -1.055395 21.0906 31.5159 10.9693
17107.6 17107.6 0.500000 -1.059531 21.0791 31.498 10.9178
17109.2 17109.2 0.500000 -1.065088 21.0693 31.4826 10.852
17110.9 17110.9 0.500000 -1.070257 21.0595 31.469 10.7913
17112.5 17112.5 0.500000 -1.073926 21.0453 31.4527 10.7463
17114.3 17114.2 0.500000 -1.075657 21.0309 31.4304 10.7201
17116 17116 0.500000 -1.074704 21.0253 31.4222 10.7275
17117.7 17117.7 0.500000 -1.071325 21.0706 31.4894 10.7868
17119.4 17119.4 0.500000 -1.065756 21.0608 31.4809 10.8441
17121.2 17121.2 0.500000 -1.058859 21.047 31.4599 10.9119
17123 17123 0.500000 -1.051795 21.037 31.441 10.9826
17124.8 17124.8 0.500000 -1.045419 21.0252 31.4248 11.0472
17126.6 17126.6 0.500000 -1.041289 21.01 31.404 11.0856
17128.5 17128.5 0.500000 -1.039247 20.9911 31.3763 11.0984
17130.3 17130.3 0.500000 -1.039152 20.9826 31.3657 11.0957
17132.2 17132.2 0.500000 -1.040092 20.9756 31.356 11.0819
17134.1 17134.1 0.500000 -1.041229 20.9608 31.3326 11.061
17136 17136 0.500000 -1.042969 20.9522 31.321 11.0377
17138 17138 0.500000 -1.044161 20.936 31.2996 11.0171
17140 17139.9 0.500000 -1.045353 20.9156 31.2692 10.9932
17141.9 17141.9 0.500000 -1.045513 20.901 31.2518 10.9854
17143.9 17143.9 0.500000 -1.045881 20.8897 31.233 10.9747
17145.9 17145.9 0.500000 -1.046346 20.8751 31.2154 10.9634
17147.9 17147.9 0.500000 -1.045456 20.8544 31.1831 10.9619
17150 17150 0.500000 -1.044253 20.8446 31.171 10.9708
17152 17152 0.500000 -1.041687 20.8373 31.1605 10.9953
17154.1 17154.1 0.500000 -1.038038 20.8218 31.1362 11.0268
17156.3 17156.2 0.500000 -1.034065 20.8119 31.1254 11.0669
17158.4 17158.4 0.500000 -1.030100 20.8018 31.109 11.105
17160.5 17160.5 0.500000 -1.026688 20.7867 31.0896 11.136
17162.7 17162.7 0.500000 -1.023860 20.7695 31.0595 11.1568
17164.9 17164.9 0.500000 -1.021933 20.7567 31.0454 11.1732
17167.1 17167.1 0.500000 -1.020770 20.7471 31.03 11.1806
17169.3 17169.3 0.500000 -1.020658 20.7331 31.0133 11.1759
17171.5 17171.5 0.500000 -1.021087 20.7189 30.9924 11.1635
17173.8 17173.8 0.500000 -1.022198 20.7064 30.9769 11.1456
17176.1 17176.1 0.500000 -1.024216 20.6895 30.9495 11.1133
17178.4 17178.4 0.500000 -1.026253 20.678 30.9381 11.0866
17180.7 17180.7 0.500000 -1.027907 20.6627 30.9163 11.0605
17183.1 17183 0.500000 -1.029018 20.6512 30.8952 11.0406
17185.4 17185.4 0.500000 -1.029405 20.6355 30.869 11.027
17187.7 17187.8 0.500000 -1.029535 20.6157 30.8442 11.0167
17190.2 17190.2 0.500000 -1.028318 20.6026 30.824 11.0229
17192.6 17192.6 0.500000 -1.025722 20.5915 30.8105 11.0467
17195 17195 0.500000 -1.022321 20.577 30.7908 11.0773
17197.5 17197.5 0.500000 -1.018517 20.5616 30.7688 11.1116
17199.8 17200 0.500000 -1.015339 20.5357 30.729 11.1325
17202.3 17202.4 0.500000 -1.012146 20.522 30.7091 11.1608
17204.9 17205 0.500000 -1.009506 20.5106 30.6965 11.1858
17207.4 17207.5 0.500000 -1.006300 20.4925 30.6692 11.2117
17209.9 17210 0.500000 -1.003028 20.4814 30.648 11.2407
17212.5 17212.6 0.500000 -1.000894 20.4596 30.6199 11.2543
17215.1 17215.2 0.500000 -1.000116 20.4473 30.6024 11.2567
17217.7 17217.8 0.500000 -1.001079 20.432 30.579 11.2373
17220.3 17220.4 0.500000 -1.003232 20.4147 30.5626 11.2071
17223 17223 0.500000 -1.006473 20.3955 30.5299 11.1588
17225.6 17225.7 0.500000 -1.010367 20.3792 30.5067 11.107
17228.3 17228.4 0.500000 -1.014183 20.3448 30.4561 11.0464
17230.9 17231.1 0.500000 -1.017162 20.318 30.415 10.9987
17233.7 17233.8 0.500000 -1.018904 20.3103 30.4084 10.9771
17236.5 17236.5 0.500000 -1.018902 20.2976 30.3934 10.9717
17239.3 17239.3 0.500000 -1.016890 20.2863 30.3763 10.9877
17242 17242.1 0.500000 -1.013427 20.2666 30.3472 11.0152
17244.8 17244.9 0.500000 -1.009968 20.2482 30.3205 11.0437
17247.6 17247.7 0.500000 -1.007227 20.235 30.3018 11.0671
17250.4 17250.5 0.500000 -1.004988 20.2253 30.29 11.0876
17253.3 17253.4 0.500000 -1.003016 20.1748 30.2058 11.0786
17256.2 17256.2 0.500000 -1.001853 20.1827 30.225 11.0986
17259.1 17259.1 0.500000 -1.000309 20.1748 30.2148 11.112
17261.9 17262 0.500000 -0.998775 20.1278 30.1481 11.1045
17264.9 17265 0.500000 -0.997349 20.1204 30.1322 11.1145
17267.8 17267.9 0.500000 -0.996479 20.1095 30.1184 11.119
17270.8 17270.9 0.500000 -0.996290 20.0969 30.1037 11.1157
17273.8 17273.9 0.500000 -0.996339 20.0755 30.0734 11.104
17276.8 17276.9 0.500000 -0.996904 20.0582 30.0483 11.0884
17279.8 17279.9 0.500000 -0.997785 20.0291 30.0075 11.0636
17282.9 17283 0.500000 -0.999137 20.0095 29.9784 11.038
17285.9 17286 0.500000 -1.000232 20.0137 29.9825 11.0274
17289 17289.1 0.500000 -1.001301 19.9912 29.9573 11.0064
17292.1 17292.2 0.500000 -1.001490 19.9775 29.9316 10.9948
17295.3 17295.3 0.500000 -1.001053 19.9417 29.8817 10.9813
17298.4 17298.5 0.500000 -0.999218 19.9248 29.859 10.9931
17301.6 17301.6 0.500000 -0.996844 19.9204 29.8577 11.0187
17304.7 17304.8 0.500000 -0.993905 19.8998 29.8256 11.0393
17307.9 17308 0.500000 -0.991486 19.8813 29.7987 11.0561
17311.2 17311.2 0.500000 -0.989573 19.8678 29.7789 11.0699
17314.4 17314.4 0.500000 -0.988247 19.8379 29.7381 11.0694
17317.7 17317.7 0.500000 -0.986930 19.7948 29.6723 11.0594
17320.9 17321 0.500000 -0.985952 19.792 29.6664 11.0681
17324.2 17324.2 0.500000 -0.984816 19.7888 29.6653 11.0802
17327.6 17327.5 0.500000 -0.983943 19.7617 29.629 11.0763
17330.8 17330.9 0.500000 -0.983426 19.7455 29.6056 11.0733
17334.2 17334.2 0.500000 -0.983114 19.7325 29.5811 11.0676
17337.6 17337.6 0.500000 -0.983466 19.7581 29.6269 11.0808
17340.9 17341 0.500000 -0.983778 19.7669 29.6394 11.082
17344.4 17344.4 0.500000 -0.983976 19.7426 29.6018 11.0658
17347.8 17347.8 0.500000 -0.984125 19.7255 29.5875 11.0588
17351.3 17351.2 0.500000 -0.983787 19.7056 29.5521 11.0493
17354.7 17354.7 0.500000 -0.983056 19.6849 29.5228 11.0464
17358.2 17358.2 0.500000 -0.982413 19.6697 29.5029 11.0461
17361.7 17361.7 0.500000 -0.981318 19.6465 29.4719 11.0466
17365.2 17365.2 0.500000 -0.980205 19.6282 29.4463 11.0492
17368.7 17368.8 0.500000 -0.978620 19.6056 29.4087 11.0526
17372.3 17372.3 0.500000 -0.977083 19.5889 29.3844 11.0605
17375.9 17375.9 0.500000 -0.975553 19.5669 29.3537 11.0659
17379.5 17379.5 0.500000 -0.974245 19.5506 29.3253 11.0697
17383.1 17383.1 0.500000 -0.973086 19.5244 29.2947 11.0709
17386.5 17386.7 0.500000 -0.972007 19.5069 29.2688 11.0731
17390.3 17390.4 0.500000 -0.971721 19.464 29.2089 11.0536
17393.9 17394 0.500000 -0.971128 19.4578 29.1983 11.0561
17397.7 17397.7 0.500000 -0.970686 19.434 29.1684 11.0497
17401.4 17401.5 0.500000 -0.970198 19.4163 29.1428 11.0454
17405.1 17405.2 0.500000 -0.969985 19.3985 29.1113 11.0358
17408.8 17408.9 0.500000 -0.969778 19.3515 29.0488 11.0144
17412.6 17412.7 0.500000 -0.969475 19.3458 29.0355 11.0127
17416.4 17416.5 0.500000 -0.968773 19.3331 29.0176 11.0136
17420.2 17420.3 0.500000 -0.968169 19.3155 28.9977 11.0127
17424 17424.1 0.500000 -0.967465 19.2897 28.9564 11.0048
17427.8 17428 0.500000 -0.966785 19.2627 28.9202 10.9985
17431.7 17431.8 0.500000 -0.966155 19.243 28.8915 10.9945
17435.6 17435.7 0.500000 -0.965276 19.2053 28.8403 10.9846
17439.5 17439.6 0.500000 -0.964645 19.1875 28.8094 10.9798
17443.4 17443.5 0.500000 -0.963668 19.1776 28.7991 10.9866
17447.4 17447.5 0.500000 -0.962329 19.1535 28.7633 10.9876
17451.3 17451.4 0.500000 -0.961361 19.1384 28.7417 10.99
17455.3 17455.4 0.500000 -0.960207 19.1132 28.7114 10.9911
17459.3 17459.4 0.500000 -0.959114 19.0541 28.614 10.9658
17463.4 17463.4 0.500000 -0.958040 19.061 28.6325 10.9847
17467.4 17467.4 0.500000 -0.956989 19.0377 28.5986 10.9832
17471.4 17471.5 0.500000 -0.956383 19.0211 28.5721 10.9797
17475.5 17475.5 0.500000 -0.955950 19.0029 28.5493 10.9757
17479.5 17479.6 0.500000 -0.955688 18.9676 28.4974 10.9586
17483.6 17483.8 0.500000 -0.955153 18.9257 28.4374 10.9414
17487.7 17487.9 0.500000 -0.954749 18.8899 28.385 10.9256
17491.9 17492 0.500000 -0.953809 18.9035 28.4053 10.9437
17496.1 17496.2 0.500000 -0.953132 18.8806 28.3751 10.9395
17500.2 17500.4 0.500000 -0.952072 18.8585 28.3396 10.9374
17504.5 17504.6 0.500000 -0.950903 18.8293 28.2945 10.9328
17508.8 17508.8 0.500000 -0.950378 18.8076 28.2698 10.929
17513 17513 0.500000 -0.949581 18.778 28.2269 10.9211
17517.3 17517.3 0.500000 -0.948860 18.7577 28.1972 10.9175
17521.5 17521.6 0.500000 -0.947740 18.7357 28.1633 10.9165
17525.9 17525.9 0.500000 -0.946851 18.707 28.1249 10.9114
17530.2 17530.2 0.500000 -0.945834 18.6805 28.0841 10.9066
17534.5 17534.5 0.500000 -0.944722 18.6631 28.0565 10.908
17538.9 17538.9 0.500000 -0.943787 18.6411 28.0274 10.9069
17543.3 17543.3 0.500000 -0.942847 18.6147 27.9927 10.9036
17547.6 17547.7 0.500000 -0.941942 18.5916 27.9599 10.9007
17552.1 17552.1 0.500000 -0.941091 18.5696 27.9263 10.8969
17556.5 17556.5 0.500000 -0.940132 18.5547 27.904 10.8986
17560.9 17561 0.500000 -0.939624 18.5242 27.8604 10.8872
17565.4 17565.5 0.500000 -0.938515 18.4979 27.8237 10.8848
17569.9 17569.9 0.500000 -0.937793 18.4784 27.793 10.8807
17574.5 17574.5 0.500000 -0.937266 18.444 27.7516 10.8702
17579 17579 0.500000 -0.936231 18.4176 27.7139 10.8667
17583.5 17583.5 0.500000 -0.935192 18.3948 27.6748 10.8626
17588.1 17588.1 0.500000 -0.934428 18.3724 27.644 10.8589
17592.7 17592.7 0.500000 -0.933473 18.3518 27.6128 10.857
17597.3 17597.3 0.500000 -0.932385 18.3291 27.5786 10.8553
17601.9 17601.9 0.500000 -0.931661 18.3021 27.5406 10.8482
17606.6 17606.6 0.500000 -0.930796 18.2781 27.5095 10.8454
17611.2 17611.2 0.500000 -0.929686 18.2475 27.4615 10.8385
17615.9 17615.9 0.500000 -0.928693 18.2174 27.4163 10.8314
17620.6 17620.6 0.500000 -0.927677 18.1907 27.3795 10.8278
17625.3 17625.3 0.500000 -0.926857 18.1705 27.3519 10.8258
17630.1 17630.1 0.500000 -0.925869 18.134 27.2991 10.8155
17634.9 17634.8 0.500000 -0.925001 18.1141 27.2703 10.8135
17639.6 17639.6 0.500000 -0.923902 18.0966 27.2452 10.8154
17644.4 17644.4 0.500000 -0.922941 18.0653 27.2005 10.8081
17649.2 17649.2 0.500000 -0.922082 18.0467 27.1719 10.806
17654.1 17654 0.500000 -0.921274 18.0208 27.1361 10.8005
17658.9 17658.9 0.500000 -0.920023 17.9935 27.0974 10.7986
17663.8 17663.8 0.500000 -0.919237 17.9643 27.0537 10.7897
17668.7 17668.7 0.500000 -0.918275 17.9358 27.0131 10.7838
17673.6 17673.6 0.500000 -0.917569 17.9074 26.9733 10.7756
17678.5 17678.5 0.500000 -0.916732 17.8851 26.9424 10.7722
17683.5 17683.4 0.500000 -0.915691 17.8534 26.8942 10.7641
17688.4 17688.4 0.500000 -0.914418 17.8275 26.8541 10.7618
17693.4 17693.4 0.500000 -0.913635 17.8527 26.8958 10.7869
17698.4 17698.4 0.500000 -0.912561 17.8278 26.8591 10.7838
17703.5 17703.4 0.500000 -0.911752 17.8029 26.8251 10.7789
17708.5 17708.5 0.500000 -0.910549 17.7736 26.7834 10.775
17713.6 17713.5 0.500000 -0.909474 17.7479 26.7425 10.7702
17718.6 17718.6 0.500000 -0.908761 17.7123 26.6942 10.7584
17723.7 17723.7 0.500000 -0.907813 17.6869 26.6608 10.7551
17728.9 17728.8 0.500000 -0.906832 17.6675 26.6307 10.7535
17734 17734 0.500000 -0.906042 17.6338 26.5827 10.7426
17739.2 17739.1 0.500000 -0.904947 17.6007 26.5331 10.7343
17744.3 17744.3 0.500000 -0.903895 17.5737 26.4946 10.73
17749.6 17749.5 0.500000 -0.902950 17.55 26.4605 10.7263
17754.8 17754.7 0.500000 -0.901825 17.5204 26.4138 10.7195
17760 17759.9 0.500000 -0.900926 17.4925 26.3739 10.7129
17765.3 17765.2 0.500000 -0.900001 17.4618 26.3288 10.7045
17770.6 17770.5 0.500000 -0.899310 17.4378 26.2974 10.6991
17775.7 17775.8 0.500000 -0.898189 17.3907 26.2292 10.6833
17781 17781.1 0.500000 -0.897226 17.3665 26.1949 10.6797
17786.4 17786.4 0.500000 -0.896048 17.3503 26.1683 10.6814
17791.7 17791.7 0.500000 -0.895342 17.3197 26.1263 10.6717
17797.1 17797.1 0.500000 -0.894451 17.2895 26.0822 10.6632
17802.5 17802.5 0.500000 -0.893287 17.2581 26.0388 10.6579
17807.9 17807.9 0.500000 -0.892107 17.2253 25.987 10.6493
17813.3 17813.3 0.500000 -0.891229 17.1826 25.922 10.6319
17818.7 17818.8 0.500000 -0.890278 17.1565 25.8915 10.6295
17824.2 17824.2 0.500000 -0.889139 17.1339 25.8555 10.6269
17829.6 17829.7 0.500000 -0.888231 17.1106 25.8216 10.6226
17835.2 17835.2 0.500000 -0.887251 17.0785 25.7755 10.614
17840.6 17840.7 0.500000 -0.886192 17.0376 25.7162 10.6008
17846.2 17846.3 0.500000 -0.885383 17.0064 25.6733 10.5917
17851.7 17851.8 0.500000 -0.884150 16.9788 25.6292 10.5865
17857.3 17857.4 0.500000 -0.883250 16.9416 25.5764 10.5742
17862.9 17863 0.500000 -0.882278 16.9217 25.5482 10.5728
17868.5 17868.6 0.500000 -0.881156 16.8855 25.4944 10.5624
17874.2 17874.2 0.500000 -0.880297 16.8626 25.4622 10.5582
17879.8 17879.9 0.500000 -0.879327 16.82 25.4001 10.5426
17885.5 17885.6 0.500000 -0.878063 16.6879 25.2005 10.473
17891.2 17891.3 0.500000 -0.877132 16.7698 25.3233 10.5339
17896.9 17897 0.500000 -0.876227 16.737 25.2779 10.5245
17902.7 17902.7 0.500000 -0.875027 16.7167 25.2455 10.5236
17908.4 17908.5 0.500000 -0.874104 16.6815 25.1979 10.5135
17914.2 17914.2 0.500000 -0.873165 16.6658 25.1747 10.5136
17920 17920 0.500000 -0.872007 16.614 25.0993 10.4943
17925.8 17925.8 0.500000 -0.871089 16.5876 25.0619 10.4883
17931.6 17931.6 0.500000 -0.870143 16.5632 25.0267 10.4835
17937.5 17937.5 0.500000 -0.869078 16.529 24.9789 10.4746
17943.4 17943.3 0.500000 -0.867947 16.501 24.9386 10.4695
17949.3 17949.2 0.500000 -0.867120 16.4569 24.8696 10.4492
17955.2 17955.1 0.500000 -0.866092 16.4393 24.8415 10.4481
17961 17961 0.500000 -0.865066 16.4052 24.7995 10.4412
17967 17967 0.500000 -0.863846 16.3612 24.7302 10.4247
17973 17972.9 0.500000 -0.862837 16.3258 24.6754 10.4121
17979 17978.9 0.500000 -0.862029 16.3097 24.6598 10.4139
17985 17984.9 0.500000 -0.860974 16.2716 24.6026 10.4008
17991 17990.9 0.500000 -0.859949 16.2426 24.5582 10.3926
17997.1 17997 0.500000 -0.858656 16.2124 24.5137 10.3872
18003.1 18003 0.500000 -0.857780 16.1832 24.4729 10.379
18009.3 18009.1 0.500000 -0.856791 16.1593 24.4364 10.3738
18015.2 18015.2 0.500000 -0.855848 16.1299 24.4003 10.3682
18021.3 18021.3 0.500000 -0.854787 16.0945 24.3399 10.3536
18027.5 18027.4 0.500000 -0.853800 16.057 24.2875 10.3415
18033.7 18033.6 0.500000 -0.852418 16.02 24.2327 10.3324
18039.9 18039.7 0.500000 -0.851786 15.9806 24.1717 10.3129
18046 18045.9 0.500000 -0.850621 15.9809 24.1756 10.3266
18052.1 18052.1 0.500000 -0.849702 15.9449 24.1247 10.3143
18058.4 18058.3 0.500000 -0.848652 15.9002 24.0574 10.2964
18064.6 18064.6 0.500000 -0.847384 15.8727 24.0193 10.2931
18070.9 18070.8 0.500000 -0.846493 15.8407 23.9708 10.2815
18077.2 18077.1 0.500000 -0.845320 15.8008 23.9129 10.2687
18083.4 18083.4 0.500000 -0.844465 15.669 23.7149 10.1924
18089.8 18089.7 0.500000 -0.843295 15.7599 23.8545 10.2644
18096.1 18096.1 0.500000 -0.842493 15.7259 23.8058 10.2516
18102.5 18102.4 0.500000 -0.841403 15.6697 23.7245 10.2278
18108.9 18108.8 0.500000 -0.840248 15.6449 23.6834 10.2218
18115.3 18115.2 0.500000 -0.839192 15.6114 23.6347 10.2116
18121.7 18121.6 0.500000 -0.837836 15.5106 23.4864 10.1613
18128.1 18128.1 0.500000 -0.837081 15.5519 23.5481 10.1957
18134.6 18134.5 0.500000 -0.836334 15.4973 23.4671 10.1682