File: xdidata/Y/Y-K-YttriumOxide.xdi
# XDI/1.0 BlueSky/1.10.0 BMM/2023-1.0-py310-tiled
# Beamline.name: BMM (06BM) -- Beamline for Materials Measurement (NIST)
# Beamline.xray_source: NSLS-II three-pole wiggler
# Beamline.collimation: paraboloid mirror, 5 nm Rh on 30 nm Pt
# Beamline.focusing: not in use
# Beamline.harmonic_rejection: flat mirror, Pt stripe, pitch = 7.0 mrad relative to beam
# Beamline.software: Bluesky 1.10.0, Ophyd 1.7.0, DataBroker 2.0.0b13, Python 3.10.8, 2023-1.0-py310-tiled
# Detector.I0: 10 cm N2
# Detector.I1: 25 cm N2
# Detector.I2: 25 cm N2
# Element.symbol: Y
# Element.edge: K
# Element.reference: Y
# Element.reference_material: Y2O3
# Facility.name: NSLS-II
# Facility.energy: 3.0
# Facility.current: 400.7
# Facility.mode: top-off
# Facility.GUP: 301027
# Facility.SAF: 310583
# Facility.cycle: 2023-2
# Mono.name: Si(111)
# Mono.d_spacing: 3.13519
# Mono.encoder_resolution: 0.0000050 deg/ct
# Mono.angle_offset: 16.0754 deg
# Mono.scan_mode: pseudo channel cut
# Mono.scan_type: step
# Mono.direction: forward in energy
# Sample.name: Y2O3
# Sample.prep: PEG pellet
# Sample.x: 109.138 mm
# Sample.y: 153.150 mm
# Sample.SDD_position: 205.000 mm
# Scan.experimenters: Bruce Ravel
# Scan.edge_energy: 17038.4
# Scan.start_time: 2023-05-28T22:07:49
# Scan.end_time: 2023-05-28T22:15:23
# Scan.transient_id: 79057
# Scan.uid: 97cdf0a0-fd3d-4ca7-806e-3b001e02e95a
# Scan.plot_hint: ln(It/Ir)  --  ln($6/$7)
# Column.1: energy eV
# Column.2: requested_energy eV
# Column.3: measurement_time seconds
# Column.4: xmu
# Column.5: I0 nA
# Column.6: It nA
# Column.7: Ir nA
# ///////////
# sample courtesy Martin Stennett, University of Sheffield
# -----------
# energy  requested_energy  measurement_time  xmu  I0  It  Ir
  16838.342  16838.400  0.500  0.280476  15.8031  29.2885  22.1252
  16848.327  16848.400  0.500  0.279952  17.645  32.7048  24.7189
  16858.523  16858.400  0.500  0.279658  17.5521  32.5416  24.6029
  16868.282  16868.400  0.500  0.279163  17.4799  32.4085  24.5144
  16878.290  16878.400  0.500  0.278838  17.4649  32.3845  24.5042
  16888.297  16888.400  0.500  0.278377  17.4113  32.2864  24.4412
  16898.317  16898.400  0.500  0.278192  17.3685  32.2089  24.387
  16908.335  16908.400  0.500  0.277765  17.3132  32.109  24.3217
  16918.316  16918.400  0.500  0.277589  17.2428  31.985  24.2321
  16928.321  16928.400  0.500  0.277270  17.2127  31.9276  24.1963
  16938.326  16938.400  0.500  0.277144  17.1136  31.7436  24.0599
  16948.354  16948.400  0.500  0.276895  16.2881  30.2192  22.9102
  16958.332  16958.400  0.500  0.276803  17.2495  32.0046  24.266
  16968.385  16968.400  0.500  0.277069  17.1776  31.8734  24.1601
  16978.336  16978.400  0.500  0.277196  17.1021  31.7351  24.0523
  16988.349  16988.400  0.500  0.277936  17.0517  31.6424  23.9642
  16998.349  16998.400  0.500  0.278965  17.0122  31.5721  23.8864
  17008.336  17008.400  0.500  0.280825  16.9645  31.4895  23.7797
  17010.314  17010.400  0.500  0.281393  16.9585  31.4795  23.7586
  17012.306  17012.400  0.500  0.281892  16.9496  31.459  23.7313
  17014.311  17014.400  0.500  0.282760  16.9402  31.4456  23.7006
  17016.278  17016.400  0.500  0.283514  16.9291  31.4278  23.6693
  17018.334  17018.400  0.500  0.284627  16.9208  31.4123  23.6313
  17020.328  17020.400  0.500  0.285978  16.9107  31.3935  23.5853
  17022.360  17022.400  0.500  0.287255  16.9016  31.3791  23.5444
  17024.341  17024.400  0.500  0.288905  16.8861  31.3493  23.4832
  17026.362  17026.400  0.500  0.291021  16.883  31.3443  23.4298
  17028.332  17028.400  0.500  0.293755  16.8734  31.3285  23.3541
  17028.599  17028.700  0.500  0.294099  16.8712  31.3198  23.3396
  17028.916  17029.000  0.500  0.294642  16.865  31.315  23.3234
  17029.221  17029.300  0.500  0.295045  16.8657  31.3128  23.3123
  17029.552  17029.600  0.500  0.295527  16.867  31.3118  23.3003
  17029.857  17029.900  0.500  0.296213  16.8604  31.3092  23.2825
  17030.137  17030.200  0.500  0.296833  16.861  31.3013  23.2621
  17030.455  17030.500  0.500  0.297329  16.8582  31.2979  23.2481
  17030.734  17030.800  0.500  0.297924  16.8597  31.303  23.238
  17031.001  17031.100  0.500  0.298516  16.8553  31.2981  23.2206
  17031.332  17031.400  0.500  0.299326  16.8562  31.2952  23.1997
  17031.637  17031.700  0.500  0.300098  16.8557  31.2974  23.1834
  17031.955  17032.000  0.500  0.300874  16.8503  31.2874  23.158
  17032.235  17032.300  0.500  0.301506  16.8464  31.2795  23.1376
  17032.527  17032.600  0.500  0.302332  16.8444  31.2808  23.1194
  17032.820  17032.900  0.500  0.303176  16.8462  31.2757  23.0961
  17033.125  17033.200  0.500  0.304105  16.8427  31.2721  23.072
  17033.443  17033.500  0.500  0.305041  16.85  31.2816  23.0574
  17033.761  17033.800  0.500  0.306301  16.8414  31.2689  23.0191
  17034.092  17034.100  0.500  0.307516  16.8363  31.263  22.9868
  17034.371  17034.400  0.500  0.308254  16.834  31.2516  22.9615
  17034.664  17034.700  0.500  0.309519  16.839  31.2595  22.9382
  17034.944  17035.000  0.500  0.310836  16.8312  31.2531  22.9033
  17035.249  17035.300  0.500  0.312209  16.8304  31.2483  22.8684
  17035.554  17035.600  0.500  0.313656  16.8301  31.249  22.8359
  17035.860  17035.900  0.500  0.315393  16.8246  31.2364  22.787
  17036.152  17036.200  0.500  0.317200  16.8278  31.2416  22.7497
  17036.458  17036.500  0.500  0.318789  16.8229  31.2367  22.7099
  17036.738  17036.800  0.500  0.321048  16.8198  31.2328  22.6559
  17037.043  17037.100  0.500  0.323208  16.8239  31.2371  22.6101
  17037.361  17037.400  0.500  0.325719  16.8213  31.2381  22.5542
  17037.666  17037.700  0.500  0.328363  16.8177  31.2232  22.4839
  17037.985  17038.000  0.500  0.331851  16.8117  31.2173  22.4014
  17038.290  17038.300  0.500  0.335221  16.8077  31.2065  22.3182
  17038.595  17038.600  0.500  0.338953  16.8073  31.21  22.2376
  17038.875  17038.900  0.500  0.343186  16.808  31.2108  22.1442
  17039.181  17039.200  0.500  0.348163  16.8042  31.2034  22.0291
  17039.461  17039.500  0.500  0.353559  16.8017  31.2014  21.9092
  17039.792  17039.800  0.500  0.360123  16.799  31.194  21.7606
  17040.072  17040.100  0.500  0.366932  16.7972  31.1924  21.6119
  17040.403  17040.400  0.500  0.374851  16.8008  31.1966  21.4443
  17040.683  17040.700  0.500  0.382924  16.803  31.1991  21.2736
  17040.976  17041.000  0.500  0.391440  16.7936  31.1865  21.0847
  17041.294  17041.300  0.500  0.401618  16.7941  31.1822  20.8683
  17041.587  17041.600  0.500  0.411676  16.797  31.183  20.66
  17041.918  17041.900  0.500  0.423365  16.7881  31.1759  20.4152
  17042.236  17042.200  0.500  0.434655  16.7875  31.1773  20.187
  17042.516  17042.500  0.500  0.445717  16.791  31.1805  19.9669
  17042.822  17042.800  0.500  0.456763  16.7858  31.168  19.7396
  17043.102  17043.100  0.500  0.467662  16.7849  31.1666  19.5248
  17043.407  17043.400  0.500  0.479102  16.7782  31.1591  19.2981
  17043.700  17043.700  0.500  0.491008  16.7759  31.1538  19.0664
  17044.006  17044.000  0.500  0.502801  16.7758  31.1525  18.8421
  17044.324  17044.300  0.500  0.515306  16.7741  31.1462  18.6042
  17044.592  17044.600  0.500  0.526945  16.7716  31.1453  18.3883
  17044.884  17044.900  0.500  0.539177  16.7747  31.1517  18.1686
  17045.190  17045.200  0.500  0.552649  16.7704  31.1413  17.9195
  17045.509  17045.500  0.500  0.567318  16.7719  31.1476  17.662
  17045.802  17045.800  0.500  0.582014  16.7653  31.1432  17.402
  17046.133  17046.100  0.500  0.598154  16.7584  31.1232  17.1123
  17046.426  17046.400  0.500  0.613007  16.7614  31.1296  16.8635
  17046.693  17046.700  0.500  0.627984  16.7576  31.1274  16.6117
  17046.999  17047.000  0.500  0.643819  16.7571  31.1182  16.3459
  17047.317  17047.300  0.500  0.660603  16.7609  31.1256  16.0776
  17047.610  17047.600  0.500  0.677367  16.7552  31.1187  15.8068
  17047.903  17047.900  0.500  0.694969  16.7424  31.0984  15.5209
  17048.209  17048.200  0.500  0.712273  16.7453  31.1011  15.2559
  17048.489  17048.500  0.500  0.729059  16.746  31.0977  15.0004
  17048.782  17048.800  0.500  0.745911  16.7463  31.1004  14.751
  17049.101  17049.100  0.500  0.762950  16.7429  31.0956  14.4995
  17049.381  17049.400  0.500  0.780681  16.7464  31.1037  14.2484
  17049.700  17049.700  0.500  0.799678  16.7364  31.0867  13.9727
  17050.031  17050.000  0.500  0.819009  16.7334  31.0818  13.703
  17050.299  17050.300  0.500  0.837764  16.7305  31.0791  13.4472
  17050.605  17050.600  0.500  0.857624  16.7312  31.082  13.184
  17050.898  17050.900  0.500  0.877341  16.7299  31.0798  12.9257
  17051.178  17051.200  0.500  0.899265  16.7265  31.0721  12.6423
  17051.522  17051.500  0.500  0.923244  16.7254  31.0646  12.3397
  17051.790  17051.800  0.500  0.946525  16.7243  31.068  12.0571
  17052.121  17052.100  0.500  0.972206  16.723  31.0658  11.7505
  17052.389  17052.400  0.500  0.995862  16.7196  31.0575  11.4728
  17052.670  17052.700  0.500  1.020319  16.7127  31.0503  11.193
  17052.988  17053.000  0.500  1.045942  16.7134  31.0504  10.9099
  17053.281  17053.300  0.500  1.070282  16.7139  31.0517  10.648
  17053.600  17053.600  0.500  1.094876  16.7156  31.0534  10.3899
  17053.906  17053.900  0.500  1.118247  16.7134  31.0465  10.1476
  17054.199  17054.200  0.500  1.138437  16.7038  31.0337  9.940685
  17054.505  17054.500  0.500  1.156171  16.7052  31.0357  9.766595
  17054.760  17054.800  0.500  1.170217  16.7029  31.0331  9.629552
  17055.066  17055.100  0.500  1.183242  16.6984  31.0185  9.500465
  17055.372  17055.400  0.500  1.192358  16.6967  31.0146  9.413082
  17055.678  17055.700  0.500  1.198782  16.6949  31.0158  9.353174
  17055.972  17056.000  0.500  1.202253  16.6955  31.0191  9.321737
  17056.265  17056.300  0.500  1.203305  16.6897  31.0086  9.308807
  17056.571  17056.600  0.500  1.202505  16.686  31.0012  9.314017
  17056.864  17056.900  0.500  1.200263  16.6841  30.9966  9.333533
  17057.183  17057.200  0.500  1.196773  16.6868  31.0005  9.367345
  17057.502  17057.500  0.500  1.192290  16.6799  30.9852  9.404801
  17057.808  17057.800  0.500  1.187865  16.6776  30.979  9.444611
  17058.089  17058.100  0.500  1.183971  16.6771  30.9808  9.482013
  17058.370  17058.400  0.500  1.180543  16.6692  30.9687  9.510856
  17058.663  17058.700  0.500  1.177118  16.6674  30.9626  9.541598
  17058.982  17059.000  0.500  1.174993  16.6636  30.9625  9.561888
  17059.275  17059.300  0.500  1.173299  16.6661  30.9631  9.578257
  17059.594  17059.600  0.500  1.172696  16.6585  30.9449  9.578407
  17059.862  17059.900  0.500  1.172647  16.6616  30.9561  9.582349
  17060.194  17060.200  0.500  1.173050  16.653  30.9358  9.572213
  17060.449  17060.500  0.500  1.174534  16.6519  30.9347  9.557662
  17060.793  17060.800  0.500  1.176282  16.6505  30.9304  9.539657
  17061.112  17061.100  0.500  1.178380  16.6447  30.9243  9.517803
  17061.406  17061.400  0.500  1.180516  16.6933  31.0136  9.524892
  17061.712  17061.700  0.500  1.182787  16.695  31.0165  9.504180
  17062.006  17062.000  0.500  1.184747  16.6982  31.0228  9.487508
  17062.274  17062.300  0.500  1.186610  16.6964  31.0199  9.468961
  17062.593  17062.600  0.500  1.188580  16.6927  31.01  9.447303
  17062.899  17062.900  0.500  1.190717  16.6905  31.009  9.426828
  17063.231  17063.200  0.500  1.191995  16.6848  30.9985  9.411596
  17063.410  17063.400  0.500  1.193027  16.6856  31.001  9.402650
  17064.405  17064.390  0.500  1.195123  16.6686  30.9601  9.370590
  17065.426  17065.390  0.500  1.192395  16.6529  30.9407  9.390298
  17066.435  17066.410  0.500  1.181963  16.6265  30.8906  9.473412
  17067.469  17067.460  0.500  1.162769  16.6055  30.8532  9.645314
  17068.568  17068.520  0.500  1.134999  16.5715  30.7917  9.897142
  17069.628  17069.600  0.500  1.106414  16.5231  30.701  10.1541
  17070.726  17070.700  0.500  1.076902  16.4433  30.5513  10.4073
  17071.863  17071.820  0.500  1.049421  16.2691  30.2283  10.5841
  17072.962  17072.960  0.500  1.025592  15.8545  29.4546  10.5619
  17074.125  17074.110  0.500  1.003458  14.9687  27.8094  10.1952
  17075.314  17075.290  0.500  0.981890  14.0998  26.1923  9.811693
  17076.464  17076.480  0.500  0.961688  14.2525  26.4778  10.1211
  17077.678  17077.700  0.500  0.944139  15.3213  28.4665  11.0739
  17078.931  17078.930  0.500  0.931914  16.2875  30.2612  11.9169
  17080.185  17080.180  0.500  0.923208  16.642  30.9212  12.2832
  17081.464  17081.450  0.500  0.918241  16.7153  31.0569  12.3985
  17082.768  17082.740  0.500  0.916831  16.7284  31.0822  12.4261
  17084.112  17084.050  0.500  0.919470  16.7223  31.0715  12.3892
  17085.417  17085.380  0.500  0.925907  16.7103  31.0525  12.3021
  17086.773  17086.730  0.500  0.935650  16.7069  31.0459  12.1803
  17088.130  17088.100  0.500  0.945932  16.7028  31.0385  12.0528
  17089.526  17089.480  0.500  0.955420  16.6947  31.0231  11.9331
  17090.921  17090.890  0.500  0.961643  16.6831  30.9991  11.8499
  17092.317  17092.310  0.500  0.965515  16.6755  30.9881  11.7999
  17093.752  17093.750  0.500  0.967874  16.6683  30.9732  11.7664
  17095.199  17095.210  0.500  0.970622  16.6589  30.955  11.7272
  17096.673  17096.690  0.500  0.975478  16.6499  30.9418  11.6654
  17098.172  17098.190  0.500  0.983098  16.6388  30.9223  11.5696
  17099.736  17099.710  0.500  0.993267  16.6345  30.9161  11.4502
  17101.261  17101.250  0.500  1.004317  16.6237  30.8906  11.3151
  17102.864  17102.810  0.500  1.015427  16.6157  30.88  11.1862
  17104.403  17104.380  0.500  1.025804  16.6047  30.8625  11.0645
  17106.019  17105.980  0.500  1.036700  16.5999  30.8505  10.9403
  17107.597  17107.590  0.500  1.046455  16.5931  30.8362  10.8291
  17109.252  17109.230  0.500  1.054898  16.5874  30.8325  10.7367
  17110.882  17110.880  0.500  1.060023  16.5795  30.8178  10.6768
  17112.551  17112.550  0.500  1.061991  16.5724  30.7981  10.6489
  17114.220  17114.240  0.500  1.060916  16.5652  30.7878  10.6569
  17115.941  17115.950  0.500  1.055877  16.5595  30.7813  10.7084
  17117.662  17117.680  0.500  1.047185  16.5511  30.7606  10.7946
  17119.447  17119.430  0.500  1.036493  16.5428  30.7443  10.9049
  17121.221  17121.190  0.500  1.025341  16.5382  30.7423  11.0265
  17123.020  17122.980  0.500  1.015685  16.5234  30.7137  11.1231
  17124.820  17124.780  0.500  1.008121  16.516  30.6997  11.2024
  17126.645  17126.610  0.500  1.002111  16.513  30.6942  11.268
  17128.484  17128.450  0.500  0.995790  16.5046  30.6799  11.3341
  17130.324  17130.310  0.500  0.988532  16.4972  30.6597  11.4092
  17132.215  17132.190  0.500  0.980641  16.4818  30.6395  11.492
  17134.107  17134.090  0.500  0.972255  16.4781  30.6328  11.5862
  17136.012  17136.010  0.500  0.964845  16.469  30.6142  11.6653
  17137.969  17137.950  0.500  0.959016  16.4662  30.6061  11.7304
  17139.939  17139.910  0.500  0.955559  16.4522  30.5868  11.7636
  17141.884  17141.880  0.500  0.954440  16.4376  30.5585  11.7659
  17143.881  17143.880  0.500  0.955389  16.4317  30.5449  11.7495
  17145.917  17145.890  0.500  0.958238  16.4233  30.5318  11.711
  17147.954  17147.920  0.500  0.962084  16.4155  30.5171  11.6605
  17150.016  17149.980  0.500  0.965543  16.4054  30.495  11.6118
  17152.054  17152.050  0.500  0.968403  16.3893  30.4703  11.5692
  17154.131  17154.140  0.500  0.971400  16.3876  30.4692  11.5342
  17156.247  17156.250  0.500  0.974790  16.3827  30.4595  11.4915
  17158.402  17158.380  0.500  0.977154  16.3732  30.4407  11.4573
  17160.570  17160.520  0.500  0.978330  16.3663  30.4304  11.4399
  17162.740  17162.690  0.500  0.978122  16.3501  30.4022  11.4317
  17164.935  17164.880  0.500  0.977375  16.3396  30.3842  11.4335
  17167.131  17167.080  0.500  0.976787  16.3421  30.3868  11.4412
  17169.341  17169.300  0.500  0.976497  16.3266  30.3573  11.4334
  17171.512  17171.550  0.500  0.976530  16.3171  30.3396  11.4264
  17173.801  17173.810  0.500  0.976159  16.3072  30.3253  11.4252
  17176.142  17176.090  0.500  0.975859  16.3003  30.3123  11.4237
  17178.418  17178.390  0.500  0.976145  16.2975  30.3045  11.4176
  17180.721  17180.710  0.500  0.976810  16.2813  30.2717  11.3976
  17183.116  17183.050  0.500  0.978057  16.2774  30.2671  11.3817
  17185.420  17185.400  0.500  0.979811  16.2629  30.2424  11.3524
  17187.790  17187.780  0.500  0.982111  16.2501  30.219  11.3176
  17190.186  17190.170  0.500  0.984948  16.2481  30.2128  11.2832
  17192.596  17192.590  0.500  0.987842  16.2375  30.2005  11.2461
  17195.033  17195.020  0.500  0.990016  16.2259  30.1752  11.2122
  17197.509  17197.470  0.500  0.990268  16.2161  30.1586  11.2032
  17199.986  17199.950  0.500  0.988283  16.2038  30.1352  11.2168
  17202.464  17202.440  0.500  0.984183  16.195  30.1238  11.2586
  17204.981  17204.950  0.500  0.977926  16.185  30.1012  11.3208
  17207.525  17207.470  0.500  0.969941  16.1733  30.0819  11.4042
  17210.005  17210.020  0.500  0.960659  16.1627  30.0605  11.5024
  17212.589  17212.590  0.500  0.951363  16.1481  30.0383  11.6012
  17215.149  17215.170  0.500  0.943885  16.1447  30.0336  11.6865
  17217.826  17217.780  0.500  0.938989  16.1303  30.0062  11.7331
  17220.412  17220.400  0.500  0.936190  16.1256  29.9971  11.7625
  17223.091  17223.050  0.500  0.935033  16.1146  29.9771  11.7682
  17225.718  17225.710  0.500  0.935849  16.1043  29.9562  11.7504
  17228.412  17228.390  0.500  0.939904  16.0918  29.9363  11.6951
  17231.067  17231.090  0.500  0.945781  16.0804  29.9179  11.6194
  17233.814  17233.810  0.500  0.952030  16.0644  29.8845  11.5341
  17236.588  17236.550  0.500  0.958145  16.0417  29.8391  11.4464
  17239.337  17239.300  0.500  0.964000  16.0441  29.8498  11.3836
  17242.139  17242.080  0.500  0.969018  16.0365  29.8348  11.321
  17244.889  17244.870  0.500  0.972641  16.0257  29.8142  11.2723
  17247.667  17247.690  0.500  0.974698  16.0148  29.7993  11.2435
  17250.550  17250.520  0.500  0.974304  16.0016  29.7786  11.2401
  17253.368  17253.370  0.500  0.971697  15.9953  29.761  11.2627
  17256.292  17256.250  0.500  0.966976  15.9832  29.7384  11.3074
  17259.204  17259.140  0.500  0.961739  15.9745  29.7229  11.3609
  17262.104  17262.050  0.500  0.956500  15.9637  29.7044  11.4135
  17264.966  17264.970  0.500  0.951985  15.929  29.639  11.4399
  17267.920  17267.920  0.500  0.948927  15.9274  29.6395  11.4751
  17270.901  17270.890  0.500  0.947232  15.9189  29.6257  11.4892
  17273.883  17273.870  0.500  0.946892  15.9081  29.6057  11.4854
  17276.945  17276.880  0.500  0.948009  15.9019  29.5933  11.4678
  17279.943  17279.900  0.500  0.949395  15.8829  29.5585  11.4384
  17282.981  17282.950  0.500  0.951280  15.8605  29.5172  11.4009
  17286.019  17286.010  0.500  0.953162  15.8652  29.5272  11.3833
  17289.099  17289.090  0.500  0.954932  15.8532  29.5073  11.3555
  17292.232  17292.190  0.500  0.955918  15.8406  29.4861  11.3362
  17295.365  17295.310  0.500  0.956854  15.8294  29.4638  11.317
  17298.448  17298.450  0.500  0.957704  15.8061  29.4232  11.2918
  17301.624  17301.600  0.500  0.957839  15.7962  29.398  11.2806
  17304.761  17304.780  0.500  0.956721  15.7942  29.3977  11.2931
  17307.979  17307.970  0.500  0.954653  15.775  29.3625  11.303
  17311.210  17311.190  0.500  0.952345  15.7713  29.3555  11.3264
  17314.469  17314.420  0.500  0.949553  15.7547  29.3283  11.3475
  17317.704  17317.670  0.500  0.946507  15.7075  29.2394  11.3476
  17320.978  17320.950  0.500  0.943770  15.7231  29.2742  11.3923
  17324.254  17324.240  0.500  0.941000  15.7201  29.2652  11.4204
  17327.584  17327.550  0.500  0.937927  15.7051  29.239  11.4453
  17330.929  17330.870  0.500  0.934275  15.6939  29.2183  11.479
  17334.288  17334.220  0.500  0.931141  15.6661  29.1687  11.4955
  17337.635  17337.590  0.500  0.930809  15.666  29.1738  11.5013
  17340.983  17340.970  0.500  0.932220  15.6534  29.1469  11.4745
  17344.386  17344.380  0.500  0.933998  15.6419  29.1244  11.4453
  17347.829  17347.800  0.500  0.935945  15.6286  29.1004  11.4136
  17351.313  17351.250  0.500  0.938271  15.6157  29.0789  11.3787
  17354.746  17354.710  0.500  0.941099  15.6009  29.0549  11.3372
  17358.220  17358.190  0.500  0.943282  15.5842  29.0234  11.3002
  17361.708  17361.690  0.500  0.944315  15.575  29.0014  11.28
  17365.225  17365.210  0.500  0.943798  15.5591  28.9696  11.2734
  17368.796  17368.750  0.500  0.942563  15.5468  28.9563  11.2822
  17372.328  17372.300  0.500  0.940400  15.5331  28.9296  11.2962
  17375.902  17375.880  0.500  0.938734  15.5182  28.9079  11.3065
  17379.490  17379.480  0.500  0.937298  15.5093  28.8848  11.3137
  17383.080  17383.090  0.500  0.935913  15.4926  28.8533  11.3171
  17386.738  17386.720  0.500  0.935497  15.4809  28.8286  11.3121
  17390.410  17390.380  0.500  0.935740  15.466  28.8113  11.3025
  17394.097  17394.050  0.500  0.935731  15.4496  28.7755  11.2886
  17397.786  17397.740  0.500  0.935398  15.4206  28.7228  11.2717
  17401.423  17401.450  0.500  0.933944  15.4204  28.7244  11.2887
  17405.195  17405.180  0.500  0.931301  15.4055  28.7025  11.31
  17408.915  17408.920  0.500  0.928823  15.3933  28.6761  11.3276
  17412.717  17412.690  0.500  0.927291  15.3586  28.6137  11.3203
  17416.507  17416.480  0.500  0.926331  15.3573  28.6104  11.3298
  17420.312  17420.280  0.500  0.925231  15.3499  28.5934  11.3356
  17424.131  17424.110  0.500  0.925109  15.3321  28.5701  11.3277
  17427.993  17427.950  0.500  0.924887  15.3196  28.5438  11.3198
  17431.843  17431.810  0.500  0.925278  15.3072  28.5224  11.3069
  17435.721  17435.690  0.500  0.926070  15.2841  28.4773  11.2801
  17439.575  17439.590  0.500  0.926429  15.2577  28.4315  11.2579
  17443.523  17443.510  0.500  0.926542  15.2623  28.4382  11.2593
  17447.487  17447.450  0.500  0.926643  15.2474  28.4116  11.2476
  17451.439  17451.410  0.500  0.926223  15.2487  28.4168  11.2544
  17455.366  17455.380  0.500  0.925463  15.2669  28.4522  11.277
  17459.375  17459.380  0.500  0.924646  15.2478  28.4171  11.2723
  17463.439  17463.390  0.500  0.923807  15.22  28.3675  11.262
  17467.452  17467.430  0.500  0.923198  15.2245  28.3736  11.2713
  17471.494  17471.480  0.500  0.922518  15.2117  28.3513  11.2701
  17475.564  17475.550  0.500  0.921306  15.1952  28.3191  11.271
  17479.663  17479.640  0.500  0.919695  15.1732  28.2826  11.2746
  17483.790  17483.750  0.500  0.917821  15.1522  28.2433  11.2801
  17487.893  17487.880  0.500  0.916179  15.116  28.1802  11.2733
  17492.038  17492.030  0.500  0.914591  15.1247  28.1957  11.2975
  17496.185  17496.190  0.500  0.913789  15.1145  28.1784  11.2996
  17500.388  17500.380  0.500  0.913598  15.0995  28.1499  11.2903
  17504.659  17504.580  0.500  0.913991  15.0796  28.1123  11.2708
  17508.906  17508.810  0.500  0.914876  15.0701  28.0953  11.254
  17513.048  17513.050  0.500  0.915803  15.0542  28.066  11.2319
  17517.326  17517.310  0.500  0.916243  15.0337  28.0318  11.2133
  17521.633  17521.590  0.500  0.915886  15.0204  28.0059  11.2069
  17525.929  17525.890  0.500  0.915857  15.0073  27.9813  11.1974
  17530.281  17530.210  0.500  0.915800  14.9866  27.948  11.1847
  17534.594  17534.550  0.500  0.915009  14.9702  27.9182  11.1816
  17538.923  17538.910  0.500  0.913658  14.955  27.8887  11.1849
  17543.349  17543.290  0.500  0.912620  14.9418  27.8623  11.1859
  17547.750  17547.680  0.500  0.911403  14.9223  27.8318  11.1873
  17552.153  17552.100  0.500  0.910259  14.9065  27.8009  11.1876
  17556.531  17556.530  0.500  0.909384  14.8904  27.7688  11.1845
  17561.074  17560.980  0.500  0.907939  14.8756  27.7443  11.1908
  17565.511  17565.450  0.500  0.905586  14.8586  27.7106  11.2035
  17569.978  17569.940  0.500  0.903189  14.8404  27.6798  11.2179
  17574.501  17574.450  0.500  0.901805  14.8245  27.6511  11.2218
  17579.012  17578.980  0.500  0.900436  14.8056  27.6176  11.2236
  17583.607  17583.530  0.500  0.899566  14.7873  27.5891  11.2217
  17588.192  17588.100  0.500  0.899459  14.768  27.5482  11.2063
  17592.792  17592.680  0.500  0.899703  14.7555  27.5253  11.1943
  17597.367  17597.290  0.500  0.900735  14.7387  27.4958  11.1707
  17602.040  17601.910  0.500  0.901796  14.7211  27.4648  11.1463
  17606.607  17606.560  0.500  0.902316  14.7033  27.4316  11.1271
  17611.339  17611.220  0.500  0.902501  14.6863  27.4016  11.1128
  17616.019  17615.900  0.500  0.902336  14.6682  27.369  11.1014
  17620.702  17620.600  0.500  0.901607  14.6498  27.3356  11.096
  17625.415  17625.320  0.500  0.900358  14.6331  27.3039  11.097
  17630.184  17630.060  0.500  0.898738  14.6124  27.2633  11.0984
  17634.888  17634.810  0.500  0.897436  14.5968  27.2423  11.1043
  17639.677  17639.590  0.500  0.895967  14.5763  27.2021  11.1042
  17644.495  17644.390  0.500  0.894885  14.5654  27.1818  11.108
  17649.316  17649.200  0.500  0.893588  14.5424  27.1385  11.1047
  17654.085  17654.030  0.500  0.892143  14.5291  27.1129  11.1102
  17658.966  17658.890  0.500  0.890826  14.5105  27.0841  11.113
  17663.795  17663.760  0.500  0.889976  14.4912  27.0506  11.1088
  17668.709  17668.650  0.500  0.889511  14.4736  27.0185  11.1007
  17673.612  17673.560  0.500  0.889068  14.4579  26.9849  11.0918
  17678.545  17678.490  0.500  0.888414  14.4366  26.9493  11.0845
  17683.454  17683.430  0.500  0.887840  14.4209  26.9185  11.0781
  17688.433  17688.400  0.500  0.887680  14.3985  26.883  11.0653
  17693.416  17693.390  0.500  0.887856  14.3797  26.8453  11.0479
  17698.456  17698.390  0.500  0.887928  14.3638  26.8189  11.0362
  17703.486  17703.420  0.500  0.887790  14.3456  26.7836  11.0232
  17708.532  17708.460  0.500  0.887177  14.3277  26.751  11.0165
  17713.539  17713.520  0.500  0.886304  14.3061  26.7196  11.0132
  17718.605  17718.600  0.500  0.885095  14.288  26.6826  11.0112
  17723.729  17723.700  0.500  0.883813  14.2708  26.6483  11.0112
  17728.855  17728.820  0.500  0.882830  14.2524  26.6139  11.0078
  17733.985  17733.960  0.500  0.881879  14.2335  26.583  11.0055
  17739.145  17739.120  0.500  0.880781  14.2091  26.5372  10.9986
  17744.295  17744.300  0.500  0.879570  14.194  26.5088  11.0001
  17749.516  17749.490  0.500  0.878106  14.1762  26.475  11.0022
  17754.782  17754.710  0.500  0.876955  14.1545  26.4401  11.0003
  17759.969  17759.940  0.500  0.875833  14.1374  26.4098  11.0001
  17765.227  17765.190  0.500  0.874930  14.1115  26.3674  10.9923
  17770.489  17770.460  0.500  0.874372  14.0966  26.3343  10.9847
  17775.754  17775.750  0.500  0.874352  14.0789  26.301  10.971
  17781.091  17781.060  0.500  0.874380  14.0606  26.2651  10.9557
  17786.417  17786.390  0.500  0.874383  14.0388  26.2308  10.9414
  17791.775  17791.740  0.500  0.873908  14.0204  26.1938  10.9311
  17797.150  17797.110  0.500  0.873472  14.0029  26.1601  10.9218
  17802.514  17802.490  0.500  0.872620  13.9819  26.1239  10.916
  17807.951  17807.900  0.500  0.871908  13.9615  26.0859  10.9079
  17813.363  17813.320  0.500  0.871264  13.944  26.0529  10.9011
  17818.821  17818.770  0.500  0.870522  13.9208  26.0113  10.8918
  17824.268  17824.230  0.500  0.869377  13.9011  25.9762  10.8896
  17829.746  17829.710  0.500  0.868392  13.8835  25.9447  10.8871
  17835.255  17835.210  0.500  0.867331  13.8638  25.9079  10.8832
  17840.796  17840.730  0.500  0.866196  13.8433  25.8727  10.8807
  17846.285  17846.270  0.500  0.864953  13.8218  25.8372  10.8793
  17851.846  17851.820  0.500  0.863868  13.8041  25.7986  10.8748
  17857.411  17857.400  0.500  0.863085  13.7844  25.7608  10.8674
  17863.050  17863.000  0.500  0.862269  13.76  25.7206  10.8593
  17868.664  17868.610  0.500  0.861606  13.7438  25.6886  10.853
  17874.324  17874.250  0.500  0.860909  13.7194  25.6466  10.8428
  17879.931  17879.900  0.500  0.860420  13.697  25.608  10.8318
  17885.584  17885.570  0.500  0.859753  13.6773  25.5714  10.8235
  17891.325  17891.260  0.500  0.859113  13.5831  25.3962  10.7562