File: xdidata/Y/Y-K-Y2TiO5.xdi
# XDI/1.0 BlueSky/1.10.0 BMM/2023-1.0-py310-tiled
# Beamline.name: BMM (06BM) -- Beamline for Materials Measurement (NIST)
# Beamline.xray_source: NSLS-II three-pole wiggler
# Beamline.collimation: paraboloid mirror, 5 nm Rh on 30 nm Pt
# Beamline.focusing: not in use
# Beamline.harmonic_rejection: flat mirror, Pt stripe, pitch = 7.0 mrad relative to beam
# Beamline.software: Bluesky 1.10.0, Ophyd 1.7.0, DataBroker 2.0.0b13, Python 3.10.8, 2023-1.0-py310-tiled
# Detector.I0: 10 cm N2
# Detector.I1: 25 cm N2
# Detector.I2: 25 cm N2
# Element.symbol: Y
# Element.edge: K
# Element.reference: Y
# Element.reference_material: Y2O3
# Facility.name: NSLS-II
# Facility.energy: 3.0
# Facility.current: 399.5
# Facility.mode: top-off
# Facility.GUP: 301027
# Facility.SAF: 310583
# Facility.cycle: 2023-2
# Mono.name: Si(111)
# Mono.d_spacing: 3.13519
# Mono.encoder_resolution: 0.0000050 deg/ct
# Mono.angle_offset: 16.0754 deg
# Mono.scan_mode: pseudo channel cut
# Mono.scan_type: step
# Mono.direction: forward in energy
# Sample.name: Y2TiO5, stuffed pyrochlore
# Sample.prep: powder in PEG pellet
# Sample.x: 117.785 mm
# Sample.y: 114.695 mm
# Sample.SDD_position: 205.000 mm
# Scan.experimenters: Bruce Ravel
# Scan.edge_energy: 17038.4
# Scan.start_time: 2023-06-23T19:22:19
# Scan.end_time: 2023-06-23T19:29:41
# Scan.transient_id: 84967
# Scan.uid: 3317b479-8dc0-4954-b906-a79525e33cc3
# Scan.plot_hint: ln(I0/It)  --  ln($5/$6)
# Column.1: energy eV
# Column.2: requested_energy eV
# Column.3: measurement_time seconds
# Column.4: xmu
# Column.5: I0 nA
# Column.6: It nA
# Column.7: Ir nA
# ///////////
# sample courtesy Martin Stennett, University of Sheffield
# -----------
# energy  requested_energy  measurement_time  xmu  I0  It  Ir
  16838.305  16838.400  0.500  -0.254172  16.0806  20.7343  15.8708
  16848.899  16848.400  0.500  -0.254866  17.8249  22.9993  17.6135
  16858.572  16858.400  0.500  -0.255327  17.7045  22.8545  17.5117
  16868.369  16868.400  0.500  -0.255978  17.6713  22.8265  17.4953
  16878.365  16878.400  0.500  -0.256634  17.6501  22.814  17.494
  16888.397  16888.400  0.500  -0.257030  17.5947  22.7515  17.4533
  16898.379  16898.400  0.500  -0.257755  17.5465  22.7055  17.4226
  16908.348  16908.400  0.500  -0.258110  17.495  22.647  17.3798
  16918.379  16918.400  0.500  -0.258571  17.4137  22.5522  17.3129
  16928.371  16928.400  0.500  -0.259015  17.3971  22.5407  17.3073
  16938.363  16938.400  0.500  -0.259440  17.288  22.4088  17.209
  16948.380  16948.400  0.500  -0.259776  16.2831  21.1133  16.2166
  16958.383  16958.400  0.500  -0.259911  17.4512  22.631  17.3808
  16968.410  16968.400  0.500  -0.259944  17.3574  22.5101  17.2862
  16978.374  16978.400  0.500  -0.259641  17.2914  22.4177  17.2104
  16988.413  16988.400  0.500  -0.259136  17.2394  22.339  17.1406
  16998.362  16998.400  0.500  -0.258126  17.1973  22.2619  17.0577
  17008.425  17008.400  0.500  -0.255809  17.1472  22.1458  16.9387
  17010.352  17010.400  0.500  -0.255212  17.1371  22.1195  16.9093
  17012.344  17012.400  0.500  -0.254470  17.1338  22.0988  16.8828
  17014.349  17014.400  0.500  -0.253702  17.1205  22.0647  16.8444
  17016.341  17016.400  0.500  -0.252771  17.1122  22.0335  16.8043
  17018.347  17018.400  0.500  -0.251671  17.1066  22.0021  16.7612
  17020.328  17020.400  0.500  -0.250050  17.0941  21.9504  16.7059
  17022.360  17022.400  0.500  -0.248364  17.0787  21.8937  16.6395
  17024.341  17024.400  0.500  -0.246462  17.0701  21.8411  16.5687
  17026.374  17026.400  0.500  -0.244087  17.0614  21.7781  16.4838
  17028.370  17028.400  0.500  -0.241054  17.0652  21.717  16.394
  17028.649  17028.700  0.500  -0.240408  17.0585  21.6944  16.3662
  17028.942  17029.000  0.500  -0.239706  17.0472  21.6648  16.339
  17029.234  17029.300  0.500  -0.239237  17.0468  21.6543  16.3242
  17029.514  17029.600  0.500  -0.238679  17.0445  21.6392  16.3036
  17029.819  17029.900  0.500  -0.237960  17.0434  21.6223  16.2805
  17030.137  17030.200  0.500  -0.237394  17.0955  21.676  16.3131
  17030.455  17030.500  0.500  -0.236566  17.0911  21.6526  16.2846
  17030.747  17030.800  0.500  -0.235891  17.093  21.6403  16.2639
  17031.065  17031.100  0.500  -0.235141  17.0896  21.6198  16.241
  17031.370  17031.400  0.500  -0.234325  17.0941  21.6079  16.22
  17031.637  17031.700  0.500  -0.233588  17.0906  21.5876  16.1887
  17031.942  17032.000  0.500  -0.232461  17.087  21.5586  16.1602
  17032.247  17032.300  0.500  -0.231772  17.0838  21.5398  16.1312
  17032.565  17032.600  0.500  -0.230838  17.0844  21.5204  16.1025
  17032.871  17032.900  0.500  -0.229790  17.0773  21.489  16.0631
  17033.163  17033.200  0.500  -0.228764  17.0783  21.4682  16.0304
  17033.456  17033.500  0.500  -0.227479  17.0788  21.4412  15.9957
  17033.748  17033.800  0.500  -0.226349  17.0704  21.4065  15.9569
  17034.066  17034.100  0.500  -0.224855  17.0716  21.3761  15.9157
  17034.359  17034.400  0.500  -0.223675  17.0707  21.3497  15.8758
  17034.664  17034.700  0.500  -0.222210  17.0689  21.3162  15.8323
  17034.982  17035.000  0.500  -0.220694  17.0607  21.2738  15.7773
  17035.287  17035.300  0.500  -0.219017  17.0593  21.2363  15.7248
  17035.567  17035.600  0.500  -0.217488  17.0605  21.2054  15.6771
  17035.847  17035.900  0.500  -0.215661  17.0598  21.1657  15.6254
  17036.152  17036.200  0.500  -0.213775  17.0577  21.1233  15.5661
  17036.458  17036.500  0.500  -0.211626  17.0652  21.0872  15.5098
  17036.776  17036.800  0.500  -0.209279  17.0529  21.0227  15.4292
  17037.043  17037.100  0.500  -0.206976  17.0586  20.9812  15.3661
  17037.374  17037.400  0.500  -0.203779  17.0538  20.9084  15.2677
  17037.679  17037.700  0.500  -0.201065  17.0518  20.8494  15.1856
  17037.959  17038.000  0.500  -0.197727  17.0548  20.7835  15.0916
  17038.239  17038.300  0.500  -0.193983  17.0406  20.6886  14.9692
  17038.557  17038.600  0.500  -0.189965  17.0508  20.618  14.8583
  17038.888  17038.900  0.500  -0.184917  17.0405  20.5017  14.7039
  17039.181  17039.200  0.500  -0.179056  17.0392  20.3804  14.5401
  17039.512  17039.500  0.500  -0.173061  17.0391  20.2584  14.3677
  17039.792  17039.800  0.500  -0.166372  17.0319  20.1149  14.1769
  17040.085  17040.100  0.500  -0.158998  17.0303  19.9653  13.9765
  17040.352  17040.400  0.500  -0.151127  17.0312  19.8098  13.7689
  17040.657  17040.700  0.500  -0.142054  17.0274  19.6265  13.5242
  17040.963  17041.000  0.500  -0.131498  17.0254  19.418  13.2525
  17041.294  17041.300  0.500  -0.120096  17.0276  19.2004  12.9741
  17041.574  17041.600  0.500  -0.108159  17.0276  18.9726  12.6887
  17041.879  17041.900  0.500  -0.096434  17.0278  18.7516  12.4119
  17042.160  17042.200  0.500  -0.083807  17.0242  18.5124  12.1219
  17042.465  17042.500  0.500  -0.070946  17.02  18.2714  11.8378
  17042.771  17042.800  0.500  -0.057156  17.0165  18.0175  11.5407
  17043.089  17043.100  0.500  -0.042312  17.0132  17.7485  11.2269
  17043.395  17043.400  0.500  -0.028330  17.0109  17.4997  10.9415
  17043.713  17043.700  0.500  -0.014176  17.0218  17.2648  10.6698
  17043.993  17044.000  0.500  -0.000273  17.0153  17.0199  10.3987
  17044.286  17044.300  0.500  0.014274  17.0134  16.7723  10.1239
  17044.579  17044.600  0.500  0.028736  17.0162  16.5342  9.864859
  17044.884  17044.900  0.500  0.044880  17.0052  16.2589  9.568694
  17045.190  17045.200  0.500  0.061444  17.0044  15.9911  9.284027
  17045.521  17045.500  0.500  0.078557  17.0017  15.7172  8.997269
  17045.814  17045.800  0.500  0.096203  17.007  15.4471  8.713156
  17046.107  17046.100  0.500  0.113582  16.9948  15.1701  8.431616
  17046.362  17046.400  0.500  0.130111  17.0039  14.9294  8.184187
  17046.693  17046.700  0.500  0.149558  16.9968  14.6358  7.892002
  17046.999  17047.000  0.500  0.169695  16.997  14.3441  7.604405
  17047.343  17047.300  0.500  0.190832  16.9929  14.0407  7.312708
  17047.623  17047.600  0.500  0.210954  16.9952  13.7629  7.045206
  17047.916  17047.900  0.500  0.230799  16.9872  13.4861  6.790130
  17048.222  17048.200  0.500  0.250286  16.9853  13.2244  6.546084
  17048.502  17048.500  0.500  0.269233  16.9886  12.9787  6.323098
  17048.795  17048.800  0.500  0.289678  16.9815  12.7107  6.082861
  17049.101  17049.100  0.500  0.310336  16.9797  12.4495  5.854172
  17049.420  17049.400  0.500  0.331538  16.9776  12.1868  5.626050
  17049.713  17049.700  0.500  0.352791  16.9766  11.9299  5.410211
  17050.006  17050.000  0.500  0.374646  16.9795  11.674  5.194167
  17050.312  17050.300  0.500  0.394831  16.9758  11.4382  5.001661
  17050.605  17050.600  0.500  0.417416  16.9719  11.1802  4.792546
  17050.911  17050.900  0.500  0.441626  16.9726  10.9132  4.580795
  17051.229  17051.200  0.500  0.467695  16.9675  10.6292  4.358771
  17051.522  17051.500  0.500  0.494428  16.9672  10.3486  4.148076
  17051.841  17051.800  0.500  0.520664  16.9698  10.0822  3.947890
  17052.109  17052.100  0.500  0.547369  16.9606  9.811166  3.753844
  17052.402  17052.400  0.500  0.574836  16.957  9.543358  3.563414
  17052.695  17052.700  0.500  0.602903  16.9579  9.279704  3.382771
  17053.001  17053.000  0.500  0.633373  16.9598  9.002209  3.197395
  17053.294  17053.300  0.500  0.663186  16.9578  8.736771  3.025726
  17053.600  17053.600  0.500  0.692275  16.9473  8.481061  2.866303
  17053.919  17053.900  0.500  0.720833  16.9495  8.243331  2.720486
  17054.187  17054.200  0.500  0.745968  16.9476  8.037842  2.599491
  17054.493  17054.500  0.500  0.769562  16.9444  7.848931  2.492439
  17054.811  17054.800  0.500  0.790051  16.9428  7.689019  2.403344
  17055.105  17055.100  0.500  0.806994  16.9438  7.560281  2.334008
  17055.423  17055.400  0.500  0.821258  16.9371  7.450268  2.278900
  17055.717  17055.700  0.500  0.831140  16.9344  7.375842  2.242697
  17056.023  17056.000  0.500  0.837162  16.9345  7.331570  2.223452
  17056.303  17056.300  0.500  0.839852  16.9289  7.309458  2.216102
  17056.584  17056.600  0.500  0.840150  16.9291  7.307368  2.218145
  17056.890  17056.900  0.500  0.838357  16.927  7.319603  2.228860
  17057.196  17057.200  0.500  0.834179  16.9201  7.347239  2.245050
  17057.502  17057.500  0.500  0.828801  16.9129  7.383721  2.266667
  17057.808  17057.800  0.500  0.822588  16.917  7.431508  2.292413
  17058.114  17058.100  0.500  0.816237  16.9178  7.479218  2.314814
  17058.395  17058.400  0.500  0.809420  16.9173  7.530177  2.339535
  17058.676  17058.700  0.500  0.802822  16.914  7.578555  2.360164
  17058.982  17059.000  0.500  0.796098  16.9114  7.628474  2.380449
  17059.301  17059.300  0.500  0.789123  16.9068  7.679810  2.398024
  17059.620  17059.600  0.500  0.783556  16.9032  7.721015  2.411219
  17059.875  17059.900  0.500  0.778638  16.8987  7.757044  2.422568
  17060.194  17060.200  0.500  0.773694  16.8995  7.795843  2.431998
  17060.475  17060.500  0.500  0.769308  16.8934  7.827265  2.439298
  17060.768  17060.800  0.500  0.765024  16.8878  7.858294  2.443052
  17061.087  17061.100  0.500  0.761140  16.8849  7.887506  2.447780
  17061.380  17061.400  0.500  0.757561  16.8908  7.918562  2.451987
  17061.687  17061.700  0.500  0.753540  16.8799  7.945326  2.454177
  17061.980  17062.000  0.500  0.749909  16.8799  7.974219  2.458518
  17062.286  17062.300  0.500  0.746446  16.8764  8.000238  2.461842
  17062.580  17062.600  0.500  0.742856  16.8688  8.025384  2.464569
  17062.848  17062.900  0.500  0.739356  16.8682  8.053211  2.469076
  17063.205  17063.200  0.500  0.735294  16.8632  8.083620  2.474619
  17063.397  17063.400  0.500  0.732401  16.8603  8.105638  2.479845
  17064.354  17064.390  0.500  0.720155  16.8572  8.203988  2.505193
  17065.388  17065.390  0.500  0.706472  16.8355  8.306318  2.545743
  17066.410  17066.410  0.500  0.693857  16.821  8.404524  2.605097
  17067.495  17067.460  0.500  0.679675  16.7957  8.511738  2.697236
  17068.529  17068.520  0.500  0.664306  16.7656  8.628097  2.809610
  17069.615  17069.600  0.500  0.645536  16.7262  8.770920  2.943245
  17070.739  17070.700  0.500  0.623310  16.653  8.928795  3.086158
  17071.838  17071.820  0.500  0.601867  16.5257  9.052562  3.211511
  17073.000  17072.960  0.500  0.580337  16.1596  9.044676  3.289190
  17074.151  17074.110  0.500  0.561224  15.3157  8.737765  3.251120
  17075.326  17075.290  0.500  0.543923  14.3712  8.341980  3.167087
  17076.515  17076.480  0.500  0.527500  14.35  8.467652  3.279877
  17077.730  17077.700  0.500  0.512354  15.3694  9.207582  3.626926
  17078.931  17078.930  0.500  0.501075  16.342  9.901291  3.945088
  17080.159  17080.180  0.500  0.491743  16.7761  10.2596  4.121746
  17081.464  17081.450  0.500  0.484425  16.864  10.3891  4.192054
  17082.717  17082.740  0.500  0.481389  16.8892  10.4362  4.215478
  17084.035  17084.050  0.500  0.482651  16.8788  10.4166  4.195693
  17085.379  17085.380  0.500  0.489256  16.8758  10.3463  4.139337
  17086.735  17086.730  0.500  0.499516  16.8767  10.2412  4.057233
  17088.130  17088.100  0.500  0.511728  16.8624  10.1083  3.960922
  17089.513  17089.480  0.500  0.523915  16.8552  9.981608  3.876285
  17090.896  17090.890  0.500  0.534888  16.8513  9.870366  3.810513
  17092.356  17092.310  0.500  0.544532  16.8464  9.772810  3.758378
  17093.790  17093.750  0.500  0.551358  16.8271  9.695211  3.721218
  17095.289  17095.210  0.500  0.556784  16.8293  9.644014  3.688892
  17096.724  17096.690  0.500  0.561927  16.8135  9.585558  3.648891
  17098.198  17098.190  0.500  0.567247  16.8074  9.531212  3.598001
  17099.710  17099.710  0.500  0.572909  16.8058  9.476512  3.541820
  17101.223  17101.250  0.500  0.578158  16.7879  9.416855  3.481317
  17102.813  17102.810  0.500  0.583082  16.7823  9.367465  3.425572
  17104.390  17104.380  0.500  0.587154  16.7745  9.325068  3.374295
  17106.006  17105.980  0.500  0.590688  16.7691  9.289181  3.324398
  17107.635  17107.590  0.500  0.594058  16.7676  9.257083  3.280533
  17109.265  17109.230  0.500  0.597585  16.7573  9.218862  3.241086
  17110.908  17110.880  0.500  0.600908  16.7467  9.182435  3.211321
  17112.602  17112.550  0.500  0.603851  16.7482  9.156293  3.196879
  17114.271  17114.240  0.500  0.605323  16.7352  9.135734  3.194521
  17115.966  17115.950  0.500  0.604982  16.7378  9.140252  3.212907
  17117.675  17117.680  0.500  0.602351  16.7211  9.155204  3.247225
  17119.422  17119.430  0.500  0.596702  16.7146  9.203493  3.299702
  17121.156  17121.190  0.500  0.588328  16.7031  9.274455  3.360396
  17122.969  17122.980  0.500  0.578073  16.7016  9.369257  3.429173
  17124.768  17124.780  0.500  0.567351  16.6866  9.461704  3.488555
  17126.607  17126.610  0.500  0.557093  16.6802  9.555625  3.544247
  17128.484  17128.450  0.500  0.547953  16.6696  9.637245  3.597668
  17130.337  17130.310  0.500  0.540408  16.6587  9.703854  3.648287
  17132.228  17132.190  0.500  0.534959  16.6533  9.753706  3.698627
  17134.133  17134.090  0.500  0.530977  16.648  9.789536  3.741603
  17136.050  17136.010  0.500  0.529144  16.6367  9.800849  3.774410
  17137.956  17137.950  0.500  0.528457  16.6337  9.805810  3.797867
  17139.926  17139.910  0.500  0.528684  16.6209  9.796019  3.806233
  17141.897  17141.880  0.500  0.529423  16.6112  9.783045  3.804881
  17143.907  17143.880  0.500  0.530785  16.6079  9.767816  3.794297
  17145.891  17145.890  0.500  0.532196  16.6066  9.753270  3.777920
  17147.928  17147.920  0.500  0.533316  16.5911  9.733278  3.755109
  17150.029  17149.980  0.500  0.533804  16.5748  9.718991  3.736720
  17152.106  17152.050  0.500  0.534082  16.5686  9.712660  3.723475
  17154.182  17154.140  0.500  0.533483  16.5675  9.717790  3.712388
  17156.285  17156.250  0.500  0.532576  16.5615  9.723095  3.703237
  17158.389  17158.380  0.500  0.532344  16.5532  9.720460  3.695070
  17160.519  17160.520  0.500  0.532092  16.5432  9.717083  3.688262
  17162.701  17162.690  0.500  0.532401  16.5282  9.705241  3.686058
  17164.884  17164.880  0.500  0.532791  16.5208  9.697143  3.686192
  17167.131  17167.080  0.500  0.533294  16.5137  9.688066  3.684028
  17169.328  17169.300  0.500  0.533752  16.5055  9.678813  3.681931
  17171.577  17171.550  0.500  0.534402  16.4971  9.667611  3.677743
  17173.878  17173.810  0.500  0.535372  16.4841  9.650635  3.672349
  17176.142  17176.090  0.500  0.536911  16.4761  9.631115  3.666586
  17178.392  17178.390  0.500  0.538420  16.522  9.643412  3.668419
  17180.708  17180.710  0.500  0.540385  16.5127  9.619061  3.656849
  17183.077  17183.050  0.500  0.541880  16.5038  9.599468  3.645092
  17185.407  17185.400  0.500  0.542476  16.4937  9.587894  3.634036
  17187.829  17187.780  0.500  0.542698  16.482  9.578978  3.621942
  17190.199  17190.170  0.500  0.541807  16.4753  9.583623  3.613805
  17192.609  17192.590  0.500  0.540069  16.4647  9.594097  3.607170
  17195.059  17195.020  0.500  0.537378  16.4618  9.618257  3.609147
  17197.496  17197.470  0.500  0.534140  16.4526  9.644049  3.617754
  17199.947  17199.950  0.500  0.529697  16.4351  9.676729  3.636473
  17202.451  17202.440  0.500  0.525193  16.4257  9.714831  3.668464
  17204.955  17204.950  0.500  0.520721  16.4154  9.752253  3.705574
  17207.512  17207.470  0.500  0.516566  16.4037  9.785878  3.747981
  17210.070  17210.020  0.500  0.513603  16.3919  9.807841  3.792479
  17212.654  17212.590  0.500  0.510867  16.3786  9.826725  3.834444
  17215.188  17215.170  0.500  0.509891  16.3767  9.835227  3.866463
  17217.800  17217.780  0.500  0.509230  16.3622  9.832983  3.883943
  17220.399  17220.400  0.500  0.509199  16.3537  9.828190  3.893600
  17223.091  17223.050  0.500  0.509821  16.3426  9.815440  3.891141
  17225.705  17225.710  0.500  0.511210  16.3342  9.796734  3.879631
  17228.438  17228.390  0.500  0.513106  16.3255  9.772983  3.855732
  17231.119  17231.090  0.500  0.514828  16.317  9.751098  3.822688
  17233.879  17233.810  0.500  0.516697  16.2955  9.720062  3.786973
  17236.562  17236.550  0.500  0.518092  16.2781  9.696120  3.753913
  17239.298  17239.300  0.500  0.519405  16.2781  9.683422  3.728899
  17242.113  17242.080  0.500  0.520641  16.2723  9.668016  3.704195
  17244.902  17244.870  0.500  0.521075  16.2635  9.658619  3.686919
  17247.745  17247.690  0.500  0.519783  16.2488  9.662349  3.682394
  17250.576  17250.520  0.500  0.517932  16.2377  9.673649  3.687413
  17253.368  17253.370  0.500  0.515954  16.2247  9.685028  3.702848
  17256.279  17256.250  0.500  0.514030  16.2171  9.699159  3.724238
  17259.165  17259.140  0.500  0.512251  16.2045  9.708870  3.746663
  17262.039  17262.050  0.500  0.510742  16.199  9.720239  3.771185
  17265.018  17264.970  0.500  0.508971  16.1609  9.714513  3.785702
  17267.985  17267.920  0.500  0.507908  16.1641  9.726793  3.803313
  17270.927  17270.890  0.500  0.507472  16.1535  9.724682  3.808481
  17273.857  17273.870  0.500  0.507590  16.1464  9.719235  3.808015
  17276.867  17276.880  0.500  0.508069  16.1392  9.710254  3.800246
  17279.917  17279.900  0.500  0.508812  16.1262  9.695224  3.789092
  17283.007  17282.950  0.500  0.509303  16.0955  9.672035  3.772054
  17286.059  17286.010  0.500  0.510057  16.1  9.667412  3.763269
  17289.125  17289.090  0.500  0.510478  16.0915  9.658273  3.753236
  17292.205  17292.190  0.500  0.510762  16.0825  9.650135  3.746048
  17295.313  17295.310  0.500  0.510562  16.0662  9.642266  3.739547
  17298.487  17298.450  0.500  0.509640  16.0394  9.635066  3.734095
  17301.663  17301.600  0.500  0.508497  16.0326  9.641973  3.734763
  17304.827  17304.780  0.500  0.506811  16.0302  9.656801  3.744884
  17308.018  17307.970  0.500  0.505019  16.0109  9.662509  3.756634
  17311.210  17311.190  0.500  0.502980  16.014  9.684080  3.773627
  17314.430  17314.420  0.500  0.500929  15.9886  9.688597  3.786110
  17317.677  17317.670  0.500  0.499369  15.9498  9.680176  3.793979
  17321.018  17320.950  0.500  0.497835  15.9621  9.702509  3.813095
  17324.281  17324.240  0.500  0.496386  15.9577  9.713880  3.827893
  17327.558  17327.550  0.500  0.495083  15.9524  9.723309  3.842818
  17330.876  17330.870  0.500  0.494192  15.9315  9.719209  3.856144
  17334.288  17334.220  0.500  0.493369  15.9046  9.710829  3.864071
  17337.635  17337.590  0.500  0.492761  15.9055  9.717253  3.868869
  17341.036  17340.970  0.500  0.492796  15.8933  9.709484  3.858757
  17344.425  17344.380  0.500  0.492673  15.8796  9.702287  3.848381
  17347.802  17347.800  0.500  0.492865  15.868  9.693374  3.837492
  17351.260  17351.250  0.500  0.492656  15.8544  9.687033  3.825614
  17354.746  17354.710  0.500  0.492903  15.8434  9.677945  3.812701
  17358.233  17358.190  0.500  0.492645  15.8271  9.670519  3.800673
  17361.735  17361.690  0.500  0.492026  15.8152  9.669216  3.795872
  17365.212  17365.210  0.500  0.492013  15.8013  9.660820  3.795527
  17368.743  17368.750  0.500  0.491134  15.7897  9.662217  3.800020
  17372.315  17372.300  0.500  0.490591  15.7749  9.658440  3.807685
  17375.941  17375.880  0.500  0.489887  15.7682  9.661127  3.813638
  17379.543  17379.480  0.500  0.489082  15.7501  9.657794  3.819547
  17383.106  17383.090  0.500  0.487990  15.7345  9.658738  3.824505
  17386.738  17386.720  0.500  0.486877  15.7236  9.662817  3.826896
  17390.437  17390.380  0.500  0.485962  15.7111  9.663986  3.827957
  17394.084  17394.050  0.500  0.484864  15.6867  9.659601  3.825572
  17397.746  17397.740  0.500  0.483979  15.6691  9.657255  3.826110
  17401.463  17401.450  0.500  0.483206  15.6633  9.661178  3.833213
  17405.195  17405.180  0.500  0.482861  15.6572  9.660734  3.844503
  17408.955  17408.920  0.500  0.482343  15.6378  9.653766  3.850894
  17412.730  17412.690  0.500  0.481780  15.6026  9.637437  3.849370
  17416.467  17416.480  0.500  0.481342  15.601  9.640711  3.852829
  17420.312  17420.280  0.500  0.480947  15.5931  9.639618  3.856398
  17424.131  17424.110  0.500  0.480331  15.5804  9.637680  3.858008
  17427.980  17427.950  0.500  0.479462  15.5607  9.633903  3.855903
  17431.843  17431.810  0.500  0.478982  15.5488  9.631131  3.854517
  17435.735  17435.690  0.500  0.478193  15.5239  9.623276  3.847859
  17439.601  17439.590  0.500  0.477948  15.5021  9.612115  3.842470
  17443.550  17443.510  0.500  0.476998  15.5052  9.623228  3.846018
  17447.447  17447.450  0.500  0.476197  15.4897  9.621266  3.845160
  17451.452  17451.410  0.500  0.475093  15.4754  9.623045  3.846718
  17455.406  17455.380  0.500  0.474108  15.4615  9.623853  3.849913
  17459.415  17459.380  0.500  0.473197  15.437  9.617398  3.849906
  17463.439  17463.390  0.500  0.472394  15.4124  9.609721  3.849497
  17467.466  17467.430  0.500  0.471447  15.4147  9.620268  3.857613
  17471.480  17471.480  0.500  0.470442  15.4037  9.623120  3.861159
  17475.564  17475.550  0.500  0.470116  15.3867  9.615613  3.863936
  17479.690  17479.640  0.500  0.469123  15.3651  9.611618  3.866982
  17483.750  17483.750  0.500  0.468386  15.3433  9.605086  3.870939
  17487.880  17487.880  0.500  0.467766  15.3078  9.588773  3.872079
  17492.092  17492.030  0.500  0.467240  15.3171  9.599656  3.881908
  17496.212  17496.190  0.500  0.466394  15.3078  9.601995  3.884343
  17500.441  17500.380  0.500  0.465835  15.29  9.596170  3.885505
  17504.606  17504.580  0.500  0.464945  15.2683  9.591108  3.879958
  17508.853  17508.810  0.500  0.464883  15.2588  9.585715  3.874260
  17513.088  17513.050  0.500  0.464314  15.2478  9.584267  3.870107
  17517.353  17517.310  0.500  0.463840  15.2292  9.577131  3.868362
  17521.633  17521.590  0.500  0.462949  15.2112  9.574318  3.866293
  17525.915  17525.890  0.500  0.462164  15.1939  9.570944  3.866201
  17530.267  17530.210  0.500  0.461083  15.1766  9.570369  3.866329
  17534.594  17534.550  0.500  0.460552  15.1618  9.566116  3.867227
  17538.950  17538.910  0.500  0.459528  15.146  9.565927  3.871369
  17543.322  17543.290  0.500  0.458765  15.1321  9.564449  3.875599
  17547.682  17547.680  0.500  0.458125  15.1156  9.560108  3.878682
  17552.180  17552.100  0.500  0.457110  15.0984  9.558976  3.881059
  17556.586  17556.530  0.500  0.456217  15.082  9.557136  3.884112
  17561.020  17560.980  0.500  0.455367  15.0651  9.554505  3.889559
  17565.498  17565.450  0.500  0.454351  15.0467  9.552543  3.897100
  17570.018  17569.940  0.500  0.453378  15.0319  9.552425  3.906309
  17574.460  17574.450  0.500  0.452459  15.0186  9.552757  3.911298
  17578.999  17578.980  0.500  0.451908  14.9975  9.544574  3.914122
  17583.621  17583.530  0.500  0.451146  14.9828  9.542515  3.917173
  17588.192  17588.100  0.500  0.450036  14.9589  9.537861  3.915611
  17592.697  17592.680  0.500  0.449087  14.9504  9.541479  3.914481
  17597.326  17597.290  0.500  0.448331  14.9314  9.536559  3.910087
  17601.958  17601.910  0.500  0.447409  14.9134  9.533863  3.905770
  17606.607  17606.560  0.500  0.446617  14.8977  9.531409  3.900215
  17611.244  17611.220  0.500  0.445871  14.8803  9.527369  3.898669
  17615.937  17615.900  0.500  0.445169  14.8606  9.521419  3.897699
  17620.634  17620.600  0.500  0.444361  14.8412  9.516702  3.897492
  17625.401  17625.320  0.500  0.443616  14.8267  9.514449  3.902054
  17630.102  17630.060  0.500  0.442927  14.8095  9.509956  3.905730
  17634.875  17634.810  0.500  0.441920  14.7973  9.511740  3.912027
  17639.650  17639.590  0.500  0.440986  14.7716  9.504052  3.913656
  17644.509  17644.390  0.500  0.440232  14.7582  9.502627  3.919347
  17649.289  17649.200  0.500  0.439397  14.737  9.496868  3.920410
  17654.085  17654.030  0.500  0.438400  14.7219  9.496646  3.924548
  17658.953  17658.890  0.500  0.437572  14.7057  9.494017  3.930555
  17663.850  17663.760  0.500  0.436718  14.6864  9.489673  3.933015
  17668.750  17668.650  0.500  0.435791  14.6667  9.485734  3.932459
  17673.653  17673.560  0.500  0.434982  14.6525  9.484194  3.934630
  17678.545  17678.490  0.500  0.433872  14.628  9.478878  3.933062
  17683.495  17683.430  0.500  0.432977  14.614  9.478295  3.935208
  17688.461  17688.400  0.500  0.432081  14.5916  9.472263  3.932894
  17693.471  17693.390  0.500  0.431205  14.5729  9.468373  3.929989
  17698.497  17698.390  0.500  0.430707  14.5626  9.466405  3.930684
  17703.499  17703.420  0.500  0.429731  14.5395  9.460599  3.927838
  17708.532  17708.460  0.500  0.428988  14.521  9.455586  3.929610
  17713.553  17713.520  0.500  0.427966  14.503  9.453514  3.932083
  17718.674  17718.600  0.500  0.427208  14.4833  9.447841  3.933903
  17723.756  17723.700  0.500  0.426184  14.4647  9.445413  3.936292
  17728.897  17728.820  0.500  0.425442  14.4475  9.441148  3.939054
  17734.013  17733.960  0.500  0.424305  14.4279  9.439072  3.941649
  17739.145  17739.120  0.500  0.423581  14.4075  9.432583  3.943061
  17744.295  17744.300  0.500  0.422792  14.3942  9.431282  3.948646
  17749.516  17749.490  0.500  0.421768  14.3763  9.429211  3.951437
  17754.755  17754.710  0.500  0.420560  14.3513  9.424167  3.955193
  17759.969  17759.940  0.500  0.419715  14.3319  9.419403  3.957988
  17765.241  17765.190  0.500  0.418818  14.3125  9.415100  3.960152
  17770.503  17770.460  0.500  0.417900  14.2939  9.411538  3.960693
  17775.809  17775.750  0.500  0.416860  14.279  9.411507  3.959715
  17781.146  17781.060  0.500  0.416065  14.2612  9.407214  3.958208
  17786.459  17786.390  0.500  0.415138  14.2414  9.402898  3.956139
  17791.789  17791.740  0.500  0.414097  14.22  9.398514  3.955507
  17797.136  17797.110  0.500  0.413538  14.2014  9.391454  3.954482
  17802.514  17802.490  0.500  0.412393  14.1792  9.387514  3.955632
  17807.937  17807.900  0.500  0.411714  14.1599  9.381157  3.957060
  17813.377  17813.320  0.500  0.410755  14.1401  9.376972  3.957734
  17818.779  17818.770  0.500  0.409870  14.1214  9.372897  3.958177
  17824.268  17824.230  0.500  0.409145  14.101  9.366162  3.960245
  17829.760  17829.710  0.500  0.408133  14.0809  9.362276  3.963439
  17835.269  17835.210  0.500  0.407262  14.0607  9.356945  3.964318
  17840.796  17840.730  0.500  0.406442  14.0407  9.351360  3.967344
  17846.285  17846.270  0.500  0.405373  14.0203  9.347705  3.969729
  17851.846  17851.820  0.500  0.404250  14.0004  9.344964  3.971760
  17857.425  17857.400  0.500  0.403485  13.981  9.339159  3.975595
  17863.036  17863.000  0.500  0.402406  13.9601  9.335274  3.975554
  17868.650  17868.610  0.500  0.401457  13.9392  9.330124  3.976579
  17874.268  17874.250  0.500  0.400625  13.9213  9.325876  3.975749
  17879.959  17879.900  0.500  0.399600  13.8998  9.321023  3.977263
  17885.598  17885.570  0.500  0.398394  13.8759  9.316255  3.976310
  17891.311  17891.260  0.500  0.397656  13.7821  9.260113  3.955018