File: xdidata/Zn/Zn-Hardystonite.xdi
# XDI/1.0 BlueSky/1.10.0 BMM/2023-1.0-py310-tiled
# Beamline.name: BMM (06BM) -- Beamline for Materials Measurement (NIST)
# Beamline.xray_source: NSLS-II three-pole wiggler
# Beamline.collimation: paraboloid mirror, 5 nm Rh on 30 nm Pt
# Beamline.focusing: not in use
# Beamline.harmonic_rejection: flat mirror, Pt stripe, pitch = 7.0 mrad relative to beam
# Beamline.software: Bluesky 1.10.0, Ophyd 1.7.0, DataBroker 2.0.0b13, Python 3.10.8, 2023-1.0-py310-tiled
# Detector.I0: 10 cm N2
# Detector.I1: 25 cm N2
# Detector.I2: 25 cm N2
# Element.symbol: Zn
# Element.edge: K
# Element.reference: Zn
# Element.reference_material: Zn foil
# Facility.name: NSLS-II
# Facility.energy: 3.0
# Facility.current: 399.6
# Facility.mode: top-off
# Facility.GUP: 123456
# Facility.SAF: 301027
# Facility.cycle: 2023-2
# Mono.name: Si(111)
# Mono.d_spacing: 3.13519
# Mono.encoder_resolution: 0.0000050 deg/ct
# Mono.angle_offset: 16.0754 deg
# Mono.scan_mode: pseudo channel cut
# Mono.scan_type: step
# Mono.direction: forward in energy
# Sample.name: Ca2ZnSi2O7
# Sample.prep: powder in PEG pellet
# Sample.x: 116.329 mm
# Sample.y: 114.126 mm
# Sample.SDD_position: 205.000 mm
# Scan.experimenters: Bruce Ravel
# Scan.edge_energy: 9658.6
# Scan.start_time: 2023-05-07T08:56:59
# Scan.end_time: 2023-05-07T09:04:58
# Scan.transient_id: 74855
# Scan.uid: d0290c1c-37f2-4468-8cdf-c84750309cd9
# Scan.plot_hint: ln(I0/It)  --  ln($5/$6)
# Column.1: energy eV
# Column.2: requested_energy eV
# Column.3: measurement_time seconds
# Column.4: xmu
# Column.5: I0 nA
# Column.6: It nA
# Column.7: Ir nA
# ///////////
# sample courtesy Martin Stennett, University of Sheffield
# -----------
# energy  requested_energy  measurement_time  xmu  I0  It  Ir
  9458.619  9458.600  0.500  1.615234  85.2571  16.9529  9.366253
  9468.615  9468.600  0.500  1.608616  84.872  16.9884  9.402085
  9478.625  9478.600  0.500  1.602161  84.6177  17.0471  9.453234
  9488.633  9488.600  0.500  1.595531  84.2146  17.0788  9.487858
  9498.651  9498.600  0.500  1.588944  83.9847  17.1447  9.540545
  9508.625  9508.600  0.500  1.582555  83.7058  17.1973  9.589174
  9518.631  9518.600  0.500  1.576157  83.4651  17.2579  9.638505
  9528.612  9528.600  0.500  1.569626  83.1371  17.3027  9.681745
  9538.615  9538.600  0.500  1.563448  82.8964  17.3596  9.731575
  9548.635  9548.600  0.500  1.557073  82.5891  17.4058  9.773113
  9558.657  9558.600  0.500  1.550807  82.2965  17.4532  9.815853
  9568.665  9568.600  0.500  1.544777  82.0178  17.4993  9.860058
  9578.659  9578.600  0.500  1.538357  81.7424  17.5528  9.903949
  9588.654  9588.600  0.500  1.532677  81.4942  17.5992  9.946938
  9598.619  9598.600  0.500  1.526822  81.1723  17.6326  9.980274
  9608.621  9608.600  0.500  1.521294  80.8815  17.6669  10.014
  9618.664  9618.600  0.500  1.516000  80.6557  17.7111  10.0476
  9628.616  9628.600  0.500  1.511764  80.3394  17.7165  10.0563
  9630.599  9630.600  0.500  1.511002  80.3291  17.7277  10.0621
  9632.587  9632.600  0.500  1.510334  80.2705  17.7266  10.0619
  9634.587  9634.600  0.500  1.509878  80.0096  17.6771  10.032
  9636.588  9636.600  0.500  1.509574  80.1436  17.7121  10.0504
  9638.578  9638.600  0.500  1.509199  80.0649  17.7013  10.0419
  9640.581  9640.600  0.500  1.509104  79.9751  17.6831  10.0277
  9642.581  9642.600  0.500  1.509212  80.0304  17.6934  10.0257
  9644.589  9644.600  0.500  1.509719  79.9715  17.6715  10.0069
  9646.575  9646.600  0.500  1.510624  79.8763  17.6345  9.974315
  9648.585  9648.600  0.500  1.512234  79.6616  17.5588  9.914675
  9648.862  9648.900  0.500  1.512295  79.6075  17.5458  9.903473
  9649.164  9649.200  0.500  1.512785  79.632  17.5426  9.898352
  9649.470  9649.500  0.500  1.513120  79.6271  17.5356  9.891912
  9649.767  9649.800  0.500  1.513492  79.6708  17.5387  9.889894
  9650.077  9650.100  0.500  1.513851  79.7478  17.5494  9.891793
  9650.367  9650.400  0.500  1.514154  79.709  17.5355  9.878974
  9650.677  9650.700  0.500  1.514700  79.7214  17.5287  9.872739
  9650.970  9651.000  0.500  1.515279  79.7231  17.5189  9.861762
  9651.276  9651.300  0.500  1.515783  79.7474  17.5154  9.855628
  9651.574  9651.600  0.500  1.516177  79.7147  17.5013  9.841011
  9651.880  9651.900  0.500  1.516753  79.7125  17.4908  9.830887
  9652.173  9652.200  0.500  1.517260  79.723  17.4842  9.820146
  9652.487  9652.500  0.500  1.518042  79.7525  17.477  9.809665
  9652.769  9652.800  0.500  1.518796  79.7212  17.457  9.792354
  9653.075  9653.100  0.500  1.519551  79.7177  17.443  9.776906
  9653.369  9653.400  0.500  1.520132  79.6861  17.426  9.760217
  9653.683  9653.700  0.500  1.520912  79.703  17.4161  9.745598
  9653.973  9654.000  0.500  1.521814  79.6365  17.3859  9.719273
  9654.275  9654.300  0.500  1.522770  79.5884  17.3588  9.692961
  9654.577  9654.600  0.500  1.523921  79.567  17.3342  9.669706
  9654.891  9654.900  0.500  1.525024  79.5914  17.3204  9.649029
  9655.177  9655.200  0.500  1.526232  79.5988  17.3011  9.625412
  9655.479  9655.500  0.500  1.527563  79.5909  17.2763  9.597216
  9655.785  9655.800  0.500  1.529078  79.5332  17.2377  9.557716
  9656.099  9656.100  0.500  1.530839  79.5695  17.2152  9.526873
  9656.393  9656.400  0.500  1.532423  79.565  17.187  9.490268
  9656.683  9656.700  0.500  1.534137  79.5706  17.1588  9.453088
  9656.993  9657.000  0.500  1.536253  79.5316  17.1141  9.402194
  9657.295  9657.300  0.500  1.538278  79.5455  17.0824  9.356898
  9657.598  9657.600  0.500  1.540656  79.5133  17.035  9.297789
  9657.896  9657.900  0.500  1.543191  79.5006  16.9891  9.233120
  9658.190  9658.200  0.500  1.546029  79.4554  16.9313  9.155570
  9658.496  9658.500  0.500  1.549268  79.4684  16.8794  9.073349
  9658.786  9658.800  0.500  1.552760  79.471  16.8211  8.972626
  9659.081  9659.100  0.500  1.556665  79.4514  16.7514  8.848924
  9659.391  9659.400  0.500  1.561231  79.4349  16.6716  8.693961
  9659.689  9659.700  0.500  1.566450  79.4971  16.5978  8.507364
  9659.979  9660.000  0.500  1.572243  79.4424  16.4906  8.264504
  9660.286  9660.300  0.500  1.579065  79.4379  16.3775  7.951858
  9660.592  9660.600  0.500  1.586976  79.4391  16.2487  7.576070
  9660.887  9660.900  0.500  1.595870  79.4597  16.109  7.164104
  9661.193  9661.200  0.500  1.606911  79.43  15.9262  6.716226
  9661.499  9661.500  0.500  1.620384  79.4191  15.7109  6.264219
  9661.802  9661.800  0.500  1.636741  79.4097  15.4542  5.848184
  9662.096  9662.100  0.500  1.656512  79.3645  15.143  5.468938
  9662.399  9662.400  0.500  1.682487  79.3752  14.7567  5.102431
  9662.701  9662.700  0.500  1.714748  79.3648  14.2864  4.752193
  9663.004  9663.000  0.500  1.753984  79.3137  13.7279  4.410271
  9663.298  9663.300  0.500  1.800655  79.304  13.1003  4.083868
  9663.589  9663.600  0.500  1.858750  79.3099  12.3618  3.749929
  9663.895  9663.900  0.500  1.934836  79.2862  11.4527  3.388944
  9664.194  9664.200  0.500  2.024840  79.2715  10.465  3.033040
  9664.497  9664.500  0.500  2.134076  79.2421  9.378609  2.668900
  9664.787  9664.800  0.500  2.255847  79.2567  8.304898  2.328388
  9665.094  9665.100  0.500  2.394201  79.2687  7.232914  2.000166
  9665.404  9665.400  0.500  2.538033  79.2302  6.260905  1.710711
  9665.707  9665.700  0.500  2.679340  79.2414  5.436622  1.468781
  9666.010  9666.000  0.500  2.810075  79.1606  4.765504  1.271027
  9666.301  9666.300  0.500  2.915840  79.0797  4.282840  1.127162
  9666.603  9666.600  0.500  2.995222  79.0281  3.953420  1.024444
  9666.902  9666.900  0.500  3.044954  79.0472  3.762529  0.959123
  9667.201  9667.200  0.500  3.072744  79.0569  3.659854  0.917108
  9667.504  9667.500  0.500  3.091187  79.1119  3.595475  0.885527
  9667.790  9667.800  0.500  3.109868  79.1671  3.531397  0.855728
  9668.089  9668.100  0.500  3.137274  79.1924  3.437026  0.819933
  9668.392  9668.400  0.500  3.173857  79.1869  3.313333  0.778861
  9668.699  9668.700  0.500  3.220473  79.1225  3.159850  0.732145
  9668.998  9669.000  0.500  3.271763  79.0956  3.000848  0.685449
  9669.305  9669.300  0.500  3.320474  79.1889  2.861545  0.645086
  9669.608  9669.600  0.500  3.353591  79.2202  2.769428  0.616289
  9669.911  9669.900  0.500  3.359057  79.1463  2.751759  0.605261
  9670.210  9670.200  0.500  3.328645  79.1673  2.837484  0.617593
  9670.504  9670.500  0.500  3.265822  79.1432  3.020544  0.652895
  9670.803  9670.800  0.500  3.179386  79.1227  3.292390  0.707657
  9671.094  9671.100  0.500  3.081944  79.1146  3.628987  0.779010
  9671.389  9671.400  0.500  2.985555  79.0856  3.994727  0.859653
  9671.696  9671.700  0.500  2.894235  79.0707  4.375881  0.946207
  9671.996  9672.000  0.500  2.818357  79.0442  4.719251  1.029108
  9672.299  9672.300  0.500  2.757285  79.0697  5.018067  1.108064
  9672.598  9672.600  0.500  2.716148  79.0726  5.228990  1.170911
  9672.897  9672.900  0.500  2.692355  79.0362  5.352426  1.218116
  9673.204  9673.200  0.500  2.685250  79.2671  5.406342  1.251327
  9673.495  9673.500  0.500  2.691828  79.2658  5.370811  1.262537
  9673.810  9673.800  0.500  2.708712  79.2819  5.281962  1.262118
  9674.110  9674.100  0.500  2.731151  79.3305  5.167930  1.253681
  9674.401  9674.400  0.500  2.753991  79.3018  5.049401  1.240723
  9674.708  9674.700  0.500  2.774463  79.3367  4.949255  1.229911
  9674.999  9675.000  0.500  2.791248  79.2957  4.864366  1.219713
  9675.294  9675.300  0.500  2.805642  79.2851  4.794208  1.212228
  9675.602  9675.600  0.500  2.817508  79.2848  4.737633  1.205125
  9675.897  9675.900  0.500  2.828989  79.2412  4.680978  1.196573
  9676.200  9676.200  0.500  2.841375  79.2498  4.623857  1.186550
  9676.492  9676.500  0.500  2.855483  79.2068  4.556612  1.172560
  9676.795  9676.800  0.500  2.874338  79.1758  4.469753  1.152938
  9677.107  9677.100  0.500  2.898679  79.199  4.363545  1.127514
  9677.410  9677.400  0.500  2.930015  79.1923  4.228570  1.094599
  9677.705  9677.700  0.500  2.965177  79.1918  4.082440  1.057068
  9678.009  9678.000  0.500  3.003165  79.1708  3.929225  1.017121
  9678.304  9678.300  0.500  3.040213  79.1974  3.787592  0.981245
  9678.604  9678.600  0.500  3.071470  79.1684  3.669690  0.950712
  9678.907  9678.900  0.500  3.090628  79.1361  3.598585  0.933202
  9679.199  9679.200  0.500  3.095028  79.1711  3.584372  0.930282
  9679.494  9679.500  0.500  3.084579  79.1652  3.621751  0.941997
  9679.794  9679.800  0.500  3.060734  79.1681  3.709289  0.966786
  9680.097  9680.100  0.500  3.029293  79.1093  3.824918  1.001018
  9680.405  9680.400  0.500  2.992701  79.1396  3.968993  1.042853
  9680.697  9680.700  0.500  2.959086  79.137  4.104543  1.083503
  9680.996  9681.000  0.500  2.926449  79.0818  4.237755  1.124315
  9681.308  9681.300  0.500  2.896559  79.0932  4.366962  1.165566
  9681.608  9681.600  0.500  2.868631  79.102  4.491140  1.205186
  9681.911  9681.900  0.500  2.841832  79.0464  4.609887  1.243780
  9682.207  9682.200  0.500  2.815241  79.0596  4.734900  1.284335
  9682.503  9682.500  0.500  2.787964  79.0353  4.864337  1.326941
  9682.807  9682.800  0.500  2.761090  79.1135  5.001777  1.370747
  9683.106  9683.100  0.500  2.736313  79.0877  5.125582  1.410551
  9683.394  9683.400  0.500  2.713058  79.0795  5.245634  1.449000
  9683.605  9683.600  0.500  2.698322  79.0892  5.324159  1.473091
  9684.605  9684.590  0.500  2.652300  79.0037  5.568878  1.549746
  9685.610  9685.590  0.500  2.644602  79.0249  5.613421  1.566065
  9686.632  9686.610  0.500  2.651001  79.0118  5.576699  1.554511
  9687.666  9687.660  0.500  2.643588  79.0104  5.618089  1.560476
  9688.732  9688.720  0.500  2.620978  78.9665  5.743367  1.583218
  9689.823  9689.800  0.500  2.592084  78.9415  5.909865  1.614378
  9690.923  9690.900  0.500  2.559111  78.8957  6.104435  1.649152
  9692.039  9692.020  0.500  2.520086  78.846  6.343370  1.691221
  9693.184  9693.160  0.500  2.482594  78.8129  6.582952  1.732482
  9694.333  9694.310  0.500  2.459346  78.8005  6.736723  1.749832
  9695.498  9695.490  0.500  2.451505  78.8049  6.790129  1.742698
  9696.684  9696.680  0.500  2.454605  78.7154  6.761426  1.719471
  9697.919  9697.900  0.500  2.468294  78.6998  6.668181  1.684271
  9699.147  9699.130  0.500  2.491161  78.6755  6.515415  1.638361
  9700.387  9700.380  0.500  2.516263  78.6723  6.353635  1.595725
  9701.663  9701.650  0.500  2.534561  78.6551  6.237074  1.570670
  9702.957  9702.940  0.500  2.545664  78.6007  6.163944  1.564187
  9704.263  9704.250  0.500  2.553559  78.5294  6.109921  1.566522
  9705.594  9705.580  0.500  2.556196  78.5207  6.093153  1.576717
  9706.945  9706.930  0.500  2.553346  78.4833  6.107635  1.591668
  9708.313  9708.300  0.500  2.547384  78.3088  6.130500  1.606668
  9709.694  9709.680  0.500  2.543500  77.2096  6.067966  1.594257
  9711.100  9711.090  0.500  2.544395  78.3638  6.153164  1.615633
  9712.530  9712.510  0.500  2.552732  78.3967  6.104649  1.596316
  9713.965  9713.950  0.500  2.567271  78.2875  6.008147  1.562681
  9715.409  9715.410  0.500  2.586330  78.2666  5.893158  1.526815
  9716.914  9716.890  0.500  2.608899  78.2893  5.763310  1.489692
  9718.412  9718.390  0.500  2.633597  78.2464  5.619629  1.453571
  9719.926  9719.910  0.500  2.661373  78.2008  5.462498  1.416424
  9721.469  9721.450  0.500  2.688491  78.1246  5.311178  1.379553
  9723.030  9723.010  0.500  2.711376  78.0695  5.187350  1.348654
  9724.586  9724.580  0.500  2.730214  78.1583  5.096335  1.325231
  9726.188  9726.180  0.500  2.745100  78.0181  5.012029  1.304076
  9727.812  9727.790  0.500  2.752989  77.9119  4.965880  1.289205
  9729.431  9729.430  0.500  2.751059  77.9228  4.976168  1.287485
  9731.096  9731.080  0.500  2.739200  77.8019  5.027717  1.295887
  9732.762  9732.750  0.500  2.722827  77.9149  5.118139  1.311229
  9734.445  9734.440  0.500  2.710599  77.7885  5.172701  1.317200
  9736.165  9736.150  0.500  2.705813  77.7934  5.197846  1.315552
  9737.898  9737.880  0.500  2.706166  77.7179  5.190965  1.308653
  9739.636  9739.630  0.500  2.704482  77.7178  5.199707  1.309019
  9741.403  9741.390  0.500  2.695645  77.6627  5.242144  1.321797
  9743.196  9743.180  0.500  2.681179  77.6287  5.316194  1.347631
  9744.976  9744.980  0.500  2.665056  77.542  5.396572  1.379899
  9746.832  9746.810  0.500  2.650186  77.5252  5.476227  1.415324
  9748.659  9748.650  0.500  2.637285  77.4185  5.539700  1.445230
  9750.524  9750.510  0.500  2.626147  77.4062  5.600854  1.472289
  9752.398  9752.390  0.500  2.615793  77.3621  5.655931  1.495771
  9754.297  9754.290  0.500  2.603868  77.324  5.720959  1.519483
  9756.226  9756.210  0.500  2.591112  77.267  5.790136  1.544652
  9758.168  9758.150  0.500  2.578107  77.2042  5.861155  1.570249
  9760.124  9760.110  0.500  2.567289  77.126  5.918903  1.591934
  9762.088  9762.080  0.500  2.558732  77.0591  5.964596  1.608819
  9764.098  9764.080  0.500  2.553848  77.0286  5.991424  1.615039
  9766.093  9766.090  0.500  2.551880  76.9504  5.997128  1.612042
  9768.142  9768.120  0.500  2.550850  76.8816  5.997943  1.604276
  9770.192  9770.180  0.500  2.551911  76.777  5.983434  1.592235
  9772.276  9772.250  0.500  2.555795  76.5559  5.943073  1.572688
  9774.365  9774.340  0.500  2.562101  76.1485  5.874284  1.545006
  9776.467  9776.450  0.500  2.568339  76.757  5.884401  1.537889
  9778.612  9778.580  0.500  2.575117  76.707  5.840850  1.515634
  9780.749  9780.720  0.500  2.582715  76.6229  5.790282  1.493564
  9782.920  9782.890  0.500  2.591129  76.04  5.698091  1.464658
  9785.122  9785.080  0.500  2.598447  76.5089  5.691420  1.461753
  9787.291  9787.280  0.500  2.604763  76.3604  5.644614  1.452172
  9789.506  9789.500  0.500  2.609232  76.3665  5.619890  1.449856
  9791.702  9791.750  0.500  2.609943  75.4858  5.551129  1.435534
  9794.049  9794.010  0.500  2.606100  76.2173  5.626505  1.458564
  9796.276  9796.290  0.500  2.598268  76.1444  5.665320  1.471412
  9798.570  9798.590  0.500  2.588417  76.0404  5.713586  1.488764
  9800.903  9800.910  0.500  2.578974  75.8563  5.753838  1.504988
  9803.242  9803.250  0.500  2.572606  75.3326  5.750615  1.511659
  9805.602  9805.600  0.500  2.570197  76.0163  5.816808  1.536557
  9807.976  9807.980  0.500  2.569398  75.9083  5.813178  1.543979
  9810.371  9810.370  0.500  2.570141  75.8478  5.804232  1.550482
  9812.793  9812.790  0.500  2.572578  75.72  5.780352  1.553756
  9815.221  9815.220  0.500  2.576402  75.6188  5.750592  1.555329
  9817.662  9817.670  0.500  2.580763  75.545  5.719982  1.555770
  9820.154  9820.150  0.500  2.584401  75.0702  5.663390  1.546129
  9822.635  9822.640  0.500  2.587478  75.4231  5.672530  1.549146
  9825.160  9825.150  0.500  2.590232  75.3799  5.653697  1.538733
  9827.685  9827.670  0.500  2.592247  75.0506  5.617665  1.520634
  9830.208  9830.220  0.500  2.592503  75.1917  5.626780  1.516116
  9832.786  9832.790  0.500  2.589925  75.1398  5.637414  1.514040
  9835.374  9835.370  0.500  2.584945  74.6483  5.628496  1.508608
  9837.972  9837.980  0.500  2.578478  75.024  5.693526  1.524964
  9840.600  9840.600  0.500  2.572096  74.9368  5.723319  1.533673
  9843.255  9843.250  0.500  2.566226  74.3823  5.714416  1.531274
  9845.908  9845.910  0.500  2.559196  74.8667  5.792203  1.551861
  9848.595  9848.590  0.500  2.550855  74.7265  5.829787  1.560541
  9851.297  9851.290  0.500  2.541217  74.6686  5.881680  1.572760
  9854.008  9854.010  0.500  2.531872  74.5798  5.929845  1.584609
  9856.759  9856.750  0.500  2.523531  74.5378  5.976140  1.596331
  9859.511  9859.500  0.500  2.515445  74.4763  6.019693  1.607310
  9862.281  9862.280  0.500  2.508382  74.4599  6.061028  1.619311
  9865.066  9865.070  0.500  2.503806  74.3551  6.080253  1.625687
  9867.895  9867.890  0.500  2.501824  74.4231  6.097887  1.634092
  9870.708  9870.720  0.500  2.502237  74.413  6.094542  1.639075
  9873.565  9873.570  0.500  2.503751  74.2783  6.074306  1.640529
  9876.450  9876.450  0.500  2.505380  74.1854  6.056833  1.643934
  9879.340  9879.340  0.500  2.506720  74.0067  6.034157  1.647515
  9882.244  9882.250  0.500  2.507314  72.8239  5.934191  1.628114
  9885.188  9885.170  0.500  2.507513  74.0433  6.032350  1.664071
  9888.122  9888.120  0.500  2.506629  73.9868  6.033082  1.670332
  9891.095  9891.090  0.500  2.506109  73.8674  6.026477  1.673017
  9894.083  9894.070  0.500  2.505690  73.8424  6.026963  1.676215
  9897.085  9897.080  0.500  2.504963  73.7139  6.020846  1.675454
  9900.127  9900.100  0.500  2.503271  73.6281  6.024024  1.675011
  9903.163  9903.150  0.500  2.500827  73.5441  6.031879  1.675510
  9906.218  9906.210  0.500  2.498134  73.4611  6.041318  1.675560
  9909.308  9909.290  0.500  2.495803  73.412  6.051363  1.677245
  9912.405  9912.390  0.500  2.493336  73.3421  6.060540  1.678622
  9915.521  9915.510  0.500  2.490508  73.2214  6.067699  1.680627
  9918.651  9918.650  0.500  2.487269  73.1295  6.079743  1.684798
  9921.822  9921.800  0.500  2.484118  73.0672  6.093735  1.689795
  9924.986  9924.980  0.500  2.481186  72.937  6.100736  1.692282
  9928.200  9928.170  0.500  2.478551  72.7643  6.102358  1.693176
  9931.402  9931.390  0.500  2.476035  71.5665  6.017016  1.670347
  9934.654  9934.620  0.500  2.473166  72.8555  6.142992  1.707504
  9937.895  9937.870  0.500  2.470479  72.6253  6.140058  1.708200
  9941.168  9941.150  0.500  2.467227  72.6542  6.162509  1.716631
  9944.448  9944.440  0.500  2.463881  72.5939  6.178031  1.723308
  9947.777  9947.750  0.500  2.460354  72.5305  6.194443  1.730385
  9951.082  9951.070  0.500  2.456937  72.4419  6.208059  1.737741
  9954.442  9954.420  0.500  2.453346  71.2658  6.129237  1.719874
  9957.799  9957.790  0.500  2.450477  72.0936  6.218243  1.749852
  9961.184  9961.170  0.500  2.447130  71.9951  6.230570  1.759486
  9964.598  9964.580  0.500  2.443379  71.941  6.249291  1.770794
  9968.030  9968.000  0.500  2.439915  70.0142  6.103016  1.734601
  9971.453  9971.450  0.500  2.436312  71.7974  6.281045  1.790380
  9974.929  9974.910  0.500  2.432947  71.7181  6.295255  1.798054
  9978.404  9978.390  0.500  2.429243  71.5623  6.304889  1.803061
  9981.916  9981.890  0.500  2.424957  71.3557  6.313686  1.807958
  9985.430  9985.410  0.500  2.420510  71.2448  6.331970  1.815804
  9988.981  9988.950  0.500  2.416303  71.3718  6.370001  1.829647
  9992.513  9992.500  0.500  2.412349  71.2899  6.387900  1.837055
  9996.104  9996.080  0.500  2.408543  71.1426  6.399006  1.841384
  9999.685  9999.680  0.500  2.404518  70.3705  6.355088  1.830083
  10003.316  10003.290  0.500  2.400881  70.997  6.435031  1.854352
  10006.932  10006.920  0.500  2.397833  70.9175  6.447447  1.859968
  10010.616  10010.580  0.500  2.394999  70.8743  6.461807  1.865592
  10014.268  10014.250  0.500  2.392319  69.1385  6.320460  1.826258
  10017.975  10017.940  0.500  2.389416  70.4986  6.463542  1.869285
  10021.663  10021.650  0.500  2.386912  70.4657  6.476713  1.875430
  10025.410  10025.380  0.500  2.384248  70.3474  6.483091  1.878169
  10029.147  10029.120  0.500  2.382004  70.2614  6.489716  1.882455
  10032.908  10032.890  0.500  2.379630  69.9696  6.478128  1.881127
  10036.712  10036.680  0.500  2.377100  69.4361  6.445018  1.874256
  10040.497  10040.480  0.500  2.375195  70.126  6.521455  1.900179
  10044.341  10044.310  0.500  2.372901  70.0015  6.524841  1.904795
  10048.167  10048.150  0.500  2.370480  69.8956  6.530755  1.910951
  10052.044  10052.010  0.500  2.367935  69.7659  6.535245  1.917251
  10055.919  10055.890  0.500  2.365252  69.6501  6.541930  1.923868
  10059.811  10059.790  0.500  2.362087  69.5598  6.554163  1.931537
  10063.741  10063.710  0.500  2.358947  69.4395  6.563402  1.938166
  10067.682  10067.650  0.500  2.355436  69.3585  6.578804  1.946613
  10071.631  10071.610  0.500  2.351965  69.1892  6.585558  1.951600
  10075.601  10075.580  0.500  2.348425  69.1339  6.603634  1.960736
  10079.601  10079.580  0.500  2.344370  69.0067  6.618265  1.968019
  10083.599  10083.590  0.500  2.340459  68.8336  6.627535  1.974320
  10087.640  10087.630  0.500  2.336849  67.7692  6.548653  1.954434
  10091.703  10091.680  0.500  2.332850  68.7344  6.668532  1.992979
  10095.772  10095.750  0.500  2.328985  68.6204  6.683254  2.000601
  10099.850  10099.840  0.500  2.325231  68.5365  6.700188  2.008573
  10103.958  10103.950  0.500  2.321279  68.3887  6.712214  2.013887
  10108.104  10108.080  0.500  2.317478  68.3467  6.733637  2.023183
  10112.240  10112.230  0.500  2.313516  68.1994  6.745800  2.029309
  10116.407  10116.390  0.500  2.309842  68.0656  6.757346  2.035914
  10120.590  10120.580  0.500  2.306250  68.0107  6.776193  2.043339
  10124.795  10124.780  0.500  2.302783  67.7754  6.776196  2.047417
  10129.030  10129.010  0.500  2.299044  67.753  6.799335  2.055783
  10133.264  10133.250  0.500  2.295382  67.597  6.808571  2.062156
  10137.524  10137.510  0.500  2.291892  67.5041  6.822980  2.069046
  10141.805  10141.790  0.500  2.288371  67.4136  6.837869  2.077374
  10146.103  10146.090  0.500  2.284880  67.3412  6.854410  2.085099
  10150.432  10150.410  0.500  2.281597  67.2108  6.863634  2.091996
  10154.760  10154.750  0.500  2.278055  67.0727  6.873834  2.099170
  10159.128  10159.110  0.500  2.274635  66.9837  6.888234  2.107686
  10163.513  10163.490  0.500  2.271055  66.8895  6.903216  2.115989
  10167.902  10167.880  0.500  2.267692  66.7439  6.911389  2.122412
  10172.321  10172.300  0.500  2.264228  66.64  6.924579  2.130427
  10176.745  10176.730  0.500  2.261230  66.5335  6.934263  2.137678
  10181.204  10181.180  0.500  2.257532  66.4245  6.948553  2.145310
  10185.666  10185.650  0.500  2.254092  66.3203  6.961563  2.152980
  10190.178  10190.140  0.500  2.250950  66.1818  6.968881  2.159895
  10194.653  10194.650  0.500  2.247543  65.8419  6.956761  2.158356
  10199.205  10199.180  0.500  2.244392  66.0516  7.000944  2.175875
  10203.747  10203.730  0.500  2.241055  65.8662  7.004626  2.181837
  10208.315  10208.300  0.500  2.237724  65.7514  7.015752  2.188274
  10212.906  10212.880  0.500  2.234180  65.6344  7.028123  2.194752
  10217.501  10217.490  0.500  2.230937  65.5295  7.039686  2.202468
  10222.123  10222.110  0.500  2.227408  65.3988  7.050479  2.209171
  10226.786  10226.760  0.500  2.224016  65.2914  7.062821  2.216080
  10231.443  10231.420  0.500  2.220325  65.2158  7.080726  2.225358
  10236.128  10236.100  0.500  2.217003  65.0664  7.088010  2.232010
  10240.817  10240.800  0.500  2.213222  64.9871  7.106189  2.240423
  10245.556  10245.520  0.500  2.209449  64.8573  7.118808  2.247756
  10250.277  10250.260  0.500  2.205825  64.7374  7.131450  2.254446
  10255.039  10255.010  0.500  2.202346  64.5912  7.140139  2.261435
  10259.809  10259.790  0.500  2.198541  64.4877  7.155874  2.270037
  10264.607  10264.590  0.500  2.194671  64.3673  7.170206  2.278062
  10269.428  10269.400  0.500  2.190653  64.2668  7.187842  2.287991
  10274.249  10274.230  0.500  2.186770  64.1095  7.198143  2.295298
  10279.115  10279.090  0.500  2.182783  63.9986  7.214394  2.304182
  10283.982  10283.960  0.500  2.179021  63.8964  7.230018  2.312454
  10288.863  10288.850  0.500  2.175150  63.7803  7.244879  2.321854
  10293.794  10293.760  0.500  2.171278  63.5838  7.250576  2.327556
  10298.703  10298.690  0.500  2.167519  63.5416  7.273045  2.339575
  10303.657  10303.630  0.500  2.163542  63.4228  7.288381  2.348358
  10308.631  10308.600  0.500  2.159946  63.3058  7.301149  2.356074
  10313.623  10313.590  0.500  2.156066  63.1498  7.311467  2.363495
  10318.620  10318.590  0.500  2.152335  63.0662  7.329077  2.372841
  10323.640  10323.620  0.500  2.148660  62.9842  7.346492  2.382237
  10328.693  10328.660  0.500  2.145207  62.8298  7.353842  2.388682
  10333.751  10333.720  0.500  2.141266  62.7158  7.369474  2.397924
  10338.819  10338.800  0.500  2.137677  62.6162  7.384234  2.406296
  10343.929  10343.900  0.500  2.133947  62.4846  7.396246  2.414324
  10349.054  10349.020  0.500  2.130208  62.3738  7.410794  2.422654
  10354.192  10354.160  0.500  2.126951  62.1987  7.414096  2.428458
  10359.346  10359.320  0.500  2.123182  62.1096  7.431430  2.437420
  10364.528  10364.500  0.500  2.119869  61.979  7.440410  2.444693
  10369.719  10369.690  0.500  2.116093  61.8023  7.447269  2.450491
  10374.949  10374.910  0.500  2.112628  61.6748  7.457697  2.458843
  10380.156  10380.140  0.500  2.108982  61.5527  7.470126  2.466630
  10385.430  10385.390  0.500  2.105136  61.4569  7.487245  2.475722
  10390.689  10390.660  0.500  2.101585  61.3603  7.502066  2.485405
  10395.964  10395.950  0.500  2.098070  61.179  7.506239  2.490933
  10401.291  10401.260  0.500  2.094289  61.0854  7.523141  2.500668
  10406.601  10406.590  0.500  2.090592  60.8438  7.521139  2.504292
  10411.972  10411.940  0.500  2.086802  60.8014  7.544442  2.515932
  10417.344  10417.310  0.500  2.083084  60.6388  7.552298  2.523087
  10422.712  10422.690  0.500  2.079288  60.5334  7.567833  2.533027
  10428.128  10428.100  0.500  2.075434  60.4261  7.583588  2.541748
  10433.546  10433.520  0.500  2.071634  60.2859  7.594807  2.550457
  10438.988  10438.970  0.500  2.067692  60.1289  7.604949  2.558478
  10444.459  10444.430  0.500  2.063764  60.0066  7.619347  2.566441
  10449.936  10449.910  0.500  2.059968  59.9556  7.641825  2.579173
  10455.424  10455.410  0.500  2.055863  59.7508  7.647043  2.584994
  10460.960  10460.930  0.500  2.052152  59.5797  7.653501  2.591944
  10466.498  10466.470  0.500  2.048308  59.4705  7.668894  2.601143
  10472.037  10472.020  0.500  2.044595  59.5967  7.713754  2.621161
  10477.629  10477.600  0.500  2.040668  59.4793  7.728850  2.631029
  10483.228  10483.200  0.500  2.036545  59.3528  7.744273  2.640057
  10488.832  10488.810  0.500  2.032875  59.2243  7.755922  2.648918
  10494.471  10494.450  0.500  2.028895  59.0864  7.768727  2.657041
  10500.136  10500.100  0.500  2.025105  58.945  7.779563  2.665174
  10505.783  10505.770  0.500  2.021172  58.8674  7.799936  2.676950
  10511.489  10511.460  0.500  2.017198  58.652  7.802341  2.681964