File: xdidata/Zn/Zn-Hemimorphite.xdi
# XDI/1.0 BlueSky/1.10.0 BMM/2023-1.0-py310-tiled
# Beamline.name: BMM (06BM) -- Beamline for Materials Measurement (NIST)
# Beamline.xray_source: NSLS-II three-pole wiggler
# Beamline.collimation: paraboloid mirror, 5 nm Rh on 30 nm Pt
# Beamline.focusing: not in use
# Beamline.harmonic_rejection: flat mirror, Pt stripe, pitch = 7.0 mrad relative to beam
# Beamline.software: Bluesky 1.10.0, Ophyd 1.7.0, DataBroker 2.0.0b13, Python 3.10.8, 2023-1.0-py310-tiled
# Detector.I0: 10 cm N2
# Detector.I1: 25 cm N2
# Detector.I2: 25 cm N2
# Element.symbol: Zn
# Element.edge: K
# Element.reference: Zn
# Element.reference_material: Zn foil
# Facility.name: NSLS-II
# Facility.energy: 3.0
# Facility.current: 400.0
# Facility.mode: top-off
# Facility.GUP: 123456
# Facility.SAF: 301027
# Facility.cycle: 2023-2
# Mono.name: Si(111)
# Mono.d_spacing: 3.13519
# Mono.encoder_resolution: 0.0000050 deg/ct
# Mono.angle_offset: 16.0754 deg
# Mono.scan_mode: pseudo channel cut
# Mono.scan_type: step
# Mono.direction: forward in energy
# Sample.name: Zn4Si2O7(OH)2Â·H2O
# Sample.prep: powder in PEG pellet
# Sample.x: 116.329 mm
# Sample.y: 114.126 mm
# Sample.SDD_position: 205.000 mm
# Scan.experimenters: Bruce Ravel
# Scan.edge_energy: 9658.6
# Scan.start_time: 2023-05-06T13:31:23
# Scan.end_time: 2023-05-06T13:39:20
# Scan.transient_id: 74825
# Scan.uid: 237a2b16-d41e-4929-bfcb-6a4214067ad9
# Scan.plot_hint: ln(I0/It)  --  ln($5/$6)
# Column.1: energy eV
# Column.2: requested_energy eV
# Column.3: measurement_time seconds
# Column.4: xmu
# Column.5: I0 nA
# Column.6: It nA
# Column.7: Ir nA
# ///////////
# sample courtesy Martin Stennett, University of Sheffield
# -----------
# energy  requested_energy  measurement_time  xmu  I0  It  Ir
  9458.611  9458.600  0.500  1.471377  105.457  24.2139  13.3404
  9468.611  9468.600  0.500  1.465594  105.285  24.3146  13.42
  9478.660  9478.600  0.500  1.459741  105.102  24.4149  13.5006
  9488.637  9488.600  0.500  1.453993  104.913  24.5114  13.5794
  9498.620  9498.600  0.500  1.448102  104.729  24.6129  13.6605
  9508.660  9508.600  0.500  1.442354  104.547  24.7118  13.7397
  9518.627  9518.600  0.500  1.436559  104.355  24.8097  13.8196
  9528.683  9528.600  0.500  1.431028  104.178  24.9051  13.8979
  9538.654  9538.600  0.500  1.425483  103.996  24.9998  13.9734
  9548.639  9548.600  0.500  1.420024  103.803  25.09  14.0502
  9558.633  9558.600  0.500  1.414568  103.621  25.183  14.1256
  9568.629  9568.600  0.500  1.409380  103.442  25.2705  14.1988
  9578.678  9578.600  0.500  1.404366  103.265  25.3538  14.2688
  9588.634  9588.600  0.500  1.399653  103.081  25.4284  14.335
  9598.642  9598.600  0.500  1.395400  102.896  25.4908  14.3895
  9608.621  9608.600  0.500  1.391883  102.717  25.5362  14.4353
  9618.632  9618.600  0.500  1.389726  102.498  25.5368  14.45
  9628.632  9628.600  0.500  1.390263  102.333  25.4819  14.4272
  9630.591  9630.600  0.500  1.390821  102.291  25.4572  14.4125
  9632.579  9632.600  0.500  1.391667  102.235  25.4218  14.3938
  9634.579  9634.600  0.500  1.392925  102.024  25.3374  14.3438
  9636.580  9636.600  0.500  1.394564  102.162  25.3303  14.3377
  9638.574  9638.600  0.500  1.396591  102.128  25.2705  14.2999
  9640.581  9640.600  0.500  1.399239  102.088  25.1937  14.2493
  9642.585  9642.600  0.500  1.402689  102.049  25.0973  14.1862
  9644.577  9644.600  0.500  1.407338  102.01  24.9713  14.1038
  9646.587  9646.600  0.500  1.413196  101.964  24.8143  13.9974
  9648.593  9648.600  0.500  1.421190  101.704  24.5541  13.8274
  9648.862  9648.900  0.500  1.422476  101.697  24.5208  13.8059
  9649.164  9649.200  0.500  1.424065  101.72  24.4873  13.7819
  9649.466  9649.500  0.500  1.425573  101.76  24.4602  13.7624
  9649.763  9649.800  0.500  1.427186  101.807  24.432  13.7408
  9650.065  9650.100  0.500  1.428773  101.833  24.3994  13.7172
  9650.367  9650.400  0.500  1.430449  101.846  24.3618  13.6891
  9650.664  9650.700  0.500  1.432389  101.849  24.3153  13.6589
  9650.966  9651.000  0.500  1.434195  101.844  24.2702  13.6265
  9651.268  9651.300  0.500  1.436467  101.846  24.2156  13.5902
  9651.558  9651.600  0.500  1.438548  101.839  24.1635  13.5511
  9651.872  9651.900  0.500  1.441165  101.833  24.099  13.5088
  9652.165  9652.200  0.500  1.443600  101.827  24.0389  13.4653
  9652.475  9652.500  0.500  1.446081  101.816  23.9767  13.4208
  9652.769  9652.800  0.500  1.448854  101.813  23.9096  13.3741
  9653.071  9653.100  0.500  1.451720  101.802  23.8387  13.3246
  9653.377  9653.400  0.500  1.454739  101.792  23.7644  13.2723
  9653.675  9653.700  0.500  1.457945  101.784  23.6865  13.2143
  9653.981  9654.000  0.500  1.461545  101.779  23.6002  13.1534
  9654.279  9654.300  0.500  1.465129  101.766  23.5128  13.091
  9654.585  9654.600  0.500  1.469219  101.757  23.4148  13.021
  9654.883  9654.900  0.500  1.473338  101.75  23.3169  12.9508
  9655.197  9655.200  0.500  1.478192  101.745  23.2028  12.8665
  9655.487  9655.500  0.500  1.482938  101.732  23.0901  12.7834
  9655.793  9655.800  0.500  1.488288  101.722  22.9647  12.6912
  9656.087  9656.100  0.500  1.493889  101.708  22.8333  12.5935
  9656.401  9656.400  0.500  1.500092  101.822  22.7175  12.4988
  9656.695  9656.700  0.500  1.506475  102.026  22.6182  12.4152
  9656.985  9657.000  0.500  1.513263  102.007  22.4609  12.2919
  9657.291  9657.300  0.500  1.520816  101.997  22.2897  12.1594
  9657.590  9657.600  0.500  1.528872  101.99  22.1094  12.015
  9657.884  9657.900  0.500  1.537839  101.984  21.9108  11.8543
  9658.182  9658.200  0.500  1.547464  101.976  21.6991  11.6748
  9658.492  9658.500  0.500  1.558642  101.97  21.4566  11.4637
  9658.786  9658.800  0.500  1.570829  101.959  21.1944  11.2266
  9659.081  9659.100  0.500  1.584216  101.951  20.9111  10.9592
  9659.395  9659.400  0.500  1.600059  101.94  20.58  10.6198
  9659.689  9659.700  0.500  1.617517  101.928  20.2215  10.2276
  9659.992  9660.000  0.500  1.637015  101.916  19.8288  9.765178
  9660.294  9660.300  0.500  1.660520  101.908  19.3665  9.199065
  9660.596  9660.600  0.500  1.686640  101.903  18.8663  8.579898
  9660.899  9660.900  0.500  1.717447  101.9  18.2935  7.913384
  9661.197  9661.200  0.500  1.752788  101.889  17.6564  7.252851
  9661.503  9661.500  0.500  1.795772  101.884  16.9126  6.593376
  9661.806  9661.800  0.500  1.849638  101.878  16.0248  5.940952
  9662.104  9662.100  0.500  1.911962  101.861  15.0541  5.342248
  9662.391  9662.400  0.500  1.984756  101.854  13.9961  4.779700
  9662.689  9662.700  0.500  2.076371  101.845  12.7698  4.203188
  9662.996  9663.000  0.500  2.183564  101.837  11.4708  3.655764
  9663.294  9663.300  0.500  2.312082  101.828  10.0865  3.121930
  9663.597  9663.600  0.500  2.461122  101.819  8.689116  2.622901
  9663.887  9663.900  0.500  2.637626  101.818  7.283138  2.149518
  9664.194  9664.200  0.500  2.845612  101.814  5.915284  1.710812
  9664.497  9664.500  0.500  3.069186  101.806  4.729795  1.344627
  9664.807  9664.800  0.500  3.314414  101.791  3.700657  1.035244
  9665.102  9665.100  0.500  3.547215  101.785  2.931895  0.809910
  9665.396  9665.400  0.500  3.774394  101.768  2.335685  0.636837
  9665.707  9665.700  0.500  3.988055  101.721  1.885470  0.507839
  9666.010  9666.000  0.500  4.172522  101.642  1.566638  0.416708
  9666.305  9666.300  0.500  4.315205  101.579  1.357483  0.355942
  9666.591  9666.600  0.500  4.421300  101.541  1.220386  0.314685
  9666.890  9666.900  0.500  4.490707  101.515  1.138262  0.288540
  9667.197  9667.200  0.500  4.528314  101.528  1.096385  0.273293
  9667.491  9667.500  0.500  4.538987  101.571  1.085208  0.265663
  9667.790  9667.800  0.500  4.541967  101.637  1.082681  0.260661
  9668.089  9668.100  0.500  4.545363  101.668  1.079336  0.255719
  9668.396  9668.400  0.500  4.558152  101.673  1.065678  0.248711
  9668.703  9668.700  0.500  4.582307  101.677  1.040288  0.239464
  9669.006  9669.000  0.500  4.617725  101.67  1.004015  0.228370
  9669.301  9669.300  0.500  4.657029  101.669  0.965306  0.216565
  9669.616  9669.600  0.500  4.700847  101.663  0.923868  0.204791
  9669.898  9669.900  0.500  4.735821  101.661  0.892103  0.195447
  9670.201  9670.200  0.500  4.760733  101.649  0.870050  0.188738
  9670.496  9670.500  0.500  4.773907  101.647  0.858645  0.185192
  9670.803  9670.800  0.500  4.771674  101.634  0.860451  0.184194
  9671.094  9671.100  0.500  4.757397  101.628  0.872772  0.186528
  9671.389  9671.400  0.500  4.734572  101.618  0.892840  0.191226
  9671.692  9671.700  0.500  4.706018  101.605  0.918577  0.197909
  9672.000  9672.000  0.500  4.673811  101.598  0.948583  0.206056
  9672.295  9672.300  0.500  4.641920  101.589  0.979233  0.215892
  9672.590  9672.600  0.500  4.609965  101.585  1.010991  0.226050
  9672.897  9672.900  0.500  4.575042  101.579  1.046865  0.238061
  9673.204  9673.200  0.500  4.542696  101.57  1.081182  0.250449
  9673.499  9673.500  0.500  4.509204  101.564  1.117939  0.263264
  9673.802  9673.800  0.500  4.475679  101.557  1.155970  0.276321
  9674.110  9674.100  0.500  4.440769  101.547  1.196922  0.290493
  9674.401  9674.400  0.500  4.408534  101.542  1.236066  0.303666
  9674.704  9674.700  0.500  4.375644  101.524  1.277175  0.317008
  9675.007  9675.000  0.500  4.341841  101.516  1.320976  0.330895
  9675.315  9675.300  0.500  4.309182  101.509  1.364743  0.344191
  9675.598  9675.600  0.500  4.278496  101.496  1.407096  0.356923
  9675.889  9675.900  0.500  4.246077  101.48  1.453229  0.370415
  9676.200  9676.200  0.500  4.213429  101.475  1.501385  0.384176
  9676.496  9676.500  0.500  4.183695  101.464  1.546529  0.397092
  9676.791  9676.800  0.500  4.153809  101.456  1.593312  0.410041
  9677.099  9677.100  0.500  4.125808  101.443  1.638348  0.422366
  9677.406  9677.400  0.500  4.099569  101.438  1.681819  0.434006
  9677.697  9677.700  0.500  4.076340  101.43  1.721204  0.444651
  9678.009  9678.000  0.500  4.056120  101.421  1.756207  0.453722
  9678.304  9678.300  0.500  4.038543  101.413  1.787214  0.461936
  9678.612  9678.600  0.500  4.024003  101.395  1.813071  0.468835
  9678.899  9678.900  0.500  4.011103  101.397  1.836652  0.475209
  9679.207  9679.200  0.500  4.000316  101.387  1.856391  0.481466
  9679.510  9679.500  0.500  3.990246  101.375  1.874942  0.486841
  9679.802  9679.800  0.500  3.981203  101.369  1.891867  0.492628
  9680.089  9680.100  0.500  3.973040  101.365  1.907305  0.498286
  9680.405  9680.400  0.500  3.964463  101.353  1.923503  0.504628
  9680.701  9680.700  0.500  3.957196  101.343  1.937337  0.510809
  9680.988  9681.000  0.500  3.950809  101.338  1.949661  0.516594
  9681.300  9681.300  0.500  3.944431  101.328  1.961940  0.523057
  9681.596  9681.600  0.500  3.939858  101.322  1.970809  0.528213
  9681.887  9681.900  0.500  3.936377  101.308  1.977421  0.532487
  9682.199  9682.200  0.500  3.934863  101.296  1.980177  0.536438
  9682.503  9682.500  0.500  3.935319  101.285  1.979055  0.539051
  9682.798  9682.800  0.500  3.937263  101.283  1.975166  0.539914
  9683.110  9683.100  0.500  3.941414  101.273  1.966799  0.540040
  9683.406  9683.400  0.500  3.946705  101.265  1.956255  0.539060
  9683.592  9683.600  0.500  3.950575  101.254  1.948495  0.537799
  9684.597  9684.590  0.500  3.968473  101.233  1.913531  0.531523
  9685.586  9685.590  0.500  3.979959  101.214  1.891331  0.526004
  9686.624  9686.610  0.500  3.991406  101.193  1.869407  0.519334
  9687.682  9687.660  0.500  3.999574  101.166  1.853701  0.513104
  9688.745  9688.720  0.500  3.975361  101.152  1.898877  0.521406
  9689.819  9689.800  0.500  3.904815  101.128  2.037191  0.554205
  9690.919  9690.900  0.500  3.800214  101.104  2.261286  0.608339
  9692.039  9692.020  0.500  3.692808  101.062  2.516646  0.668444
  9693.196  9693.160  0.500  3.612292  101.056  2.727481  0.715273
  9694.316  9694.310  0.500  3.571692  101.037  2.839980  0.735260
  9695.498  9695.490  0.500  3.565252  101.014  2.857685  0.731521
  9696.696  9696.680  0.500  3.587981  100.983  2.792608  0.708316
  9697.968  9697.900  0.500  3.631214  100.951  2.673577  0.673767
  9699.098  9699.130  0.500  3.672069  100.911  2.565545  0.643951
  9700.724  9700.380  0.500  3.719390  100.857  2.445648  0.613224
  9701.676  9701.650  0.500  3.750644  100.842  2.370047  0.596086
  9702.981  9702.940  0.500  3.788649  100.811  2.280959  0.578007
  9704.287  9704.250  0.500  3.830253  100.78  2.187333  0.559828
  9705.602  9705.580  0.500  3.874943  100.746  2.091040  0.540356
  9706.949  9706.930  0.500  3.918500  100.696  2.000914  0.520509
  9708.321  9708.300  0.500  3.960280  100.51  1.915494  0.500627
  9709.706  9709.680  0.500  3.993530  99.2204  1.829081  0.478989
  9711.120  9711.090  0.500  4.019040  100.673  1.809115  0.473455
  9712.534  9712.510  0.500  4.038036  100.667  1.774968  0.462678
  9713.961  9713.950  0.500  4.051378  100.635  1.750890  0.453737
  9715.429  9715.410  0.500  4.059680  100.608  1.735942  0.448285
  9716.914  9716.890  0.500  4.064885  100.569  1.726255  0.444582
  9718.424  9718.390  0.500  4.072791  100.541  1.712187  0.441707
  9719.930  9719.910  0.500  4.082875  100.503  1.694374  0.438104
  9721.473  9721.450  0.500  4.091014  100.474  1.680156  0.434974
  9723.030  9723.010  0.500  4.093264  100.443  1.675855  0.434594
  9724.607  9724.580  0.500  4.089084  100.41  1.682329  0.436142
  9726.201  9726.180  0.500  4.082229  100.377  1.693351  0.438904
  9727.803  9727.790  0.500  4.073959  100.334  1.706669  0.441427
  9729.444  9729.430  0.500  4.063848  100.323  1.723819  0.444485
  9731.088  9731.080  0.500  4.055036  100.292  1.738555  0.446859
  9732.770  9732.750  0.500  4.048343  100.262  1.749693  0.446802
  9734.461  9734.440  0.500  4.041790  100.23  1.760646  0.447077
  9736.161  9736.150  0.500  4.030529  100.201  1.780062  0.449304
  9737.890  9737.880  0.500  4.014607  100.176  1.808173  0.454544
  9739.644  9739.630  0.500  3.995617  100.141  1.842212  0.462673
  9741.407  9741.390  0.500  3.975756  100.11  1.878581  0.472313
  9743.204  9743.180  0.500  3.956960  100.078  1.913601  0.483995
  9744.993  9744.980  0.500  3.939859  100.252  1.949994  0.497420
  9746.819  9746.810  0.500  3.924244  100.325  1.982131  0.510930
  9748.663  9748.650  0.500  3.913150  100.291  2.003552  0.521680
  9750.524  9750.510  0.500  3.906949  100.253  2.015265  0.528676
  9752.402  9752.390  0.500  3.904582  100.22  2.019362  0.532629
  9754.293  9754.290  0.500  3.905555  100.179  2.016588  0.534471
  9756.222  9756.210  0.500  3.906475  100.152  2.014186  0.535997
  9758.177  9758.150  0.500  3.908703  100.107  2.008790  0.536848
  9760.115  9760.110  0.500  3.912076  100.078  2.001447  0.536934
  9762.076  9762.080  0.500  3.915136  100.036  1.994506  0.536184
  9764.098  9764.080  0.500  3.916937  99.9944  1.990085  0.534629
  9766.114  9766.090  0.500  3.917121  99.9489  1.988812  0.533083
  9768.134  9768.120  0.500  3.915925  99.8909  1.990037  0.530903
  9770.196  9770.180  0.500  3.911975  99.8176  1.996447  0.529290
  9772.251  9772.250  0.500  3.907872  99.5968  2.000221  0.527642
  9774.353  9774.340  0.500  3.906900  99.3625  1.997457  0.523793
  9776.455  9776.450  0.500  3.906415  99.758  2.006380  0.522589
  9778.604  9778.580  0.500  3.910261  99.6913  1.997341  0.516880
  9780.728  9780.720  0.500  3.917406  99.6011  1.981328  0.509820
  9782.900  9782.890  0.500  3.927282  98.3029  1.936284  0.496100
  9785.093  9785.080  0.500  3.942992  99.6411  1.932053  0.494811
  9787.299  9787.280  0.500  3.956216  99.5791  1.905486  0.489112
  9789.498  9789.500  0.500  3.965698  99.4599  1.885243  0.485219
  9791.769  9791.750  0.500  3.967703  97.8892  1.851754  0.477475
  9794.015  9794.010  0.500  3.966474  99.5074  1.884680  0.487078
  9796.305  9796.290  0.500  3.961279  99.4391  1.893196  0.490155
  9798.603  9798.590  0.500  3.956362  99.3601  1.901017  0.493817
  9800.916  9800.910  0.500  3.953556  99.205  1.903383  0.496408
  9803.258  9803.250  0.500  3.953044  98.7847  1.896289  0.497091
  9805.627  9805.600  0.500  3.949975  99.2643  1.911351  0.503536
  9807.996  9807.980  0.500  3.947918  99.1989  1.914026  0.507461
  9810.380  9810.370  0.500  3.944696  99.1474  1.919206  0.511135
  9812.814  9812.790  0.500  3.941967  99.0992  1.923514  0.515657
  9815.217  9815.220  0.500  3.939381  99.0482  1.927505  0.519967
  9817.687  9817.670  0.500  3.936039  99.0092  1.933194  0.524310
  9820.167  9820.150  0.500  3.931945  98.3871  1.928928  0.525078
  9822.640  9822.640  0.500  3.928970  98.841  1.943601  0.529061
  9825.164  9825.150  0.500  3.923656  98.8158  1.953460  0.530274
  9827.685  9827.670  0.500  3.917205  98.2801  1.955443  0.527494
  9830.220  9830.220  0.500  3.911253  98.7065  1.975650  0.530648
  9832.819  9832.790  0.500  3.905441  98.6515  1.986060  0.531552
  9835.395  9835.370  0.500  3.901386  98.2005  1.985014  0.530305
  9838.009  9837.980  0.500  3.898336  98.5579  1.998322  0.533843
  9840.625  9840.600  0.500  3.896389  98.5104  2.001252  0.535022
  9843.255  9843.250  0.500  3.894801  97.8711  1.991426  0.532503
  9845.929  9845.910  0.500  3.892058  98.3656  2.006984  0.536263
  9848.608  9848.590  0.500  3.888753  98.3276  2.012848  0.537143
  9851.309  9851.290  0.500  3.885550  98.2808  2.018348  0.538261
  9854.029  9854.010  0.500  3.882336  98.2219  2.023632  0.539252
  9856.754  9856.750  0.500  3.880538  98.1585  2.025964  0.539486
  9859.519  9859.500  0.500  3.879679  98.1028  2.026554  0.539448
  9862.298  9862.280  0.500  3.880899  98.0372  2.022730  0.538978
  9865.066  9865.070  0.500  3.881423  97.9877  2.020648  0.539021
  9867.920  9867.890  0.500  3.881208  97.9198  2.019684  0.539492
  9870.729  9870.720  0.500  3.879526  97.8631  2.021912  0.542398
  9873.591  9873.570  0.500  3.877253  97.7982  2.025170  0.545181
  9876.462  9876.450  0.500  3.873877  97.7412  2.030833  0.549704
  9879.361  9879.340  0.500  3.868911  97.5689  2.037345  0.554739
  9882.278  9882.250  0.500  3.865561  95.981  2.010913  0.550621
  9885.176  9885.170  0.500  3.861684  97.4456  2.049530  0.563788
  9888.151  9888.120  0.500  3.860338  97.4308  2.051978  0.566363
  9891.082  9891.090  0.500  3.860561  97.3841  2.050537  0.567819
  9894.100  9894.070  0.500  3.861526  97.3234  2.047284  0.567882
  9897.094  9897.080  0.500  3.861795  97.2582  2.045362  0.567252
  9900.136  9900.100  0.500  3.860875  97.1895  2.045797  0.567008
  9903.167  9903.150  0.500  3.858604  97.1267  2.049124  0.567497
  9906.231  9906.210  0.500  3.856116  97.0646  2.052914  0.567944
  9909.313  9909.290  0.500  3.854216  96.9929  2.055299  0.567951
  9912.397  9912.390  0.500  3.852326  96.9263  2.057775  0.568327
  9915.534  9915.510  0.500  3.850298  96.861  2.060563  0.569077
  9918.656  9918.650  0.500  3.849413  96.7868  2.060806  0.569434
  9921.835  9921.800  0.500  3.847935  96.7111  2.062240  0.570037
  9924.986  9924.980  0.500  3.846398  96.631  2.063702  0.570919
  9928.191  9928.170  0.500  3.844135  96.5068  2.065719  0.571690
  9931.402  9931.390  0.500  3.838445  94.5542  2.035472  0.563373
  9934.641  9934.620  0.500  3.836958  96.4816  2.080055  0.576089
  9937.887  9937.870  0.500  3.832700  96.3971  2.087102  0.579097
  9941.177  9941.150  0.500  3.827629  96.3134  2.095891  0.581782
  9944.448  9944.440  0.500  3.821973  96.2329  2.106015  0.585544
  9947.768  9947.750  0.500  3.815898  96.139  2.116781  0.589797
  9951.078  9951.070  0.500  3.810421  95.8859  2.122806  0.592428
  9954.442  9954.420  0.500  3.806995  95.202  2.114897  0.591759
  9957.812  9957.790  0.500  3.801007  95.8816  2.142787  0.601532
  9961.197  9961.170  0.500  3.797737  95.7953  2.147871  0.604712
  9964.602  9964.580  0.500  3.796003  95.6278  2.147835  0.606866
  9968.026  9968.000  0.500  3.794590  92.7197  2.085463  0.591593
  9971.470  9971.450  0.500  3.792743  95.7016  2.156512  0.613084
  9974.934  9974.910  0.500  3.789667  95.6007  2.160874  0.615115
  9978.413  9978.390  0.500  3.786339  95.4898  2.165563  0.617729
  9981.907  9981.890  0.500  3.782987  95.0437  2.162684  0.617367
  9985.417  9985.410  0.500  3.782120  95.0358  2.164379  0.619497
  9988.951  9988.950  0.500  3.778489  95.2298  2.176685  0.623674
  9992.522  9992.500  0.500  3.776494  95.1169  2.178448  0.624598
  9996.087  9996.080  0.500  3.773979  94.859  2.178011  0.624924
  9999.698  9999.680  0.500  3.772963  94.4554  2.170950  0.623495
  10003.307  10003.290  0.500  3.769227  95.0057  2.191769  0.629785
  10006.928  10006.920  0.500  3.766536  94.8986  2.195199  0.631486
  10010.590  10010.580  0.500  3.763716  94.7615  2.198217  0.632952
  10014.264  10014.250  0.500  3.760324  92.5038  2.153137  0.620696
  10017.962  10017.940  0.500  3.757522  94.5837  2.207727  0.636937
  10021.654  10021.650  0.500  3.752943  94.5303  2.216606  0.639729
  10025.401  10025.380  0.500  3.749542  94.4408  2.222053  0.641810
  10029.129  10029.120  0.500  3.745128  94.3465  2.229654  0.644667
  10032.913  10032.890  0.500  3.741983  94.1623  2.232308  0.646669
  10036.686  10036.680  0.500  3.740624  93.4311  2.217987  0.642901
  10040.501  10040.480  0.500  3.736528  94.1631  2.244539  0.652605
  10044.320  10044.310  0.500  3.733783  94.0724  2.248542  0.654483
  10048.176  10048.150  0.500  3.731050  93.9699  2.252239  0.656924
  10052.022  10052.010  0.500  3.728729  93.8812  2.255340  0.659890
  10055.902  10055.890  0.500  3.725975  93.7888  2.259336  0.662495
  10059.820  10059.790  0.500  3.723219  93.6925  2.263244  0.665050
  10063.719  10063.710  0.500  3.720345  93.6101  2.267762  0.668145
  10067.674  10067.650  0.500  3.717271  93.5199  2.272552  0.670527
  10071.618  10071.610  0.500  3.713741  93.4224  2.278211  0.673433
  10075.610  10075.580  0.500  3.710128  93.3372  2.284372  0.675831
  10079.592  10079.580  0.500  3.706534  93.2469  2.290377  0.679354
  10083.612  10083.590  0.500  3.703217  93.1486  2.295565  0.681603
  10087.649  10087.630  0.500  3.697341  91.6673  2.272373  0.676399
  10091.707  10091.680  0.500  3.696307  92.8557  2.304213  0.686876
  10095.777  10095.750  0.500  3.692215  92.8358  2.313167  0.690119
  10099.859  10099.840  0.500  3.688587  92.7439  2.319276  0.693157
  10103.962  10103.950  0.500  3.684935  92.6649  2.325777  0.696564
  10108.095  10108.080  0.500  3.680731  92.5797  2.333429  0.699450
  10112.254  10112.230  0.500  3.677195  92.4868  2.339345  0.702032
  10116.403  10116.390  0.500  3.673082  92.3846  2.346390  0.704247
  10120.604  10120.580  0.500  3.669511  92.2965  2.352539  0.707650
  10124.791  10124.780  0.500  3.665908  92.1971  2.358488  0.710341
  10129.030  10129.010  0.500  3.662550  92.1143  2.364295  0.713081
  10133.264  10133.250  0.500  3.659815  92.01  2.368087  0.715241
  10137.524  10137.510  0.500  3.656712  91.9123  2.372924  0.717921
  10141.809  10141.790  0.500  3.653511  91.8155  2.378024  0.720165
  10146.103  10146.090  0.500  3.650493  91.7207  2.382751  0.723074
  10150.437  10150.410  0.500  3.647358  91.6207  2.387624  0.726047
  10154.760  10154.750  0.500  3.643948  91.5317  2.393452  0.728705
  10159.141  10159.110  0.500  3.640729  91.4367  2.398678  0.732032
  10163.509  10163.490  0.500  3.637769  91.3306  2.402997  0.734981
  10167.911  10167.880  0.500  3.634191  91.2406  2.409233  0.738047
  10172.326  10172.300  0.500  3.631125  91.1298  2.413699  0.740339
  10176.749  10176.730  0.500  3.627732  91.038  2.419460  0.743680
  10181.208  10181.180  0.500  3.624339  90.9449  2.425204  0.746682
  10185.680  10185.650  0.500  3.621603  90.8349  2.428905  0.749206
  10190.174  10190.140  0.500  3.618126  90.7165  2.434188  0.752141
  10194.662  10194.650  0.500  3.614476  90.3696  2.433747  0.753268
  10199.205  10199.180  0.500  3.610824  90.5245  2.446839  0.758895
  10203.765  10203.730  0.500  3.607298  90.4037  2.452204  0.761766
  10208.329  10208.300  0.500  3.603530  90.2958  2.458525  0.764500
  10212.915  10212.880  0.500  3.600120  90.439  2.470834  0.769525
  10217.515  10217.490  0.500  3.596966  90.4005  2.477585  0.773340
  10222.146  10222.110  0.500  3.593084  90.2947  2.484310  0.776550
  10226.790  10226.760  0.500  3.589090  90.1867  2.491269  0.779638
  10231.434  10231.420  0.500  3.585545  90.0797  2.497149  0.782482
  10236.137  10236.100  0.500  3.582075  89.9605  2.502512  0.785485
  10240.822  10240.800  0.500  3.578467  89.8896  2.509580  0.788756
  10245.547  10245.520  0.500  3.574494  89.7895  2.516763  0.792224
  10250.286  10250.260  0.500  3.571149  89.6642  2.521672  0.795190
  10255.052  10255.010  0.500  3.567458  89.5635  2.528156  0.798495
  10259.818  10259.790  0.500  3.564019  89.4627  2.534008  0.801698
  10264.607  10264.590  0.500  3.560314  89.3539  2.540323  0.805111
  10269.437  10269.400  0.500  3.556657  89.2429  2.546460  0.808191
  10274.258  10274.230  0.500  3.553200  89.104  2.551302  0.811126
  10279.115  10279.090  0.500  3.549386  89.028  2.558868  0.814910
  10284.000  10283.960  0.500  3.545834  88.919  2.564830  0.818119
  10288.877  10288.850  0.500  3.542131  88.8067  2.571093  0.822208
  10293.794  10293.760  0.500  3.538619  88.7042  2.577162  0.825578
  10298.716  10298.690  0.500  3.534749  88.5885  2.583778  0.828587
  10303.662  10303.630  0.500  3.530786  88.4781  2.590807  0.832327
  10308.635  10308.600  0.500  3.527028  88.361  2.597119  0.835895
  10313.613  10313.590  0.500  3.523272  88.2516  2.603665  0.839402
  10318.624  10318.590  0.500  3.519304  88.1381  2.610655  0.843049
  10323.649  10323.620  0.500  3.516170  88.0443  2.616061  0.846336
  10328.679  10328.660  0.500  3.512160  87.9287  2.623124  0.850220
  10333.751  10333.720  0.500  3.508688  87.8122  2.628759  0.853509
  10338.824  10338.800  0.500  3.505166  87.6988  2.634629  0.856859
  10343.929  10343.900  0.500  3.501216  87.5859  2.641650  0.860150
  10349.058  10349.020  0.500  3.497842  87.481  2.647404  0.863032
  10354.188  10354.160  0.500  3.494430  87.3708  2.653106  0.866702
  10359.332  10359.320  0.500  3.490460  87.2588  2.660246  0.870365
  10364.542  10364.500  0.500  3.487082  87.1397  2.665602  0.873059
  10369.719  10369.690  0.500  3.483432  86.9989  2.671030  0.876770
  10374.931  10374.910  0.500  3.480076  86.8881  2.676594  0.880012
  10380.175  10380.140  0.500  3.476515  86.7655  2.682354  0.883009
  10385.425  10385.390  0.500  3.473160  86.6539  2.687904  0.886821
  10390.689  10390.660  0.500  3.469251  86.5317  2.694626  0.890183
  10395.988  10395.950  0.500  3.465697  86.4127  2.700503  0.893556
  10401.287  10401.260  0.500  3.462027  86.3092  2.707185  0.897725
  10406.610  10406.590  0.500  3.458390  86.1903  2.713305  0.901099
  10411.972  10411.940  0.500  3.454620  86.0768  2.719967  0.904837
  10417.348  10417.310  0.500  3.450523  85.9699  2.727743  0.909087
  10422.717  10422.690  0.500  3.446419  85.8552  2.735305  0.912612
  10428.138  10428.100  0.500  3.442351  85.7525  2.743169  0.916936
  10433.546  10433.520  0.500  3.438659  85.622  2.749126  0.920757
  10438.992  10438.970  0.500  3.435079  85.4902  2.754737  0.924264
  10444.464  10444.430  0.500  3.431052  85.3813  2.762333  0.928082
  10449.936  10449.910  0.500  3.427139  85.2617  2.769277  0.932345
  10455.429  10455.410  0.500  3.423060  85.144  2.776758  0.936171
  10460.975  10460.930  0.500  3.419511  85.0172  2.782478  0.939801
  10466.503  10466.470  0.500  3.415427  84.9042  2.790154  0.943790
  10472.032  10472.020  0.500  3.411376  84.7759  2.797246  0.948116
  10477.634  10477.600  0.500  3.407345  84.6614  2.804751  0.951982
  10483.228  10483.200  0.500  3.403671  84.5434  2.811150  0.955873
  10488.832  10488.810  0.500  3.399717  84.417  2.818068  0.960213
  10494.476  10494.450  0.500  3.395841  84.2976  2.825013  0.963583
  10500.136  10500.100  0.500  3.392055  84.1802  2.831776  0.967506
  10505.788  10505.770  0.500  3.388380  84.0636  2.838266  0.971880
  10511.479  10511.460  0.500  3.384588  83.8736  2.842610  0.974759