File: xdidata/Zn/Zn-K-ZincFoil.xdi
# XDI/1.0 BlueSky/1.10.0 BMM/2023-1.0-py310-tiled
# Beamline.name: BMM (06BM) -- Beamline for Materials Measurement (NIST)
# Beamline.xray_source: NSLS-II three-pole wiggler
# Beamline.collimation: paraboloid mirror, 5 nm Rh on 30 nm Pt
# Beamline.focusing: not in use
# Beamline.harmonic_rejection: flat mirror, Pt stripe, pitch = 7.0 mrad relative to beam
# Beamline.software: Bluesky 1.10.0, Ophyd 1.7.0, DataBroker 2.0.0b13, Python 3.10.8, 2023-1.0-py310-tiled
# Detector.I0: 10 cm N2
# Detector.I1: 25 cm N2
# Detector.I2: 25 cm N2
# Element.symbol: Zn
# Element.edge: K
# Element.reference: Zn
# Element.reference_material: Zn foil
# Facility.name: NSLS-II
# Facility.energy: 3.0
# Facility.current: 399.5
# Facility.mode: top-off
# Facility.GUP: 301027
# Facility.SAF: 310583
# Facility.cycle: 2023-2
# Mono.name: Si(111)
# Mono.d_spacing: 3.13519
# Mono.encoder_resolution: 0.0000050 deg/ct
# Mono.angle_offset: 16.0754 deg
# Mono.scan_mode: pseudo channel cut
# Mono.scan_type: step
# Mono.direction: forward in energy
# Sample.name: Zn foil
# Sample.prep: reference foil
# Sample.x: 109.138 mm
# Sample.y: 153.150 mm
# Sample.SDD_position: 205.000 mm
# Scan.experimenters: Bruce Ravel
# Scan.edge_energy: 9658.6
# Scan.start_time: 2023-05-28T16:55:49
# Scan.end_time: 2023-05-28T17:04:16
# Scan.transient_id: 78854
# Scan.uid: 9b3b008e-5e64-4fbf-a85f-cbcbceb8250a
# Scan.plot_hint: ln(It/Ir)  --  ln($6/$7)
# Column.1: energy eV
# Column.2: requested_energy eV
# Column.3: measurement_time seconds
# Column.4: xmu
# Column.5: I0 nA
# Column.6: It nA
# Column.7: Ir nA
# ///////////
# standard reference foil
# -----------
# energy  requested_energy  measurement_time  xmu  I0  It  Ir
  9458.577  9458.600  0.500  0.717076  108.018  158.326  77.2912
  9468.646  9468.600  0.500  0.714846  107.873  158.261  77.4322
  9478.633  9478.600  0.500  0.712595  107.705  158.16  77.557
  9488.637  9488.600  0.500  0.710404  107.502  158  77.6486
  9498.655  9498.600  0.500  0.708224  107.316  157.877  77.7574
  9508.613  9508.600  0.500  0.706024  107.118  157.721  77.8515
  9518.678  9518.600  0.500  0.703814  106.97  157.658  77.9924
  9528.612  9528.600  0.500  0.701643  107.178  158.077  78.37
  9538.674  9538.600  0.500  0.699489  107.019  157.993  78.497
  9548.635  9548.600  0.500  0.697425  106.815  157.838  78.5821
  9558.657  9558.600  0.500  0.695387  106.63  157.711  78.6788
  9568.661  9568.600  0.500  0.693260  106.471  157.598  78.7899
  9578.627  9578.600  0.500  0.691256  106.314  157.494  78.8963
  9588.654  9588.600  0.500  0.689364  106.124  157.368  78.9822
  9598.635  9598.600  0.500  0.687544  105.925  157.207  79.0452
  9608.637  9608.600  0.500  0.685776  105.737  157.068  79.1152
  9618.632  9618.600  0.500  0.684391  105.392  156.696  79.0371
  9628.644  9628.600  0.500  0.683404  105.371  156.809  79.1719
  9630.571  9630.600  0.500  0.683365  105.321  156.763  79.1518
  9632.575  9632.600  0.500  0.683194  105.306  156.755  79.1615
  9634.575  9634.600  0.500  0.683255  105.069  156.429  78.9918
  9636.568  9636.600  0.500  0.683312  105.166  156.593  79.0704
  9638.570  9638.600  0.500  0.683470  105.151  156.602  79.0623
  9640.573  9640.600  0.500  0.683784  105.114  156.577  79.0249
  9642.589  9642.600  0.500  0.684239  105.108  156.601  79.0013
  9644.573  9644.600  0.500  0.684918  105.033  156.492  78.8924
  9646.575  9646.600  0.500  0.685762  104.991  156.442  78.8008
  9648.581  9648.600  0.500  0.687170  104.904  156.35  78.6435
  9648.866  9648.900  0.500  0.687373  104.845  156.273  78.5888
  9649.164  9649.200  0.500  0.687626  104.801  156.224  78.5445
  9649.466  9649.500  0.500  0.687893  104.738  156.103  78.4628
  9649.763  9649.800  0.500  0.688165  104.702  156.074  78.4268
  9650.065  9650.100  0.500  0.688557  104.724  156.122  78.4199
  9650.363  9650.400  0.500  0.688845  104.744  156.156  78.4145
  9650.669  9650.700  0.500  0.689243  104.761  156.18  78.3957
  9650.974  9651.000  0.500  0.689589  104.825  156.286  78.4215
  9651.260  9651.300  0.500  0.689973  104.851  156.301  78.399
  9651.566  9651.600  0.500  0.690342  104.853  156.319  78.379
  9651.868  9651.900  0.500  0.690831  104.853  156.327  78.3449
  9652.173  9652.200  0.500  0.691389  104.853  156.332  78.3033
  9652.467  9652.500  0.500  0.691869  104.877  156.372  78.2859
  9652.769  9652.800  0.500  0.692401  104.849  156.341  78.229
  9653.075  9653.100  0.500  0.692986  104.844  156.333  78.1791
  9653.377  9653.400  0.500  0.693634  104.843  156.35  78.1369
  9653.683  9653.700  0.500  0.694355  104.84  156.353  78.0822
  9653.985  9654.000  0.500  0.695063  104.834  156.347  78.0241
  9654.287  9654.300  0.500  0.695899  104.814  156.306  77.9383
  9654.589  9654.600  0.500  0.696729  104.801  156.301  77.8709
  9654.887  9654.900  0.500  0.697716  104.81  156.311  77.7993
  9655.193  9655.200  0.500  0.698772  104.801  156.302  77.7128
  9655.487  9655.500  0.500  0.699867  104.812  156.32  77.6364
  9655.797  9655.800  0.500  0.701134  104.767  156.249  77.5031
  9656.083  9656.100  0.500  0.702529  104.804  156.308  77.4244
  9656.405  9656.400  0.500  0.704184  104.766  156.266  77.2756
  9656.687  9656.700  0.500  0.705733  104.781  156.285  77.1654
  9656.993  9657.000  0.500  0.707671  104.764  156.27  77.0083
  9657.283  9657.300  0.500  0.709640  104.737  156.24  76.8421
  9657.594  9657.600  0.500  0.711982  104.755  156.258  76.6714
  9657.888  9657.900  0.500  0.714656  104.749  156.242  76.4586
  9658.190  9658.200  0.500  0.717700  104.713  156.195  76.2036
  9658.480  9658.500  0.500  0.721171  104.714  156.216  75.9496
  9658.790  9658.800  0.500  0.725613  104.71  156.218  75.6138
  9659.081  9659.100  0.500  0.730648  104.726  156.244  75.2469
  9659.379  9659.400  0.500  0.736886  104.709  156.216  74.7651
  9659.693  9659.700  0.500  0.745165  104.684  156.187  74.1352
  9659.983  9660.000  0.500  0.754850  104.681  156.184  73.4191
  9660.294  9660.300  0.500  0.768381  104.675  156.179  72.4303
  9660.596  9660.600  0.500  0.785793  104.657  156.155  71.1689
  9660.895  9660.900  0.500  0.808848  104.658  156.165  69.5512
  9661.201  9661.200  0.500  0.840082  104.66  156.176  67.4175
  9661.499  9661.500  0.500  0.879347  104.632  156.132  64.8032
  9661.794  9661.800  0.500  0.925599  104.626  156.129  61.8729
  9662.104  9662.100  0.500  0.979700  104.613  156.121  58.6115
  9662.399  9662.400  0.500  1.033990  104.615  156.122  55.5149
  9662.697  9662.700  0.500  1.085491  104.627  156.138  52.7333
  9663.004  9663.000  0.500  1.136122  104.609  156.124  50.1253
  9663.294  9663.300  0.500  1.178382  104.613  156.137  48.0551
  9663.593  9663.600  0.500  1.217306  104.612  156.133  46.2196
  9663.895  9663.900  0.500  1.253421  104.589  156.107  44.5726
  9664.194  9664.200  0.500  1.284545  104.593  156.119  43.21
  9664.480  9664.500  0.500  1.311705  104.581  156.105  42.0484
  9664.795  9664.800  0.500  1.336721  104.562  156.069  41.0003
  9665.094  9665.100  0.500  1.356842  104.57  156.099  40.1913
  9665.388  9665.400  0.500  1.374780  104.536  156.058  39.4663
  9665.707  9665.700  0.500  1.390607  104.522  156.036  38.8411
  9666.002  9666.000  0.500  1.403546  104.496  156.008  38.3349
  9666.301  9666.300  0.500  1.415575  104.492  155.988  37.8718
  9666.603  9666.600  0.500  1.427341  104.461  155.928  37.4144
  9666.894  9666.900  0.500  1.438968  104.41  155.872  36.9686
  9667.201  9667.200  0.500  1.452682  104.32  155.751  36.4367
  9667.508  9667.500  0.500  1.467439  104.257  155.664  35.8829
  9667.798  9667.800  0.500  1.483082  104.23  155.615  35.3149
  9668.093  9668.100  0.500  1.499301  104.238  155.649  34.7542
  9668.400  9668.400  0.500  1.516016  104.279  155.711  34.1917
  9668.691  9668.700  0.500  1.531870  104.368  155.837  33.6812
  9668.994  9669.000  0.500  1.547402  104.408  155.892  33.1739
  9669.284  9669.300  0.500  1.562247  104.392  155.878  32.682
  9669.591  9669.600  0.500  1.576627  104.393  155.865  32.2127
  9669.890  9669.900  0.500  1.590145  104.403  155.873  31.7819
  9670.201  9670.200  0.500  1.603313  104.412  155.906  31.3727
  9670.496  9670.500  0.500  1.615273  104.399  155.903  30.9991
  9670.799  9670.800  0.500  1.626130  104.389  155.913  30.6665
  9671.106  9671.100  0.500  1.635622  104.401  155.929  30.3798
  9671.406  9671.400  0.500  1.643305  104.376  155.906  30.1428
  9671.701  9671.700  0.500  1.648484  104.37  155.879  29.9819
  9672.008  9672.000  0.500  1.650939  104.384  155.894  29.9113
  9672.307  9672.300  0.500  1.650045  104.344  155.832  29.9261
  9672.598  9672.600  0.500  1.645647  104.343  155.844  30.0604
  9672.901  9672.900  0.500  1.637424  104.345  155.845  30.3088
  9673.196  9673.200  0.500  1.626235  104.339  155.836  30.6481
  9673.491  9673.500  0.500  1.612764  104.326  155.838  31.0641
  9673.802  9673.800  0.500  1.596623  104.324  155.846  31.5712
  9674.093  9674.100  0.500  1.580229  104.321  155.837  32.0912
  9674.393  9674.400  0.500  1.562931  104.286  155.796  32.6426
  9674.696  9674.700  0.500  1.546076  104.285  155.789  33.196
  9674.991  9675.000  0.500  1.531007  104.282  155.801  33.7026
  9675.294  9675.300  0.500  1.517494  104.274  155.784  34.1573
  9675.598  9675.600  0.500  1.506072  104.272  155.777  34.5481
  9675.889  9675.900  0.500  1.496836  104.292  155.818  34.8778
  9676.200  9676.200  0.500  1.488902  104.265  155.79  35.1494
  9676.508  9676.500  0.500  1.482750  104.248  155.779  35.3637
  9676.791  9676.800  0.500  1.478092  104.238  155.756  35.5236
  9677.103  9677.100  0.500  1.474002  104.253  155.781  35.6749
  9677.394  9677.400  0.500  1.470853  104.23  155.757  35.7819
  9677.697  9677.700  0.500  1.468485  104.199  155.717  35.8576
  9677.997  9678.000  0.500  1.466659  104.202  155.721  35.924
  9678.296  9678.300  0.500  1.465419  104.209  155.737  35.9723
  9678.584  9678.600  0.500  1.464773  104.198  155.725  35.9928
  9678.887  9678.900  0.500  1.464448  104.189  155.733  36.0063
  9679.187  9679.200  0.500  1.464100  104.193  155.731  36.0183
  9679.478  9679.500  0.500  1.463779  104.203  155.72  36.0275
  9679.790  9679.800  0.500  1.463099  104.185  155.704  36.0481
  9680.093  9680.100  0.500  1.461894  104.177  155.703  36.0916
  9680.389  9680.400  0.500  1.460086  104.148  155.663  36.1475
  9680.697  9680.700  0.500  1.457415  104.153  155.652  36.2416
  9681.000  9681.000  0.500  1.454123  104.139  155.657  36.3622
  9681.292  9681.300  0.500  1.450356  104.15  155.689  36.507
  9681.612  9681.600  0.500  1.445810  104.153  155.693  36.6743
  9681.903  9681.900  0.500  1.441095  104.122  155.661  36.8401
  9682.215  9682.200  0.500  1.435747  104.116  155.638  37.032
  9682.487  9682.500  0.500  1.430377  104.102  155.634  37.2305
  9682.815  9682.800  0.500  1.424064  104.08  155.62  37.463
  9683.054  9683.100  0.500  1.419692  104.083  155.589  37.6197
  9683.362  9683.400  0.500  1.414257  104.309  155.922  37.9055
  9683.621  9683.600  0.500  1.410008  104.334  155.95  38.0738
  9684.658  9684.590  0.500  1.397550  104.282  155.903  38.5396
  9685.550  9685.590  0.500  1.392320  104.271  155.907  38.7426
  9686.600  9686.610  0.500  1.390221  104.26  155.905  38.8234
  9687.625  9687.660  0.500  1.391222  104.237  155.894  38.782
  9688.696  9688.720  0.500  1.395492  104.214  155.875  38.6119
  9689.771  9689.800  0.500  1.402835  104.191  155.87  38.3282
  9690.870  9690.900  0.500  1.412635  104.167  155.823  37.9431
  9691.990  9692.020  0.500  1.424614  104.128  155.764  37.477
  9693.147  9693.160  0.500  1.437778  104.105  155.748  36.9831
  9694.288  9694.310  0.500  1.451006  104.111  155.757  36.4993
  9695.474  9695.490  0.500  1.464218  104.105  155.774  36.024
  9696.664  9696.680  0.500  1.475713  104.053  155.706  35.5968
  9697.883  9697.900  0.500  1.484388  104.035  155.708  35.2898
  9699.110  9699.130  0.500  1.490602  104.01  155.706  35.0707
  9700.374  9700.380  0.500  1.494202  103.992  155.696  34.9424
  9701.639  9701.650  0.500  1.494357  103.976  155.695  34.9369
  9702.932  9702.940  0.500  1.490235  103.92  155.634  35.0675
  9704.230  9704.250  0.500  1.481667  103.908  155.629  35.368
  9705.561  9705.580  0.500  1.471016  103.875  155.589  35.7376
  9706.917  9706.930  0.500  1.462229  103.838  155.553  36.0447
  9708.297  9708.300  0.500  1.455575  103.778  155.464  36.2644
  9709.678  9709.680  0.500  1.451056  103.404  154.917  36.3006
  9711.087  9711.090  0.500  1.449253  102.655  153.812  36.1068
  9712.506  9712.510  0.500  1.451055  103.823  155.584  36.4569
  9713.945  9713.950  0.500  1.455666  103.767  155.534  36.2774
  9715.409  9715.410  0.500  1.460891  103.756  155.539  36.0896
  9716.894  9716.890  0.500  1.464548  103.723  155.497  35.9481
  9718.387  9718.390  0.500  1.465325  103.707  155.502  35.9214
  9719.906  9719.910  0.500  1.463615  103.692  155.488  35.9796
  9721.429  9721.450  0.500  1.461447  103.636  155.436  36.0458
  9722.997  9723.010  0.500  1.460033  103.61  155.42  36.093
  9724.578  9724.580  0.500  1.459155  103.585  155.4  36.12
  9726.176  9726.180  0.500  1.458582  103.589  155.414  36.1439
  9727.783  9727.790  0.500  1.459302  103.522  155.347  36.1024
  9729.419  9729.430  0.500  1.461648  103.501  155.334  36.0148
  9731.076  9731.080  0.500  1.465282  103.494  155.346  35.8869
  9732.762  9732.750  0.500  1.470251  103.488  155.349  35.7098
  9734.445  9734.440  0.500  1.476308  103.434  155.281  35.4786
  9736.145  9736.150  0.500  1.482511  103.419  155.288  35.2608
  9737.874  9737.880  0.500  1.487653  103.376  155.257  35.0728
  9739.632  9739.630  0.500  1.490629  103.351  155.231  34.9627
  9741.399  9741.390  0.500  1.490695  103.321  155.191  34.9515
  9743.175  9743.180  0.500  1.487172  103.289  155.174  35.071
  9744.972  9744.980  0.500  1.479924  103.253  155.141  35.3186
  9746.807  9746.810  0.500  1.470074  103.214  155.085  35.6555
  9748.655  9748.650  0.500  1.459681  103.193  155.092  36.0295
  9750.508  9750.510  0.500  1.450812  103.189  155.125  36.3583
  9752.373  9752.390  0.500  1.444117  103.143  155.082  36.5922
  9754.293  9754.290  0.500  1.438877  103.124  155.073  36.7824
  9756.206  9756.210  0.500  1.434552  103.085  155.029  36.9313
  9758.144  9758.150  0.500  1.430333  103.007  154.937  37.0654
  9760.120  9760.110  0.500  1.425948  102.993  154.943  37.2299
  9762.092  9762.080  0.500  1.422485  102.951  154.903  37.3494
  9764.078  9764.080  0.500  1.421339  102.899  154.843  37.3777
  9766.085  9766.090  0.500  1.423055  102.867  154.837  37.312
  9768.134  9768.120  0.500  1.427187  102.811  154.758  37.1393
  9770.188  9770.180  0.500  1.432382  102.758  154.706  36.9344
  9772.247  9772.250  0.500  1.437774  102.635  154.563  36.7019
  9774.349  9774.340  0.500  1.443349  101.123  152.299  35.9633
  9776.463  9776.450  0.500  1.449494  102.684  154.672  36.2997
  9778.571  9778.580  0.500  1.456265  102.621  154.606  36.0394
  9780.728  9780.720  0.500  1.462794  102.547  154.53  35.7874
  9782.896  9782.890  0.500  1.467640  102.363  154.285  35.5578
  9785.076  9785.080  0.500  1.469312  101.658  153.253  35.261
  9787.282  9787.280  0.500  1.468308  102.506  154.539  35.5927
  9789.506  9789.500  0.500  1.465851  102.411  154.423  35.6533
  9791.756  9791.750  0.500  1.463075  102.078  153.945  35.6419
  9794.011  9794.010  0.500  1.460711  102.088  153.991  35.7369
  9796.305  9796.290  0.500  1.458588  102.386  154.473  35.925
  9798.591  9798.590  0.500  1.455903  102.29  154.354  35.9938
  9800.920  9800.910  0.500  1.452266  102.205  154.26  36.1029
  9803.262  9803.250  0.500  1.447709  100.663  151.967  35.7286
  9805.610  9805.600  0.500  1.442706  102.193  154.321  36.4641
  9808.001  9807.980  0.500  1.437139  102.15  154.283  36.6586
  9810.388  9810.370  0.500  1.431560  102.087  154.223  36.8493
  9812.785  9812.790  0.500  1.425438  102.032  154.164  37.0614
  9815.233  9815.220  0.500  1.419075  101.979  154.112  37.2854
  9817.674  9817.670  0.500  1.413036  101.939  154.082  37.5039
  9820.167  9820.150  0.500  1.408251  101.85  153.97  37.6565
  9822.656  9822.640  0.500  1.406482  101.621  153.657  37.6466
  9825.164  9825.150  0.500  1.408539  101.756  153.889  37.6259
  9827.685  9827.670  0.500  1.413298  101.674  153.787  37.4224
  9830.241  9830.220  0.500  1.418406  101.453  153.489  37.1596
  9832.782  9832.790  0.500  1.422403  101.628  153.778  37.0811
  9835.370  9835.370  0.500  1.424713  101.136  153.069  36.825
  9837.989  9837.980  0.500  1.425405  101.493  153.66  36.9416
  9840.609  9840.600  0.500  1.425053  101.47  153.638  36.9493
  9843.264  9843.250  0.500  1.424767  101.182  153.23  36.8617
  9845.916  9845.910  0.500  1.425094  101.313  153.458  36.9045
  9848.608  9848.590  0.500  1.425712  101.316  153.488  36.889
  9851.288  9851.290  0.500  1.426317  101.268  153.456  36.8589
  9854.012  9854.010  0.500  1.427138  101.22  153.429  36.8222
  9856.763  9856.750  0.500  1.427899  101.158  153.378  36.782
  9859.507  9859.500  0.500  1.428289  101.11  153.353  36.7617
  9862.294  9862.280  0.500  1.427801  101.06  153.274  36.7606
  9865.079  9865.070  0.500  1.426610  101.002  153.204  36.7875
  9867.903  9867.890  0.500  1.424982  100.942  153.16  36.8369
  9870.721  9870.720  0.500  1.422088  100.885  153.103  36.9299
  9873.587  9873.570  0.500  1.417916  100.837  153.067  37.0757
  9876.471  9876.450  0.500  1.412755  100.793  153.04  37.261
  9879.344  9879.340  0.500  1.407189  100.713  152.963  37.4501
  9882.270  9882.250  0.500  1.401714  98.5083  149.646  36.839
  9885.172  9885.170  0.500  1.396387  100.414  152.567  37.7587
  9888.139  9888.120  0.500  1.391993  100.503  152.748  37.9701
  9891.095  9891.090  0.500  1.388752  100.441  152.673  38.0747
  9894.100  9894.070  0.500  1.386749  100.39  152.636  38.1416
  9897.089  9897.080  0.500  1.385854  100.328  152.576  38.1608
  9900.115  9900.100  0.500  1.386059  100.27  152.527  38.1408
  9903.159  9903.150  0.500  1.387138  100.224  152.509  38.095
  9906.226  9906.210  0.500  1.388242  100.147  152.426  38.0323
  9909.296  9909.290  0.500  1.388999  100.093  152.361  37.9873
  9912.405  9912.390  0.500  1.389598  100.032  152.308  37.9515
  9915.512  9915.510  0.500  1.389575  99.9691  152.253  37.9387
  9918.673  9918.650  0.500  1.389137  99.9016  152.175  37.9357
  9921.826  9921.800  0.500  1.388589  99.83  152.113  37.941
  9924.995  9924.980  0.500  1.388056  99.7689  152.041  37.9433
  9928.174  9928.170  0.500  1.387468  99.6615  151.923  37.9362
  9931.411  9931.390  0.500  1.386814  99.3823  151.542  37.8658
  9934.637  9934.620  0.500  1.386026  99.2614  151.383  37.8558
  9937.887  9937.870  0.500  1.384943  99.5727  151.906  38.0277
  9941.160  9941.150  0.500  1.383656  99.4833  151.815  38.0541
  9944.461  9944.440  0.500  1.382199  99.4036  151.723  38.0864
  9947.768  9947.750  0.500  1.380450  99.3218  151.622  38.1277
  9951.070  9951.070  0.500  1.378520  99.2042  151.482  38.1661
  9954.429  9954.420  0.500  1.376198  96.829  147.895  37.3488
  9957.799  9957.790  0.500  1.373451  99.0643  151.359  38.329
  9961.180  9961.170  0.500  1.370078  99.0136  151.31  38.4459
  9964.589  9964.580  0.500  1.366470  98.8975  151.167  38.5485
  9968.018  9968.000  0.500  1.362881  97.8799  149.648  38.2982
  9971.462  9971.450  0.500  1.359828  98.9274  151.299  38.8392
  9974.934  9974.910  0.500  1.357554  98.8324  151.197  38.9013
  9978.413  9978.390  0.500  1.355723  98.7362  151.078  38.9421
  9981.903  9981.890  0.500  1.354375  98.5684  150.84  38.9332
  9985.421  9985.410  0.500  1.352960  95.5887  146.316  37.819
  9988.964  9988.950  0.500  1.351512  98.4686  150.778  39.0287
  9992.518  9992.500  0.500  1.349989  98.3898  150.716  39.0721
  9996.091  9996.080  0.500  1.348902  98.2478  150.527  39.0656
  9999.698  9999.680  0.500  1.348162  95.3742  146.172  37.9634
  10003.307  10003.290  0.500  1.347378  98.2895  150.674  39.1634
  10006.941  10006.920  0.500  1.346336  98.1996  150.581  39.1799
  10010.599  10010.580  0.500  1.345381  98.0796  150.44  39.1807
  10014.268  10014.250  0.500  1.344468  96.9983  148.813  38.7922
  10017.944  10017.940  0.500  1.343566  98.0694  150.495  39.2663
  10021.671  10021.650  0.500  1.342512  98.1195  150.607  39.3369
  10025.397  10025.380  0.500  1.341479  98.0614  150.562  39.3657
  10029.138  10029.120  0.500  1.340425  97.9762  150.488  39.3879
  10032.904  10032.890  0.500  1.339000  97.843  150.316  39.3991
  10036.703  10036.680  0.500  1.337540  94.8976  145.827  38.2781
  10040.497  10040.480  0.500  1.335670  97.8331  150.373  39.5455
  10044.333  10044.310  0.500  1.333607  97.7504  150.29  39.6052
  10048.167  10048.150  0.500  1.331188  97.6587  150.213  39.6808
  10052.018  10052.010  0.500  1.328629  97.5824  150.126  39.7594
  10055.911  10055.890  0.500  1.326011  97.4839  150.017  39.8348
  10059.811  10059.790  0.500  1.323550  97.3997  149.928  39.909
  10063.736  10063.710  0.500  1.321224  97.3156  149.825  39.9747
  10067.660  10067.650  0.500  1.319295  97.2392  149.761  40.0347
  10071.636  10071.610  0.500  1.317387  97.1522  149.642  40.0794
  10075.588  10075.580  0.500  1.315738  97.0594  149.556  40.1222
  10079.597  10079.580  0.500  1.313962  96.9772  149.47  40.1704
  10083.590  10083.590  0.500  1.312207  96.8913  149.377  40.2159
  10087.658  10087.630  0.500  1.310355  96.6095  148.97  40.1808
  10091.689  10091.680  0.500  1.308602  96.5009  148.841  40.2163
  10095.786  10095.750  0.500  1.306958  96.5969  149.037  40.3356
  10099.859  10099.840  0.500  1.305416  96.5253  148.972  40.3804
  10103.984  10103.950  0.500  1.303842  96.4395  148.901  40.4248
  10108.104  10108.080  0.500  1.302460  96.3578  148.821  40.4587
  10112.258  10112.230  0.500  1.301027  96.2691  148.704  40.4851
  10116.411  10116.390  0.500  1.299771  96.182  148.624  40.514
  10120.599  10120.580  0.500  1.298432  96.0924  148.543  40.5463
  10124.804  10124.780  0.500  1.297059  96.0091  148.441  40.5739
  10129.025  10129.010  0.500  1.295625  95.9159  148.348  40.6069
  10133.264  10133.250  0.500  1.294153  95.8262  148.247  40.6389
  10137.533  10137.510  0.500  1.292509  95.7121  148.114  40.6692
  10141.814  10141.790  0.500  1.290929  95.6308  148.035  40.7119
  10146.121  10146.090  0.500  1.289105  95.5383  147.941  40.7603
  10150.437  10150.410  0.500  1.287181  95.4519  147.843  40.8118
  10154.787  10154.750  0.500  1.285208  95.3567  147.747  40.8658
  10159.137  10159.110  0.500  1.283140  95.2573  147.637  40.92
  10163.522  10163.490  0.500  1.281006  95.1653  147.522  40.9754
  10167.906  10167.880  0.500  1.279094  95.0366  147.37  41.0116
  10172.335  10172.300  0.500  1.277160  94.9759  147.344  41.0835
  10176.758  10176.730  0.500  1.275310  94.8811  147.245  41.1321
  10181.235  10181.180  0.500  1.273427  94.7804  147.134  41.1784
  10185.675  10185.650  0.500  1.271652  94.6856  147.025  41.2211
  10190.156  10190.140  0.500  1.269604  94.5875  146.915  41.2748
  10194.676  10194.650  0.500  1.267838  94.3085  146.528  41.2386
  10199.209  10199.180  0.500  1.266051  94.3942  146.705  41.3624
  10203.756  10203.730  0.500  1.264339  94.2888  146.588  41.4003
  10208.324  10208.300  0.500  1.262531  94.1744  146.451  41.4365
  10212.902  10212.880  0.500  1.260808  94.0816  146.361  41.4822
  10217.519  10217.490  0.500  1.259143  93.9815  146.249  41.5197
  10222.141  10222.110  0.500  1.257418  93.8869  146.136  41.5593
  10226.786  10226.760  0.500  1.255807  93.7479  145.98  41.5817
  10231.448  10231.420  0.500  1.254192  93.6835  145.923  41.6328
  10236.110  10236.100  0.500  1.252579  93.5742  145.802  41.6653
  10240.822  10240.800  0.500  1.250948  93.4317  145.62  41.6812
  10245.534  10245.520  0.500  1.249319  93.3854  145.592  41.7413
  10250.286  10250.260  0.500  1.247578  93.2914  145.461  41.7764
  10255.039  10255.010  0.500  1.245858  93.1848  145.361  41.8194
  10259.814  10259.790  0.500  1.244152  93.0893  145.26  41.8617
  10264.621  10264.590  0.500  1.242386  92.9822  145.142  41.9017
  10269.432  10269.400  0.500  1.240487  92.8789  145.013  41.9442
  10274.258  10274.230  0.500  1.238648  92.7672  144.891  41.9859
  10279.120  10279.090  0.500  1.236798  92.6645  144.786  42.0332
  10283.996  10283.960  0.500  1.235004  92.5763  144.698  42.0832
  10288.881  10288.850  0.500  1.233109  92.4632  144.575  42.1271
  10293.799  10293.760  0.500  1.231234  92.3581  144.461  42.1729
  10298.716  10298.690  0.500  1.229325  92.2624  144.339  42.2177
  10303.662  10303.630  0.500  1.227537  92.1533  144.216  42.2571
  10308.631  10308.600  0.500  1.225638  92.0539  144.128  42.3117
  10313.623  10313.590  0.500  1.223837  91.9387  143.984  42.3456
  10318.624  10318.590  0.500  1.222022  91.8212  143.849  42.3827
  10323.645  10323.620  0.500  1.220200  91.5198  143.421  42.3338
  10328.702  10328.660  0.500  1.218396  91.6144  143.614  42.4671
  10333.751  10333.720  0.500  1.216534  91.5055  143.482  42.5072
  10338.824  10338.800  0.500  1.214737  91.3979  143.346  42.5433
  10343.938  10343.900  0.500  1.213064  91.2868  143.228  42.5797
  10349.049  10349.020  0.500  1.211254  91.1806  143.109  42.6212
  10354.192  10354.160  0.500  1.209379  91.0722  142.987  42.6647
  10359.350  10359.320  0.500  1.207711  90.9646  142.864  42.6993
  10364.532  10364.500  0.500  1.206006  90.8366  142.717  42.7283
  10369.705  10369.690  0.500  1.204297  90.7078  142.548  42.7507
  10374.945  10374.910  0.500  1.202532  90.5937  142.411  42.7847
  10380.175  10380.140  0.500  1.200741  90.475  142.285  42.8237
  10385.416  10385.390  0.500  1.198883  90.3645  142.152  42.8633
  10390.689  10390.660  0.500  1.197176  90.2502  142.021  42.8968
  10395.974  10395.950  0.500  1.195347  90.1415  141.891  42.936
  10401.291  10401.260  0.500  1.193470  90.0339  141.756  42.9757
  10406.619  10406.590  0.500  1.191699  89.9154  141.629  43.0134
  10411.967  10411.940  0.500  1.189898  89.8077  141.509  43.0545
  10417.348  10417.310  0.500  1.188149  89.6971  141.385  43.0922
  10422.721  10422.690  0.500  1.186245  89.5812  141.26  43.136
  10428.128  10428.100  0.500  1.184401  89.461  141.113  43.1706
  10433.550  10433.520  0.500  1.182529  89.3597  140.994  43.215
  10439.006  10438.970  0.500  1.180684  89.247  140.861  43.2539
  10444.459  10444.430  0.500  1.178922  89.1255  140.711  43.2843
  10449.941  10449.910  0.500  1.176972  89.0197  140.578  43.3276
  10455.443  10455.410  0.500  1.175108  88.8997  140.445  43.3674
  10460.946  10460.930  0.500  1.173402  88.7904  140.323  43.4038
  10466.498  10466.470  0.500  1.171420  88.6722  140.178  43.445
  10472.051  10472.020  0.500  1.169683  88.5512  140.046  43.4793
  10477.615  10477.600  0.500  1.167849  88.4244  139.904  43.515
  10483.237  10483.200  0.500  1.166021  88.3095  139.756  43.5486
  10488.842  10488.810  0.500  1.164240  88.209  139.639  43.5895
  10494.467  10494.450  0.500  1.162457  88.0897  139.504  43.6253
  10500.127  10500.100  0.500  1.160655  87.9665  139.361  43.6592
  10505.802  10505.770  0.500  1.158828  87.8403  139.227  43.6969
  10511.479  10511.460  0.500  1.156973  87.6499  138.957  43.693