File: xdidata/Zn/Zn-Petedunnite.xdi
# XDI/1.0 BlueSky/1.10.0 BMM/2023-1.0-py310-tiled
# Beamline.name: BMM (06BM) -- Beamline for Materials Measurement (NIST)
# Beamline.xray_source: NSLS-II three-pole wiggler
# Beamline.collimation: paraboloid mirror, 5 nm Rh on 30 nm Pt
# Beamline.focusing: not in use
# Beamline.harmonic_rejection: flat mirror, Pt stripe, pitch = 7.0 mrad relative to beam
# Beamline.software: Bluesky 1.10.0, Ophyd 1.7.0, DataBroker 2.0.0b13, Python 3.10.8, 2023-1.0-py310-tiled
# Detector.I0: 10 cm N2
# Detector.I1: 25 cm N2
# Detector.I2: 25 cm N2
# Detector.fluorescence: SII Vortex ME4 (4-element silicon drift)
# Detector.deadtime_correction: Xspress3
# Element.symbol: Zn
# Element.edge: K
# Element.reference: Zn
# Element.reference_material: Zn foil
# Facility.name: NSLS-II
# Facility.energy: 3.0
# Facility.current: 400.5
# Facility.mode: top-off
# Facility.GUP: 123456
# Facility.SAF: 301027
# Facility.cycle: 2023-2
# Mono.name: Si(111)
# Mono.d_spacing: 3.13519
# Mono.encoder_resolution: 0.0000050 deg/ct
# Mono.angle_offset: 16.0754 deg
# Mono.scan_mode: pseudo channel cut
# Mono.scan_type: step
# Mono.direction: forward in energy
# Sample.name: Ca(Zn,Mn,Fe,Mg)Si2O6
# Sample.prep: powder in PEG pellet
# Sample.x: 116.329 mm
# Sample.y: 114.126 mm
# Sample.SDD_position: 35.000 mm
# Scan.experimenters: Bruce Ravel
# Scan.edge_energy: 9658.6
# Scan.start_time: 2023-05-07T12:03:03
# Scan.end_time: 2023-05-07T12:20:50
# Scan.transient_id: 74875
# Scan.uid: 23087f9d-cb0f-417d-9302-aed8d91d8d55
# Scan.plot_hint: (Zn1+Zn2+Zn3+Zn4)/I0  --  ($8+$9+$10+$11)/$5
# Column.1: energy eV
# Column.2: requested_energy eV
# Column.3: measurement_time seconds
# Column.4: xmu
# Column.5: I0 nA
# Column.6: It nA
# Column.7: Ir nA
# Column.8: Zn1
# Column.9: Zn2
# Column.10: Zn3
# Column.11: Zn4
# ///////////
# sample courtesy Martin Stennett, University of Sheffield
# -----------
# energy  requested_energy  measurement_time  xmu  I0  It  Ir  Zn1  Zn2  Zn3  Zn4
  9458.573  9458.600  2.000  46.7399  417.01  421.004  232.802  6620.54  6309.21  2839.9  3721.35
  9468.665  9468.600  2.000  45.5496  416.424  421.232  233.36  6597.16  6112.95  2674.66  3583.16
  9478.652  9478.600  2.000  45.5299  415.697  421.34  233.847  6161.25  6396.37  2770.82  3598.2
  9488.629  9488.600  2.000  47.6943  414.995  421.516  234.371  6239.35  6828.02  3025.17  3700.35
  9498.628  9498.600  2.000  44.2982  414.338  421.718  234.907  6016.61  6305.26  2741.78  3290.76
  9508.632  9508.600  2.000  46.134  413.622  421.823  235.393  5731.76  7062.37  2911.01  3376.89
  9518.631  9518.600  2.000  45.9651  412.939  421.985  235.911  5608.45  7043.37  2990.14  3338.84
  9528.628  9528.600  2.000  41.4619  412.261  422.142  236.424  5530.35  5946.77  2479.43  3136.56
  9538.611  9538.600  2.000  39.4147  411.583  422.374  236.949  5287.57  5430.03  2409.33  3095.51
  9548.615  9548.600  2.000  38.5511  410.877  422.444  237.407  5162.27  5430.03  2300.19  2947.3
  9558.610  9558.600  2.000  36.8207  410.184  422.532  237.863  5056.65  4988.39  2248.12  2810.1
  9568.610  9568.600  2.000  35.6232  409.47  422.696  238.343  4897.53  4697.98  2121.95  2869.19
  9578.611  9578.600  2.000  34.0012  408.728  422.797  238.782  4697.84  4454.63  2059.87  2684.93
  9588.606  9588.600  2.000  36.2203  408.021  422.858  239.197  4712.93  5175.73  2222.1  2667.91
  9598.591  9598.600  2.000  33.8085  407.3  422.942  239.596  4514.7  4654.93  2056.86  2543.72
  9608.975  9608.600  2.000  32.6555  406.347  422.805  239.841  4386.47  4332.45  2002.79  2547.73
  9618.600  9618.600  2.000  32.1412  405.565  422.788  240.075  4292.57  4302.42  1988.77  2451.6
  9628.588  9628.600  2.000  32.7906  405.107  423.121  240.392  4340.59  4359.52  2010.81  2572.79
  9630.599  9630.600  2.000  31.5057  405.743  423.975  240.88  4445.96  3878.82  1938.72  2519.71
  9632.587  9632.600  2.000  31.5942  405.496  423.894  240.831  4306.81  3938.91  1929.71  2635.89
  9634.579  9634.600  2.000  32.8799  404.539  423.066  240.331  4276.93  4212.31  2136.01  2675.94
  9636.588  9636.600  2.000  33.846  405.157  423.872  240.736  4399.22  4585.88  2130.99  2596.83
  9638.586  9638.600  2.000  32.1118  405.044  423.859  240.666  4190.72  4172.26  2010.82  2632.88
  9640.593  9640.600  2.000  32.1135  404.889  423.852  240.56  4380.75  3975.96  2024.84  2620.87
  9642.597  9642.600  2.000  32.0898  404.73  423.862  240.416  4244.83  4048.07  2084.93  2609.85
  9644.605  9644.600  2.000  32.6779  404.536  423.834  240.2  4358.35  3918.9  2188.08  2754.07
  9646.607  9646.600  2.000  32.8895  404.388  423.842  239.923  4439.06  3918.9  2188.08  2754.07
  9648.601  9648.600  2.000  33.8021  403.359  422.935  239.003  4410.81  4124.2  2326.27  2773.09
  9648.874  9648.900  2.000  34.4776  403.296  422.9  238.913  4488.86  4145.22  2325.26  2945.35
  9649.164  9649.200  2.000  34.409  403.326  422.937  238.86  4531.24  4187.32  2325.28  2834.19
  9649.478  9649.500  2.000  33.7677  403.41  423.09  238.869  4452.77  4045.07  2260.17  2864.23
  9649.775  9649.800  2.000  34.4273  403.587  423.315  238.917  4641.81  4097.15  2333.29  2822.17
  9650.073  9650.100  2.000  34.76  403.738  423.441  238.893  4470.85  4217.34  2374.35  2971.39
  9650.391  9650.400  2.000  35.2157  403.796  423.496  238.828  4496.65  4363.56  2377.35  2982.41
  9650.685  9650.700  2.000  34.6294  403.77  423.53  238.73  4505.35  4127.22  2408.39  2941.35
  9650.986  9651.000  2.000  34.7482  403.783  423.648  238.692  4585.8  4191.33  2410.4  2843.22
  9651.280  9651.300  2.000  34.9078  403.768  423.593  238.544  4496.48  4196.33  2392.37  3009.46
  9651.594  9651.600  2.000  35.6406  403.737  423.599  238.408  4663.05  4339.55  2423.41  2963.4
  9651.896  9651.900  2.000  35.5131  403.716  423.65  238.292  4643.89  4345.56  2428.42  2919.32
  9652.194  9652.200  2.000  36.1047  403.678  423.569  238.112  4630  4455.7  2436.43  3052.52
  9652.503  9652.500  2.000  36.5473  403.627  423.525  237.926  4723.7  4531.83  2456.46  3039.5
  9652.801  9652.800  2.000  36.4984  403.566  423.474  237.725  4738.82  4344.55  2499.52  3146.65
  9653.103  9653.100  2.000  36.9543  403.516  423.46  237.541  4669.52  4573.9  2582.64  3085.57
  9653.405  9653.400  2.000  37.1466  403.465  423.423  237.325  4668.16  4566.87  2617.68  3134.65
  9653.707  9653.700  2.000  37.8927  403.406  423.415  237.108  4823.68  4674.04  2563.62  3224.78
  9654.001  9654.000  2.000  38.4695  403.384  423.442  236.887  4756.09  4809.25  2661.76  3290.87
  9654.303  9654.300  2.000  38.1469  403.365  423.387  236.614  4876.64  4569.88  2650.73  3289.87
  9654.609  9654.600  2.000  38.4523  403.326  423.385  236.337  4888.17  4787.21  2718.83  3114.61
  9654.899  9654.900  2.000  39.4232  403.267  423.318  236.009  4782.63  4891.4  2834  3390.04
  9655.197  9655.200  2.000  39.2263  403.227  423.311  235.661  5007.19  4626.97  2760.89  3422.07
  9655.499  9655.500  2.000  39.3122  403.171  423.287  235.288  4846.27  4689.08  2793.94  3520.22
  9655.797  9655.800  2.000  39.0387  403.122  423.353  234.903  4846.27  4538.87  2930.14  3422.09
  9656.107  9656.100  2.000  40.4026  403.072  423.235  234.375  5041.53  4825.28  2823.99  3594.32
  9656.401  9656.400  2.000  40.4694  403.031  423.183  233.851  5101.9  4674.06  3019.26  3515.21
  9656.711  9656.700  2.000  41.0519  402.955  423.125  233.25  5019.03  4992.54  2960.17  3570.3
  9656.993  9657.000  2.000  41.6407  402.898  423.073  232.6  5289.97  4784.23  3086.36  3616.37
  9657.303  9657.300  2.000  41.9854  402.824  423.059  231.859  5239.48  4845.31  3040.3  3787.62
  9657.594  9657.600  2.000  43.234  402.754  423.049  231.032  5406.94  4994.55  3214.54  3796.64
  9657.896  9657.900  2.000  42.6534  402.719  423.1  230.062  5406.94  4759.19  3214.54  3796.64
  9658.202  9658.200  2.000  44.0368  402.672  423.078  228.86  5524.41  4759.19  3418.83  4029.97
  9658.492  9658.500  2.000  45.1924  402.604  423.031  227.423  5623.08  5038.62  3439.86  4093.09
  9658.802  9658.800  2.000  47.0263  402.536  422.938  225.541  5667.19  5327.06  3671.2  4264.34
  9659.093  9659.100  2.000  48.5212  402.504  422.88  223.281  5828.76  5568.42  3768.34  4364.48
  9659.403  9659.400  2.000  50.6412  402.453  422.877  220.233  5939.4  5994.05  4015.68  4431.57
  9659.693  9659.700  2.000  50.8622  402.417  422.893  216.351  6043.49  5729.68  4127.85  4566.8
  9660.004  9660.000  2.000  53.1452  402.39  422.874  211.099  6177.61  5968.04  4350.18  4889.27
  9660.314  9660.300  2.000  55.1032  402.355  422.861  204.151  6327.59  6240.47  4573.51  5029.5
  9660.596  9660.600  2.000  56.119  402.301  422.834  196.208  6327.59  6228.46  4791.83  5228.81
  9660.915  9660.900  2.000  59.174  402.253  422.806  186.613  6941.86  6587.01  4791.83  5482.18
  9661.205  9661.200  2.000  63.8541  402.204  422.837  177.304  7040.74  7096.78  5478.78  6066.07
  9661.508  9661.500  2.000  67.3633  402.187  422.882  167.875  7608.74  7351.19  5772.23  6360.51
  9661.798  9661.800  2.000  72.0151  402.12  422.911  159.417  8034.57  7740.81  6223.89  6959.45
  9662.104  9662.100  2.000  78.4187  402.057  422.815  151.92  8603.65  8281.67  6968.97  7674.52
  9662.411  9662.400  2.000  87.6083  402.018  422.813  145.476  9522.68  9236.16  7939.43  8521.86
  9662.701  9662.700  2.000  97.6153  401.99  422.828  140.156  10481.2  10264.8  8870.8  9623.55
  9663.008  9663.000  2.000  108.008  401.946  422.797  135.222  11353  11421.7  9912.36  10726.3
  9663.298  9663.300  2.000  121.948  401.903  422.781  131.156  12794.4  12462.4  11422.7  12331.9
  9663.601  9663.600  2.000  138.879  401.862  422.712  127.495  14309.7  14126.2  13196.4  14177.9
  9663.903  9663.900  2.000  156.511  401.849  422.687  124.441  16493.3  15597.6  14772.9  16029.9
  9664.202  9664.200  2.000  183.359  402.543  423.43  122.066  18732.9  18334.3  17955  18787.5
  9664.505  9664.500  2.000  207.409  402.488  423.369  119.91  21084.8  20368.8  20237.6  21788.5
  9664.787  9664.800  2.000  235.034  402.447  423.317  118.164  23966.8  23009.4  23265.6  24347
  9665.102  9665.100  2.000  260.68  402.399  423.25  116.605  26551.5  25480.9  25253.2  27611.7
  9665.396  9665.400  2.000  297.024  402.323  423.13  115.268  30115  28589.5  29259  31535.8
  9665.699  9665.700  2.000  339.157  402.138  422.918  113.888  33776.1  32887.4  33942.2  35782.5
  9665.994  9666.000  2.000  368.181  401.85  422.572  112.471  37211.6  34754.3  36829.6  39158
  9666.301  9666.300  2.000  402.914  401.541  422.208  110.904  40405.6  38393.2  40521.5  42466.2
  9666.591  9666.600  2.000  442.692  401.299  421.938  109.272  43560.6  42645.5  44531.8  46913.9
  9666.902  9666.900  2.000  471.33  401.174  421.833  107.481  46090  45425.9  47837.9  49731.5
  9667.205  9667.200  2.000  477.521  401.139  421.783  105.731  46090  45425.9  47837.9  52198.3
  9667.504  9667.500  2.000  503.514  401.243  421.934  104.028  49325.6  48232.6  51220.5  53252.6
  9667.802  9667.800  2.000  517.684  401.507  422.291  102.414  49867.7  50262.5  52930.8  54792.7
  9668.105  9668.100  2.000  518.226  401.685  422.435  100.787  50090.2  50378  53111.1  54584.4
  9668.400  9668.400  2.000  513.545  401.68  422.434  99.3155  49747.2  49851.7  52495.7  54186.4
  9668.707  9668.700  2.000  514.205  401.697  422.492  97.8959  50161.2  49453.1  52443  54497.3
  9668.998  9669.000  2.000  517.767  401.633  422.452  96.5793  50229  50274.6  53474.6  53974.1
  9669.313  9669.300  2.000  515.803  401.603  422.46  95.3161  50229  49651.7  53474.6  53793.1
  9669.604  9669.600  2.000  518.887  401.56  422.427  94.2371  50523.1  49852.4  52794.1  55194.8
  9669.911  9669.900  2.000  526.848  401.533  422.424  93.2078  51931.9  50444.6  53294.1  55876.2
  9670.197  9670.200  2.000  540.687  401.488  422.355  92.3546  52475.1  52095.9  55290.7  57218
  9670.509  9670.500  2.000  545.26  401.44  422.304  91.652  52899.4  52095.9  55811  58083
  9670.799  9670.800  2.000  549.164  401.375  422.251  91.1784  52901.8  53287.4  56084.5  58147
  9671.094  9671.100  2.000  549.622  401.344  422.257  90.9641  53085.5  53138.7  56315.6  58047.6
  9671.397  9671.400  2.000  544.082  401.293  422.251  91.0521  52225.3  53088.8  55701.4  57321.3
  9671.696  9671.700  2.000  525.581  401.254  422.268  91.4953  51008  50502.7  53962.2  55418.4
  9672.000  9672.000  2.000  516.309  401.199  422.279  92.3002  50314.5  49687  52895  54245.9
  9672.295  9672.300  2.000  502.872  401.148  422.267  93.416  48925.1  48097.4  51408.9  53294.8
  9672.602  9672.600  2.000  486.544  401.091  422.236  94.8189  47487.5  46875.9  49239.7  51545.1
  9672.893  9672.900  2.000  483.034  401.05  422.202  96.3524  46608.2  46865.7  49506.3  50740.6
  9673.204  9673.200  2.000  468.965  401.014  422.197  98.0285  45807.8  45059.1  48009.2  49185.3
  9673.491  9673.500  2.000  470.061  400.999  422.208  99.6336  45266.2  46148.9  48232.1  48846.7
  9673.802  9673.800  2.000  452.881  400.953  422.223  101.287  44390  43546.2  45927.3  47720.6
  9674.106  9674.100  2.000  452.511  400.943  422.244  102.766  44129.2  43502.3  46128  47671.6
  9674.409  9674.400  2.000  452.99  400.88  422.185  104.119  43928  44181.3  46125.6  47359.8
  9674.704  9674.700  2.000  444.803  400.828  422.136  105.214  43512.6  42857.7  44966.4  46952.8
  9675.011  9675.000  2.000  444.821  400.779  422.097  106.206  43393.8  43103.2  45090.6  46687.4
  9675.299  9675.300  2.000  443.749  400.745  422.113  106.989  43010.5  43039  45348.8  46431.9
  9675.614  9675.600  2.000  431.451  400.709  422.109  107.665  42211.6  41538.2  43628.9  45507.2
  9675.901  9675.900  2.000  430.473  400.642  422.054  108.16  42211.6  41538.2  43480.5  45235.4
  9676.209  9676.200  2.000  418.514  400.589  422.042  108.602  40860  41283.6  41743.6  43764.8
  9676.496  9676.500  2.000  413.2  400.55  422.017  108.924  39893.8  40629  42265  42719.6
  9676.807  9676.800  2.000  393.557  400.488  422.019  109.178  39011  37820.9  39507  41275.8
  9677.099  9677.100  2.000  377.209  400.451  422.011  109.36  37423.9  36037.6  37837.2  39755.1
  9677.406  9677.400  2.000  366.797  400.414  422.006  109.476  36342.4  35296.2  36416.9  38815.3
  9677.693  9677.700  2.000  355.297  400.36  422.036  109.551  35276.3  33977.6  35318.8  37674.1
  9678.001  9678.000  2.000  353.128  400.308  421.997  109.577  34497.6  34355.2  35464.9  37041.9
  9678.292  9678.300  2.000  348.661  400.269  421.971  109.598  34164.6  33844.1  35125.1  36424.7
  9678.604  9678.600  2.000  342.654  400.209  421.928  109.623  33403.4  33403.3  34707.4  35619.3
  9678.887  9678.900  2.000  332.625  400.158  421.931  109.697  33054.1  32010.8  33450.1  34587.3
  9679.195  9679.200  2.000  316.504  400.146  421.969  109.838  32133  30025.4  30772.7  33716.8
  9679.490  9679.500  2.000  320.024  400.1  421.997  110.052  32198.7  30588.2  31730.3  33524.3
  9679.806  9679.800  2.000  316.148  400.082  421.935  110.347  31801.9  30420  31163.3  33099.7
  9680.093  9680.100  2.000  309.28  400.037  421.886  110.691  31508.1  29400.1  30277.7  32537.6
  9680.401  9680.400  2.000  315.028  399.969  421.839  111.149  31272.1  30460.7  31454.4  32813.9
  9680.697  9680.700  2.000  304.503  399.939  421.823  111.654  30809.9  29046.6  29863.2  32062.9
  9681.012  9681.000  2.000  309.06  399.9  421.838  112.242  30699.5  29946  30704.4  32243.1
  9681.300  9681.300  2.000  302.351  399.874  421.856  112.836  30529.2  28887.1  29607.7  31878.4
  9681.612  9681.600  2.000  303.364  399.838  421.829  113.46  30589.8  29058.5  29800.9  31847.3
  9681.903  9681.900  2.000  306.287  399.771  421.785  114.068  30519.5  29456.1  30312.8  32155.9
  9682.215  9682.200  2.000  312.813  399.741  421.75  114.693  30511.3  30286.4  31519.8  32726.8
  9682.507  9682.500  2.000  306.809  399.681  421.712  115.255  30553.7  29518.3  30386.8  32167
  9682.811  9682.800  2.000  308.101  400.743  422.87  116.132  31028.5  29518.3  30386.8  32535.6
  9683.110  9683.100  2.000  307.193  401.091  423.266  116.71  30883.4  29519.4  30443.1  32366.5
  9683.406  9683.400  2.000  313.21  401.043  423.24  117.127  31189.2  30365.9  31389.6  32665.9
  9683.592  9683.600  2.000  313.895  401.03  423.335  117.369  31034  30492.1  31314.6  33040.6
  9684.605  9684.590  2.000  319.792  400.947  423.321  118.107  31593.4  31073.1  32057.7  33495.4
  9685.602  9685.590  2.000  322.235  400.842  423.266  118.326  31593.4  32018.8  32057.7  33495.4
  9686.632  9686.610  2.000  332.124  400.746  423.208  118.211  32531.9  32385.5  33519.4  34660.6
  9687.678  9687.660  2.000  338.605  400.669  423.146  117.722  32750.1  33019.7  34458.8  35439.9
  9688.749  9688.720  2.000  334.927  400.554  423.119  116.864  32863.5  32697.2  33829  34766.8
  9689.819  9689.800  2.000  323.673  400.449  423.097  115.781  31666.4  31726.4  32523.8  33697.8
  9690.907  9690.900  2.000  311.289  400.343  423.116  114.494  30672.9  30134.4  31140.2  32674.9
  9692.035  9692.020  2.000  300.156  400.154  423.055  113.014  29204.9  29327.7  30399.7  31176.1
  9693.175  9693.160  2.000  289.313  400.127  423.117  111.516  28258.5  28653.5  29014.3  29835.7
  9694.324  9694.310  2.000  283.621  400.064  423.141  110.081  27781.2  27671.8  28659.7  29353.9
  9695.506  9695.490  2.000  276.798  399.971  423.154  108.803  27105.6  27157.8  27932.5  28515.3
  9696.688  9696.680  2.000  275.802  399.866  423.161  107.786  27105.6  26714.2  27932.5  28531.5
  9697.903  9697.900  2.000  282.801  399.739  423.121  107.064  27679.7  27436.5  28288.2  29642.4
  9699.135  9699.130  2.000  287.667  399.621  423.062  106.607  28784  27314.4  28785.1  30074.2
  9700.395  9700.380  2.000  296.561  399.497  423.033  106.477  29586.7  28442.5  29504.5  30941.8
  9701.672  9701.650  2.000  296.633  399.401  423.012  106.784  29586.7  28442.5  29504.5  30941.8
  9702.953  9702.940  2.000  318.163  399.29  422.983  107.564  30795.6  31295.5  32272.1  32676
  9704.251  9704.250  2.000  324.214  399.176  422.941  108.669  31625.4  31515  32590.9  33686.8
  9705.585  9705.580  2.000  328.854  398.997  422.859  109.683  32130.8  31735.5  33024.6  34321.1
  9706.949  9706.930  2.000  337.793  398.766  422.733  110.409  33066.1  32735.2  34083.3  34815.9
  9708.317  9708.300  2.000  342.981  398.213  422.303  110.873  33066.1  33051  34709.7  35752.7
  9709.694  9709.680  2.000  356.302  392.644  416.492  109.65  34023.4  34212.4  35471.3  36192.8
  9711.100  9711.090  2.000  362.694  398.456  422.654  111.199  34903.9  35233.1  36655  37725.5
  9712.518  9712.510  2.000  366.191  398.621  422.949  110.843  35266.9  35687  37150  37867.8
  9713.986  9713.950  2.000  368.725  398.487  422.895  110.238  35228.5  36012.5  37386.4  38304.6
  9715.425  9715.410  2.000  366.645  398.362  422.874  109.75  34990.9  35765  37505.6  37795.7
  9716.902  9716.890  2.000  365.965  398.207  422.851  109.537  35113.2  35627.9  36957.7  38031
  9718.391  9718.390  2.000  363.14  398.048  422.817  109.617  34872.8  35134.1  36992.9  37547.2
  9719.934  9719.910  2.000  364.067  397.919  422.807  109.855  35245.5  35250.2  36815.3  37558.2
  9721.469  9721.450  2.000  369.595  397.78  422.784  110.038  35766.9  35367.4  37354.3  38528.9
  9723.013  9723.010  2.000  369.978  397.644  422.734  110.136  35739.5  35367.4  37482.7  38530
  9724.582  9724.580  2.000  368.031  397.506  422.715  110.202  35621.3  35327.4  37183.2  38162.3
  9726.201  9726.180  2.000  366.17  397.355  422.675  110.177  35428.4  35026.9  36795.5  38248.4
  9727.808  9727.790  2.000  367.836  397.171  422.622  109.974  35180.6  36081.7  36921.7  37910
  9729.435  9729.430  2.000  366.259  397.116  422.722  109.647  35164.1  36081.7  36440.8  37760.7
  9731.096  9731.080  2.000  353.665  397.002  422.718  109.17  34874.5  33510.3  35354.1  36666.7
  9732.766  9732.750  2.000  354.026  396.858  422.736  108.551  34213.2  34166.5  35205  36913.2
  9734.469  9734.440  2.000  350.852  396.726  422.705  107.857  34025.1  33717.5  34705.9  36743.8
  9736.161  9736.150  2.000  350.871  396.569  422.673  107.238  33846.9  33714.6  35246.8  36336.1
  9737.890  9737.880  2.000  352.627  396.433  422.677  106.794  33926.5  34029.9  35501  36335.8
  9739.652  9739.630  2.000  348.301  396.299  422.683  106.62  33926.5  33413.8  34740.7  35950.2
  9741.395  9741.390  2.000  345.913  396.159  422.729  106.818  33147.2  33194.4  35011.2  35683.8
  9743.179  9743.180  2.000  344.577  396.031  422.706  107.401  32578.7  33688.2  34751.9  35444.3
  9744.985  9744.980  2.000  341.837  395.878  422.663  108.331  32623.1  33111.4  34538.4  35052.8
  9746.824  9746.810  2.000  341.401  395.732  422.582  109.43  32326.4  33075.1  34647.4  35054.5
  9748.659  9748.650  2.000  336.465  395.572  422.577  110.489  32322.8  32548.3  33927.4  34297.3
  9750.516  9750.510  2.000  332.885  395.41  422.577  111.352  32034.3  31721.8  33223.1  34646.9
  9752.410  9752.390  2.000  329.18  395.257  422.555  111.984  31656.9  31488.3  33024.9  33940.5
  9754.306  9754.290  2.000  334.253  395.098  422.506  112.488  32163.8  31885  33376.4  34637.8
  9756.231  9756.210  2.000  340.387  394.938  422.478  112.937  32443.1  32911.7  34192.8  34884.3
  9758.160  9758.150  2.000  336.049  394.766  422.484  113.424  31940.6  32041.4  34195.9  34482.6
  9760.132  9760.110  2.000  338.917  394.593  422.423  113.857  32261.9  32490.2  34124.8  34857.4
  9762.092  9762.080  2.000  337.733  394.428  422.376  114.134  32315.2  32135.6  33836.3  34924.5
  9764.086  9764.080  2.000  337.523  394.252  422.372  114.1  32379.7  31939.3  33903.6  34846.4
  9766.109  9766.090  2.000  332.378  394.037  422.387  113.752  32063.2  31167  33146.1  34592.9
  9768.134  9768.120  2.000  339.656  393.814  422.231  113.179  32298.2  32738.7  34298  34426.7
  9770.192  9770.180  2.000  341.501  393.498  422.021  112.504  32450.9  32795.6  34305.1  34828.2
  9772.260  9772.250  2.000  339.691  392.831  421.469  111.753  32278.5  32192.6  33988.5  34981.4
  9774.340  9774.340  2.000  336.558  391.418  420.146  110.745  32245.5  31620.5  33214  34654.7
  9776.471  9776.450  2.000  341.997  394.573  423.73  110.962  32517.2  32546.5  34287.3  35591.8
  9778.604  9778.580  2.000  335.829  394.295  423.54  110.14  32458.9  31313.5  33350.7  35292.5
  9780.728  9780.720  2.000  339.368  393.896  423.291  109.422  32799.8  31838.3  33627.1  35410.6
  9782.912  9782.890  2.000  342.54  389.788  419.055  107.937  32577  31766.8  33846.1  35328
  9785.101  9785.080  2.000  350.341  393.967  423.702  109.078  33495.7  33171.9  35117.9  36237.2
  9787.295  9787.280  2.000  355.486  393.754  423.629  109.252  33717.4  33979.4  35792.2  36484.9
  9789.523  9789.500  2.000  353.036  393.296  423.302  109.449  33459.2  33728.9  35338.3  36321.4
  9791.777  9791.750  2.000  357.916  387.307  417.039  108.106  32974.7  34158.9  35397.7  36092.1
  9794.028  9794.010  2.000  357.839  393.499  423.879  110.108  33842.1  34356  36076.5  36534.6
  9796.313  9796.290  2.000  359.663  393.213  423.726  110.315  33481.5  34670.4  36365.8  36906.4
  9798.608  9798.590  2.000  353.267  392.913  423.581  110.593  33228.3  33839.1  35435.3  36300.3
  9800.936  9800.910  2.000  352.122  392.349  423.221  110.933  33449.8  33551.4  35213.8  35939.6
  9803.275  9803.250  2.000  356.162  389.856  420.728  110.813  32831.9  33886  35741.7  36392.3
  9805.606  9805.600  2.000  356.547  392.447  423.601  112.141  33319.4  34284.8  36077.5  36244.2
  9808.005  9807.980  2.000  349.723  392.237  423.553  112.746  33204.8  32898.5  35137  35933.7
  9810.396  9810.370  2.000  350.837  392.034  423.532  113.383  33006  33324.2  35303.2  35906.7
  9812.802  9812.790  2.000  347.926  391.79  423.502  114.069  32787.5  33032.7  34820.4  35673.2
  9815.242  9815.220  2.000  350.328  391.579  423.426  114.772  32751.8  33537.4  35435.1  35456.8
  9817.683  9817.670  2.000  352.827  391.442  423.442  115.426  32842.9  33647.8  35858.1  35762.4
  9820.171  9820.150  2.000  348.619  389.245  421.238  115.25  32057.6  32968.3  35153.6  35518.7
  9822.665  9822.640  2.000  350.065  390.757  423.069  115.778  32684.8  33630.5  35103.7  35371.5
  9825.172  9825.150  2.000  350.353  390.656  423.179  115.417  32804.2  33417.3  35230.1  35415.8
  9827.693  9827.670  2.000  348.481  388.843  421.39  114.332  32804.2  32910.3  34453.5  35336.4
  9830.241  9830.220  2.000  350.75  390.179  423.027  114.225  32828.9  33635.9  35118.9  35271.7
  9832.819  9832.790  2.000  350.422  389.996  422.998  113.809  32810.3  33336.2  34908.4  35608.2
  9835.387  9835.370  2.000  325.146  387.94  420.966  113.064  31505.6  29679.7  31316.6  33635.6
  9838.009  9837.980  2.000  347.212  389.652  423.033  113.586  32112.2  33136.9  34831.3  35211.4
  9840.600  9840.600  2.000  348.978  389.484  423.099  113.64  32468.8  33323.4  35053.8  35075.4
  9843.272  9843.250  2.000  348.456  386.948  420.531  112.954  32218.5  32777.9  34996.3  34841.4
  9845.920  9845.910  2.000  348.106  388.918  422.839  113.5  32001.7  33420.4  34694.2  35268.6
  9848.603  9848.590  2.000  347.562  388.795  422.914  113.45  31975.4  33024.7  34942.6  35187.4
  9851.309  9851.290  2.000  348.867  388.6  422.897  113.355  32297.6  33276.3  34971.8  35024.3
  9854.041  9854.010  2.000  347.503  388.399  422.893  113.261  31710.3  33025.9  34876.7  35356.9
  9856.767  9856.750  2.000  348.192  388.169  422.896  113.166  31782.1  33618.8  34803.3  34953.1
  9859.519  9859.500  2.000  348.869  387.941  422.829  113.123  32259.6  32899.7  34682.1  35499.2
  9862.298  9862.280  2.000  352.389  387.723  422.762  113.169  32289.9  33349.5  35430.6  35559.2
  9865.096  9865.070  2.000  350.856  387.481  422.726  113.297  32313.9  33192.2  34855.7  35588.4
  9867.920  9867.890  2.000  348.536  387.271  422.67  113.499  32208.4  32891.7  34916.8  34961.3
  9870.746  9870.720  2.000  351.646  387.022  422.628  113.867  32122.2  33431.6  35217.2  35323.8
  9873.587  9873.570  2.000  349.198  386.776  422.578  114.364  32377.8  32777.4  34589.1  35316.9
  9876.466  9876.450  2.000  350.505  386.551  422.527  114.943  32028.6  33093  35022.8  35343.8
  9879.352  9879.340  2.000  347.878  386.059  422.177  115.482  31657.5  33067.8  34506.9  35069.2
  9882.253  9882.250  2.000  349.899  377.853  413.436  113.705  31350.6  32632.6  33976.4  34250.8
  9885.184  9885.170  2.000  345.876  385.291  421.854  116.595  32014.7  32226.7  34239.6  34782.1
  9888.130  9888.120  2.000  348.512  385.277  422.012  117.095  31775.5  33031.1  34430  35037.4
  9891.099  9891.090  2.000  349.797  385.094  422.05  117.431  31830.8  33108.2  34884.8  34881.2
  9894.091  9894.070  2.000  346.137  384.861  422.032  117.612  31806.1  32208.5  34380.8  34819
  9897.098  9897.080  2.000  346.537  384.598  421.935  117.63  31675.6  32632.3  34210.7  34758.9
  9900.115  9900.100  2.000  342.035  384.38  421.913  117.551  31494.7  31836.8  33552.4  34587.6
  9903.167  9903.150  2.000  349.182  384.142  421.892  117.401  31677.8  32444.1  35088.2  34925.3
  9906.226  9906.210  2.000  349.497  383.886  421.827  117.241  31423.7  32914.9  34547.2  35281
  9909.317  9909.290  2.000  348.577  383.643  421.759  117.124  31752.1  32661.4  34558.3  34757
  9912.405  9912.390  2.000  347.858  383.382  421.691  117.047  31425  32561.2  34334.9  35041.5
  9915.534  9915.510  2.000  347.453  383.129  421.653  117.046  31643.6  32505.1  34569.4  34401.4
  9918.668  9918.650  2.000  346.871  382.858  421.591  117.068  31535.8  32298.8  34291.9  34675.9
  9921.814  9921.800  2.000  348.171  382.579  421.501  117.106  31460.6  32609.5  34299.9  34833.2
  9924.995  9924.980  2.000  346.667  382.271  421.387  117.127  31170.7  32120.6  34500.3  34729
  9928.187  9928.170  2.000  346.373  381.861  421.167  117.126  31470.2  32256.6  33862.9  34676.8
  9931.398  9931.390  2.000  346.24  376.715  415.732  115.676  31143.4  31717  33539.7  34033.3
  9934.641  9934.620  2.000  343.517  381.696  421.459  117.36  31268.8  31537.6  33807.2  34505.7
  9937.887  9937.870  2.000  347.086  382.66  422.819  117.864  31268.8  32480.3  34294  34773.3
  9941.177  9941.150  2.000  346.011  382.328  422.602  117.953  31370.7  32157.9  34204  34557
  9944.457  9944.440  2.000  344.216  382.008  422.498  118.087  31106.4  31984.6  33879.4  34522.9
  9947.777  9947.750  2.000  340.495  381.668  422.365  118.246  31117.5  31101  33223.4  34514
  9951.100  9951.070  2.000  342.29  380.795  421.634  118.278  31164.5  31478.6  33472.8  34226.3
  9954.442  9954.420  2.000  340.656  376.895  417.576  117.415  30392.1  31019.1  33076.4  33903.8
  9957.825  9957.790  2.000  343.281  380.743  422.077  119.013  30875.5  31914.2  33743  34169.1
  9961.184  9961.170  2.000  343.944  380.442  421.953  119.375  31155.3  31978.5  33573.9  34143.1
  9964.593  9964.580  2.000  341.788  379.794  421.52  119.683  30763.7  31331.4  33829.3  33884.7
  9968.005  9968.000  2.000  346.43  368.331  409.008  116.511  29946.9  31196.1  32954.2  33503.6
  9971.457  9971.450  2.000  345.171  380.165  422.379  120.648  31126.8  32142.8  33818.2  34134.2
  9974.921  9974.910  2.000  342.979  379.733  422.166  120.831  30960.1  32118.9  33536.9  33624.3
  9978.417  9978.390  2.000  343.465  379.3  421.949  120.963  31021.6  31429.6  33909.4  33915.8
  9981.916  9981.890  2.000  344.522  377.865  420.636  120.734  30455.6  31966.4  33564.7  34196.3
  9985.439  9985.410  2.000  341.119  377.136  420.07  120.725  30937.1  30936.8  33235.3  33539.1
  9988.981  9988.950  2.000  340.005  378.267  421.504  121.304  30613.8  31004.9  33646.1  33347.8
  9992.531  9992.500  2.000  342.249  377.883  421.323  121.404  30724.4  31469.7  33628.9  33507.1
  9996.109  9996.080  2.000  340.397  376.95  420.554  121.288  30267.1  31437.5  32936.6  33671.4
  9999.707  9999.680  2.000  342.152  374.202  417.79  120.564  30246.6  31183.6  33018.2  33585.7
  10003.316  10003.290  2.000  341.209  377.557  421.832  121.823  30894.1  31226.6  33256.7  33448.2
  10006.941  10006.920  2.000  340.917  377.091  421.508  121.839  30530  31330.9  33071.5  33624.6
  10010.612  10010.580  2.000  337.658  376.564  421.168  121.846  30042.6  31281.3  32912.7  32913.1
  10014.277  10014.250  2.000  340.335  367.596  411.405  119.119  29815.8  30331.2  32164.9  32793.7
  10017.970  10017.940  2.000  339.417  375.971  420.975  121.99  30328.4  30927.1  32899.2  33456.4
  10021.680  10021.650  2.000  339.487  375.761  420.997  122.1  29860.8  30998.2  33484  33223
  10025.414  10025.380  2.000  343.471  375.407  420.87  122.178  30301.9  31183.5  33600.2  33856
  10029.151  10029.120  2.000  340.671  375.029  420.703  122.265  30416.9  30874.9  33337.9  33131.8
  10032.913  10032.890  2.000  340.177  374.382  420.225  122.283  29930.4  30995.3  32751.9  33678.7
  10036.703  10036.680  2.000  342.604  370.843  416.491  121.37  29903.1  30914.2  32858.2  33377
  10040.506  10040.480  2.000  340.324  374.395  420.759  122.831  30307.8  30604.4  33181.4  33322.1
  10044.346  10044.310  2.000  340.773  374.029  420.649  123.055  30180  31266.6  32855.9  33156.7
  10048.176  10048.150  2.000  341.047  373.679  420.556  123.314  30080.4  31123.4  32985.2  33252.9
  10052.013  10052.010  2.000  334.759  373.349  420.421  123.576  29614.9  30164.7  32225.9  32976.5
  10055.902  10055.890  2.000  340.38  373.002  420.257  123.832  29727.4  30763.7  33173.5  33298
  10059.811  10059.790  2.000  341.927  372.672  420.159  124.098  29821.1  31079.3  33289.6  33236.8
  10063.706  10063.710  2.000  341.263  372.334  420.039  124.315  29727.2  31196.6  33125.4  33014.6
  10067.665  10067.650  2.000  341.218  372.013  419.96  124.52  30029  31009.2  32987.1  32912.3
  10071.631  10071.610  2.000  342.363  371.678  419.829  124.681  29523.3  30983.2  33456  33286
  10075.584  10075.580  2.000  339.953  371.3  419.666  124.833  29708.3  30821  32723.9  32971.5
  10079.583  10079.580  2.000  339.813  370.95  419.559  125.012  29880.9  30681.8  32515.5  32975.5
  10083.599  10083.590  2.000  341.87  370.607  419.421  125.177  29810.2  30908.2  32929.2  33051.8
  10087.632  10087.630  2.000  341.393  365.162  413.569  123.633  29045.6  30460.8  32592.2  32565.1
  10091.663  10091.680  2.000  342.007  369.352  418.653  125.352  29899.2  30632.6  32795.8  32993.4
  10095.764  10095.750  2.000  338.34  369.319  418.8  125.593  29868.6  30214  32145.9  32727.1
  10099.841  10099.840  2.000  339.71  369.016  418.805  125.775  29412.4  30520.4  32753.8  32671.9
  10103.967  10103.950  2.000  338.668  368.698  418.644  125.896  29484  30439.3  32385.2  32557.8
  10108.073  10108.080  2.000  337.654  368.333  418.524  126.021  29462.8  30076.6  32678.7  32151
  10112.236  10112.230  2.000  335.952  367.982  418.406  126.144  29179.5  29846.2  32305.1  32293.3
  10116.389  10116.390  2.000  339.048  367.629  418.348  126.273  29266.4  30399.3  32461.3  32516.8
  10120.590  10120.580  2.000  340.558  367.22  418.088  126.35  29266.4  30399.3  32804.9  32588.9
  10124.782  10124.780  2.000  339.908  366.885  418.005  126.49  29088.7  30832.9  32297.9  32487.5
  10129.034  10129.010  2.000  340.454  366.464  417.855  126.605  29283.6  30455.4  32410.2  32615
  10133.246  10133.250  2.000  338.272  366.049  417.57  126.693  28937.8  30340.2  32060.6  32485.7
  10137.541  10137.510  2.000  338.873  365.689  417.424  126.838  29615.5  30004.6  32005.5  32296.4
  10141.801  10141.790  2.000  340.006  365.319  417.31  126.995  29066.8  30358.2  32188.8  32596.9
  10146.094  10146.090  2.000  337.747  364.948  417.177  127.172  29140  30263.1  32069.6  31787.5
  10150.405  10150.410  2.000  338.555  364.555  416.99  127.342  28941.3  30252  32089.6  32139.1
  10154.765  10154.750  2.000  339.611  364.161  416.82  127.54  29018  29894.3  32217.8  32542.8
  10159.106  10159.110  2.000  339.988  363.788  416.707  127.75  28997.1  30139.9  32316.3  32230.4
  10163.482  10163.490  2.000  339.507  364.304  417.563  128.26  28997.1  30139.9  32433.4  32113.2
  10167.888  10167.880  2.000  338.276  363.919  417.404  128.441  28805.3  30144.9  32282.2  31872.7
  10172.312  10172.300  2.000  336.478  363.502  417.207  128.615  28450.6  29746.2  32048.7  32065.1
  10176.740  10176.730  2.000  339.011  363.071  416.99  128.765  28831.9  30107  31929.6  32216.4
  10181.172  10181.180  2.000  338.548  362.697  416.86  128.952  29010.6  29706.1  32087.7  31985.9
  10185.648  10185.650  2.000  338.862  362.333  416.737  129.138  28825.3  29759.5  32243.2  31953
  10190.133  10190.140  2.000  338.167  361.889  416.509  129.288  28701.9  29964.7  31814.5  31897.9
  10194.653  10194.650  2.000  337.294  360.31  414.995  129.039  28335.4  29778.1  31732  31684.9
  10199.178  10199.180  2.000  337.629  361.066  416.162  129.614  28335.4  30154  31732  31684.9
  10203.738  10203.730  2.000  339.754  360.624  415.931  129.749  28912.5  29950.8  31912.6  31747.6
  10208.288  10208.300  2.000  338.737  360.166  415.677  129.889  28291.8  29819.5  32121.7  31768.5
  10212.884  10212.880  2.000  339.737  359.78  415.523  130.043  28643.1  29980.7  31940.5  31666.4
  10217.474  10217.490  2.000  338.972  359.377  415.38  130.2  28276.8  29662.2  32153.9  31725.5
  10222.119  10222.110  2.000  339.054  358.967  415.205  130.348  28403.8  29781.4  31565  31958.9
  10226.759  10226.760  2.000  340.507  358.557  415.035  130.491  28352.5  30083.9  31925.4  31729.5
  10231.421  10231.420  2.000  339.844  358.159  414.908  130.64  28180.3  29668.2  31854.4  32015
  10236.106  10236.100  2.000  339.501  357.691  414.656  130.757  28221.6  29852.5  31683.1  31679.4
  10240.804  10240.800  2.000  338.053  357.428  414.631  130.944  28321.1  29495.1  31465  31548.4
  10245.524  10245.520  2.000  340.192  356.984  414.37  131.059  28402.9  29703.4  31793.4  31543.3
  10250.259  10250.260  2.000  338.645  356.559  414.146  131.19  28324.8  29564.1  31195.3  31662.5
  10255.020  10255.010  2.000  339.182  356.119  413.946  131.331  28324.8  29564.1  31237.5  31662.5
  10259.782  10259.790  2.000  335.403  355.71  413.762  131.487  28305.5  28657.5  30959  31384.1
  10264.598  10264.590  2.000  336.622  355.263  413.558  131.643  28145.5  29281.5  31116  31046.3
  10269.391  10269.400  2.000  337.654  354.85  413.355  131.802  27865.5  29335.7  31190.4  31425
  10274.226  10274.230  2.000  338.75  354.315  413.046  131.926  28096.1  29350.8  31545  31032.4
  10279.097  10279.090  2.000  338.573  354.018  413.025  132.15  28071.6  29016.1  31416.6  31356.9
  10283.964  10283.960  2.000  339.971  353.556  412.832  132.31  28034.2  29221.5  31451.8  31491.2
  10288.858  10288.850  2.000  340.696  353.155  412.614  132.469  27773.5  29457  31838.4  31249.8
  10293.757  10293.760  2.000  338.251  352.755  412.47  132.657  27843.9  29062.1  31285.4  31128.4
  10298.693  10298.690  2.000  339.097  352.311  412.189  132.796  27910.7  29363.7  31188.2  31005.3
  10303.634  10303.630  2.000  339.461  351.839  411.95  132.944  27910.7  29123.2  31294.5  31107.5
  10308.612  10308.600  2.000  338.841  351.39  411.712  133.098  27774.7  29165.3  31201.3  30924
  10313.595  10313.590  2.000  340.296  350.907  411.444  133.239  27833.8  29113.3  31425.7  31039.4
  10318.597  10318.590  2.000  338.291  350.445  411.218  133.386  27833.8  28482.1  31138.1  31098.4
  10323.626  10323.620  2.000  337.719  350.044  411.033  133.55  27669.7  28482.1  31188.5  30876.2
  10328.652  10328.660  2.000  337.098  349.618  410.858  133.711  27375.9  28591.4  31124.3  30763.9
  10333.733  10333.720  2.000  335.234  349.14  410.606  133.857  27591.3  28429.2  30265  30758
  10338.805  10338.800  2.000  336.117  348.743  410.442  134.024  27497.1  28639.5  30285.9  30796
  10343.911  10343.900  2.000  336.772  348.282  410.18  134.154  27561.3  28431.2  30611.4  30687.8
  10349.021  10349.020  2.000  336.621  347.857  409.985  134.308  27365.7  28431.2  30611.4  30687.8
  10354.174  10354.160  2.000  338.971  347.423  409.794  134.454  27252.1  28722.8  30869  30922.3
  10359.332  10359.320  2.000  339.562  346.923  409.528  134.593  27241  29026.2  31181.4  30353.2
  10364.514  10364.500  2.000  339.868  346.447  409.253  134.713  27137.6  28807.8  31076.1  30724.8
  10369.687  10369.690  2.000  338.414  345.896  408.911  134.823  27267.5  28466.3  31185.4  30136.9
  10374.912  10374.910  2.000  337.954  345.42  408.686  134.963  27080.8  28501.3  30814.7  30339.1
  10380.156  10380.140  2.000  339.179  344.996  408.441  135.104  27148.8  28692.7  30474.2  30699.9
  10385.392  10385.390  2.000  339.87  344.538  408.207  135.247  27000.1  28722.7  30793.7  30581.6
  10390.671  10390.660  2.000  338.828  343.994  407.869  135.358  27134.9  28296.9  30464  30658.8
  10395.960  10395.950  2.000  337.936  343.523  407.642  135.509  27161.9  28218.8  30597.4  30110.8
  10401.277  10401.260  2.000  338.8  343.084  407.416  135.659  27119.5  28450.2  30454.2  30213
  10406.601  10406.590  2.000  339.091  342.62  407.186  135.81  27121.3  28414.1  30378  30266
  10411.939  10411.940  2.000  337.929  342.141  406.911  135.947  26716.6  28332.1  30429.1  30141.8
  10417.320  10417.310  2.000  339.133  341.657  406.636  136.086  26931  28403.2  30463.2  30069.7
  10422.693  10422.690  2.000  338.988  341.189  406.407  136.241  27057.7  28147.6  30125.5  30328.1
  10428.100  10428.100  2.000  339.02  340.725  406.137  136.383  27081.4  28171.7  30420.1  29839.3
  10433.531  10433.520  2.000  338.206  340.23  405.829  136.509  26953.5  27912.2  30052.3  30149.7
  10438.983  10438.970  2.000  337.438  339.745  405.57  136.656  26583.2  27989.5  30221.7  29848.3
  10444.431  10444.430  2.000  337.85  339.283  405.351  136.813  26567.3  27989.5  30221.7  29848.3
  10449.912  10449.910  2.000  337.117  338.824  405.122  136.965  26463.3  27716.8  30085.6  29957.6
  10455.429  10455.410  2.000  338.638  339.47  406.283  137.587  26755.1  27949.6  30113.7  30139
  10460.937  10460.930  2.000  338.061  339.147  406.202  137.794  26563.6  28053.7  30224.8  29810.4
  10466.479  10466.470  2.000  337.152  338.666  405.874  137.913  26435.6  27837.3  30128.7  29780.3
  10472.027  10472.020  2.000  337.017  338.19  405.577  138.046  26435.6  27837.3  29857.3  29845.5
  10477.605  10477.600  2.000  339.462  337.71  405.352  138.199  26508.5  28066.7  29818.2  30246.2
  10483.209  10483.200  2.000  337.033  337.201  405.066  138.331  26584.2  27934.6  29668.1  29460.9
  10488.813  10488.810  2.000  337.711  336.717  404.795  138.468  26107.7  27728.2  30057.6  29819.5
  10494.457  10494.450  2.000  339.75  336.214  404.488  138.599  26250.6  28118.9  30084.7  29774.4
  10500.117  10500.100  2.000  339.364  335.681  404.143  138.711  26378  28084.8  29625.9  29829.5
  10505.773  10505.770  2.000  338.573  335.193  403.861  138.838  26238.9  27818.3  29790.1  29640.1
  10511.474  10511.460  2.000  337.474  334.421  403.284  138.874  25988.6  27775.2  29742  29352.6