File: xdidata/Zn/Zn-Willemite.xdi
# XDI/1.0 BlueSky/1.10.0 BMM/2023-1.0-py310-tiled
# Beamline.name: BMM (06BM) -- Beamline for Materials Measurement (NIST)
# Beamline.xray_source: NSLS-II three-pole wiggler
# Beamline.collimation: paraboloid mirror, 5 nm Rh on 30 nm Pt
# Beamline.focusing: not in use
# Beamline.harmonic_rejection: flat mirror, Pt stripe, pitch = 7.0 mrad relative to beam
# Beamline.software: Bluesky 1.10.0, Ophyd 1.7.0, DataBroker 2.0.0b13, Python 3.10.8, 2023-1.0-py310-tiled
# Detector.I0: 10 cm N2
# Detector.I1: 25 cm N2
# Detector.I2: 25 cm N2
# Element.symbol: Zn
# Element.edge: K
# Element.reference: Zn
# Element.reference_material: Zn foil
# Facility.name: NSLS-II
# Facility.energy: 3.0
# Facility.current: 399.8
# Facility.mode: top-off
# Facility.GUP: 123456
# Facility.SAF: 301027
# Facility.cycle: 2023-2
# Mono.name: Si(111)
# Mono.d_spacing: 3.13519
# Mono.encoder_resolution: 0.0000050 deg/ct
# Mono.angle_offset: 16.0754 deg
# Mono.scan_mode: pseudo channel cut
# Mono.scan_type: step
# Mono.direction: forward in energy
# Sample.name: Zn2SiO4
# Sample.prep: powder in PEG pellet
# Sample.x: 116.329 mm
# Sample.y: 114.126 mm
# Sample.SDD_position: 205.000 mm
# Scan.experimenters: Bruce Ravel
# Scan.edge_energy: 9658.6
# Scan.start_time: 2023-05-06T13:39:55
# Scan.end_time: 2023-05-06T13:47:50
# Scan.transient_id: 74830
# Scan.uid: 06e19baa-8988-4e39-8440-16f465e508f2
# Scan.plot_hint: ln(I0/It)  --  ln($5/$6)
# Column.1: energy eV
# Column.2: requested_energy eV
# Column.3: measurement_time seconds
# Column.4: xmu
# Column.5: I0 nA
# Column.6: It nA
# Column.7: Ir nA
# ///////////
# sample courtesy Martin Stennett, University of Sheffield
# -----------
# energy  requested_energy  measurement_time  xmu  I0  It  Ir
  9458.608  9458.600  0.500  1.584917  105.393  21.6018  11.9214
  9468.615  9468.600  0.500  1.578880  105.24  21.7011  11.999
  9478.629  9478.600  0.500  1.572465  105.045  21.8003  12.0748
  9488.656  9488.600  0.500  1.566297  104.871  21.8989  12.1525
  9498.601  9498.600  0.500  1.560081  104.683  21.9959  12.2276
  9508.625  9508.600  0.500  1.553980  104.504  22.0926  12.303
  9518.655  9518.600  0.500  1.547987  104.328  22.1881  12.3791
  9528.663  9528.600  0.500  1.542041  104.15  22.2824  12.4528
  9538.627  9538.600  0.500  1.536274  103.958  22.3699  12.5263
  9548.619  9548.600  0.500  1.530409  103.784  22.4637  12.6001
  9558.685  9558.600  0.500  1.524821  103.596  22.5487  12.6687
  9568.621  9568.600  0.500  1.519487  103.415  22.6296  12.7364
  9578.627  9578.600  0.500  1.514206  103.231  22.7091  12.8008
  9588.634  9588.600  0.500  1.509173  103.057  22.7851  12.8647
  9598.631  9598.600  0.500  1.504685  102.881  22.8485  12.9191
  9608.640  9608.600  0.500  1.501183  102.693  22.8869  12.9589
  9618.624  9618.600  0.500  1.498864  102.488  22.8942  12.974
  9628.632  9628.600  0.500  1.499640  102.322  22.8393  12.9516
  9630.595  9630.600  0.500  1.500215  102.294  22.8199  12.94
  9632.583  9632.600  0.500  1.501057  102.233  22.7873  12.9209
  9634.575  9634.600  0.500  1.502396  102.017  22.7085  12.8749
  9636.580  9636.600  0.500  1.504074  102.161  22.7025  12.8704
  9638.590  9638.600  0.500  1.506279  102.125  22.6445  12.8342
  9640.585  9640.600  0.500  1.509205  102.085  22.5695  12.7852
  9642.581  9642.600  0.500  1.512806  102.044  22.4793  12.7268
  9644.597  9644.600  0.500  1.517623  102.004  22.3626  12.6495
  9646.587  9646.600  0.500  1.523896  101.964  22.214  12.5486
  9648.581  9648.600  0.500  1.532539  101.711  21.9682  12.3895
  9648.866  9648.900  0.500  1.533937  101.707  21.9366  12.3691
  9649.160  9649.200  0.500  1.535565  101.728  21.9054  12.3464
  9649.466  9649.500  0.500  1.537111  101.771  21.8808  12.3281
  9649.763  9649.800  0.500  1.538797  101.816  21.8538  12.308
  9650.073  9650.100  0.500  1.540703  101.845  21.8183  12.2854
  9650.379  9650.400  0.500  1.542463  101.852  21.7815  12.2581
  9650.677  9650.700  0.500  1.544545  101.862  21.7383  12.2301
  9650.978  9651.000  0.500  1.546658  102.187  21.7616  12.2349
  9651.272  9651.300  0.500  1.548892  102.172  21.7099  12.1999
  9651.582  9651.600  0.500  1.551286  102.17  21.6576  12.1641
  9651.876  9651.900  0.500  1.553791  102.157  21.6005  12.124
  9652.186  9652.200  0.500  1.556456  102.153  21.5422  12.0846
  9652.479  9652.500  0.500  1.559359  102.149  21.479  12.044
  9652.777  9652.800  0.500  1.562137  102.133  21.4161  11.9979
  9653.079  9653.100  0.500  1.565243  102.128  21.3486  11.9499
  9653.373  9653.400  0.500  1.568646  102.12  21.2744  11.9009
  9653.679  9653.700  0.500  1.572019  102.107  21.2  11.8466
  9653.973  9654.000  0.500  1.575661  102.099  21.1212  11.7903
  9654.283  9654.300  0.500  1.579913  102.094  21.0307  11.7282
  9654.581  9654.600  0.500  1.584028  102.081  20.9417  11.6639
  9654.879  9654.900  0.500  1.588719  102.07  20.8414  11.5926
  9655.177  9655.200  0.500  1.593541  102.059  20.7388  11.5195
  9655.487  9655.500  0.500  1.599128  102.055  20.6225  11.4367
  9655.781  9655.800  0.500  1.604888  102.043  20.5016  11.3483
  9656.087  9656.100  0.500  1.611350  102.033  20.3676  11.2523
  9656.381  9656.400  0.500  1.617673  102.03  20.2387  11.1549
  9656.695  9656.700  0.500  1.624986  102.012  20.0877  11.0437
  9656.993  9657.000  0.500  1.632555  102.01  19.9358  10.9284
  9657.299  9657.300  0.500  1.640917  102.003  19.7685  10.8025
  9657.594  9657.600  0.500  1.649917  102.002  19.5911  10.6653
  9657.900  9657.900  0.500  1.660082  101.987  19.3901  10.5058
  9658.202  9658.200  0.500  1.671059  101.978  19.1768  10.3346
  9658.496  9658.500  0.500  1.683292  101.98  18.944  10.1398
  9658.802  9658.800  0.500  1.697638  101.973  18.6729  9.908672
  9659.097  9659.100  0.500  1.712894  101.966  18.3888  9.655903
  9659.391  9659.400  0.500  1.730358  101.957  18.0689  9.352830
  9659.697  9659.700  0.500  1.751123  101.943  17.6952  8.978906
  9659.987  9660.000  0.500  1.773546  101.938  17.3019  8.561317
  9660.278  9660.300  0.500  1.800059  101.924  16.847  8.056850
  9660.592  9660.600  0.500  1.832359  101.919  16.3107  7.471379
  9660.883  9660.900  0.500  1.868320  101.907  15.7327  6.871770
  9661.189  9661.200  0.500  1.913024  101.902  15.0441  6.236206
  9661.503  9661.500  0.500  1.969025  101.901  14.2247  5.585941
  9661.794  9661.800  0.500  2.034755  101.89  13.3183  4.981020
  9662.100  9662.100  0.500  2.116053  101.881  12.2773  4.387871
  9662.399  9662.400  0.500  2.213814  101.873  11.1329  3.820959
  9662.701  9662.700  0.500  2.331253  101.859  9.898054  3.274707
  9663.004  9663.000  0.500  2.471597  101.852  8.601359  2.755382
  9663.298  9663.300  0.500  2.637220  101.839  7.287584  2.268477
  9663.597  9663.600  0.500  2.835140  101.841  5.979118  1.814761
  9663.899  9663.900  0.500  3.078997  101.838  4.685086  1.389774
  9664.190  9664.200  0.500  3.357337  101.829  3.546487  1.031528
  9664.492  9664.500  0.500  3.674188  101.825  2.583292  0.738142
  9664.787  9664.800  0.500  4.014506  101.815  1.837943  0.517334
  9665.094  9665.100  0.500  4.385384  101.805  1.268299  0.351478
  9665.400  9665.400  0.500  4.763962  101.787  0.868417  0.236820
  9665.691  9665.700  0.500  5.111704  101.735  0.613037  0.164813
  9665.998  9666.000  0.500  5.439351  101.658  0.441432  0.116602
  9666.301  9666.300  0.500  5.702977  101.59  0.338907  0.087689
  9666.603  9666.600  0.500  5.889073  101.552  0.281253  0.071148
  9666.906  9666.900  0.500  5.995140  101.525  0.252882  0.062600
  9667.205  9667.200  0.500  6.034408  101.536  0.243169  0.059088
  9667.504  9667.500  0.500  6.030154  101.582  0.244317  0.058191
  9667.806  9667.800  0.500  6.006033  101.651  0.250453  0.058823
  9668.105  9668.100  0.500  5.976389  101.681  0.258063  0.059626
  9668.396  9668.400  0.500  5.950263  101.685  0.264905  0.060254
  9668.687  9668.700  0.500  5.931009  101.684  0.270053  0.060585
  9668.994  9669.000  0.500  5.917408  101.678  0.273735  0.060779
  9669.297  9669.300  0.500  5.904552  101.667  0.277246  0.060865
  9669.600  9669.600  0.500  5.889653  101.659  0.281385  0.060994
  9669.890  9669.900  0.500  5.872624  101.648  0.286189  0.061449
  9670.197  9670.200  0.500  5.849054  101.64  0.292991  0.062317
  9670.500  9670.500  0.500  5.820915  101.635  0.301336  0.063602
  9670.807  9670.800  0.500  5.789255  101.626  0.311001  0.065658
  9671.111  9671.100  0.500  5.758433  101.615  0.320701  0.067703
  9671.397  9671.400  0.500  5.731817  101.606  0.329325  0.069723
  9671.709  9671.700  0.500  5.710653  101.591  0.336316  0.071615
  9672.012  9672.000  0.500  5.700627  101.587  0.339694  0.072828
  9672.303  9672.300  0.500  5.703948  101.587  0.338567  0.073697
  9672.598  9672.600  0.500  5.715452  101.57  0.334637  0.073853
  9672.893  9672.900  0.500  5.734653  101.568  0.328269  0.073475
  9673.204  9673.200  0.500  5.755948  101.562  0.321334  0.073145
  9673.495  9673.500  0.500  5.775315  101.551  0.315134  0.073241
  9673.794  9673.800  0.500  5.786097  101.549  0.311748  0.073253
  9674.106  9674.100  0.500  5.786493  101.536  0.311588  0.074312
  9674.401  9674.400  0.500  5.775369  101.525  0.315038  0.076138
  9674.696  9674.700  0.500  5.751674  101.518  0.322569  0.078849
  9675.003  9675.000  0.500  5.714774  101.514  0.334682  0.082455
  9675.303  9675.300  0.500  5.672760  101.511  0.349030  0.086799
  9675.602  9675.600  0.500  5.625290  101.496  0.365946  0.091530
  9675.901  9675.900  0.500  5.574559  101.49  0.384967  0.097093
  9676.205  9676.200  0.500  5.524289  101.478  0.404765  0.102259
  9676.504  9676.500  0.500  5.480087  101.467  0.423014  0.107381
  9676.799  9676.800  0.500  5.442510  101.462  0.439190  0.111788
  9677.095  9677.100  0.500  5.411005  101.453  0.453206  0.115403
  9677.402  9677.400  0.500  5.384974  101.444  0.465119  0.118596
  9677.693  9677.700  0.500  5.364944  101.437  0.474495  0.121233
  9677.989  9678.000  0.500  5.342951  101.435  0.485037  0.124062
  9678.300  9678.300  0.500  5.317750  101.428  0.497379  0.127154
  9678.600  9678.600  0.500  5.291161  101.419  0.510739  0.130639
  9678.891  9678.900  0.500  5.261965  101.415  0.525847  0.134843
  9679.199  9679.200  0.500  5.227220  101.397  0.544343  0.139708
  9679.510  9679.500  0.500  5.192280  101.39  0.563661  0.145063
  9679.798  9679.800  0.500  5.159849  101.387  0.582220  0.150246
  9680.097  9680.100  0.500  5.128766  101.376  0.600538  0.155885
  9680.405  9680.400  0.500  5.100833  101.373  0.617531  0.161047
  9680.713  9680.700  0.500  5.078789  101.366  0.631254  0.165625
  9681.008  9681.000  0.500  5.063675  101.361  0.640832  0.168744
  9681.300  9681.300  0.500  5.054789  101.352  0.646492  0.171098
  9681.612  9681.600  0.500  5.053154  101.344  0.647504  0.172233
  9681.899  9681.900  0.500  5.057036  101.336  0.644943  0.172569
  9682.195  9682.200  0.500  5.065585  101.327  0.639395  0.171899
  9682.503  9682.500  0.500  5.079530  101.318  0.630485  0.170384
  9682.798  9682.800  0.500  5.094240  101.308  0.621219  0.168489
  9683.090  9683.100  0.500  5.110665  101.3  0.611050  0.166513
  9683.398  9683.400  0.500  5.127405  101.294  0.600872  0.164010
  9683.592  9683.600  0.500  5.136510  101.29  0.595402  0.163171
  9684.601  9684.590  0.500  5.155333  101.261  0.584129  0.160772
  9685.602  9685.590  0.500  5.107681  101.249  0.612568  0.168819
  9686.624  9686.610  0.500  5.011734  101.231  0.674129  0.185900
  9687.678  9687.660  0.500  4.901661  101.197  0.752319  0.206995
  9688.753  9688.720  0.500  4.798632  101.176  0.833795  0.227792
  9689.823  9689.800  0.500  4.707995  101.154  0.912694  0.247283
  9690.911  9690.900  0.500  4.618894  101.128  0.997498  0.267099
  9692.039  9692.020  0.500  4.537284  101.093  1.081941  0.286226
  9693.184  9693.160  0.500  4.478298  101.087  1.147609  0.299546
  9694.337  9694.310  0.500  4.445486  101.064  1.185624  0.306186
  9695.502  9695.490  0.500  4.431089  101.041  1.202542  0.307119
  9696.684  9696.680  0.500  4.430088  101.013  1.203412  0.304077
  9697.923  9697.900  0.500  4.435761  100.992  1.196351  0.300415
  9699.151  9699.130  0.500  4.445948  100.961  1.183871  0.296020
  9700.391  9700.380  0.500  4.454830  100.938  1.173127  0.293210
  9701.672  9701.650  0.500  4.461459  100.912  1.165078  0.291846
  9702.965  9702.940  0.500  4.478091  100.876  1.145454  0.289387
  9704.283  9704.250  0.500  4.504808  100.846  1.114923  0.284557
  9705.606  9705.580  0.500  4.533268  100.812  1.083271  0.278881
  9706.941  9706.930  0.500  4.565287  100.755  1.048543  0.271740
  9708.330  9708.300  0.500  4.609495  100.584  1.001497  0.261024
  9709.702  9709.680  0.500  4.667934  99.2601  0.932217  0.243398
  9711.112  9711.090  0.500  4.740062  100.727  0.880160  0.229584
  9712.538  9712.510  0.500  4.820820  100.722  0.811836  0.210571
  9713.998  9713.950  0.500  4.897464  100.69  0.751703  0.193785
  9715.384  9715.410  0.500  4.960055  100.638  0.705729  0.180996
  9716.922  9716.890  0.500  5.017186  100.595  0.666254  0.170609
  9718.546  9718.390  0.500  5.055829  100.843  0.642577  0.164643
  9719.926  9719.910  0.500  5.082234  100.818  0.625678  0.160625
  9721.457  9721.450  0.500  5.097269  100.778  0.616096  0.158378
  9723.026  9723.010  0.500  5.102371  100.752  0.612807  0.157743
  9724.590  9724.580  0.500  5.099689  100.717  0.614234  0.158151
  9726.193  9726.180  0.500  5.097155  100.67  0.615509  0.158334
  9727.816  9727.790  0.500  5.093540  100.625  0.617460  0.158374
  9729.452  9729.430  0.500  5.089213  100.608  0.620033  0.158610
  9731.092  9731.080  0.500  5.081707  100.572  0.624484  0.159001
  9732.766  9732.750  0.500  5.067907  100.538  0.632948  0.160351
  9734.465  9734.440  0.500  5.051467  100.509  0.643253  0.161758
  9736.161  9736.150  0.500  5.033852  100.472  0.654440  0.163979
  9737.894  9737.880  0.500  5.012462  100.431  0.668316  0.166947
  9739.657  9739.630  0.500  4.991467  100.401  0.682295  0.170095
  9741.411  9741.390  0.500  4.969374  100.358  0.697237  0.174217
  9743.196  9743.180  0.500  4.949816  100.328  0.710796  0.178787
  9744.989  9744.980  0.500  4.931022  100.288  0.723989  0.183666
  9746.819  9746.810  0.500  4.912010  100.25  0.737605  0.188913
  9748.663  9748.650  0.500  4.888824  100.212  0.754624  0.195233
  9750.520  9750.510  0.500  4.860620  100.168  0.775868  0.202196
  9752.402  9752.390  0.500  4.832599  100.128  0.797599  0.208995
  9754.285  9754.290  0.500  4.808918  100.089  0.816396  0.215251
  9756.222  9756.210  0.500  4.789656  100.047  0.831925  0.220185
  9758.173  9758.150  0.500  4.773280  100.001  0.845273  0.224701
  9760.120  9760.110  0.500  4.760445  99.9627  0.855861  0.228474
  9762.080  9762.080  0.500  4.748671  99.9191  0.865619  0.231456
  9764.094  9764.080  0.500  4.741183  99.8719  0.871713  0.233122
  9766.114  9766.090  0.500  4.734770  99.8253  0.876913  0.233792
  9768.121  9768.120  0.500  4.731278  99.7698  0.879491  0.233402
  9770.188  9770.180  0.500  4.735869  99.6897  0.874759  0.230520
  9772.255  9772.250  0.500  4.748872  99.465  0.861512  0.226230
  9774.373  9774.340  0.500  4.768769  99.2105  0.842379  0.219587
  9776.459  9776.450  0.500  4.786162  99.6003  0.831106  0.215374
  9778.587  9778.580  0.500  4.800204  99.5384  0.819008  0.210639
  9780.733  9780.720  0.500  4.806032  99.4368  0.813418  0.207938
  9782.904  9782.890  0.500  4.808004  98.1755  0.801519  0.204423
  9785.089  9785.080  0.500  4.811164  99.4655  0.809488  0.206167
  9787.287  9787.280  0.500  4.814167  99.4004  0.806533  0.205836
  9789.511  9789.500  0.500  4.817487  99.2802  0.802887  0.205540
  9791.752  9791.750  0.500  4.821062  97.7155  0.787413  0.202047
  9794.024  9794.010  0.500  4.825913  99.3322  0.796568  0.204594
  9796.301  9796.290  0.500  4.831199  99.2563  0.791762  0.203995
  9798.599  9798.590  0.500  4.838484  99.1813  0.785422  0.203022
  9800.928  9800.910  0.500  4.847052  99.0274  0.777513  0.201600
  9803.266  9803.250  0.500  4.855229  98.5767  0.767671  0.199887
  9805.623  9805.600  0.500  4.858813  99.0733  0.768778  0.201374
  9807.988  9807.980  0.500  4.858858  99.0144  0.768286  0.202294
  9810.388  9810.370  0.500  4.857059  98.9581  0.769233  0.203541
  9812.789  9812.790  0.500  4.855714  98.9056  0.769859  0.205203
  9815.237  9815.220  0.500  4.853003  98.8484  0.771503  0.206878
  9817.687  9817.670  0.500  4.849378  98.8021  0.773941  0.208646
  9820.154  9820.150  0.500  4.844804  98.2042  0.772785  0.209335
  9822.665  9822.640  0.500  4.840248  98.638  0.779742  0.210957
  9825.172  9825.150  0.500  4.833916  98.6178  0.784535  0.211470
  9827.677  9827.670  0.500  4.826845  98.0989  0.785944  0.210976
  9830.233  9830.220  0.500  4.820556  98.4964  0.794108  0.211891
  9832.803  9832.790  0.500  4.817803  98.4507  0.795927  0.211964
  9835.370  9835.370  0.500  4.815467  97.9792  0.793968  0.211081
  9838.005  9837.980  0.500  4.809401  98.3585  0.801891  0.213089
  9840.613  9840.600  0.500  4.798307  98.3124  0.810457  0.215301
  9843.272  9843.250  0.500  4.784306  97.6675  0.816493  0.217072
  9845.933  9845.910  0.500  4.768521  98.1622  0.833685  0.221661
  9848.599  9848.590  0.500  4.754077  98.1328  0.845560  0.224536
  9851.322  9851.290  0.500  4.743077  98.0734  0.854396  0.226722
  9854.020  9854.010  0.500  4.736596  98.0222  0.859502  0.227796
  9856.759  9856.750  0.500  4.730526  97.9641  0.864223  0.228753
  9859.523  9859.500  0.500  4.721787  97.8986  0.871226  0.230732
  9862.286  9862.280  0.500  4.712279  97.8513  0.879123  0.233047
  9865.087  9865.070  0.500  4.703714  97.7813  0.886051  0.235183
  9867.899  9867.890  0.500  4.698257  97.7284  0.890417  0.236966
  9870.742  9870.720  0.500  4.694569  97.6688  0.893163  0.238256
  9873.591  9873.570  0.500  4.693623  97.6078  0.893450  0.239390
  9876.471  9876.450  0.500  4.694532  97.556  0.892164  0.240151
  9879.352  9879.340  0.500  4.694703  97.3894  0.890488  0.241236
  9882.257  9882.250  0.500  4.695565  95.7359  0.874615  0.238380
  9885.184  9885.170  0.500  4.696813  97.2647  0.887473  0.242996
  9888.139  9888.120  0.500  4.701200  97.2519  0.883472  0.242835
  9891.099  9891.090  0.500  4.706648  97.1947  0.878155  0.242002
  9894.096  9894.070  0.500  4.709992  97.1295  0.874636  0.241240
  9897.094  9897.080  0.500  4.713169  97.0719  0.871345  0.240710
  9900.115  9900.100  0.500  4.713718  97.0014  0.870234  0.239771
  9903.167  9903.150  0.500  4.713011  96.9354  0.870258  0.239580
  9906.226  9906.210  0.500  4.710661  96.8715  0.871730  0.240001
  9909.308  9909.290  0.500  4.705744  96.8045  0.875421  0.240463
  9912.405  9912.390  0.500  4.698622  96.7391  0.881083  0.242279
  9915.534  9915.510  0.500  4.689393  96.6705  0.888620  0.244056
  9918.664  9918.650  0.500  4.680463  96.6087  0.896018  0.246241
  9921.831  9921.800  0.500  4.673489  96.5306  0.901560  0.247959
  9925.004  9924.980  0.500  4.666970  96.4454  0.906655  0.249431
  9928.191  9928.170  0.500  4.661814  96.3277  0.910230  0.250570
  9931.402  9931.390  0.500  4.657176  94.5027  0.897136  0.247497
  9934.641  9934.620  0.500  4.657502  96.2919  0.913824  0.251967
  9937.891  9937.870  0.500  4.657304  96.2327  0.913443  0.252316
  9941.164  9941.150  0.500  4.654629  96.1494  0.915097  0.252938
  9944.461  9944.440  0.500  4.650509  96.0758  0.918171  0.254366
  9947.781  9947.750  0.500  4.643353  95.9873  0.923913  0.256079
  9951.082  9951.070  0.500  4.635256  95.7484  0.929107  0.258580
  9954.450  9954.420  0.500  4.627713  95.0221  0.929040  0.258624
  9957.803  9957.790  0.500  4.619765  95.7392  0.943521  0.263649
  9961.206  9961.170  0.500  4.613162  95.6623  0.949008  0.265982
  9964.602  9964.580  0.500  4.606361  95.5003  0.953866  0.268501
  9968.018  9968.000  0.500  4.599100  92.5827  0.931464  0.262682
  9971.462  9971.450  0.500  4.592086  95.582  0.968408  0.274036
  9974.934  9974.910  0.500  4.586769  95.4818  0.972550  0.275707
  9978.408  9978.390  0.500  4.581527  95.369  0.976507  0.277295
  9981.916  9981.890  0.500  4.576582  94.9399  0.976932  0.278281
  9985.426  9985.410  0.500  4.571152  94.9139  0.981983  0.279641
  9988.960  9988.950  0.500  4.563265  95.1163  0.991869  0.282770
  9992.526  9992.500  0.500  4.556184  95.0218  0.997924  0.285257
  9996.091  9996.080  0.500  4.548667  94.7844  1.002942  0.286756
  9999.702  9999.680  0.500  4.543447  94.3206  1.003258  0.286750
  10003.307  10003.290  0.500  4.537993  94.9274  1.015234  0.290608
  10006.936  10006.920  0.500  4.534835  94.8222  1.017317  0.291200
  10010.603  10010.580  0.500  4.532682  94.6947  1.018138  0.292336
  10014.272  10014.250  0.500  4.529547  92.4271  0.996879  0.286260
  10017.962  10017.940  0.500  4.527136  94.5084  1.021786  0.293435
  10021.663  10021.650  0.500  4.523598  94.4683  1.024972  0.294420
  10025.401  10025.380  0.500  4.521160  94.3908  1.026632  0.295477
  10029.134  10029.120  0.500  4.518715  94.2985  1.028139  0.296172
  10032.900  10032.890  0.500  4.517053  94.119  1.027888  0.296536
  10036.682  10036.680  0.500  4.515181  93.3268  1.021147  0.294905
  10040.497  10040.480  0.500  4.509798  94.1377  1.035579  0.299559
  10044.333  10044.310  0.500  4.505148  94.0485  1.039419  0.301464
  10048.167  10048.150  0.500  4.499574  93.9452  1.044082  0.303349
  10052.026  10052.010  0.500  4.494463  93.856  1.048435  0.305350
  10055.893  10055.890  0.500  4.490027  93.7827  1.052274  0.307339
  10059.802  10059.790  0.500  4.485183  93.691  1.056350  0.309507
  10063.710  10063.710  0.500  4.480524  93.6042  1.060299  0.310894
  10067.660  10067.650  0.500  4.475039  93.5189  1.065159  0.313140
  10071.618  10071.610  0.500  4.469408  93.4318  1.070176  0.314955
  10075.597  10075.580  0.500  4.463292  93.339  1.075673  0.317056
  10079.579  10079.580  0.500  4.456603  93.2597  1.081972  0.319650
  10083.599  10083.590  0.500  4.449581  93.1645  1.088484  0.322113
  10087.654  10087.630  0.500  4.441339  91.7381  1.080689  0.320319
  10091.703  10091.680  0.500  4.436834  92.8706  1.098970  0.326595
  10095.777  10095.750  0.500  4.429662  92.8701  1.106874  0.328569
  10099.855  10099.840  0.500  4.423393  92.783  1.112790  0.331249
  10103.971  10103.950  0.500  4.417861  92.7081  1.118060  0.333550
  10108.091  10108.080  0.500  4.412207  92.6312  1.123467  0.335823
  10112.249  10112.230  0.500  4.406905  92.5382  1.128306  0.337722
  10116.403  10116.390  0.500  4.401489  92.4481  1.133327  0.339202
  10120.604  10120.580  0.500  4.396728  92.3543  1.137581  0.340982
  10124.786  10124.780  0.500  4.391459  92.2624  1.142454  0.343068
  10129.030  10129.010  0.500  4.385820  92.49  1.151748  0.346203
  10133.264  10133.250  0.500  4.380228  92.3886  1.156937  0.348121
  10137.515  10137.510  0.500  4.374558  92.2897  1.162270  0.350312
  10141.818  10141.790  0.500  4.368704  92.1983  1.167936  0.352586
  10146.103  10146.090  0.500  4.362523  92.0941  1.173850  0.354662
  10150.428  10150.410  0.500  4.357938  92.0072  1.178131  0.356862
  10154.760  10154.750  0.500  4.352812  91.9109  1.182946  0.358926
  10159.137  10159.110  0.500  4.347443  91.8265  1.188222  0.361608
  10163.509  10163.490  0.500  4.342047  91.7215  1.193284  0.363711
  10167.897  10167.880  0.500  4.337580  91.6233  1.197344  0.365614
  10172.321  10172.300  0.500  4.332648  91.5214  1.201925  0.367628
  10176.754  10176.730  0.500  4.328381  91.424  1.205781  0.369736
  10181.204  10181.180  0.500  4.323603  91.3331  1.210352  0.371524
  10185.666  10185.650  0.500  4.318709  91.2338  1.214966  0.373384
  10190.165  10190.140  0.500  4.314036  91.1297  1.219265  0.375484
  10194.676  10194.650  0.500  4.309348  90.7729  1.220197  0.376546
  10199.200  10199.180  0.500  4.303728  90.9269  1.229156  0.379689
  10203.756  10203.730  0.500  4.299026  90.8136  1.233411  0.381731
  10208.324  10208.300  0.500  4.293895  90.697  1.238163  0.383829
  10212.915  10212.880  0.500  4.288944  90.6007  1.242988  0.385959
  10217.506  10217.490  0.500  4.284610  90.5107  1.247147  0.387988
  10222.141  10222.110  0.500  4.278485  90.4147  1.253478  0.391039
  10226.777  10226.760  0.500  4.273802  90.2967  1.257719  0.392800
  10231.439  10231.420  0.500  4.268246  90.2012  1.263387  0.395054
  10236.124  10236.100  0.500  4.262435  90.0633  1.268808  0.397009
  10240.822  10240.800  0.500  4.256783  90.0076  1.275210  0.399795
  10245.552  10245.520  0.500  4.250817  89.9096  1.281444  0.402344
  10250.277  10250.260  0.500  4.244874  89.8002  1.287514  0.404879
  10255.034  10255.010  0.500  4.238802  89.6893  1.293755  0.407595
  10259.823  10259.790  0.500  4.232357  89.5858  1.300618  0.410185
  10264.607  10264.590  0.500  4.226357  89.4728  1.306794  0.412811
  10269.432  10269.400  0.500  4.220427  89.3703  1.313061  0.415731
  10274.267  10274.230  0.500  4.214265  89.2392  1.319239  0.418401
  10279.115  10279.090  0.500  4.208498  89.17  1.325841  0.421110
  10283.996  10283.960  0.500  4.203377  89.0566  1.330952  0.423942
  10288.863  10288.850  0.500  4.197687  88.9529  1.336989  0.426398
  10293.794  10293.760  0.500  4.191457  88.8269  1.343439  0.428830
  10298.721  10298.690  0.500  4.185918  88.7301  1.349429  0.431757
  10303.648  10303.630  0.500  4.179865  88.6248  1.356009  0.434357
  10308.635  10308.600  0.500  4.174948  88.4961  1.360715  0.436861
  10313.618  10313.590  0.500  4.169233  88.3932  1.366922  0.439515
  10318.615  10318.590  0.500  4.163734  88.2771  1.372655  0.442022
  10323.654  10323.620  0.500  4.158517  88.1833  1.378369  0.444930
  10328.689  10328.660  0.500  4.153344  88.0715  1.383760  0.447190
  10333.747  10333.720  0.500  4.147842  87.9575  1.389594  0.449738
  10338.828  10338.800  0.500  4.142812  87.845  1.394815  0.452422
  10343.911  10343.900  0.500  4.137157  87.7451  1.401131  0.454969
  10349.054  10349.020  0.500  4.131951  87.6294  1.406587  0.457657
  10354.192  10354.160  0.500  4.126476  87.5223  1.412579  0.460362
  10359.341  10359.320  0.500  4.120891  87.4206  1.418841  0.463768
  10364.523  10364.500  0.500  4.115576  87.2934  1.424327  0.465856
  10369.715  10369.690  0.500  4.110480  87.155  1.429333  0.468321
  10374.926  10374.910  0.500  4.104936  87.0407  1.435395  0.470968
  10380.170  10380.140  0.500  4.099735  86.9266  1.440988  0.473619
  10385.416  10385.390  0.500  4.094498  86.8107  1.446624  0.476497
  10390.685  10390.660  0.500  4.088836  86.6931  1.452867  0.478852
  10395.983  10395.950  0.500  4.083277  86.5865  1.459170  0.481750
  10401.296  10401.260  0.500  4.077911  86.4556  1.464803  0.484527
  10406.615  10406.590  0.500  4.071777  86.3409  1.471859  0.487841
  10411.967  10411.940  0.500  4.066756  86.2276  1.477328  0.490458
  10417.339  10417.310  0.500  4.060915  86.0953  1.483701  0.493355
  10422.707  10422.690  0.500  4.055037  85.9941  1.490694  0.496431
  10428.133  10428.100  0.500  4.049559  85.8745  1.496798  0.499109
  10433.555  10433.520  0.500  4.043549  85.7629  1.503863  0.502605
  10438.992  10438.970  0.500  4.037395  85.6378  1.510939  0.505755
  10444.464  10444.430  0.500  4.031911  85.5178  1.517119  0.508872
  10449.941  10449.910  0.500  4.026017  85.3989  1.523966  0.511601
  10455.429  10455.410  0.500  4.019830  85.2835  1.531351  0.515120
  10460.956  10460.930  0.500  4.014044  85.1679  1.538150  0.518393
  10466.498  10466.470  0.500  4.008313  85.0355  1.544585  0.521696
  10472.032  10472.020  0.500  4.002233  84.9225  1.551941  0.524745
  10477.620  10477.600  0.500  3.996786  84.8051  1.558259  0.527870
  10483.228  10483.200  0.500  3.990650  84.6809  1.565555  0.530872
  10488.823  10488.810  0.500  3.985187  84.5623  1.571926  0.534296
  10494.467  10494.450  0.500  3.979198  84.4497  1.579263  0.537368
  10500.127  10500.100  0.500  3.973682  84.3193  1.585547  0.541141
  10505.793  10505.770  0.500  3.967294  84.2038  1.593521  0.544329
  10511.484  10511.460  0.500  3.961796  84.0197  1.598802  0.547100