File: xdidata/Zn/Zn-ZnO.xdi
# XDI/1.0 BlueSky/1.10.0 BMM/2023-1.0-py310-tiled
# Beamline.name: BMM (06BM) -- Beamline for Materials Measurement (NIST)
# Beamline.xray_source: NSLS-II three-pole wiggler
# Beamline.collimation: paraboloid mirror, 5 nm Rh on 30 nm Pt
# Beamline.focusing: not in use
# Beamline.harmonic_rejection: flat mirror, Pt stripe, pitch = 7.0 mrad relative to beam
# Beamline.software: Bluesky 1.10.0, Ophyd 1.7.0, DataBroker 2.0.0b13, Python 3.10.8, 2023-1.0-py310-tiled
# Detector.I0: 10 cm N2
# Detector.I1: 25 cm N2
# Detector.I2: 25 cm N2
# Element.symbol: Zn
# Element.edge: K
# Element.reference: Zn
# Element.reference_material: Zn foil
# Facility.name: NSLS-II
# Facility.energy: 3.0
# Facility.current: 400.5
# Facility.mode: top-off
# Facility.GUP: 123456
# Facility.SAF: 301027
# Facility.cycle: 2023-2
# Mono.name: Si(111)
# Mono.d_spacing: 3.13519
# Mono.encoder_resolution: 0.0000050 deg/ct
# Mono.angle_offset: 16.0754 deg
# Mono.scan_mode: pseudo channel cut
# Mono.scan_type: step
# Mono.direction: forward in energy
# Sample.name: ZnO
# Sample.prep: powder in PEG pellet
# Sample.x: 116.329 mm
# Sample.y: 114.126 mm
# Sample.SDD_position: 205.000 mm
# Scan.experimenters: Bruce Ravel
# Scan.edge_energy: 9658.6
# Scan.start_time: 2023-05-06T13:22:44
# Scan.end_time: 2023-05-06T13:30:48
# Scan.transient_id: 74820
# Scan.uid: e69f54dd-8baf-4b93-b4c4-774bb4ebc383
# Scan.plot_hint: ln(I0/It)  --  ln($5/$6)
# Column.1: energy eV
# Column.2: requested_energy eV
# Column.3: measurement_time seconds
# Column.4: xmu
# Column.5: I0 nA
# Column.6: It nA
# Column.7: Ir nA
# ///////////
# sample courtesy Martin Stennett, University of Sheffield
# -----------
# energy  requested_energy  measurement_time  xmu  I0  It  Ir
  9458.627  9458.600  0.500  1.792240  104.656  17.4343  9.572479
  9468.704  9468.600  0.500  1.784772  104.532  17.5442  9.651727
  9478.660  9478.600  0.500  1.777615  104.358  17.6408  9.724061
  9488.629  9488.600  0.500  1.770450  104.187  17.7385  9.797023
  9498.655  9498.600  0.500  1.763181  104.003  17.8364  9.868900
  9508.660  9508.600  0.500  1.756241  103.823  17.9295  9.938727
  9518.627  9518.600  0.500  1.749130  103.671  18.0311  10.0119
  9528.640  9528.600  0.500  1.742435  103.478  18.1183  10.0785
  9538.631  9538.600  0.500  1.735625  103.302  18.2111  10.1503
  9548.635  9548.600  0.500  1.729376  103.329  18.33  10.2352
  9558.594  9558.600  0.500  1.723506  103.602  18.4867  10.3401
  9568.602  9568.600  0.500  1.717769  103.434  18.563  10.4016
  9578.575  9578.600  0.500  1.712397  103.248  18.6294  10.4547
  9588.594  9588.600  0.500  1.707897  103.073  18.6815  10.5023
  9598.595  9598.600  0.500  1.704730  102.899  18.7093  10.5346
  9608.597  9608.600  0.500  1.703358  102.718  18.7019  10.5445
  9618.604  9618.600  0.500  1.705575  102.511  18.623  10.5134
  9628.596  9628.600  0.500  1.713981  102.346  18.4374  10.4148
  9630.571  9630.600  0.500  1.717021  102.309  18.3748  10.38
  9632.575  9632.600  0.500  1.720622  102.255  18.299  10.3357
  9634.571  9634.600  0.500  1.725145  102.047  18.1793  10.2665
  9636.572  9636.600  0.500  1.730776  102.184  18.1016  10.2228
  9638.566  9638.600  0.500  1.737473  102.15  17.9747  10.1479
  9640.569  9640.600  0.500  1.745892  102.115  17.818  10.0563
  9642.569  9642.600  0.500  1.756260  102.074  17.6271  9.942835
  9644.573  9644.600  0.500  1.769655  102.032  17.3855  9.799420
  9646.579  9646.600  0.500  1.786439  102  17.0907  9.620974
  9648.585  9648.600  0.500  1.808901  101.741  16.6687  9.366960
  9648.862  9648.900  0.500  1.812550  101.739  16.6077  9.329256
  9649.164  9649.200  0.500  1.816532  101.761  16.5451  9.293383
  9649.466  9649.500  0.500  1.820700  101.801  16.4829  9.253802
  9649.763  9649.800  0.500  1.825138  101.848  16.4174  9.215971
  9650.069  9650.100  0.500  1.829923  101.879  16.344  9.170526
  9650.363  9650.400  0.500  1.834664  101.881  16.2671  9.122467
  9650.664  9650.700  0.500  1.839955  101.89  16.1827  9.071060
  9650.966  9651.000  0.500  1.845514  101.89  16.0929  9.016338
  9651.276  9651.300  0.500  1.851471  101.891  15.9976  8.959191
  9651.574  9651.600  0.500  1.857778  101.886  15.8962  8.897573
  9651.876  9651.900  0.500  1.864275  101.881  15.7925  8.834439
  9652.169  9652.200  0.500  1.871202  101.877  15.6828  8.767183
  9652.479  9652.500  0.500  1.878403  101.868  15.5689  8.697604
  9652.789  9652.800  0.500  1.886195  101.864  15.4474  8.622577
  9653.083  9653.100  0.500  1.894083  101.857  15.3251  8.549579
  9653.385  9653.400  0.500  1.902643  101.851  15.1935  8.467599
  9653.675  9653.700  0.500  1.911486  101.842  15.0584  8.384929
  9653.993  9654.000  0.500  1.921668  101.834  14.9047  8.290103
  9654.295  9654.300  0.500  1.931879  101.828  14.7524  8.197580
  9654.593  9654.600  0.500  1.943330  101.821  14.5835  8.095454
  9654.891  9654.900  0.500  1.955292  101.815  14.4092  7.987823
  9655.189  9655.200  0.500  1.968273  101.807  14.2222  7.870217
  9655.499  9655.500  0.500  1.982731  101.798  14.0169  7.746394
  9655.789  9655.800  0.500  1.997911  101.793  13.8051  7.613871
  9656.091  9656.100  0.500  2.014364  101.784  13.5785  7.474329
  9656.377  9656.400  0.500  2.031486  101.774  13.3467  7.329547
  9656.691  9656.700  0.500  2.051157  101.767  13.0858  7.168492
  9656.977  9657.000  0.500  2.071026  101.761  12.8276  7.006791
  9657.291  9657.300  0.500  2.094203  101.749  12.5323  6.822481
  9657.586  9657.600  0.500  2.118459  101.749  12.2319  6.634316
  9657.892  9657.900  0.500  2.146756  101.738  11.8894  6.418690
  9658.182  9658.200  0.500  2.177356  101.729  11.5301  6.190295
  9658.492  9658.500  0.500  2.213655  101.726  11.1186  5.929468
  9658.790  9658.800  0.500  2.253434  101.718  10.6843  5.649366
  9659.101  9659.100  0.500  2.301368  101.712  10.1836  5.324340
  9659.391  9659.400  0.500  2.353992  101.704  9.660740  4.981534
  9659.697  9659.700  0.500  2.420383  101.692  9.039164  4.569195
  9659.992  9660.000  0.500  2.494451  101.689  8.393602  4.137788
  9660.302  9660.300  0.500  2.587924  101.683  7.644108  3.641847
  9660.596  9660.600  0.500  2.694553  101.674  6.870346  3.146743
  9660.903  9660.900  0.500  2.827902  101.666  6.012187  2.629159
  9661.197  9661.200  0.500  2.981160  101.661  5.157657  2.152224
  9661.508  9661.500  0.500  3.176212  101.655  4.243428  1.683126
  9661.798  9661.800  0.500  3.398620  101.649  3.397030  1.288815
  9662.100  9662.100  0.500  3.677793  101.896  2.575805  0.936075
  9662.395  9662.400  0.500  3.998093  101.927  1.870418  0.655093
  9662.701  9662.700  0.500  4.392072  101.922  1.261294  0.425614
  9662.992  9663.000  0.500  4.824484  101.915  0.818448  0.267500
  9663.290  9663.300  0.500  5.339472  101.909  0.489002  0.154466
  9663.593  9663.600  0.500  5.927668  101.903  0.271541  0.082961
  9663.891  9663.900  0.500  6.564728  101.898  0.143595  0.042106
  9664.190  9664.200  0.500  7.218667  101.892  0.074665  0.020637
  9664.484  9664.500  0.500  7.841906  101.878  0.040030  0.009887
  9664.795  9664.800  0.500  8.384577  101.874  0.023264  0.004867
  9665.086  9665.100  0.500  8.730535  101.859  0.016458  0.002858
  9665.400  9665.400  0.500  8.942580  101.837  0.013310  0.002106
  9665.695  9665.700  0.500  9.039232  101.78  0.012077  0.001625
  9666.002  9666.000  0.500  9.068960  101.715  0.011716  0.001561
  9666.301  9666.300  0.500  9.089369  101.645  0.011472  0.001380
  9666.603  9666.600  0.500  9.111344  101.606  0.011218  0.001461
  9666.902  9666.900  0.500  9.132678  101.582  0.010979  0.001275
  9667.201  9667.200  0.500  9.163298  101.604  0.010650  0.001056
  9667.504  9667.500  0.500  9.198516  101.65  0.010286  0.001105
  9667.802  9667.800  0.500  9.235378  101.72  0.009920  0.000889
  9668.109  9668.100  0.500  9.280514  101.744  0.009485  0.000776
  9668.404  9668.400  0.500  9.315267  101.749  0.009161  0.000720
  9668.703  9668.700  0.500  9.344968  101.746  0.008893  0.000537
  9668.998  9669.000  0.500  9.367229  101.745  0.008697  0.000538
  9669.301  9669.300  0.500  9.382171  101.735  0.008567  0.000528
  9669.591  9669.600  0.500  9.401767  101.735  0.008401  0.000582
  9669.886  9669.900  0.500  9.412141  101.726  0.008314  0.000592
  9670.193  9670.200  0.500  9.420518  101.716  0.008244  0.000539
  9670.488  9670.500  0.500  9.418227  101.714  0.008262  0.000484
  9670.791  9670.800  0.500  9.418186  101.706  0.008262  0.000649
  9671.094  9671.100  0.500  9.430053  101.701  0.008164  0.000535
  9671.406  9671.400  0.500  9.436988  101.689  0.008107  0.000585
  9671.696  9671.700  0.500  9.435569  101.683  0.008118  0.000464
  9672.000  9672.000  0.500  9.422315  101.677  0.008225  0.000563
  9672.299  9672.300  0.500  9.431806  101.672  0.008147  0.000366
  9672.606  9672.600  0.500  9.422499  101.658  0.008222  0.000536
  9672.905  9672.900  0.500  9.427143  101.655  0.008184  0.000407
  9673.200  9673.200  0.500  9.410973  101.648  0.008317  0.000548
  9673.511  9673.500  0.500  9.398782  101.641  0.008418  0.000456
  9673.802  9673.800  0.500  9.380648  101.635  0.008572  0.000520
  9674.114  9674.100  0.500  9.370513  101.625  0.008658  0.000616
  9674.401  9674.400  0.500  9.338395  101.611  0.008940  0.000595
  9674.712  9674.700  0.500  9.316633  101.606  0.009136  0.000741
  9674.995  9675.000  0.500  9.300617  101.603  0.009283  0.000688
  9675.299  9675.300  0.500  9.254757  101.585  0.009717  0.000816
  9675.594  9675.600  0.500  9.218857  101.578  0.010072  0.000911
  9675.893  9675.900  0.500  9.170163  101.563  0.010573  0.001128
  9676.192  9676.200  0.500  9.098567  101.557  0.011357  0.001173
  9676.488  9676.500  0.500  9.033505  101.551  0.012119  0.001407
  9676.807  9676.800  0.500  8.955618  101.543  0.013100  0.001658
  9677.099  9677.100  0.500  8.899707  101.539  0.013853  0.001991
  9677.402  9677.400  0.500  8.852631  101.533  0.014520  0.002113
  9677.701  9677.700  0.500  8.832543  101.517  0.014812  0.002187
  9678.009  9678.000  0.500  8.828940  101.517  0.014865  0.002213
  9678.304  9678.300  0.500  8.826938  101.51  0.014894  0.002222
  9678.604  9678.600  0.500  8.861184  101.496  0.014391  0.002002
  9678.903  9678.900  0.500  8.901808  101.492  0.013817  0.001997
  9679.203  9679.200  0.500  8.943925  101.485  0.013247  0.001785
  9679.510  9679.500  0.500  9.007438  101.475  0.012430  0.001600
  9679.802  9679.800  0.500  9.066634  101.47  0.011715  0.001454
  9680.110  9680.100  0.500  9.136362  101.461  0.010925  0.001180
  9680.397  9680.400  0.500  9.184050  101.455  0.010416  0.001095
  9680.697  9680.700  0.500  9.220029  101.448  0.010047  0.000935
  9680.996  9681.000  0.500  9.253192  101.437  0.009718  0.000872
  9681.304  9681.300  0.500  9.284106  101.431  0.009422  0.000775
  9681.600  9681.600  0.500  9.289184  101.423  0.009373  0.000800
  9681.895  9681.900  0.500  9.307953  101.413  0.009198  0.000665
  9682.199  9682.200  0.500  9.310376  101.404  0.009175  0.000778
  9682.495  9682.500  0.500  9.294376  101.399  0.009323  0.000771
  9682.794  9682.800  0.500  9.301273  101.388  0.009258  0.000843
  9683.098  9683.100  0.500  9.279316  101.382  0.009462  0.000814
  9683.390  9683.400  0.500  9.261363  101.373  0.009633  0.000779
  9683.601  9683.600  0.500  9.258165  101.368  0.009663  0.000868
  9684.614  9684.590  0.500  9.219696  101.35  0.010041  0.000870
  9685.615  9685.590  0.500  9.191209  101.336  0.010329  0.001117
  9686.636  9686.610  0.500  9.134488  101.308  0.010929  0.001222
  9687.674  9687.660  0.500  9.050089  101.284  0.011889  0.001483
  9688.732  9688.720  0.500  8.965405  101.261  0.012937  0.001809
  9689.823  9689.800  0.500  8.915417  101.24  0.013597  0.002006
  9690.927  9690.900  0.500  8.875428  101.211  0.014148  0.002039
  9692.039  9692.020  0.500  8.773958  101.171  0.015652  0.002468
  9693.167  9693.160  0.500  8.611201  101.173  0.018419  0.003230
  9694.316  9694.310  0.500  8.456518  101.145  0.021494  0.003813
  9695.498  9695.490  0.500  8.380340  101.122  0.023190  0.004300
  9696.700  9696.680  0.500  8.325248  101.091  0.024497  0.004526
  9697.923  9697.900  0.500  8.275874  101.064  0.025730  0.004833
  9699.139  9699.130  0.500  8.265277  101.038  0.025997  0.004990
  9700.391  9700.380  0.500  8.295211  101.011  0.025224  0.004659
  9701.668  9701.650  0.500  8.384010  100.979  0.023073  0.004203
  9702.957  9702.940  0.500  8.494596  100.946  0.020651  0.003694
  9704.271  9704.250  0.500  8.614671  100.919  0.018309  0.003057
  9705.585  9705.580  0.500  8.735049  100.886  0.016227  0.002492
  9706.953  9706.930  0.500  8.819032  100.835  0.014913  0.002129
  9708.325  9708.300  0.500  8.903626  100.643  0.013677  0.001894
  9709.706  9709.680  0.500  8.974161  99.3766  0.012585  0.001537
  9711.100  9711.090  0.500  9.060401  100.808  0.011712  0.001372
  9712.522  9712.510  0.500  9.128125  100.807  0.010945  0.001194
  9713.965  9713.950  0.500  9.212968  100.767  0.010050  0.001038
  9715.429  9715.410  0.500  9.262181  100.732  0.009564  0.000804
  9716.898  9716.890  0.500  9.291820  100.692  0.009281  0.000773
  9718.391  9718.390  0.500  9.250455  100.663  0.009670  0.000866
  9719.926  9719.910  0.500  9.194327  100.631  0.010226  0.000993
  9721.465  9721.450  0.500  9.111787  100.598  0.011102  0.001173
  9723.013  9723.010  0.500  9.066723  100.563  0.011609  0.001228
  9724.586  9724.580  0.500  9.060404  100.524  0.011679  0.001384
  9726.201  9726.180  0.500  9.054953  100.489  0.011738  0.001373
  9727.803  9727.790  0.500  9.035777  100.45  0.011961  0.001532
  9729.435  9729.430  0.500  9.042264  100.427  0.011881  0.001541
  9731.101  9731.080  0.500  9.070075  100.39  0.011551  0.001287
  9732.770  9732.750  0.500  9.113643  100.358  0.011055  0.001121
  9734.449  9734.440  0.500  9.146730  100.323  0.010691  0.001101
  9736.169  9736.150  0.500  9.161720  100.283  0.010528  0.000926
  9737.902  9737.880  0.500  9.189006  100.247  0.010241  0.000962
  9739.644  9739.630  0.500  9.205488  100.216  0.010070  0.000992
  9741.399  9741.390  0.500  9.219833  100.181  0.009923  0.000835
  9743.192  9743.180  0.500  9.213408  100.139  0.009983  0.000826
  9744.985  9744.980  0.500  9.179243  100.105  0.010327  0.001004
  9746.811  9746.810  0.500  9.152221  100.059  0.010605  0.001063
  9748.663  9748.650  0.500  9.109853  100.017  0.011059  0.001060
  9750.524  9750.510  0.500  9.069542  99.977  0.011509  0.001316
  9752.402  9752.390  0.500  9.005388  99.94  0.012267  0.001404
  9754.310  9754.290  0.500  8.942102  99.8991  0.013063  0.001686
  9756.210  9756.210  0.500  8.888590  99.8546  0.013775  0.001911
  9758.152  9758.150  0.500  8.827475  99.8094  0.014637  0.002184
  9760.136  9760.110  0.500  8.790903  99.7646  0.015175  0.002218
  9762.084  9762.080  0.500  8.774224  99.7201  0.015424  0.002392
  9764.094  9764.080  0.500  8.771290  99.6732  0.015462  0.002367
  9766.101  9766.090  0.500  8.777715  99.6226  0.015355  0.002243
  9768.121  9768.120  0.500  8.816162  99.5688  0.014768  0.002182
  9770.209  9770.180  0.500  8.872347  99.4837  0.013949  0.001961
  9772.272  9772.250  0.500  8.914748  99.24  0.013337  0.001821
  9774.353  9774.340  0.500  8.969343  99.059  0.012605  0.001574
  9776.463  9776.450  0.500  9.007866  99.4111  0.012172  0.001390
  9778.579  9778.580  0.500  9.039250  99.3399  0.011788  0.001350
  9780.724  9780.720  0.500  9.058439  99.2315  0.011551  0.001280
  9782.904  9782.890  0.500  9.062429  97.8865  0.011349  0.001153
  9785.084  9785.080  0.500  9.064082  99.2682  0.011490  0.001312
  9787.291  9787.280  0.500  9.049750  99.2002  0.011648  0.001317
  9789.511  9789.500  0.500  9.039925  99.072  0.011748  0.001309
  9791.760  9791.750  0.500  9.046412  97.5126  0.011488  0.001302
  9794.044  9794.010  0.500  9.065618  99.1233  0.011456  0.001235
  9796.292  9796.290  0.500  9.089916  99.0461  0.011172  0.001224
  9798.608  9798.590  0.500  9.082292  98.9692  0.011249  0.001147
  9800.920  9800.910  0.500  9.077559  98.7971  0.011283  0.001140
  9803.275  9803.250  0.500  9.059603  98.4313  0.011445  0.001235
  9805.606  9805.600  0.500  9.031967  98.8452  0.011815  0.001343
  9807.976  9807.980  0.500  8.996424  98.8353  0.012241  0.001405
  9810.384  9810.370  0.500  8.951911  99.0227  0.012822  0.001650
  9812.785  9812.790  0.500  8.930961  98.969  0.013087  0.001780
  9815.229  9815.220  0.500  8.919303  98.9097  0.013232  0.001721
  9817.679  9817.670  0.500  8.915471  98.8619  0.013277  0.001792
  9820.150  9820.150  0.500  8.942604  98.2483  0.012841  0.001851
  9822.660  9822.640  0.500  8.968430  98.6986  0.012571  0.001627
  9825.143  9825.150  0.500  8.994525  98.6665  0.012243  0.001518
  9827.681  9827.670  0.500  9.022704  98.1164  0.011837  0.001439
  9830.237  9830.220  0.500  9.026934  98.538  0.011837  0.001263
  9832.794  9832.790  0.500  9.034951  98.4908  0.011737  0.001255
  9835.391  9835.370  0.500  9.045141  98.0678  0.011568  0.001343
  9837.980  9837.980  0.500  9.035152  98.4014  0.011724  0.001443
  9840.613  9840.600  0.500  9.041415  98.3515  0.011645  0.001264
  9843.260  9843.250  0.500  9.022158  97.7117  0.011794  0.001405
  9845.929  9845.910  0.500  8.999073  98.2138  0.012132  0.001543
  9848.612  9848.590  0.500  8.976321  98.1678  0.012405  0.001475
  9851.297  9851.290  0.500  8.946621  98.1156  0.012772  0.001583
  9854.029  9854.010  0.500  8.923579  98.0556  0.013062  0.001626
  9856.763  9856.750  0.500  8.906730  97.9967  0.013276  0.001697
  9859.523  9859.500  0.500  8.882746  97.9354  0.013590  0.001873
  9862.281  9862.280  0.500  8.857254  97.8715  0.013932  0.001969
  9865.083  9865.070  0.500  8.834227  97.8205  0.014249  0.002194
  9867.899  9867.890  0.500  8.821199  97.7622  0.014427  0.002066
  9870.725  9870.720  0.500  8.830527  97.7058  0.014285  0.002090
  9873.587  9873.570  0.500  8.845204  97.6491  0.014068  0.002019
  9876.458  9876.450  0.500  8.857756  97.5875  0.013884  0.001909
  9879.361  9879.340  0.500  8.874202  97.3979  0.013631  0.001861
  9882.248  9882.250  0.500  8.896896  95.8714  0.013116  0.001832
  9885.188  9885.170  0.500  8.913743  97.2968  0.013089  0.001630
  9888.135  9888.120  0.500  8.912998  97.2813  0.013097  0.001638
  9891.120  9891.090  0.500  8.941947  97.242  0.012718  0.001732
  9894.096  9894.070  0.500  8.950373  97.1743  0.012602  0.001587
  9897.094  9897.080  0.500  8.946362  97.1084  0.012644  0.001665
  9900.127  9900.100  0.500  8.942724  97.0418  0.012682  0.001542
  9903.155  9903.150  0.500  8.939412  96.9806  0.012716  0.001583
  9906.252  9906.210  0.500  8.918165  96.9181  0.012981  0.001696
  9909.321  9909.290  0.500  8.901862  96.8538  0.013185  0.001682
  9912.422  9912.390  0.500  8.903874  96.791  0.013150  0.001757
  9915.525  9915.510  0.500  8.888817  96.7215  0.013340  0.001808
  9918.668  9918.650  0.500  8.900007  96.6523  0.013182  0.001771
  9921.826  9921.800  0.500  8.879757  96.5759  0.013441  0.001839
  9924.995  9924.980  0.500  8.867983  96.5025  0.013590  0.001874
  9928.213  9928.170  0.500  8.852461  96.3743  0.013784  0.001929
  9931.407  9931.390  0.500  8.849164  94.28  0.013529  0.001891
  9934.663  9934.620  0.500  8.835130  96.3584  0.014023  0.001969
  9937.848  9937.870  0.500  8.827597  96.2818  0.014118  0.002011
  9941.134  9941.150  0.500  8.817154  96.2029  0.014254  0.002042
  9944.431  9944.440  0.500  8.814312  96.1253  0.014283  0.002110
  9947.751  9947.750  0.500  8.811766  96.0265  0.014305  0.002187
  9951.061  9951.070  0.500  8.809358  95.7643  0.014300  0.002133
  9954.424  9954.420  0.500  8.800422  95.1937  0.014343  0.002092
  9957.795  9957.790  0.500  8.796879  95.7886  0.014484  0.002145
  9961.188  9961.170  0.500  8.804363  95.7098  0.014364  0.002014
  9964.580  9964.580  0.500  8.813322  95.5409  0.014211  0.002149
  9968.026  9968.000  0.500  8.816837  92.6863  0.013738  0.001981
  9971.470  9971.450  0.500  8.827899  95.6187  0.014016  0.001913
  9974.929  9974.910  0.500  8.821139  95.5172  0.014096  0.002081
  9978.421  9978.390  0.500  8.806461  95.4003  0.014287  0.002170
  9981.916  9981.890  0.500  8.801695  94.898  0.014280  0.002167
  9985.447  9985.410  0.500  8.773670  95.0081  0.014703  0.002138
  9988.973  9988.950  0.500  8.757500  95.1481  0.014965  0.002431
  9992.526  9992.500  0.500  8.741493  95.0552  0.015191  0.002414
  9996.104  9996.080  0.500  8.723239  94.7837  0.015427  0.002295
  9999.715  9999.680  0.500  8.722979  94.4925  0.015384  0.002537
  10003.312  10003.290  0.500  8.717355  94.9453  0.015544  0.002524
  10006.954  10006.920  0.500  8.716811  94.8407  0.015536  0.002567
  10010.607  10010.580  0.500  8.709262  94.7038  0.015631  0.002640
  10014.268  10014.250  0.500  8.710125  92.47  0.015249  0.002467
  10017.975  10017.940  0.500  8.705768  94.5347  0.015658  0.002486
  10021.680  10021.650  0.500  8.708653  94.4865  0.015604  0.002495
  10025.401  10025.380  0.500  8.716659  94.4005  0.015466  0.002468
  10029.138  10029.120  0.500  8.717370  94.2984  0.015438  0.002579
  10032.921  10032.890  0.500  8.707673  94.1294  0.015561  0.002446
  10036.699  10036.680  0.500  8.714249  93.5331  0.015361  0.002558
  10040.501  10040.480  0.500  8.714438  94.1443  0.015458  0.002455
  10044.324  10044.310  0.500  8.717255  94.0593  0.015401  0.002428
  10048.180  10048.150  0.500  8.714805  93.9592  0.015422  0.002540
  10052.031  10052.010  0.500  8.701113  93.869  0.015620  0.002482
  10055.915  10055.890  0.500  8.692789  93.7852  0.015736  0.002538
  10059.811  10059.790  0.500  8.684689  93.6935  0.015849  0.002662
  10063.745  10063.710  0.500  8.674912  93.6046  0.015989  0.002706
  10067.669  10067.650  0.500  8.660231  93.5151  0.016210  0.002789
  10071.636  10071.610  0.500  8.653939  93.428  0.016297  0.002620
  10075.597  10075.580  0.500  8.641416  93.3368  0.016487  0.002808
  10079.605  10079.580  0.500  8.632074  93.2552  0.016627  0.002889
  10083.604  10083.590  0.500  8.620644  93.1522  0.016799  0.003046
  10087.662  10087.630  0.500  8.611844  91.5105  0.016649  0.002998
  10091.698  10091.680  0.500  8.602061  92.8633  0.017061  0.003001
  10095.777  10095.750  0.500  8.591002  92.8464  0.017248  0.003161
  10099.863  10099.840  0.500  8.586220  92.7772  0.017318  0.003183
  10103.984  10103.950  0.500  8.582698  92.7005  0.017365  0.003103
  10108.091  10108.080  0.500  8.575724  92.6101  0.017469  0.003134
  10112.258  10112.230  0.500  8.570917  92.5111  0.017534  0.003157
  10116.411  10116.390  0.500  8.560454  92.4231  0.017702  0.003133
  10120.613  10120.580  0.500  8.566586  92.3218  0.017575  0.003083
  10124.804  10124.780  0.500  8.566025  92.2279  0.017566  0.003144
  10129.039  10129.010  0.500  8.558007  92.1451  0.017692  0.003267
  10133.268  10133.250  0.500  8.562322  92.0406  0.017596  0.003195
  10137.524  10137.510  0.500  8.555915  91.9542  0.017692  0.003185
  10141.814  10141.790  0.500  8.542913  91.8384  0.017901  0.003354
  10146.112  10146.090  0.500  8.529864  91.7548  0.018120  0.003388
  10150.437  10150.410  0.500  8.517991  91.6639  0.018318  0.003413
  10154.765  10154.750  0.500  8.518283  91.5654  0.018293  0.003454
  10159.146  10159.110  0.500  8.507749  91.4789  0.018469  0.003579
  10163.513  10163.490  0.500  8.508448  91.3741  0.018435  0.003592
  10167.906  10167.880  0.500  8.496247  91.2842  0.018643  0.003520
  10172.321  10172.300  0.500  8.478428  91.1796  0.018957  0.003640
  10176.763  10176.730  0.500  8.472858  91.0882  0.019043  0.003606
  10181.204  10181.180  0.500  8.468807  90.9839  0.019099  0.003742
  10185.671  10185.650  0.500  8.463104  90.8887  0.019188  0.003733
  10190.165  10190.140  0.500  8.448732  90.7746  0.019441  0.003850
  10194.676  10194.650  0.500  8.451045  90.4459  0.019326  0.003824
  10199.214  10199.180  0.500  8.450870  90.5769  0.019358  0.003900
  10203.742  10203.730  0.500  8.441360  90.4513  0.019515  0.003882
  10208.320  10208.300  0.500  8.442742  90.3534  0.019467  0.003914
  10212.893  10212.880  0.500  8.428382  90.2578  0.019728  0.003821
  10217.510  10217.490  0.500  8.438419  90.1425  0.019506  0.003951
  10222.132  10222.110  0.500  8.413137  90.0564  0.019986  0.004338
  10226.781  10226.760  0.500  8.416979  89.9485  0.019886  0.004050
  10231.439  10231.420  0.500  8.409824  89.841  0.020005  0.004159
  10236.119  10236.100  0.500  8.398488  89.7175  0.020205  0.004045
  10240.822  10240.800  0.500  8.395355  89.657  0.020255  0.004145
  10245.529  10245.520  0.500  8.379692  89.5465  0.020549  0.004451
  10250.291  10250.260  0.500  8.367551  89.4359  0.020775  0.004379
  10255.029  10255.010  0.500  8.358817  89.3249  0.020931  0.004306
  10259.809  10259.790  0.500  8.349350  89.2225  0.021106  0.004503
  10264.607  10264.590  0.500  8.341129  89.1135  0.021254  0.004459
  10269.423  10269.400  0.500  8.328794  89.0094  0.021492  0.004532
  10274.253  10274.230  0.500  8.330285  88.8764  0.021428  0.004626
  10279.111  10279.090  0.500  8.316515  88.8134  0.021710  0.004648
  10283.996  10283.960  0.500  8.312074  88.7  0.021779  0.004542
  10288.863  10288.850  0.500  8.298441  88.5864  0.022050  0.004731
  10293.789  10293.760  0.500  8.300668  88.4681  0.021971  0.004843
  10298.712  10298.690  0.500  8.282684  88.3632  0.022343  0.005016
  10303.662  10303.630  0.500  8.275638  88.2553  0.022474  0.004948
  10308.626  10308.600  0.500  8.274014  88.1435  0.022482  0.004963
  10313.609  10313.590  0.500  8.265566  88.3454  0.022724  0.005095
  10318.620  10318.590  0.500  8.262975  88.219  0.022751  0.005179
  10323.640  10323.620  0.500  8.257196  88.1186  0.022857  0.005142
  10328.684  10328.660  0.500  8.247416  88.0128  0.023054  0.005190
  10333.742  10333.720  0.500  8.242829  87.8967  0.023129  0.005226
  10338.828  10338.800  0.500  8.238502  87.7787  0.023198  0.005251
  10343.934  10343.900  0.500  8.224014  87.6713  0.023508  0.005382
  10349.049  10349.020  0.500  8.217981  87.5708  0.023623  0.005510
  10354.197  10354.160  0.500  8.209807  87.4568  0.023786  0.005480
  10359.336  10359.320  0.500  8.184761  87.3499  0.024359  0.005847
  10364.523  10364.500  0.500  8.190873  87.2351  0.024179  0.005704
  10369.719  10369.690  0.500  8.182849  87.0947  0.024335  0.005654
  10374.931  10374.910  0.500  8.172346  86.9697  0.024556  0.005709
  10380.161  10380.140  0.500  8.166134  86.854  0.024676  0.005862
  10385.420  10385.390  0.500  8.157139  86.7388  0.024866  0.005908
  10390.694  10390.660  0.500  8.145013  86.6182  0.025135  0.005912
  10395.988  10395.950  0.500  8.141104  86.522  0.025205  0.005988
  10401.291  10401.260  0.500  8.136444  86.4071  0.025289  0.006000
  10406.615  10406.590  0.500  8.124768  86.2957  0.025553  0.006116
  10411.976  10411.940  0.500  8.117448  86.18  0.025707  0.006176
  10417.339  10417.310  0.500  8.109417  86.0601  0.025878  0.006325
  10422.726  10422.690  0.500  8.104399  85.9452  0.025973  0.006325
  10428.128  10428.100  0.500  8.095660  85.8357  0.026168  0.006306
  10433.550  10433.520  0.500  8.090556  85.7168  0.026265  0.006403
  10438.983  10438.970  0.500  8.076064  85.5969  0.026611  0.006488
  10444.454  10444.430  0.500  8.067472  85.4746  0.026803  0.006658
  10449.936  10449.910  0.500  8.060917  85.3634  0.026944  0.006826
  10455.443  10455.410  0.500  8.049616  85.2375  0.027210  0.006885
  10460.960  10460.930  0.500  8.038500  85.1163  0.027475  0.006807
  10466.493  10466.470  0.500  8.030770  85.0037  0.027652  0.007049
  10472.061  10472.020  0.500  8.024243  84.8931  0.027796  0.006947
  10477.620  10477.600  0.500  8.012176  84.7682  0.028092  0.007178
  10483.223  10483.200  0.500  8.002958  84.6501  0.028313  0.007190
  10488.851  10488.810  0.500  7.994120  84.5344  0.028525  0.007157
  10494.476  10494.450  0.500  7.986257  84.4248  0.028713  0.007533
  10500.141  10500.100  0.500  7.982460  84.2994  0.028780  0.007544
  10505.802  10505.770  0.500  7.971962  84.1795  0.029042  0.007394
  10511.484  10511.460  0.500  7.959391  83.9849  0.029341  0.007545