File: xdidata/Zn/Zn-Znfoil.xdi
# XDI/1.0 BlueSky/1.10.0 BMM/2023-1.0-py310-tiled
# Beamline.name: BMM (06BM) -- Beamline for Materials Measurement (NIST)
# Beamline.xray_source: NSLS-II three-pole wiggler
# Beamline.collimation: paraboloid mirror, 5 nm Rh on 30 nm Pt
# Beamline.focusing: not in use
# Beamline.harmonic_rejection: flat mirror, Pt stripe, pitch = 7.0 mrad relative to beam
# Beamline.software: Bluesky 1.10.0, Ophyd 1.7.0, DataBroker 2.0.0b13, Python 3.10.8, 2023-1.0-py310-tiled
# Detector.I0: 10 cm N2
# Detector.I1: 25 cm N2
# Detector.I2: 25 cm N2
# Element.symbol: Zn
# Element.edge: K
# Element.reference: Zn
# Element.reference_material: Zn foil
# Facility.name: NSLS-II
# Facility.energy: 3.0
# Facility.current: 398.6
# Facility.mode: top-off
# Facility.GUP: 123456
# Facility.SAF: 301027
# Facility.cycle: 2023-2
# Mono.name: Si(111)
# Mono.d_spacing: 3.13519
# Mono.encoder_resolution: 0.0000050 deg/ct
# Mono.angle_offset: 16.0754 deg
# Mono.scan_mode: pseudo channel cut
# Mono.scan_type: step
# Mono.direction: forward in energy
# Sample.name: Zn metal
# Sample.prep: reference metal
# Sample.x: 116.329 mm
# Sample.y: 114.126 mm
# Sample.SDD_position: 205.000 mm
# Scan.experimenters: Bruce Ravel
# Scan.edge_energy: 9658.6
# Scan.start_time: 2023-05-07T08:48:26
# Scan.end_time: 2023-05-07T08:56:18
# Scan.transient_id: 74850
# Scan.uid: 65de7d81-53ef-489d-9cd7-321bdd96a004
# Scan.plot_hint: ln(It/Ir)  --  ln($6/$7)
# Column.1: energy eV
# Column.2: requested_energy eV
# Column.3: measurement_time seconds
# Column.4: xmu
# Column.5: I0 nA
# Column.6: It nA
# Column.7: Ir nA
# ///////////
# reference foil
# -----------
# energy  requested_energy  measurement_time  xmu  I0  It  Ir
  9458.615  9458.600  0.500  0.592883  83.1212  108.851  60.1653
  9468.673  9468.600  0.500  0.590983  82.7234  108.468  60.0677
  9478.633  9478.600  0.500  0.589180  82.4033  108.18  60.0164
  9488.614  9488.600  0.500  0.587334  82.1625  107.995  60.0246
  9498.628  9498.600  0.500  0.585562  81.9344  107.841  60.0453
  9508.629  9508.600  0.500  0.583779  81.6451  107.583  60.0082
  9518.604  9518.600  0.500  0.581951  81.4175  107.412  60.0223
  9528.612  9528.600  0.500  0.580236  81.1673  107.213  60.0141
  9538.650  9538.600  0.500  0.578430  80.8663  106.955  59.9783
  9548.698  9548.600  0.500  0.576704  80.5616  106.685  59.9298
  9558.657  9558.600  0.500  0.575005  80.2637  106.424  59.8849
  9568.681  9568.600  0.500  0.573347  79.9302  106.113  59.8091
  9578.635  9578.600  0.500  0.571755  79.7326  105.985  59.832
  9588.614  9588.600  0.500  0.570214  79.4771  105.77  59.8027
  9598.607  9598.600  0.500  0.568715  79.1802  105.504  59.7417
  9608.621  9608.600  0.500  0.567399  78.9316  105.308  59.7097
  9618.628  9618.600  0.500  0.566269  78.6813  105.08  59.6473
  9628.612  9628.600  0.500  0.565785  78.2953  104.688  59.4539
  9630.595  9630.600  0.500  0.565724  78.3468  104.782  59.5107
  9632.587  9632.600  0.500  0.565878  78.3239  104.786  59.5038
  9634.579  9634.600  0.500  0.565945  78.0771  104.465  59.3178
  9636.580  9636.600  0.500  0.566166  78.1809  104.636  59.4015
  9638.582  9638.600  0.500  0.566453  78.1862  104.66  59.3983
  9640.585  9640.600  0.500  0.566876  78.1048  104.58  59.3274
  9642.581  9642.600  0.500  0.567438  78.176  104.707  59.3663
  9644.581  9644.600  0.500  0.568264  78.0674  104.582  59.2466
  9646.583  9646.600  0.500  0.569469  78.0585  104.59  59.1797
  9648.573  9648.600  0.500  0.571130  77.854  104.344  58.9428
  9648.858  9648.900  0.500  0.571447  77.8149  104.28  58.8877
  9649.160  9649.200  0.500  0.571783  77.8133  104.295  58.8763
  9649.462  9649.500  0.500  0.572030  77.8682  104.373  58.9061
  9649.767  9649.800  0.500  0.572421  77.9324  104.445  58.9235
  9650.069  9650.100  0.500  0.572768  78.0653  104.649  59.0181
  9650.367  9650.400  0.500  0.573207  78.1009  104.703  59.0224
  9650.673  9650.700  0.500  0.573597  78.0725  104.663  58.9771
  9650.978  9651.000  0.500  0.574047  78.1041  104.704  58.9738
  9651.272  9651.300  0.500  0.574564  78.0582  104.659  58.9178
  9651.582  9651.600  0.500  0.575146  78.0777  104.685  58.8982
  9651.872  9651.900  0.500  0.575665  78.1471  104.788  58.9256
  9652.190  9652.200  0.500  0.576376  78.2156  104.871  58.9305
  9652.483  9652.500  0.500  0.576949  78.2324  104.899  58.9123
  9652.781  9652.800  0.500  0.577714  78.2369  104.918  58.878
  9653.091  9653.100  0.500  0.578318  78.1982  104.855  58.8069
  9653.381  9653.400  0.500  0.579154  78.1517  104.783  58.7174
  9653.687  9653.700  0.500  0.580134  78.1203  104.759  58.6467
  9653.981  9654.000  0.500  0.581044  78.1333  104.778  58.6041
  9654.291  9654.300  0.500  0.582162  78.1247  104.782  58.5405
  9654.585  9654.600  0.500  0.583232  78.1019  104.747  58.4587
  9654.883  9654.900  0.500  0.584528  78.1498  104.82  58.4236
  9655.189  9655.200  0.500  0.585981  78.1549  104.832  58.345
  9655.475  9655.500  0.500  0.587398  78.1694  104.857  58.2765
  9655.789  9655.800  0.500  0.589250  78.1895  104.896  58.1905
  9656.083  9656.100  0.500  0.590999  78.149  104.835  58.0548
  9656.381  9656.400  0.500  0.593206  78.1449  104.819  57.9182
  9656.683  9656.700  0.500  0.595572  78.116  104.788  57.7638
  9656.985  9657.000  0.500  0.598335  78.0597  104.723  57.5688
  9657.283  9657.300  0.500  0.601374  78.1122  104.786  57.4285
  9657.586  9657.600  0.500  0.604860  78.1237  104.814  57.2443
  9657.892  9657.900  0.500  0.609212  78.1212  104.814  56.9958
  9658.182  9658.200  0.500  0.614054  78.0888  104.777  56.7001
  9658.492  9658.500  0.500  0.620348  78.1134  104.822  56.3687
  9658.790  9658.800  0.500  0.627950  78.1535  104.879  55.9723
  9659.097  9659.100  0.500  0.638115  78.1773  104.918  55.4269
  9659.391  9659.400  0.500  0.650406  78.1403  104.874  54.7268
  9659.701  9659.700  0.500  0.668326  78.1175  104.854  53.7443
  9659.996  9660.000  0.500  0.691125  78.1115  104.847  52.5294
  9660.298  9660.300  0.500  0.723353  78.1232  104.875  50.8773
  9660.592  9660.600  0.500  0.762701  78.1377  104.901  48.9262
  9660.903  9660.900  0.500  0.811222  78.093  104.852  46.5873
  9661.197  9661.200  0.500  0.864047  78.1094  104.886  44.2046
  9661.495  9661.500  0.500  0.919186  78.054  104.815  41.8046
  9661.802  9661.800  0.500  0.971209  78.1089  104.898  39.7171
  9662.092  9662.100  0.500  1.019175  78.0707  104.861  37.8437
  9662.387  9662.400  0.500  1.061550  78.0624  104.851  36.2701
  9662.693  9662.700  0.500  1.101843  77.9237  104.683  34.7817
  9662.992  9663.000  0.500  1.136607  77.9391  104.705  33.6006
  9663.294  9663.300  0.500  1.168546  78.0448  104.852  32.5898
  9663.581  9663.600  0.500  1.195993  78.0251  104.827  31.7001
  9663.895  9663.900  0.500  1.221736  78.0146  104.828  30.8947
  9664.186  9664.200  0.500  1.242683  78.0452  104.871  30.2668
  9664.497  9664.500  0.500  1.261036  78.0366  104.866  29.7147
  9664.799  9664.800  0.500  1.276109  77.992  104.809  29.2544
  9665.102  9665.100  0.500  1.289248  78.0612  104.9  28.8977
  9665.400  9665.400  0.500  1.300701  78.0055  104.835  28.5508
  9665.699  9665.700  0.500  1.311559  77.9053  104.703  28.2069
  9666.010  9666.000  0.500  1.323899  77.8641  104.656  27.8485
  9666.305  9666.300  0.500  1.336477  77.7053  104.442  27.4441
  9666.603  9666.600  0.500  1.350884  77.7137  104.46  27.0562
  9666.902  9666.900  0.500  1.366680  77.6795  104.424  26.6231
  9667.201  9667.200  0.500  1.382872  77.7163  104.459  26.2042
  9667.500  9667.500  0.500  1.399395  77.7663  104.546  25.7963
  9667.802  9667.800  0.500  1.416326  77.8093  104.609  25.3787
  9668.085  9668.100  0.500  1.431618  77.803  104.603  24.992
  9668.400  9668.400  0.500  1.447163  77.8755  104.707  24.631
  9668.695  9668.700  0.500  1.461632  77.8454  104.656  24.2652
  9668.990  9669.000  0.500  1.475136  77.8093  104.628  23.9334
  9669.284  9669.300  0.500  1.487905  77.7528  104.553  23.6127
  9669.604  9669.600  0.500  1.500310  77.7538  104.556  23.3223
  9669.898  9669.900  0.500  1.511056  77.7622  104.583  23.0791
  9670.193  9670.200  0.500  1.520384  77.7457  104.542  22.8558
  9670.513  9670.500  0.500  1.528447  77.6928  104.487  22.6604
  9670.807  9670.800  0.500  1.533762  77.6354  104.414  22.5245
  9671.102  9671.100  0.500  1.536345  77.6314  104.414  22.4664
  9671.410  9671.400  0.500  1.535546  77.6632  104.465  22.4952
  9671.717  9671.700  0.500  1.530869  77.6351  104.427  22.5926
  9672.008  9672.000  0.500  1.522554  77.6011  104.381  22.7712
  9672.295  9672.300  0.500  1.510876  77.6274  104.418  23.0468
  9672.594  9672.600  0.500  1.496513  77.586  104.37  23.3695
  9672.901  9672.900  0.500  1.479684  77.6128  104.411  23.7754
  9673.192  9673.200  0.500  1.463200  77.5831  104.375  24.1622
  9673.483  9673.500  0.500  1.446483  77.5614  104.339  24.5611
  9673.798  9673.800  0.500  1.429751  77.5218  104.296  24.9652
  9674.102  9674.100  0.500  1.415095  77.5258  104.309  25.3368
  9674.397  9674.400  0.500  1.402050  77.5107  104.284  25.6634
  9674.704  9674.700  0.500  1.390677  77.4859  104.242  25.9465
  9675.011  9675.000  0.500  1.381228  77.5006  104.255  26.1962
  9675.311  9675.300  0.500  1.373524  77.46  104.204  26.3859
  9675.606  9675.600  0.500  1.367535  77.4166  104.18  26.5382
  9675.901  9675.900  0.500  1.362506  77.4292  104.192  26.6751
  9676.213  9676.200  0.500  1.358329  77.3924  104.149  26.7756
  9676.504  9676.500  0.500  1.355318  77.3987  104.15  26.8567
  9676.799  9676.800  0.500  1.352927  77.3619  104.098  26.9076
  9677.086  9677.100  0.500  1.351179  77.3566  104.09  26.9524
  9677.402  9677.400  0.500  1.350057  77.3325  104.063  26.9758
  9677.693  9677.700  0.500  1.349389  77.3789  104.133  27.012
  9677.993  9678.000  0.500  1.349112  77.3049  104.03  26.9926
  9678.296  9678.300  0.500  1.348860  77.3207  104.065  27.0086
  9678.604  9678.600  0.500  1.348617  77.2622  103.997  26.9975
  9678.907  9678.900  0.500  1.347830  77.2382  103.966  27.0107
  9679.199  9679.200  0.500  1.346794  77.2696  104.016  27.0518
  9679.502  9679.500  0.500  1.345011  77.2643  104.01  27.0985
  9679.810  9679.800  0.500  1.342326  77.2392  103.982  27.1641
  9680.114  9680.100  0.500  1.338858  77.2481  103.995  27.2617
  9680.413  9680.400  0.500  1.334907  77.2181  103.961  27.3608
  9680.705  9680.700  0.500  1.330361  77.1885  103.906  27.4708
  9681.000  9681.000  0.500  1.325242  77.2568  104.005  27.6382
  9681.304  9681.300  0.500  1.319995  77.3764  104.175  27.8291
  9681.600  9681.600  0.500  1.314657  77.3892  104.204  27.9856
  9681.895  9681.900  0.500  1.309071  77.332  104.118  28.1193
  9682.199  9682.200  0.500  1.303592  77.2726  104.049  28.2549
  9682.495  9682.500  0.500  1.298379  77.3344  104.128  28.4243
  9682.794  9682.800  0.500  1.293606  77.3334  104.123  28.5588
  9683.098  9683.100  0.500  1.289339  77.327  104.126  28.6817
  9683.410  9683.400  0.500  1.285622  77.3759  104.181  28.8037
  9683.601  9683.600  0.500  1.283712  77.3762  104.196  28.8631
  9684.609  9684.590  0.500  1.277372  77.3378  104.158  29.0359
  9685.610  9685.590  0.500  1.275260  77.3124  104.145  29.0938
  9686.624  9686.610  0.500  1.275967  77.3259  104.173  29.0809
  9687.674  9687.660  0.500  1.279989  77.3193  104.18  28.9662
  9688.740  9688.720  0.500  1.287085  77.3014  104.162  28.7565
  9689.803  9689.800  0.500  1.296314  77.3125  104.176  28.4962
  9690.919  9690.900  0.500  1.307705  77.2861  104.175  28.1731
  9692.047  9692.020  0.500  1.320554  77.2457  104.132  27.8019
  9693.175  9693.160  0.500  1.334004  77.2277  104.121  27.4277
  9694.324  9694.310  0.500  1.346987  77.2185  104.119  27.0732
  9695.514  9695.490  0.500  1.358932  77.1923  104.112  26.7501
  9696.700  9696.680  0.500  1.368297  77.2331  104.182  26.5185
  9697.903  9697.900  0.500  1.374953  77.1686  104.115  26.3256
  9699.143  9699.130  0.500  1.379060  77.2075  104.172  26.232
  9700.403  9700.380  0.500  1.380218  77.1392  104.096  26.1827
  9701.672  9701.650  0.500  1.377548  77.075  104.027  26.2352
  9702.957  9702.940  0.500  1.370228  77.1001  104.044  26.4323
  9704.271  9704.250  0.500  1.359720  77.0964  104.057  26.715
  9705.598  9705.580  0.500  1.350384  77.0668  104.042  26.9616
  9706.941  9706.930  0.500  1.343480  77.0332  104.011  27.1403
  9708.309  9708.300  0.500  1.338206  76.9568  103.921  27.2601
  9709.710  9709.680  0.500  1.335407  75.9328  102.554  26.977
  9711.104  9711.090  0.500  1.335859  77.0213  104.041  27.3559
  9712.514  9712.510  0.500  1.339797  77.0205  104.07  27.2558
  9713.973  9713.950  0.500  1.345187  77.0036  104.071  27.1095
  9715.425  9715.410  0.500  1.349558  76.9868  104.065  26.9898
  9716.894  9716.890  0.500  1.351604  76.9144  103.992  26.9157
  9718.403  9718.390  0.500  1.350680  76.9067  103.996  26.9415
  9719.934  9719.910  0.500  1.348613  76.8927  103.997  26.9976
  9721.461  9721.450  0.500  1.346824  76.8498  103.955  27.035
  9723.030  9723.010  0.500  1.345766  76.8254  103.943  27.0604
  9724.599  9724.580  0.500  1.345178  76.7674  103.884  27.061
  9726.188  9726.180  0.500  1.345279  76.7456  103.872  27.0552
  9727.808  9727.790  0.500  1.346976  76.7062  103.839  27.0009
  9729.444  9729.430  0.500  1.350235  76.6766  103.808  26.905
  9731.092  9731.080  0.500  1.354544  76.6164  103.747  26.7736
  9732.762  9732.750  0.500  1.360214  76.5678  103.701  26.6103
  9734.449  9734.440  0.500  1.366547  76.5654  103.718  26.4465
  9736.153  9736.150  0.500  1.372266  76.5196  103.684  26.2872
  9737.890  9737.880  0.500  1.376405  76.4616  103.628  26.1646
  9739.652  9739.630  0.500  1.378188  76.4561  103.639  26.1206
  9741.391  9741.390  0.500  1.376421  76.4409  103.639  26.1669
  9743.196  9743.180  0.500  1.370960  76.3992  103.596  26.2992
  9744.976  9744.980  0.500  1.362240  76.3264  103.519  26.5099
  9746.815  9746.810  0.500  1.352043  76.2884  103.493  26.7749
  9748.659  9748.650  0.500  1.342384  76.2058  103.414  27.0142
  9750.512  9750.510  0.500  1.334530  76.1955  103.418  27.2282
  9752.402  9752.390  0.500  1.328797  76.1387  103.357  27.3685
  9754.302  9754.290  0.500  1.324218  76.0915  103.312  27.482
  9756.218  9756.210  0.500  1.320044  76.0541  103.265  27.5845
  9758.177  9758.150  0.500  1.315825  75.9838  103.19  27.6811
  9760.124  9760.110  0.500  1.311901  75.9623  103.189  27.7897
  9762.092  9762.080  0.500  1.309232  75.9144  103.144  27.8516
  9764.090  9764.080  0.500  1.309591  75.8468  103.088  27.8267
  9766.101  9766.090  0.500  1.312680  75.815  103.06  27.7331
  9768.130  9768.120  0.500  1.317376  75.7102  102.945  27.5726
  9770.205  9770.180  0.500  1.322827  75.5962  102.83  27.392
  9772.264  9772.250  0.500  1.328260  75.3846  102.561  27.1723
  9774.361  9774.340  0.500  1.334137  74.984  102.037  26.8749
  9776.467  9776.450  0.500  1.340511  75.5852  102.864  26.9208
  9778.599  9778.580  0.500  1.347604  75.4885  102.758  26.703
  9780.745  9780.720  0.500  1.353626  75.339  102.581  26.4969
  9782.916  9782.890  0.500  1.357250  74.9107  102.026  26.2581
  9785.126  9785.080  0.500  1.357782  75.3279  102.621  26.3973
  9787.291  9787.280  0.500  1.356111  75.2418  102.545  26.4217
  9789.490  9789.500  0.500  1.353461  75.1494  102.434  26.4633
  9792.088  9791.750  0.500  1.350611  74.0905  101.021  26.1727
  9794.086  9794.010  0.500  1.348679  75.0421  102.325  26.5618
  9796.330  9796.290  0.500  1.346591  74.9745  102.256  26.5994
  9798.579  9798.590  0.500  1.343650  74.8871  102.168  26.6549
  9800.899  9800.910  0.500  1.339889  74.6224  101.837  26.6685
  9803.246  9803.250  0.500  1.334978  74.0912  101.137  26.6156
  9805.598  9805.600  0.500  1.329894  74.7446  102.059  26.9951
  9807.971  9807.980  0.500  1.324432  74.5503  101.821  27.0796
  9810.371  9810.370  0.500  1.318796  74.3804  101.617  27.1781
  9812.793  9812.790  0.500  1.312646  74.5475  101.859  27.4109
  9815.212  9815.220  0.500  1.306260  74.417  101.711  27.5464
  9817.670  9817.670  0.500  1.300670  74.4153  101.749  27.7112
  9820.146  9820.150  0.500  1.297005  73.9723  101.174  27.6559
  9822.631  9822.640  0.500  1.296666  74.2726  101.614  27.7855
  9825.151  9825.150  0.500  1.299903  74.2356  101.584  27.6876
  9827.668  9827.670  0.500  1.305208  73.8996  101.17  27.4289
  9830.216  9830.220  0.500  1.310073  73.9714  101.283  27.3261
  9832.790  9832.790  0.500  1.313490  73.9533  101.284  27.2333
  9835.374  9835.370  0.500  1.315327  73.4354  100.604  27.0008
  9837.976  9837.980  0.500  1.315706  73.7904  101.116  27.1279
  9840.600  9840.600  0.500  1.315373  73.7199  101.044  27.1176
  9843.251  9843.250  0.500  1.315385  73.2133  100.38  26.9392
  9845.904  9845.910  0.500  1.315857  73.6184  100.97  27.0846
  9848.591  9848.590  0.500  1.316679  73.5069  100.848  27.0298
  9851.288  9851.290  0.500  1.317381  73.4708  100.829  27.0057
  9854.016  9854.010  0.500  1.318166  73.3795  100.731  26.9582
  9856.759  9856.750  0.500  1.319001  73.3436  100.719  26.9324
  9859.519  9859.500  0.500  1.319283  73.2429  100.595  26.8917
  9862.277  9862.280  0.500  1.318670  73.1764  100.546  26.8951
  9865.066  9865.070  0.500  1.317514  73.1302  100.518  26.9187
  9867.891  9867.890  0.500  1.315558  73.0142  100.371  26.9319
  9870.734  9870.720  0.500  1.312386  72.9431  100.302  26.9989
  9873.582  9873.570  0.500  1.307760  72.8413  100.187  27.093
  9876.441  9876.450  0.500  1.302708  72.7387  100.098  27.206
  9879.352  9879.340  0.500  1.297179  72.515  99.8214  27.2814
  9882.248  9882.250  0.500  1.291794  71.3982  98.3219  27.0166
  9885.172  9885.170  0.500  1.286833  72.5506  99.9209  27.5925
  9888.126  9888.120  0.500  1.282877  72.459  99.8284  27.6763
  9891.099  9891.090  0.500  1.279984  72.382  99.7557  27.7362
  9894.079  9894.070  0.500  1.278503  72.2809  99.6558  27.7495
  9897.089  9897.080  0.500  1.278146  72.231  99.6131  27.7476
  9900.123  9900.100  0.500  1.278788  72.137  99.5241  27.705
  9903.159  9903.150  0.500  1.279949  72.0589  99.4461  27.6511
  9906.218  9906.210  0.500  1.281126  72.0082  99.4056  27.6074
  9909.287  9909.290  0.500  1.282023  71.8885  99.2714  27.5454
  9912.401  9912.390  0.500  1.282398  71.8385  99.2374  27.5256
  9915.512  9915.510  0.500  1.282475  71.7348  99.1281  27.4932
  9918.664  9918.650  0.500  1.282053  71.621  99.0012  27.4696
  9921.818  9921.800  0.500  1.281521  71.5496  98.9275  27.4637
  9924.986  9924.980  0.500  1.281132  71.4843  98.8807  27.4614
  9928.191  9928.170  0.500  1.280654  71.3215  98.6879  27.421
  9931.398  9931.390  0.500  1.280164  70.0969  97.0274  26.9728
  9934.637  9934.620  0.500  1.279247  71.3712  98.8214  27.4967
  9937.882  9937.870  0.500  1.278147  71.2586  98.697  27.4923
  9941.177  9941.150  0.500  1.276949  71.2075  98.6461  27.5111
  9944.452  9944.440  0.500  1.275665  71.1148  98.5551  27.521
  9947.777  9947.750  0.500  1.273857  71.0095  98.4519  27.542
  9951.087  9951.070  0.500  1.271935  71.2325  98.7915  27.6902
  9954.437  9954.420  0.500  1.269707  70.0764  97.2284  27.3128
  9957.799  9957.790  0.500  1.266871  70.9244  98.4401  27.7317
  9961.206  9961.170  0.500  1.263463  70.8783  98.4127  27.8187
  9964.585  9964.580  0.500  1.259977  70.7889  98.3164  27.8885
  9968.022  9968.000  0.500  1.256603  68.8947  95.7073  27.2401
  9971.457  9971.450  0.500  1.253809  70.6647  98.2129  28.0315
  9974.921  9974.910  0.500  1.251751  70.5959  98.1481  28.0707
  9978.413  9978.390  0.500  1.250166  70.4727  98.0156  28.0773
  9981.903  9981.890  0.500  1.249004  70.2316  97.7114  28.0227
  9985.434  9985.410  0.500  1.247720  70.122  97.5959  28.0255
  9988.964  9988.950  0.500  1.246356  70.2905  97.8747  28.1439
  9992.522  9992.500  0.500  1.245110  70.1679  97.7329  28.1382
  9996.083  9996.080  0.500  1.244257  70.0431  97.5982  28.1234
  9999.702  9999.680  0.500  1.243635  69.3295  96.6366  27.8636
  10003.299  10003.290  0.500  1.242800  69.9317  97.5012  28.1364
  10006.936  10006.920  0.500  1.241923  69.8434  97.4261  28.1394
  10010.590  10010.580  0.500  1.241019  69.7882  97.3837  28.1526
  10014.268  10014.250  0.500  1.240267  68.064  95.0211  27.4903
  10017.970  10017.940  0.500  1.239399  69.4575  96.9938  28.0853
  10021.671  10021.650  0.500  1.238493  69.3699  96.9003  28.0837
  10025.405  10025.380  0.500  1.237652  69.2993  96.8414  28.0903
  10029.129  10029.120  0.500  1.236601  69.2105  96.7475  28.0925
  10032.917  10032.890  0.500  1.235300  68.9554  96.4406  28.0399
  10036.708  10036.680  0.500  1.233789  68.3635  95.6495  27.8519
  10040.514  10040.480  0.500  1.232055  69.0949  96.7143  28.2109
  10044.324  10044.310  0.500  1.229971  68.9469  96.5323  28.2165
  10048.172  10048.150  0.500  1.227695  68.8821  96.4744  28.2638
  10052.044  10052.010  0.500  1.225286  68.7366  96.3158  28.2854
  10055.911  10055.890  0.500  1.222803  68.6386  96.214  28.3258
  10059.811  10059.790  0.500  1.220497  68.5783  96.1794  28.3809
  10063.719  10063.710  0.500  1.218323  68.4913  96.0978  28.4186
  10067.660  10067.650  0.500  1.216492  68.3864  95.9823  28.4365
  10071.623  10071.610  0.500  1.214891  68.2633  95.8451  28.4413
  10075.597  10075.580  0.500  1.213376  68.1856  95.7718  28.4626
  10079.601  10079.580  0.500  1.211609  68.0768  95.6529  28.4776
  10083.599  10083.590  0.500  1.209996  67.927  95.4873  28.4741
  10087.654  10087.630  0.500  1.208250  66.7961  93.9292  28.0585
  10091.694  10091.680  0.500  1.206690  67.7911  95.3707  28.5336
  10095.777  10095.750  0.500  1.205191  67.6829  95.2513  28.5406
  10099.850  10099.840  0.500  1.203780  67.573  95.1455  28.5491
  10103.980  10103.950  0.500  1.202351  67.477  95.0379  28.5576
  10108.086  10108.080  0.500  1.201107  67.353  94.9103  28.5548
  10112.236  10112.230  0.500  1.199814  67.2801  94.8432  28.5715
  10116.416  10116.390  0.500  1.198620  67.1817  94.7424  28.5753
  10120.582  10120.580  0.500  1.197417  67.0501  94.6021  28.5673
  10124.799  10124.780  0.500  1.196211  66.9552  94.5012  28.5713
  10129.025  10129.010  0.500  1.194938  66.8473  94.3899  28.574
  10133.277  10133.250  0.500  1.193444  66.7891  94.337  28.6007
  10137.528  10137.510  0.500  1.192101  66.6603  94.1869  28.5935
  10141.814  10141.790  0.500  1.190406  66.5443  94.0663  28.6053
  10146.117  10146.090  0.500  1.188808  66.4448  93.9663  28.6207
  10150.419  10150.410  0.500  1.187093  66.3268  93.8373  28.6304
  10154.774  10154.750  0.500  1.185125  66.2575  93.7847  28.6707
  10159.128  10159.110  0.500  1.183105  66.1433  93.659  28.6902
  10163.513  10163.490  0.500  1.181182  65.9962  93.486  28.6923
  10167.893  10167.880  0.500  1.179476  65.916  93.3997  28.7148
  10172.326  10172.300  0.500  1.177637  65.7999  93.2913  28.7343
  10176.745  10176.730  0.500  1.175824  65.6998  93.1905  28.7553
  10181.190  10181.180  0.500  1.174104  65.65  93.1573  28.7945
  10185.657  10185.650  0.500  1.172331  65.5398  93.0372  28.8085
  10190.160  10190.140  0.500  1.170743  65.4115  92.9001  28.8117
  10194.671  10194.650  0.500  1.168999  65.0348  92.4024  28.7074
  10199.196  10199.180  0.500  1.167341  65.1748  92.6321  28.8265
  10203.756  10203.730  0.500  1.165653  65.0436  92.489  28.8306
  10208.315  10208.300  0.500  1.164161  64.929  92.3741  28.8378
  10212.906  10212.880  0.500  1.162486  64.7825  92.1998  28.8316
  10217.506  10217.490  0.500  1.160900  64.6848  92.1008  28.8464
  10222.128  10222.110  0.500  1.159479  64.5853  91.9957  28.8544
  10226.777  10226.760  0.500  1.157876  64.4989  91.9138  28.875
  10231.443  10231.420  0.500  1.156461  64.3849  91.786  28.8757
  10236.128  10236.100  0.500  1.154936  64.2475  91.6342  28.8719
  10240.817  10240.800  0.500  1.153484  64.1874  91.5924  28.9007
  10245.547  10245.520  0.500  1.151844  64.0291  91.4107  28.8907
  10250.286  10250.260  0.500  1.150356  63.898  91.2626  28.8868
  10255.029  10255.010  0.500  1.148823  63.7463  91.0845  28.8747
  10259.809  10259.790  0.500  1.147181  63.6501  90.9838  28.8901
  10264.603  10264.590  0.500  1.145569  63.5863  90.936  28.9215
  10269.428  10269.400  0.500  1.143782  63.4343  90.7614  28.9176
  10274.240  10274.230  0.500  1.142113  63.3016  90.6065  28.9165
  10279.120  10279.090  0.500  1.140384  63.2007  90.5043  28.9339
  10283.996  10283.960  0.500  1.138686  63.0529  90.3377  28.9297
  10288.867  10288.850  0.500  1.136918  62.9181  90.181  28.9306
  10293.799  10293.760  0.500  1.135260  62.7999  90.0565  28.9386
  10298.712  10298.690  0.500  1.133485  62.7268  89.984  28.9667
  10303.666  10303.630  0.500  1.131790  62.612  89.8615  28.9763
  10308.621  10308.600  0.500  1.130088  62.4761  89.7026  28.9744
  10313.618  10313.590  0.500  1.128347  62.3374  89.5506  28.9757
  10318.629  10318.590  0.500  1.126642  62.2772  89.5027  29.0096
  10323.654  10323.620  0.500  1.124993  62.1505  89.3595  29.011
  10328.684  10328.660  0.500  1.123365  61.9269  89.0673  28.9632
  10333.751  10333.720  0.500  1.121668  61.8704  89.0313  29.0007
  10338.824  10338.800  0.500  1.120000  61.7503  88.9016  29.0068
  10343.938  10343.900  0.500  1.118430  61.6455  88.8017  29.0197
  10349.049  10349.020  0.500  1.116795  61.5338  88.6742  29.0255
  10354.183  10354.160  0.500  1.115265  61.4262  88.5545  29.0307
  10359.355  10359.320  0.500  1.113544  61.2935  88.4059  29.0319
  10364.518  10364.500  0.500  1.112046  61.1862  88.2966  29.0395
  10369.719  10369.690  0.500  1.110278  60.9705  88.0156  28.9983
  10374.945  10374.910  0.500  1.108806  60.8485  87.8831  28.9973
  10380.166  10380.140  0.500  1.107144  60.6482  87.6245  28.96
  10385.420  10385.390  0.500  1.105555  60.6035  87.6072  29.0004
  10390.694  10390.660  0.500  1.103781  60.5526  87.5752  29.0412
  10395.964  10395.950  0.500  1.102110  60.4052  87.4046  29.0332
  10401.291  10401.260  0.500  1.100502  60.2444  87.2232  29.0195
  10406.605  10406.590  0.500  1.098887  60.1154  87.0646  29.0136
  10411.962  10411.940  0.500  1.097151  59.9961  86.9367  29.0213
  10417.344  10417.310  0.500  1.095486  59.7177  86.5749  28.9487
  10422.721  10422.690  0.500  1.093714  59.775  86.679  29.0349
  10428.123  10428.100  0.500  1.091992  59.5889  86.4463  29.0068
  10433.550  10433.520  0.500  1.090356  59.4451  86.2964  29.0039
  10439.002  10438.970  0.500  1.088649  59.2981  86.129  28.9972
  10444.454  10444.430  0.500  1.086918  59.2445  86.0821  29.0316
  10449.941  10449.910  0.500  1.085323  59.1398  85.9754  29.0418
  10455.429  10455.410  0.500  1.083588  58.9672  85.7614  29.0199
  10460.960  10460.930  0.500  1.081808  58.8195  85.5879  29.0128
  10466.498  10466.470  0.500  1.080218  58.6284  85.3508  28.9784
  10472.042  10472.020  0.500  1.078558  58.5376  85.2585  28.9952
  10477.629  10477.600  0.500  1.076809  58.4172  85.1185  28.9982
  10483.237  10483.200  0.500  1.075148  58.3178  85.0277  29.0155
  10488.827  10488.810  0.500  1.073522  58.2008  84.8931  29.0167
  10494.476  10494.450  0.500  1.071914  58.1068  84.7944  29.0296
  10500.136  10500.100  0.500  1.070179  57.9469  84.6  29.0133
  10505.793  10505.770  0.500  1.068512  57.824  84.4628  29.0146
  10511.494  10511.460  0.500  1.066796  57.6261  84.2005  28.9742