File: xdidata/Zn/Zn-Zincite.xdi
# XDI/1.0 BlueSky/1.10.0 BMM/2023-1.0-py310-tiled
# Beamline.name: BMM (06BM) -- Beamline for Materials Measurement (NIST)
# Beamline.xray_source: NSLS-II three-pole wiggler
# Beamline.collimation: paraboloid mirror, 5 nm Rh on 30 nm Pt
# Beamline.focusing: not in use
# Beamline.harmonic_rejection: flat mirror, Pt stripe, pitch = 7.0 mrad relative to beam
# Beamline.software: Bluesky 1.10.0, Ophyd 1.7.0, DataBroker 2.0.0b13, Python 3.10.8, 2023-1.0-py310-tiled
# Detector.I0: 10 cm N2
# Detector.I1: 25 cm N2
# Detector.I2: 25 cm N2
# Element.symbol: Zn
# Element.edge: K
# Element.reference: Zn
# Element.reference_material: Zn foil
# Facility.name: NSLS-II
# Facility.energy: 3.0
# Facility.current: 399.6
# Facility.mode: top-off
# Facility.GUP: 123456
# Facility.SAF: 301027
# Facility.cycle: 2023-2
# Mono.name: Si(111)
# Mono.d_spacing: 3.13519
# Mono.encoder_resolution: 0.0000050 deg/ct
# Mono.angle_offset: 16.0754 deg
# Mono.scan_mode: pseudo channel cut
# Mono.scan_type: step
# Mono.direction: forward in energy
# Sample.name: ZnO
# Sample.prep: powder in PEG pellet
# Sample.x: 116.329 mm
# Sample.y: 114.126 mm
# Sample.SDD_position: 205.000 mm
# Scan.experimenters: Bruce Ravel
# Scan.edge_energy: 9658.6
# Scan.start_time: 2023-05-06T13:48:26
# Scan.end_time: 2023-05-06T13:56:30
# Scan.transient_id: 74835
# Scan.uid: d76eba74-f7b4-479a-94c9-665810198dca
# Scan.plot_hint: ln(I0/It)  --  ln($5/$6)
# Column.1: energy eV
# Column.2: requested_energy eV
# Column.3: measurement_time seconds
# Column.4: xmu
# Column.5: I0 nA
# Column.6: It nA
# Column.7: Ir nA
# ///////////
# sample courtesy Martin Stennett, University of Sheffield
# -----------
# energy  requested_energy  measurement_time  xmu  I0  It  Ir
  9458.604  9458.600  0.500  1.526139  105.326  22.8951  12.6336
  9468.615  9468.600  0.500  1.520123  105.162  22.9973  12.7145
  9478.625  9478.600  0.500  1.514225  104.98  23.0933  12.7926
  9488.649  9488.600  0.500  1.508220  104.804  23.1934  12.8705
  9498.601  9498.600  0.500  1.502250  104.612  23.2897  12.947
  9508.613  9508.600  0.500  1.496392  104.437  23.3873  13.0236
  9518.627  9518.600  0.500  1.490655  104.262  23.4825  13.1008
  9528.652  9528.600  0.500  1.484849  104.079  23.5777  13.1753
  9538.690  9538.600  0.500  1.479111  103.901  23.6728  13.2542
  9548.671  9548.600  0.500  1.473759  103.715  23.7573  13.3245
  9558.622  9558.600  0.500  1.468485  103.53  23.8404  13.3945
  9568.617  9568.600  0.500  1.463503  103.349  23.9174  13.4593
  9578.615  9578.600  0.500  1.458992  103.174  23.9848  13.5214
  9588.622  9588.600  0.500  1.454733  102.996  24.0457  13.5754
  9598.623  9598.600  0.500  1.451394  102.817  24.0841  13.6163
  9608.621  9608.600  0.500  1.449273  102.632  24.0919  13.6384
  9618.628  9618.600  0.500  1.449453  102.425  24.0391  13.6224
  9628.632  9628.600  0.500  1.454119  102.259  23.8883  13.5461
  9630.583  9630.600  0.500  1.455719  102.57  23.9228  13.5667
  9632.579  9632.600  0.500  1.457980  102.5  23.8522  13.5258
  9634.587  9634.600  0.500  1.460586  102.289  23.7413  13.4613
  9636.584  9636.600  0.500  1.464047  102.42  23.6897  13.4303
  9638.574  9638.600  0.500  1.468216  102.382  23.5823  13.3655
  9640.589  9640.600  0.500  1.473487  102.343  23.4494  13.2814
  9642.589  9642.600  0.500  1.480112  102.306  23.286  13.1832
  9644.593  9644.600  0.500  1.488571  102.263  23.0802  13.0552
  9646.591  9646.600  0.500  1.499247  102.226  22.8268  12.8952
  9648.593  9648.600  0.500  1.513577  101.969  22.4455  12.6593
  9648.866  9648.900  0.500  1.515774  101.96  22.3944  12.6244
  9649.168  9649.200  0.500  1.518406  101.971  22.3379  12.591
  9649.462  9649.500  0.500  1.521079  102.006  22.2859  12.5554
  9649.763  9649.800  0.500  1.523927  102.059  22.2341  12.5223
  9650.061  9650.100  0.500  1.526811  102.085  22.1756  12.4836
  9650.363  9650.400  0.500  1.530230  102.097  22.1026  12.4392
  9650.669  9650.700  0.500  1.533399  102.088  22.0307  12.3936
  9650.970  9651.000  0.500  1.536906  102.091  21.9541  12.3421
  9651.268  9651.300  0.500  1.540672  102.084  21.8702  12.29
  9651.566  9651.600  0.500  1.544660  102.077  21.7817  12.2337
  9651.872  9651.900  0.500  1.548883  102.069  21.6881  12.1742
  9652.173  9652.200  0.500  1.553271  102.064  21.5921  12.1107
  9652.471  9652.500  0.500  1.558099  102.057  21.4866  12.0444
  9652.773  9652.800  0.500  1.562720  102.044  21.3848  11.9782
  9653.083  9653.100  0.500  1.568031  102.035  21.2697  11.9054
  9653.381  9653.400  0.500  1.573300  102.026  21.156  11.8324
  9653.683  9653.700  0.500  1.579210  102.023  21.0308  11.7514
  9653.981  9654.000  0.500  1.585338  102.005  20.8985  11.6653
  9654.295  9654.300  0.500  1.592247  101.993  20.7522  11.5712
  9654.589  9654.600  0.500  1.599260  101.985  20.6057  11.4752
  9654.895  9654.900  0.500  1.606949  101.974  20.4457  11.3698
  9655.193  9655.200  0.500  1.615253  101.968  20.2754  11.2592
  9655.495  9655.500  0.500  1.624430  101.966  20.0897  11.139
  9655.789  9655.800  0.500  1.634019  101.955  19.8958  11.0115
  9656.091  9656.100  0.500  1.644532  101.941  19.6851  10.873
  9656.385  9656.400  0.500  1.655481  101.932  19.469  10.729
  9656.695  9656.700  0.500  1.667695  101.922  19.2308  10.5688
  9656.989  9657.000  0.500  1.680508  101.91  18.9838  10.4057
  9657.283  9657.300  0.500  1.694385  101.904  18.7211  10.2261
  9657.577  9657.600  0.500  1.709864  101.891  18.4311  10.0309
  9657.892  9657.900  0.500  1.727922  101.885  18.1002  9.805793
  9658.190  9658.200  0.500  1.746818  101.878  17.7601  9.570130
  9658.476  9658.500  0.500  1.768348  101.872  17.3808  9.304417
  9658.794  9658.800  0.500  1.794211  101.863  16.9357  8.986367
  9659.089  9659.100  0.500  1.822980  101.854  16.4539  8.635423
  9659.391  9659.400  0.500  1.856609  101.847  15.9087  8.228526
  9659.701  9659.700  0.500  1.896805  101.841  15.281  7.745829
  9659.996  9660.000  0.500  1.943201  101.836  14.5874  7.205730
  9660.298  9660.300  0.500  1.998638  101.829  13.7998  6.587657
  9660.608  9660.600  0.500  2.066316  101.822  12.8959  5.899995
  9660.903  9660.900  0.500  2.143830  101.816  11.9334  5.211961
  9661.201  9661.200  0.500  2.239749  101.808  10.841  4.496705
  9661.503  9661.500  0.500  2.356704  101.803  9.644029  3.798450
  9661.798  9661.800  0.500  2.491454  101.795  8.427541  3.166129
  9662.088  9662.100  0.500  2.648429  101.792  7.203019  2.593196
  9662.395  9662.400  0.500  2.844455  101.779  5.920054  2.046526
  9662.697  9662.700  0.500  3.068398  101.771  4.731922  1.576863
  9662.988  9663.000  0.500  3.316272  101.765  3.692832  1.191648
  9663.286  9663.300  0.500  3.599328  101.762  2.782388  0.870983
  9663.589  9663.600  0.500  3.913963  101.759  2.031227  0.617730
  9663.899  9663.900  0.500  4.258468  101.747  1.439101  0.425656
  9664.198  9664.200  0.500  4.587624  101.751  1.035521  0.299065
  9664.497  9664.500  0.500  4.891276  101.747  0.764307  0.215738
  9664.803  9664.800  0.500  5.153286  101.731  0.588045  0.162287
  9665.106  9665.100  0.500  5.342672  101.73  0.486582  0.131664
  9665.400  9665.400  0.500  5.456401  101.718  0.434224  0.115663
  9665.699  9665.700  0.500  5.517640  101.667  0.408227  0.107019
  9665.994  9666.000  0.500  5.546316  101.594  0.396400  0.102751
  9666.309  9666.300  0.500  5.563262  101.515  0.389436  0.099423
  9666.599  9666.600  0.500  5.581633  101.474  0.382192  0.096080
  9666.886  9666.900  0.500  5.609856  101.441  0.371434  0.092056
  9667.197  9667.200  0.500  5.652985  101.454  0.355801  0.086509
  9667.495  9667.500  0.500  5.710236  101.501  0.336160  0.080386
  9667.798  9667.800  0.500  5.784653  101.571  0.312267  0.073356
  9668.093  9668.100  0.500  5.873971  101.607  0.285687  0.066088
  9668.404  9668.400  0.500  5.979855  101.61  0.256992  0.058359
  9668.707  9668.700  0.500  6.097360  101.609  0.228498  0.050720
  9669.002  9669.000  0.500  6.213463  101.616  0.203465  0.044600
  9669.305  9669.300  0.500  6.336524  101.602  0.179880  0.038815
  9669.600  9669.600  0.500  6.456493  101.596  0.159536  0.033890
  9669.907  9669.900  0.500  6.573682  101.589  0.141884  0.029512
  9670.222  9670.200  0.500  6.680738  101.579  0.127467  0.026326
  9670.500  9670.500  0.500  6.765590  101.572  0.117089  0.023863
  9670.795  9670.800  0.500  6.832460  101.572  0.109515  0.021982
  9671.098  9671.100  0.500  6.872760  101.566  0.105184  0.021220
  9671.397  9671.400  0.500  6.879037  101.553  0.104512  0.020945
  9671.688  9671.700  0.500  6.854988  101.539  0.107041  0.021824
  9671.987  9672.000  0.500  6.806532  101.539  0.112355  0.023307
  9672.287  9672.300  0.500  6.738454  101.534  0.120265  0.025269
  9672.602  9672.600  0.500  6.649436  101.523  0.131448  0.028208
  9672.901  9672.900  0.500  6.554073  101.509  0.144579  0.031570
  9673.204  9673.200  0.500  6.450708  101.503  0.160314  0.035857
  9673.507  9673.500  0.500  6.340859  101.498  0.178919  0.041039
  9673.806  9673.800  0.500  6.235313  101.492  0.198824  0.046308
  9674.110  9674.100  0.500  6.132011  101.482  0.220440  0.052109
  9674.409  9674.400  0.500  6.033493  101.467  0.243227  0.058310
  9674.704  9674.700  0.500  5.945093  101.464  0.265700  0.064608
  9675.003  9675.000  0.500  5.863183  101.453  0.288349  0.070854
  9675.299  9675.300  0.500  5.784704  101.446  0.311869  0.077277
  9675.602  9675.600  0.500  5.707392  101.435  0.336899  0.084100
  9675.897  9675.900  0.500  5.626363  101.424  0.365292  0.091669
  9676.188  9676.200  0.500  5.549906  101.42  0.394302  0.099581
  9676.488  9676.500  0.500  5.474505  101.416  0.425168  0.107801
  9676.803  9676.800  0.500  5.405079  101.404  0.455677  0.115551
  9677.099  9677.100  0.500  5.352850  101.397  0.480078  0.122061
  9677.394  9677.400  0.500  5.314320  101.386  0.498883  0.126931
  9677.705  9677.700  0.500  5.290310  101.375  0.510950  0.130371
  9678.001  9678.000  0.500  5.283393  101.369  0.514465  0.131293
  9678.304  9678.300  0.500  5.290289  101.367  0.510920  0.130215
  9678.608  9678.600  0.500  5.310724  101.352  0.500511  0.127880
  9678.903  9678.900  0.500  5.344298  101.344  0.483948  0.123458
  9679.203  9679.200  0.500  5.391007  101.337  0.461833  0.118038
  9679.498  9679.500  0.500  5.449219  101.331  0.435688  0.111163
  9679.798  9679.800  0.500  5.517889  101.321  0.406735  0.104124
  9680.101  9680.100  0.500  5.592493  101.309  0.377451  0.096660
  9680.389  9680.400  0.500  5.664275  101.302  0.351281  0.090327
  9680.697  9680.700  0.500  5.731286  101.29  0.328474  0.084723
  9681.000  9681.000  0.500  5.790334  101.286  0.309627  0.080349
  9681.296  9681.300  0.500  5.833483  101.278  0.296528  0.077123
  9681.592  9681.600  0.500  5.861154  101.27  0.288411  0.075473
  9681.903  9681.900  0.500  5.874767  101.262  0.284490  0.074860
  9682.203  9682.200  0.500  5.875342  101.254  0.284305  0.075267
  9682.503  9682.500  0.500  5.862883  101.245  0.287842  0.076728
  9682.807  9682.800  0.500  5.841912  101.238  0.293924  0.078451
  9683.114  9683.100  0.500  5.815930  101.228  0.301630  0.080958
  9683.398  9683.400  0.500  5.788216  101.224  0.310094  0.083450
  9683.609  9683.600  0.500  5.770748  101.213  0.315524  0.085205
  9684.605  9684.590  0.500  5.699894  101.189  0.338611  0.091956
  9685.602  9685.590  0.500  5.647448  101.172  0.356785  0.097117
  9686.620  9686.610  0.500  5.572879  101.152  0.384329  0.104798
  9687.674  9687.660  0.500  5.475030  101.128  0.423735  0.115236
  9688.732  9688.720  0.500  5.391537  101.112  0.460561  0.124277
  9689.815  9689.800  0.500  5.342052  101.087  0.483807  0.129626
  9690.927  9690.900  0.500  5.296620  101.063  0.506175  0.134356
  9692.039  9692.020  0.500  5.211536  101.023  0.550909  0.144445
  9693.184  9693.160  0.500  5.096563  101.013  0.617972  0.159972
  9694.308  9694.310  0.500  5.004611  100.995  0.677367  0.173435
  9695.514  9695.490  0.500  4.954650  100.966  0.711863  0.180057
  9696.705  9696.680  0.500  4.926893  100.939  0.731709  0.183831
  9697.915  9697.900  0.500  4.902189  100.915  0.749829  0.187095
  9699.151  9699.130  0.500  4.894302  100.89  0.755577  0.187893
  9700.411  9700.380  0.500  4.917692  100.974  0.738723  0.183623
  9701.672  9701.650  0.500  4.968068  101.131  0.703527  0.175413
  9702.953  9702.940  0.500  5.032012  101.092  0.659693  0.165288
  9704.255  9704.250  0.500  5.109852  101.065  0.610126  0.154464
  9705.618  9705.580  0.500  5.191510  101.023  0.562051  0.143513
  9706.965  9706.930  0.500  5.262398  100.98  0.523364  0.134420
  9708.313  9708.300  0.500  5.330289  100.816  0.488219  0.125871
  9709.694  9709.680  0.500  5.404197  99.4704  0.447384  0.115518
  9711.108  9711.090  0.500  5.487201  100.948  0.417866  0.107650
  9712.530  9712.510  0.500  5.584570  100.961  0.379145  0.096910
  9713.957  9713.950  0.500  5.694012  100.92  0.339704  0.086099
  9715.429  9715.410  0.500  5.796931  100.882  0.306365  0.077229
  9716.918  9716.890  0.500  5.832349  100.845  0.295596  0.074158
  9718.412  9718.390  0.500  5.769374  100.811  0.314702  0.079388
  9719.930  9719.910  0.500  5.653261  100.775  0.353325  0.089682
  9721.494  9721.450  0.500  5.550659  100.745  0.391383  0.099480
  9722.997  9723.010  0.500  5.501262  100.696  0.411002  0.104762
  9724.603  9724.580  0.500  5.485393  100.653  0.417396  0.106430
  9726.389  9726.180  0.500  5.475209  100.601  0.421454  0.107665
  9727.816  9727.790  0.500  5.466318  100.563  0.425058  0.108072
  9729.439  9729.430  0.500  5.475588  100.543  0.421048  0.106726
  9731.101  9731.080  0.500  5.510343  100.515  0.406553  0.102567
  9732.774  9732.750  0.500  5.558262  100.477  0.387385  0.097153
  9734.469  9734.440  0.500  5.595410  100.443  0.373134  0.092914
  9736.173  9736.150  0.500  5.625536  100.407  0.361929  0.089603
  9737.898  9737.880  0.500  5.658477  100.372  0.350079  0.086144
  9739.652  9739.630  0.500  5.691245  100.341  0.338689  0.083160
  9741.428  9741.390  0.500  5.702410  100.302  0.334800  0.082386
  9743.155  9743.180  0.500  5.682138  100.248  0.341470  0.084671
  9744.956  9744.980  0.500  5.641549  100.211  0.355485  0.088898
  9746.791  9746.810  0.500  5.590640  100.174  0.373915  0.094455
  9748.639  9748.650  0.500  5.536108  100.129  0.394693  0.100941
  9750.495  9750.510  0.500  5.480226  100.088  0.417204  0.107582
  9752.378  9752.390  0.500  5.422799  100.042  0.441661  0.114432
  9754.281  9754.290  0.500  5.361952  100  0.469175  0.122268
  9756.193  9756.210  0.500  5.306899  99.9579  0.495519  0.129890
  9758.152  9758.150  0.500  5.262107  99.9173  0.518008  0.136495
  9760.124  9760.110  0.500  5.232477  99.8699  0.533333  0.141015
  9762.076  9762.080  0.500  5.216887  99.8325  0.541510  0.143673
  9764.069  9764.080  0.500  5.215638  99.7845  0.541926  0.143686
  9766.097  9766.090  0.500  5.230581  99.7348  0.533623  0.141135
  9768.117  9768.120  0.500  5.257604  99.6854  0.519138  0.136548
  9770.176  9770.180  0.500  5.294382  99.6057  0.499992  0.130608
  9772.239  9772.250  0.500  5.338994  99.4036  0.477207  0.123901
  9774.336  9774.340  0.500  5.387704  99.0792  0.453036  0.116995
  9776.438  9776.450  0.500  5.426771  99.5221  0.437626  0.112130
  9778.571  9778.580  0.500  5.452969  99.4489  0.425996  0.108286
  9780.712  9780.720  0.500  5.469051  99.3613  0.418831  0.105997
  9782.887  9782.890  0.500  5.478121  98.134  0.409923  0.103117
  9785.068  9785.080  0.500  5.475450  99.3789  0.416233  0.104724
  9787.278  9787.280  0.500  5.467964  99.316  0.419095  0.105731
  9789.506  9789.500  0.500  5.463607  99.195  0.420412  0.106363
  9791.760  9791.750  0.500  5.468849  97.6329  0.411628  0.104397
  9794.015  9794.010  0.500  5.484412  99.2432  0.411956  0.104755
  9796.301  9796.290  0.500  5.502470  99.1668  0.404272  0.102833
  9798.599  9798.590  0.500  5.512547  99.0946  0.399927  0.101989
  9800.916  9800.910  0.500  5.507380  98.9362  0.401357  0.102910
  9803.250  9803.250  0.500  5.480248  98.4311  0.410290  0.105518
  9805.618  9805.600  0.500  5.447106  98.9758  0.426463  0.110538
  9807.984  9807.980  0.500  5.411325  98.9221  0.441758  0.115212
  9810.363  9810.370  0.500  5.380545  98.8664  0.455311  0.119452
  9812.798  9812.790  0.500  5.357887  98.8171  0.465512  0.122705
  9815.225  9815.220  0.500  5.345615  98.763  0.471002  0.125109
  9817.687  9817.670  0.500  5.345792  98.7146  0.470688  0.125818
  9820.167  9820.150  0.500  5.361772  98.1228  0.460450  0.123497
  9822.652  9822.640  0.500  5.388017  98.5554  0.450499  0.120860
  9825.176  9825.150  0.500  5.415887  98.5269  0.437991  0.116864
  9827.677  9827.670  0.500  5.437700  98.0104  0.426294  0.113117
  9830.220  9830.220  0.500  5.452819  98.3958  0.421548  0.111272
  9832.815  9832.790  0.500  5.460823  98.3542  0.418011  0.109878
  9835.374  9835.370  0.500  5.457618  97.8829  0.417343  0.109393
  9838.001  9837.980  0.500  5.451675  98.2657  0.421473  0.110634
  9840.617  9840.600  0.500  5.444924  98.2184  0.424124  0.111504
  9843.255  9843.250  0.500  5.432902  97.5846  0.426483  0.112119
  9845.924  9845.910  0.500  5.411957  98.0746  0.437697  0.114874
  9848.608  9848.590  0.500  5.389070  98.0339  0.447644  0.117646
  9851.292  9851.290  0.500  5.368800  97.9883  0.456598  0.119888
  9854.033  9854.010  0.500  5.348149  97.9245  0.465822  0.122309
  9856.759  9856.750  0.500  5.326148  97.8669  0.475904  0.124934
  9859.519  9859.500  0.500  5.302349  97.8049  0.487057  0.127607
  9862.302  9862.280  0.500  5.281065  97.7476  0.497243  0.130677
  9865.075  9865.070  0.500  5.266312  97.6812  0.504290  0.132725
  9867.912  9867.890  0.500  5.258750  97.6265  0.507833  0.133858
  9870.725  9870.720  0.500  5.260626  97.5584  0.506529  0.133859
  9873.591  9873.570  0.500  5.269202  97.4989  0.501896  0.133185
  9876.466  9876.450  0.500  5.281406  97.4389  0.495504  0.132208
  9879.361  9879.340  0.500  5.298060  97.282  0.486535  0.130500
  9882.265  9882.250  0.500  5.313055  95.5691  0.470855  0.127109
  9885.193  9885.170  0.500  5.326333  97.1415  0.472289  0.128087
  9888.135  9888.120  0.500  5.339154  97.1289  0.466212  0.126827
  9891.104  9891.090  0.500  5.352459  97.0831  0.459833  0.125352
  9894.096  9894.070  0.500  5.361098  97.0197  0.455580  0.124226
  9897.098  9897.080  0.500  5.361793  96.9524  0.454948  0.124183
  9900.111  9900.100  0.500  5.357954  96.8918  0.456412  0.124575
  9903.176  9903.150  0.500  5.349233  96.821  0.460074  0.125226
  9906.222  9906.210  0.500  5.338783  96.7548  0.464588  0.126522
  9909.313  9909.290  0.500  5.327319  96.6819  0.469591  0.127794
  9912.409  9912.390  0.500  5.317434  96.6175  0.473940  0.128878
  9915.538  9915.510  0.500  5.313101  96.5525  0.475678  0.129447
  9918.673  9918.650  0.500  5.307916  96.4785  0.477784  0.130058
  9921.822  9921.800  0.500  5.299031  96.4015  0.481664  0.131349
  9924.999  9924.980  0.500  5.286499  96.327  0.487361  0.132711
  9928.178  9928.170  0.500  5.277019  96.2083  0.491397  0.133923
  9931.420  9931.390  0.500  5.270906  94.3892  0.485062  0.132426
  9934.637  9934.620  0.500  5.261751  96.1706  0.498761  0.136224
  9937.895  9937.870  0.500  5.253936  96.1003  0.502307  0.137424
  9941.156  9941.150  0.500  5.245978  96.0183  0.505889  0.138437
  9944.482  9944.440  0.500  5.241091  95.9331  0.507915  0.139324
  9947.764  9947.750  0.500  5.236690  95.8478  0.509702  0.139947
  9951.091  9951.070  0.500  5.233695  95.6086  0.509956  0.140516
  9954.442  9954.420  0.500  5.231476  94.8207  0.506876  0.139753
  9957.816  9957.790  0.500  5.232995  95.5868  0.510196  0.141140
  9961.188  9961.170  0.500  5.234498  95.5093  0.509017  0.141106
  9964.606  9964.580  0.500  5.239216  95.3303  0.505671  0.140857
  9968.013  9968.000  0.500  5.243962  92.4298  0.487964  0.136295
  9971.483  9971.450  0.500  5.247343  95.4066  0.501980  0.140560
  9974.925  9974.910  0.500  5.243103  95.312  0.503613  0.141304
  9978.413  9978.390  0.500  5.232483  95.1921  0.508349  0.142844
  9981.903  9981.890  0.500  5.221254  94.7867  0.511901  0.144187
  9985.439  9985.410  0.500  5.207554  94.7136  0.518562  0.146293
  9988.977  9988.950  0.500  5.192548  94.9379  0.527648  0.149045
  9992.518  9992.500  0.500  5.177479  94.84  0.535107  0.151548
  9996.104  9996.080  0.500  5.165708  94.5844  0.539984  0.152748
  9999.707  9999.680  0.500  5.160149  94.0589  0.539978  0.152995
  10003.312  10003.290  0.500  5.159036  94.7209  0.544383  0.154377
  10006.941  10006.920  0.500  5.157473  94.6061  0.544575  0.154503
  10010.599  10010.580  0.500  5.156585  94.4701  0.544275  0.154701
  10014.272  10014.250  0.500  5.153295  92.2148  0.533032  0.151634
  10017.966  10017.940  0.500  5.152576  94.3411  0.545715  0.155225
  10021.671  10021.650  0.500  5.153430  94.5483  0.546446  0.155623
  10025.405  10025.380  0.500  5.155582  94.4625  0.544777  0.155239
  10029.134  10029.120  0.500  5.156326  94.369  0.543833  0.155223
  10032.917  10032.890  0.500  5.155473  94.1877  0.543251  0.155087
  10036.695  10036.680  0.500  5.155248  93.3472  0.538525  0.153938
  10040.493  10040.480  0.500  5.155344  94.1979  0.543380  0.155975
  10044.337  10044.310  0.500  5.152145  94.099  0.544549  0.156326
  10048.167  10048.150  0.500  5.148395  93.9955  0.545993  0.157083
  10052.018  10052.010  0.500  5.144140  93.9013  0.547772  0.157950
  10055.902  10055.890  0.500  5.137786  93.8143  0.550753  0.159383
  10059.802  10059.790  0.500  5.131480  93.724  0.553704  0.160561
  10063.714  10063.710  0.500  5.122831  93.6334  0.557974  0.162143
  10067.665  10067.650  0.500  5.114892  93.5576  0.561965  0.163746
  10071.631  10071.610  0.500  5.106267  93.465  0.566273  0.164830
  10075.588  10075.580  0.500  5.098543  93.3719  0.570095  0.166657
  10079.592  10079.580  0.500  5.091463  93.2775  0.573565  0.167889
  10083.595  10083.590  0.500  5.084167  93.1883  0.577212  0.169567
  10087.645  10087.630  0.500  5.078614  91.8179  0.571891  0.168131
  10091.689  10091.680  0.500  5.069421  92.8766  0.583828  0.171899
  10095.759  10095.750  0.500  5.063512  92.8722  0.587260  0.173052
  10099.850  10099.840  0.500  5.059282  92.7833  0.589184  0.174109
  10103.949  10103.950  0.500  5.055517  92.7118  0.590952  0.174581
  10108.091  10108.080  0.500  5.051069  92.6189  0.592991  0.175376
  10112.236  10112.230  0.500  5.047837  92.5255  0.594311  0.176151
  10116.407  10116.390  0.500  5.046823  92.4317  0.594310  0.176257
  10120.599  10120.580  0.500  5.045512  92.3362  0.594476  0.176848
  10124.795  10124.780  0.500  5.043626  92.2535  0.595064  0.176954
  10129.021  10129.010  0.500  5.039958  92.1483  0.596570  0.177411
  10133.259  10133.250  0.500  5.035571  92.0586  0.598609  0.178616
  10137.533  10137.510  0.500  5.029543  91.956  0.601558  0.179472
  10141.801  10141.790  0.500  5.023877  91.859  0.604338  0.180702
  10146.112  10146.090  0.500  5.017649  91.7631  0.607479  0.181988
  10150.428  10150.410  0.500  5.012307  91.6696  0.610110  0.183178
  10154.769  10154.750  0.500  5.007052  91.5774  0.612708  0.184300
  10159.119  10159.110  0.500  5.003223  91.4779  0.614390  0.185123
  10163.509  10163.490  0.500  4.997844  91.377  0.617022  0.186302
  10167.897  10167.880  0.500  4.991648  91.2734  0.620153  0.187736
  10172.317  10172.300  0.500  4.985181  91.1693  0.623465  0.188954
  10176.749  10176.730  0.500  4.978604  91.0801  0.626965  0.190447
  10181.190  10181.180  0.500  4.974208  90.9797  0.629032  0.191445
  10185.671  10185.650  0.500  4.969814  90.8813  0.631120  0.192327
  10190.156  10190.140  0.500  4.965494  90.7758  0.633116  0.193322
  10194.671  10194.650  0.500  4.962052  90.4152  0.632775  0.193581
  10199.209  10199.180  0.500  4.959502  90.5735  0.635502  0.194529
  10203.747  10203.730  0.500  4.957317  90.4617  0.636106  0.195465
  10208.329  10208.300  0.500  4.954334  90.3504  0.637221  0.196166
  10212.893  10212.880  0.500  4.950831  90.2571  0.638797  0.196589
  10217.515  10217.490  0.500  4.947073  90.1587  0.640503  0.197665
  10222.132  10222.110  0.500  4.941792  90.0553  0.643156  0.198963
  10226.781  10226.760  0.500  4.936743  89.9413  0.645593  0.199899
  10231.434  10231.420  0.500  4.930837  89.8547  0.648792  0.200940
  10236.110  10236.100  0.500  4.925097  89.7313  0.651630  0.202254
  10240.836  10240.800  0.500  4.918322  89.6568  0.655516  0.203806
  10245.534  10245.520  0.500  4.912079  89.5428  0.658782  0.205014
  10250.286  10250.260  0.500  4.906177  89.4306  0.661852  0.206530
  10255.043  10255.010  0.500  4.900377  89.3325  0.664971  0.207679
  10259.814  10259.790  0.500  4.894553  89.2285  0.668077  0.209205
  10264.621  10264.590  0.500  4.888990  89.1179  0.670971  0.210477
  10269.423  10269.400  0.500  4.882673  89.005  0.674367  0.211690
  10274.258  10274.230  0.500  4.876496  88.8647  0.677476  0.213072
  10279.120  10279.090  0.500  4.871361  88.8084  0.680533  0.214431
  10283.987  10283.960  0.500  4.866156  88.6858  0.683139  0.215735
  10288.886  10288.850  0.500  4.861882  88.5772  0.685226  0.216698
  10293.789  10293.760  0.500  4.857198  88.4691  0.687602  0.217921
  10298.712  10298.690  0.500  4.852762  88.3573  0.689787  0.219223
  10303.657  10303.630  0.500  4.848516  88.2542  0.691913  0.219786
  10308.631  10308.600  0.500  4.844817  88.1423  0.693597  0.221135
  10313.609  10313.590  0.500  4.840728  88.0282  0.695537  0.222118
  10318.624  10318.590  0.500  4.836921  87.9025  0.697193  0.222901
  10323.645  10323.620  0.500  4.832427  87.8063  0.699567  0.223946
  10328.693  10328.660  0.500  4.827818  87.7108  0.702034  0.225156
  10333.742  10333.720  0.500  4.823051  87.5953  0.704460  0.226353
  10338.819  10338.800  0.500  4.817417  87.469  0.707418  0.227444
  10343.929  10343.900  0.500  4.812506  87.3596  0.710013  0.228817
  10349.044  10349.020  0.500  4.807303  87.2542  0.712855  0.229974
  10354.178  10354.160  0.500  4.802329  87.1422  0.715490  0.231331
  10359.355  10359.320  0.500  4.796754  87.0302  0.718565  0.232970
  10364.528  10364.500  0.500  4.791855  86.9146  0.721135  0.234125
  10369.715  10369.690  0.500  4.786730  86.7745  0.723672  0.235388
  10374.940  10374.910  0.500  4.781598  86.6618  0.726451  0.236437
  10380.161  10380.140  0.500  4.776324  86.5375  0.729245  0.237984
  10385.416  10385.390  0.500  4.770848  86.4076  0.732149  0.239137
  10390.694  10390.660  0.500  4.766365  86.2834  0.734381  0.240301
  10395.978  10395.950  0.500  4.760954  86.1832  0.737508  0.241732
  10401.287  10401.260  0.500  4.755498  86.0801  0.740655  0.243328
  10406.624  10406.590  0.500  4.751424  85.9577  0.742621  0.244276
  10411.967  10411.940  0.500  4.746217  85.8535  0.745594  0.245634
  10417.339  10417.310  0.500  4.741377  85.7351  0.748178  0.246838
  10422.726  10422.690  0.500  4.737376  85.6144  0.750120  0.247961
  10428.133  10428.100  0.500  4.731661  85.4946  0.753364  0.249336
  10433.541  10433.520  0.500  4.726693  85.3816  0.756115  0.250838
  10439.006  10438.970  0.500  4.721127  85.2504  0.759166  0.252476
  10444.454  10444.430  0.500  4.716205  85.1356  0.761885  0.253720
  10449.931  10449.910  0.500  4.710142  85.0079  0.765369  0.255171
  10455.443  10455.410  0.500  4.704960  84.8935  0.768309  0.256531
  10460.951  10460.930  0.500  4.699761  84.7717  0.771206  0.258120
  10466.493  10466.470  0.500  4.694145  84.6573  0.774502  0.259723
  10472.056  10472.020  0.500  4.688644  84.5268  0.777575  0.261071
  10477.615  10477.600  0.500  4.683329  84.4084  0.780624  0.262668
  10483.223  10483.200  0.500  4.678148  84.2901  0.783579  0.264086
  10488.832  10488.810  0.500  4.672546  84.1817  0.786967  0.265536
  10494.476  10494.450  0.500  4.666831  84.0549  0.790286  0.266910
  10500.117  10500.100  0.500  4.662234  83.9413  0.792854  0.268634
  10505.797  10505.770  0.500  4.657627  83.8209  0.795373  0.269893
  10511.489  10511.460  0.500  4.652590  83.6433  0.797695  0.270738