File: xdidata/Zn/Zn-ZnFerrite.xdi
# XDI/1.0 BlueSky/1.10.0 BMM/2023-1.0-py310-tiled
# Beamline.name: BMM (06BM) -- Beamline for Materials Measurement (NIST)
# Beamline.xray_source: NSLS-II three-pole wiggler
# Beamline.collimation: paraboloid mirror, 5 nm Rh on 30 nm Pt
# Beamline.focusing: not in use
# Beamline.harmonic_rejection: flat mirror, Pt stripe, pitch = 7.0 mrad relative to beam
# Beamline.software: Bluesky 1.10.0, Ophyd 1.7.0, DataBroker 2.0.0b13, Python 3.10.8, 2023-1.0-py310-tiled
# Detector.I0: 10 cm N2
# Detector.I1: 25 cm N2
# Detector.I2: 25 cm N2
# Element.symbol: Zn
# Element.edge: K
# Element.reference: Zn
# Element.reference_material: Zn foil
# Facility.name: NSLS-II
# Facility.energy: 3.0
# Facility.current: 400.0
# Facility.mode: top-off
# Facility.GUP: 123456
# Facility.SAF: 301027
# Facility.cycle: 2023-2
# Mono.name: Si(111)
# Mono.d_spacing: 3.13519
# Mono.encoder_resolution: 0.0000050 deg/ct
# Mono.angle_offset: 16.0754 deg
# Mono.scan_mode: pseudo channel cut
# Mono.scan_type: step
# Mono.direction: forward in energy
# Sample.name: ZnFe2O4
# Sample.prep: powder in PEG pellet
# Sample.x: 116.329 mm
# Sample.y: 114.126 mm
# Sample.SDD_position: 205.000 mm
# Scan.experimenters: Bruce Ravel
# Scan.edge_energy: 9658.6
# Scan.start_time: 2023-05-07T09:05:35
# Scan.end_time: 2023-05-07T09:13:41
# Scan.transient_id: 74860
# Scan.uid: 4b370d7e-7a7f-4a5b-bacc-e2c9a3359a73
# Scan.plot_hint: ln(I0/It)  --  ln($5/$6)
# Column.1: energy eV
# Column.2: requested_energy eV
# Column.3: measurement_time seconds
# Column.4: xmu
# Column.5: I0 nA
# Column.6: It nA
# Column.7: Ir nA
# ///////////
# sample courtesy Martin Stennett, University of Sheffield
# -----------
# energy  requested_energy  measurement_time  xmu  I0  It  Ir
  9458.611  9458.600  0.500  1.312331  86.114  23.1812  12.8039
  9468.615  9468.600  0.500  1.306784  85.7085  23.2004  12.837
  9478.633  9478.600  0.500  1.301271  85.3763  23.2382  12.8824
  9488.633  9488.600  0.500  1.296038  85.0733  23.2772  12.9301
  9498.647  9498.600  0.500  1.290462  84.8069  23.3341  12.9834
  9508.609  9508.600  0.500  1.285019  84.557  23.3923  13.0394
  9518.616  9518.600  0.500  1.279410  84.2072  23.4266  13.0808
  9528.612  9528.600  0.500  1.274049  83.8307  23.4472  13.1162
  9538.607  9538.600  0.500  1.268641  83.6992  23.5373  13.1903
  9548.623  9548.600  0.500  1.263166  83.3722  23.5741  13.2324
  9558.661  9558.600  0.500  1.257889  83.0581  23.6095  13.2765
  9568.669  9568.600  0.500  1.252699  82.7781  23.6524  13.3213
  9578.655  9578.600  0.500  1.247434  82.4555  23.6846  13.3598
  9588.618  9588.600  0.500  1.242245  82.2362  23.7445  13.4146
  9598.662  9598.600  0.500  1.237331  81.9386  23.7751  13.4543
  9608.621  9608.600  0.500  1.232350  81.6204  23.801  13.4867
  9618.620  9618.600  0.500  1.227514  81.2615  23.8113  13.506
  9628.624  9628.600  0.500  1.222965  81.0306  23.8519  13.5366
  9630.595  9630.600  0.500  1.222014  81.007  23.8676  13.5451
  9632.591  9632.600  0.500  1.221366  80.8922  23.8492  13.5343
  9634.587  9634.600  0.500  1.220579  80.6668  23.8015  13.5069
  9636.584  9636.600  0.500  1.219611  80.825  23.8713  13.5414
  9638.582  9638.600  0.500  1.219056  80.7598  23.8652  13.5354
  9640.577  9640.600  0.500  1.218432  80.7114  23.8658  13.5309
  9642.581  9642.600  0.500  1.217973  80.6286  23.8523  13.5152
  9644.577  9644.600  0.500  1.217672  80.5548  23.8376  13.4952
  9646.583  9646.600  0.500  1.217305  80.473  23.8222  13.4703
  9648.577  9648.600  0.500  1.217423  80.2802  23.7623  13.4135
  9648.866  9648.900  0.500  1.217448  80.2471  23.7519  13.4031
  9649.164  9649.200  0.500  1.217541  80.2564  23.7524  13.401
  9649.458  9649.500  0.500  1.217569  80.2815  23.7592  13.3992
  9649.767  9649.800  0.500  1.217613  80.3374  23.7747  13.405
  9650.065  9650.100  0.500  1.217676  80.3357  23.7727  13.3962
  9650.379  9650.400  0.500  1.217760  80.3133  23.7641  13.3868
  9650.677  9650.700  0.500  1.217817  80.3524  23.7743  13.3845
  9650.978  9651.000  0.500  1.218046  80.3239  23.7604  13.3748
  9651.272  9651.300  0.500  1.218077  80.3304  23.7616  13.3652
  9651.582  9651.600  0.500  1.218297  80.3255  23.7549  13.3552
  9651.876  9651.900  0.500  1.218378  80.2866  23.7415  13.3404
  9652.182  9652.200  0.500  1.218615  80.264  23.7292  13.3263
  9652.483  9652.500  0.500  1.218769  80.3157  23.7408  13.3238
  9652.785  9652.800  0.500  1.219048  80.2713  23.7211  13.3049
  9653.079  9653.100  0.500  1.219360  80.2734  23.7143  13.2906
  9653.381  9653.400  0.500  1.219581  80.292  23.7145  13.2782
  9653.675  9653.700  0.500  1.219803  80.2415  23.6944  13.2558
  9653.981  9654.000  0.500  1.220280  80.2589  23.6882  13.2417
  9654.283  9654.300  0.500  1.220433  80.2458  23.6807  13.2203
  9654.577  9654.600  0.500  1.220776  80.2687  23.6793  13.2061
  9654.883  9654.900  0.500  1.221152  80.2252  23.6576  13.177
  9655.181  9655.200  0.500  1.221507  80.2204  23.6478  13.1548
  9655.475  9655.500  0.500  1.222133  80.2163  23.6318  13.1265
  9655.785  9655.800  0.500  1.222607  80.2026  23.6166  13.0941
  9656.075  9656.100  0.500  1.223272  80.2281  23.6084  13.0652
  9656.393  9656.400  0.500  1.224073  80.205  23.5827  13.0213
  9656.683  9656.700  0.500  1.224808  80.1832  23.559  12.979
  9656.993  9657.000  0.500  1.225628  80.1788  23.5383  12.932
  9657.287  9657.300  0.500  1.226696  80.1545  23.5061  12.8749
  9657.594  9657.600  0.500  1.227687  80.1464  23.4804  12.8153
  9657.900  9657.900  0.500  1.229010  80.1804  23.4594  12.747
  9658.190  9658.200  0.500  1.230288  80.1673  23.4255  12.6663
  9658.500  9658.500  0.500  1.232183  80.173  23.3829  12.5653
  9658.794  9658.800  0.500  1.234181  80.1653  23.334  12.442
  9659.093  9659.100  0.500  1.236559  80.1542  23.2753  12.2927
  9659.395  9659.400  0.500  1.239666  80.1294  23.1959  12.0942
  9659.689  9659.700  0.500  1.243629  80.1004  23.0958  11.8439
  9659.983  9660.000  0.500  1.248735  80.0902  22.9753  11.5199
  9660.290  9660.300  0.500  1.255472  80.0794  22.8179  11.0871
  9660.584  9660.600  0.500  1.263271  80.0701  22.638  10.5813
  9660.887  9660.900  0.500  1.272132  80.0331  22.4279  9.997350
  9661.189  9661.200  0.500  1.282031  80.0757  22.2188  9.395873
  9661.491  9661.500  0.500  1.292229  80.0538  21.9874  8.791900
  9661.802  9661.800  0.500  1.302706  80.0476  21.7566  8.240827
  9662.104  9662.100  0.500  1.313137  80.0542  21.5326  7.771848
  9662.399  9662.400  0.500  1.323809  80.0541  21.304  7.366696
  9662.701  9662.700  0.500  1.335688  80.0553  21.0527  6.994130
  9663.004  9663.000  0.500  1.347851  80.0358  20.7932  6.667218
  9663.306  9663.300  0.500  1.361132  80.0264  20.5164  6.373589
  9663.597  9663.600  0.500  1.375233  79.9313  20.2051  6.108673
  9663.891  9663.900  0.500  1.392620  80.0004  19.874  5.864415
  9664.186  9664.200  0.500  1.415847  80.0202  19.4225  5.611683
  9664.497  9664.500  0.500  1.447859  79.9647  18.7976  5.334177
  9664.795  9664.800  0.500  1.489607  79.9659  18.0292  5.040984
  9665.086  9665.100  0.500  1.541099  79.9308  17.1168  4.725373
  9665.392  9665.400  0.500  1.602946  80.0001  16.1042  4.395416
  9665.695  9665.700  0.500  1.671992  80.154  15.0587  4.066251
  9665.994  9666.000  0.500  1.745399  80.0951  13.9826  3.730438
  9666.309  9666.300  0.500  1.812941  80.0538  13.0627  3.437711
  9666.611  9666.600  0.500  1.863801  80.022  12.41  3.217220
  9666.906  9666.900  0.500  1.891788  80.0233  12.0677  3.076438
  9667.201  9667.200  0.500  1.894493  80.0052  12.0324  3.014057
  9667.500  9667.500  0.500  1.877251  79.9941  12.2399  3.014283
  9667.794  9667.800  0.500  1.848037  80.0708  12.6148  3.055969
  9668.089  9668.100  0.500  1.816849  80.1212  13.0227  3.106012
  9668.396  9668.400  0.500  1.790972  80.1428  13.3677  3.140267
  9668.691  9668.700  0.500  1.775697  80.1644  13.5771  3.145014
  9669.002  9669.000  0.500  1.769714  80.155  13.6569  3.121875
  9669.301  9669.300  0.500  1.770992  80.1321  13.6356  3.077114
  9669.587  9669.600  0.500  1.777027  80.1011  13.5483  3.022822
  9669.903  9669.900  0.500  1.786275  80.1129  13.4256  2.961611
  9670.206  9670.200  0.500  1.796850  80.0848  13.2797  2.901889
  9670.513  9670.500  0.500  1.807903  80.057  13.1292  2.846713
  9670.807  9670.800  0.500  1.816696  80.0462  13.0125  2.805859
  9671.106  9671.100  0.500  1.822039  80.0545  12.9445  2.783985
  9671.401  9671.400  0.500  1.822133  79.9675  12.9292  2.781993
  9671.705  9671.700  0.500  1.816463  80.0516  13.0164  2.813414
  9672.008  9672.000  0.500  1.806240  80.0297  13.1465  2.866032
  9672.295  9672.300  0.500  1.794358  80.0135  13.301  2.933962
  9672.594  9672.600  0.500  1.783396  80.0285  13.4501  3.008439
  9672.889  9672.900  0.500  1.775413  79.9708  13.5481  3.080243
  9673.196  9673.200  0.500  1.771795  79.9909  13.6007  3.144371
  9673.511  9673.500  0.500  1.773655  79.9552  13.5693  3.192598
  9673.798  9673.800  0.500  1.780272  79.9325  13.476  3.220406
  9674.102  9674.100  0.500  1.791166  79.9552  13.3338  3.234132
  9674.405  9674.400  0.500  1.805128  79.9789  13.1528  3.233278
  9674.704  9674.700  0.500  1.819515  79.9562  12.9612  3.222765
  9675.011  9675.000  0.500  1.831221  79.936  12.8072  3.214828
  9675.303  9675.300  0.500  1.838376  79.8994  12.71  3.214805
  9675.598  9675.600  0.500  1.839389  79.8807  12.6942  3.230976
  9675.901  9675.900  0.500  1.834027  79.8645  12.7599  3.263834
  9676.200  9676.200  0.500  1.823480  79.8812  12.8979  3.312501
  9676.496  9676.500  0.500  1.810183  79.8375  13.0633  3.366688
  9676.791  9676.800  0.500  1.795946  79.8632  13.2549  3.424299
  9677.090  9677.100  0.500  1.782827  79.8532  13.4283  3.475389
  9677.394  9677.400  0.500  1.770988  79.9153  13.5988  3.523386
  9677.701  9677.700  0.500  1.761661  79.8618  13.717  3.554966
  9678.001  9678.000  0.500  1.754344  79.8423  13.8144  3.582249
  9678.304  9678.300  0.500  1.748207  79.7304  13.8799  3.599252
  9678.604  9678.600  0.500  1.742393  79.7879  13.9709  3.624685
  9678.911  9678.900  0.500  1.736419  79.77  14.0515  3.647351
  9679.203  9679.200  0.500  1.730714  79.7756  14.1329  3.673685
  9679.502  9679.500  0.500  1.725309  79.7661  14.2078  3.699163
  9679.802  9679.800  0.500  1.720930  79.7551  14.2682  3.724965
  9680.101  9680.100  0.500  1.717162  79.7379  14.3189  3.750475
  9680.405  9680.400  0.500  1.714673  79.7278  14.3528  3.774464
  9680.693  9680.700  0.500  1.712563  79.7166  14.3811  3.798060
  9680.996  9681.000  0.500  1.710405  79.7395  14.4163  3.827609
  9681.296  9681.300  0.500  1.706786  79.6939  14.4603  3.859628
  9681.596  9681.600  0.500  1.701865  79.6614  14.5257  3.898685
  9681.891  9681.900  0.500  1.694534  79.6251  14.6259  3.945968
  9682.203  9682.200  0.500  1.685016  79.649  14.7702  4.007762
  9682.507  9682.500  0.500  1.674563  79.6306  14.922  4.071602
  9682.807  9682.800  0.500  1.663516  79.6138  15.0846  4.135016
  9683.098  9683.100  0.500  1.653014  79.6071  15.2425  4.195127
  9683.402  9683.400  0.500  1.643139  79.5778  15.3881  4.251357
  9683.605  9683.600  0.500  1.637059  79.584  15.4832  4.287376
  9684.605  9684.590  0.500  1.612631  79.5282  15.8549  4.416310
  9685.590  9685.590  0.500  1.594882  79.4831  16.1297  4.502769
  9686.624  9686.610  0.500  1.587352  79.4922  16.2535  4.535177
  9687.682  9687.660  0.500  1.592442  79.4192  16.1561  4.489501
  9688.724  9688.720  0.500  1.598107  79.3782  16.0565  4.431518
  9689.807  9689.800  0.500  1.594762  79.3979  16.1143  4.404772
  9690.919  9690.900  0.500  1.588030  79.3863  16.2208  4.382935
  9692.043  9692.020  0.500  1.580949  79.2725  16.3127  4.352369
  9693.188  9693.160  0.500  1.575895  79.2401  16.3886  4.314303
  9694.320  9694.310  0.500  1.576945  79.2141  16.366  4.254114
  9695.506  9695.490  0.500  1.586404  79.1641  16.2017  4.160992
  9696.709  9696.680  0.500  1.601165  79.1103  15.9535  4.058812
  9697.919  9697.900  0.500  1.610382  79.068  15.7987  3.991848
  9699.139  9699.130  0.500  1.609522  79.0858  15.8158  3.980141
  9700.403  9700.380  0.500  1.603395  78.9993  15.8956  3.994666
  9701.668  9701.650  0.500  1.599943  78.9476  15.9402  4.017577
  9702.953  9702.940  0.500  1.597534  78.8986  15.9687  4.053510
  9704.267  9704.250  0.500  1.594936  78.8678  16.004  4.105285
  9705.598  9705.580  0.500  1.596025  78.8386  15.9806  4.138717
  9706.949  9706.930  0.500  1.601737  78.7769  15.8772  4.141349
  9708.309  9708.300  0.500  1.609027  78.6609  15.7386  4.125829
  9709.706  9709.680  0.500  1.615345  77.5916  15.4269  4.055605
  9711.104  9711.090  0.500  1.620746  78.7106  15.5651  4.088446
  9712.514  9712.510  0.500  1.625709  78.6906  15.4841  4.052569
  9713.969  9713.950  0.500  1.630336  78.6392  15.4026  4.010071
  9715.437  9715.410  0.500  1.634804  78.5961  15.3255  3.971771
  9716.898  9716.890  0.500  1.640730  78.5367  15.2234  3.937864
  9718.399  9718.390  0.500  1.646791  78.5127  15.1268  3.916153
  9719.926  9719.910  0.500  1.652399  78.4272  15.0258  3.897990
  9721.461  9721.450  0.500  1.660717  78.4575  14.9071  3.874094
  9723.013  9723.010  0.500  1.672623  78.3798  14.7161  3.827892
  9724.594  9724.580  0.500  1.684197  78.352  14.5416  3.785702
  9726.193  9726.180  0.500  1.687566  78.3267  14.488  3.771293
  9727.791  9727.790  0.500  1.683343  78.195  14.5249  3.774941
  9729.444  9729.430  0.500  1.678496  78.1626  14.5894  3.778730
  9731.088  9731.080  0.500  1.677368  78.1579  14.605  3.766820
  9732.750  9732.750  0.500  1.677728  78.0956  14.5881  3.740250
  9734.457  9734.440  0.500  1.677539  78.0713  14.5863  3.717240
  9736.165  9736.150  0.500  1.671800  78.0071  14.6582  3.713526
  9737.882  9737.880  0.500  1.656758  77.9863  14.8764  3.754286
  9739.648  9739.630  0.500  1.635918  77.9278  15.1783  3.822418
  9741.391  9741.390  0.500  1.615816  77.9111  15.4832  3.907376
  9743.187  9743.180  0.500  1.600255  77.8392  15.7115  3.986944
  9744.993  9744.980  0.500  1.589173  77.8237  15.8834  4.064801
  9746.824  9746.810  0.500  1.583464  77.7401  15.9572  4.125271
  9748.667  9748.650  0.500  1.581714  77.6947  15.9758  4.170308
  9750.532  9750.510  0.500  1.583809  77.6448  15.9321  4.192631
  9752.402  9752.390  0.500  1.587950  77.5906  15.8552  4.195622
  9754.310  9754.290  0.500  1.594768  77.5375  15.7367  4.183950
  9756.226  9756.210  0.500  1.603221  77.4797  15.5926  4.162166
  9758.160  9758.150  0.500  1.612296  77.3912  15.4341  4.137138
  9760.128  9760.110  0.500  1.619168  77.3248  15.3152  4.121548
  9762.092  9762.080  0.500  1.622777  77.2704  15.2493  4.114514
  9764.090  9764.080  0.500  1.623329  77.1911  15.2252  4.107497
  9766.109  9766.090  0.500  1.621903  77.1377  15.2364  4.097149
  9768.138  9768.120  0.500  1.619627  77.1105  15.2658  4.086815
  9770.200  9770.180  0.500  1.615509  77.0074  15.3083  4.075291
  9772.272  9772.250  0.500  1.609722  76.7912  15.3539  4.064439
  9774.357  9774.340  0.500  1.603326  76.3651  15.3666  4.044875
  9776.463  9776.450  0.500  1.597313  76.9672  15.5812  4.076545
  9778.624  9778.580  0.500  1.591327  76.9696  15.6753  4.070622
  9780.720  9780.720  0.500  1.586216  76.7803  15.7168  4.058089
  9782.912  9782.890  0.500  1.580148  76.2144  15.6959  4.037286
  9785.151  9785.080  0.500  1.575512  76.674  15.864  4.077916
  9787.332  9787.280  0.500  1.571877  76.6673  15.9204  4.098986
  9789.511  9789.500  0.500  1.571502  76.5906  15.9104  4.108017
  9791.736  9791.750  0.500  1.575656  75.7452  15.6695  4.056608
  9793.999  9794.010  0.500  1.582821  76.7825  15.7707  4.091728
  9796.267  9796.290  0.500  1.591419  76.7093  15.6208  4.060819
  9798.579  9798.590  0.500  1.600949  76.6048  15.4516  4.028708
  9800.907  9800.910  0.500  1.610530  76.397  15.2627  3.994008
  9803.246  9803.250  0.500  1.618679  75.9142  15.0432  3.956326
  9805.593  9805.600  0.500  1.622044  76.6017  15.1284  3.998572
  9807.980  9807.980  0.500  1.620150  76.5197  15.1409  4.023340
  9810.371  9810.370  0.500  1.614410  76.467  15.2175  4.067662
  9812.789  9812.790  0.500  1.606735  76.4154  15.3244  4.122457
  9815.212  9815.220  0.500  1.599413  76.3418  15.4222  4.174687
  9817.679  9817.670  0.500  1.592882  76.2652  15.5077  4.220331
  9820.154  9820.150  0.500  1.586913  75.8268  15.5108  4.237444
  9822.640  9822.640  0.500  1.580870  76.1416  15.6696  4.281969
  9825.143  9825.150  0.500  1.574387  76.0613  15.7549  4.290872
  9827.672  9827.670  0.500  1.568561  75.8378  15.8004  4.280994
  9830.208  9830.220  0.500  1.563855  75.8932  15.8865  4.283783
  9832.794  9832.790  0.500  1.560282  75.9109  15.9471  4.284894
  9835.361  9835.370  0.500  1.559921  75.3681  15.8388  4.248283
  9837.972  9837.980  0.500  1.563121  75.6736  15.8522  4.250711
  9840.600  9840.600  0.500  1.566708  75.7072  15.8024  4.238562
  9843.251  9843.250  0.500  1.567667  75.2103  15.6837  4.207367
  9845.904  9845.910  0.500  1.565304  75.5935  15.8009  4.235310
  9848.595  9848.590  0.500  1.561288  75.5289  15.8509  4.245305
  9851.288  9851.290  0.500  1.556936  75.482  15.9102  4.258595
  9854.016  9854.010  0.500  1.554594  75.3963  15.9294  4.259826
  9856.754  9856.750  0.500  1.555404  75.333  15.9031  4.248643
  9859.507  9859.500  0.500  1.557822  75.2526  15.8478  4.234292
  9862.277  9862.280  0.500  1.559796  75.1221  15.7891  4.220179
  9865.079  9865.070  0.500  1.561012  75.1062  15.7666  4.219306
  9867.891  9867.890  0.500  1.560812  75.0613  15.7603  4.226168
  9870.717  9870.720  0.500  1.558031  74.931  15.7768  4.244038
  9873.574  9873.570  0.500  1.552664  74.916  15.8585  4.284517
  9876.462  9876.450  0.500  1.546337  74.8714  15.9496  4.333058
  9879.348  9879.340  0.500  1.540782  74.6665  15.9946  4.368904
  9882.248  9882.250  0.500  1.537029  73.4483  15.7928  4.336830
  9885.180  9885.170  0.500  1.533638  74.6463  16.1049  4.444648
  9888.126  9888.120  0.500  1.530593  74.5688  16.1372  4.470904
  9891.099  9891.090  0.500  1.528854  74.4883  16.1479  4.486122
  9894.083  9894.070  0.500  1.529588  74.433  16.124  4.487414
  9897.085  9897.080  0.500  1.532290  74.3799  16.0691  4.473375
  9900.119  9900.100  0.500  1.535067  74.3158  16.0107  4.454830
  9903.146  9903.150  0.500  1.536374  74.2049  15.9659  4.437201
  9906.214  9906.210  0.500  1.535967  74.1426  15.959  4.429671
  9909.296  9909.290  0.500  1.534123  74.0405  15.9664  4.427984
  9912.392  9912.390  0.500  1.531731  73.9772  15.991  4.433665
  9915.512  9915.510  0.500  1.529148  73.8639  16.0078  4.438269
  9918.656  9918.650  0.500  1.526217  73.6939  16.0178  4.441111
  9921.818  9921.800  0.500  1.523366  73.6519  16.0544  4.453003
  9924.986  9924.980  0.500  1.521281  73.583  16.0729  4.461732
  9928.191  9928.170  0.500  1.520371  73.4812  16.0652  4.460985
  9931.407  9931.390  0.500  1.519668  72.2528  15.8078  4.391954
  9934.646  9934.620  0.500  1.518551  73.552  16.11  4.480106
  9937.878  9937.870  0.500  1.515987  73.4963  16.1391  4.492115
  9941.168  9941.150  0.500  1.511991  73.3839  16.179  4.508858
  9944.452  9944.440  0.500  1.507157  73.3344  16.2464  4.534581
  9947.777  9947.750  0.500  1.501966  73.2217  16.3059  4.559108
  9951.087  9951.070  0.500  1.498036  73.1147  16.3462  4.579059
  9954.446  9954.420  0.500  1.495145  71.8875  16.1183  4.525142
  9957.795  9957.790  0.500  1.493155  72.7857  16.3522  4.605357
  9961.193  9961.170  0.500  1.492325  72.7559  16.3591  4.621096
  9964.598  9964.580  0.500  1.491701  72.6454  16.3445  4.633098
  9968.018  9968.000  0.500  1.491081  70.6989  15.9164  4.528380
  9971.462  9971.450  0.500  1.489731  72.5229  16.3491  4.663047
  9974.925  9974.910  0.500  1.488307  72.4663  16.3596  4.675151
  9978.400  9978.390  0.500  1.487033  72.3981  16.365  4.684537
  9981.924  9981.890  0.500  1.485845  72.1111  16.3195  4.677496
  9985.426  9985.410  0.500  1.484671  71.9362  16.2991  4.677220
  9988.968  9988.950  0.500  1.483321  72.0673  16.3508  4.699210
  9992.518  9992.500  0.500  1.481112  71.9819  16.3676  4.710106
  9996.087  9996.080  0.500  1.477725  71.8337  16.3893  4.719693
  9999.702  9999.680  0.500  1.473863  71.0438  16.2718  4.689677
  10003.325  10003.290  0.500  1.469645  71.6839  16.4878  4.754722
  10006.945  10006.920  0.500  1.466021  71.622  16.5334  4.772103
  10010.612  10010.580  0.500  1.463936  71.6055  16.5641  4.786202
  10014.268  10014.250  0.500  1.463025  69.9236  16.1898  4.681464
  10017.966  10017.940  0.500  1.462467  71.2507  16.5062  4.776479
  10021.667  10021.650  0.500  1.461292  71.2007  16.514  4.782466
  10025.405  10025.380  0.500  1.459332  71.1055  16.5243  4.790792
  10029.151  10029.120  0.500  1.456982  70.9731  16.5324  4.798160
  10032.917  10032.890  0.500  1.454863  70.7416  16.5134  4.797949
  10036.703  10036.680  0.500  1.453118  69.9918  16.3669  4.762187
  10040.514  10040.480  0.500  1.451386  70.7845  16.5809  4.833752
  10044.341  10044.310  0.500  1.449259  70.6599  16.587  4.845480
  10048.163  10048.150  0.500  1.446813  70.5505  16.6019  4.861066
  10052.031  10052.010  0.500  1.444763  70.5022  16.6245  4.879985
  10055.906  10055.890  0.500  1.443155  70.4639  16.6423  4.897693
  10059.828  10059.790  0.500  1.441630  70.307  16.6305  4.905156
  10063.728  10063.710  0.500  1.440033  70.1905  16.6295  4.915841
  10067.682  10067.650  0.500  1.437549  70.1002  16.6494  4.930316
  10071.623  10071.610  0.500  1.434799  69.9356  16.6561  4.939819
  10075.601  10075.580  0.500  1.431819  69.8538  16.6863  4.956381
  10079.597  10079.580  0.500  1.428959  69.7174  16.7014  4.968710
  10083.599  10083.590  0.500  1.425911  69.5562  16.7136  4.981844
  10087.645  10087.630  0.500  1.422741  68.5012  16.5124  4.929098
  10091.681  10091.680  0.500  1.420040  69.4744  16.7923  5.020635
  10095.764  10095.750  0.500  1.417574  69.3988  16.8154  5.035327
  10099.863  10099.840  0.500  1.415532  69.3049  16.827  5.046390
  10103.958  10103.950  0.500  1.413525  69.2024  16.8358  5.056873
  10108.086  10108.080  0.500  1.411307  69.055  16.8373  5.062435
  10112.236  10112.230  0.500  1.409140  68.8973  16.8353  5.068735
  10116.407  10116.390  0.500  1.406683  68.7975  16.8523  5.079972
  10120.590  10120.580  0.500  1.404349  68.7112  16.8705  5.091253
  10124.795  10124.780  0.500  1.402630  68.6312  16.8798  5.100515
  10129.030  10129.010  0.500  1.400859  68.5137  16.8808  5.107219
  10133.264  10133.250  0.500  1.398832  68.3855  16.8834  5.115583
  10137.524  10137.510  0.500  1.396966  68.2747  16.8875  5.123771
  10141.809  10141.790  0.500  1.394745  68.1777  16.901  5.135335
  10146.099  10146.090  0.500  1.392091  68.1139  16.9301  5.153493
  10150.419  10150.410  0.500  1.389370  68.0363  16.9568  5.170487
  10154.765  10154.750  0.500  1.386539  67.8801  16.9659  5.183649
  10159.133  10159.110  0.500  1.383958  67.8124  16.9928  5.202159
  10163.509  10163.490  0.500  1.381568  67.7215  17.0106  5.217238
  10167.897  10167.880  0.500  1.379226  67.5981  17.0194  5.229361
  10172.326  10172.300  0.500  1.377200  67.5054  17.0305  5.242689
  10176.740  10176.730  0.500  1.375218  67.3846  17.0338  5.252350
  10181.195  10181.180  0.500  1.373024  67.2096  17.0269  5.260019
  10185.662  10185.650  0.500  1.370780  67.1221  17.0429  5.274226
  10190.165  10190.140  0.500  1.368135  66.9935  17.0553  5.286216
  10194.671  10194.650  0.500  1.365484  66.6413  17.0107  5.282942
  10199.205  10199.180  0.500  1.362837  66.7789  17.091  5.314808
  10203.751  10203.730  0.500  1.360387  66.6795  17.1074  5.329968
  10208.320  10208.300  0.500  1.358150  66.5383  17.1094  5.338539
  10212.906  10212.880  0.500  1.355960  66.4434  17.1224  5.351491
  10217.510  10217.490  0.500  1.354073  66.3402  17.1281  5.362048
  10222.137  10222.110  0.500  1.352012  66.2116  17.1302  5.371081
  10226.768  10226.760  0.500  1.349678  66.0926  17.1394  5.381531
  10231.439  10231.420  0.500  1.347218  65.9994  17.1574  5.394948
  10236.115  10236.100  0.500  1.344864  65.875  17.1654  5.405606
  10240.817  10240.800  0.500  1.342047  65.7465  17.1802  5.418401
  10245.547  10245.520  0.500  1.339123  65.6503  17.2053  5.434175
  10250.277  10250.260  0.500  1.336485  65.4925  17.2093  5.444338
  10255.034  10255.010  0.500  1.333708  65.3843  17.2287  5.459405
  10259.809  10259.790  0.500  1.331153  65.3184  17.2553  5.475689
  10264.607  10264.590  0.500  1.328549  65.1918  17.2668  5.489479
  10269.423  10269.400  0.500  1.326011  65.0674  17.2776  5.501761
  10274.249  10274.230  0.500  1.323320  64.9102  17.2823  5.513200
  10279.120  10279.090  0.500  1.320886  64.7883  17.2919  5.526205
  10283.982  10283.960  0.500  1.318541  64.6824  17.3042  5.538096
  10288.872  10288.850  0.500  1.316133  64.5613  17.3134  5.550005
  10293.785  10293.760  0.500  1.313836  64.4285  17.3175  5.562204
  10298.726  10298.690  0.500  1.311440  64.3624  17.3413  5.580420
  10303.662  10303.630  0.500  1.308900  64.221  17.3472  5.590619
  10308.626  10308.600  0.500  1.306544  64.1006  17.3555  5.603763
  10313.618  10313.590  0.500  1.304102  64.022  17.3766  5.619313
  10318.633  10318.590  0.500  1.301441  64.053  17.4313  5.645957
  10323.649  10323.620  0.500  1.298999  63.9639  17.4497  5.661468
  10328.693  10328.660  0.500  1.296546  63.8236  17.4542  5.672534
  10333.751  10333.720  0.500  1.294085  63.6823  17.4584  5.684049
  10338.814  10338.800  0.500  1.291706  63.5542  17.4648  5.695483
  10343.943  10343.900  0.500  1.289240  63.44  17.4765  5.708277
  10349.054  10349.020  0.500  1.286679  63.3246  17.4894  5.721987
  10354.188  10354.160  0.500  1.284131  63.1958  17.4984  5.733459
  10359.360  10359.320  0.500  1.281529  63.0747  17.5103  5.747509
  10364.523  10364.500  0.500  1.278821  63.0002  17.5371  5.764787
  10369.719  10369.690  0.500  1.276158  62.815  17.5322  5.771803
  10374.945  10374.910  0.500  1.273694  62.6691  17.5346  5.781576
  10380.161  10380.140  0.500  1.271122  62.5435  17.5445  5.794918
  10385.420  10385.390  0.500  1.268677  62.4325  17.5562  5.809174
  10390.694  10390.660  0.500  1.265996  62.3282  17.574  5.825278
  10395.974  10395.950  0.500  1.263483  62.1376  17.5643  5.830761
  10401.296  10401.260  0.500  1.260923  62.0575  17.5866  5.849170
  10406.615  10406.590  0.500  1.258582  61.9043  17.5843  5.856833
  10411.962  10411.940  0.500  1.256090  61.7959  17.5973  5.871229
  10417.330  10417.310  0.500  1.253394  61.6335  17.5985  5.881476
  10422.707  10422.690  0.500  1.250800  61.4781  17.5997  5.892507
  10428.128  10428.100  0.500  1.247966  61.3245  17.6055  5.904982
  10433.550  10433.520  0.500  1.245330  61.2481  17.63  5.922550
  10438.992  10438.970  0.500  1.242660  61.1149  17.6387  5.935578
  10444.459  10444.430  0.500  1.239952  60.987  17.6495  5.949625
  10449.941  10449.910  0.500  1.237382  60.8827  17.6647  5.963665
  10455.429  10455.410  0.500  1.234743  60.7013  17.6586  5.973296
  10460.960  10460.930  0.500  1.232021  60.5898  17.6742  5.987942
  10466.493  10466.470  0.500  1.229589  60.4533  17.6773  5.999090
  10472.042  10472.020  0.500  1.227027  60.3485  17.6919  6.014352
  10477.634  10477.600  0.500  1.224373  60.2233  17.7022  6.028666
  10483.223  10483.200  0.500  1.221528  60.0979  17.7156  6.041697
  10488.827  10488.810  0.500  1.218990  59.9553  17.7185  6.053534
  10494.486  10494.450  0.500  1.216471  59.855  17.7335  6.068595
  10500.122  10500.100  0.500  1.213746  59.6895  17.7327  6.077297
  10505.783  10505.770  0.500  1.211254  59.567  17.7405  6.089773
  10511.489  10511.460  0.500  1.208511  59.3984  17.7388  6.100441