File: xdidata/Data/Zr/Zr-K-LithiumZirconate.xdi
# XDI/1.0 BlueSky/1.10.0 BMM/2023-1.0-py310-tiled
# Beamline.name: BMM (06BM) -- Beamline for Materials Measurement (NIST)
# Beamline.xray_source: NSLS-II three-pole wiggler
# Beamline.collimation: paraboloid mirror, 5 nm Rh on 30 nm Pt
# Beamline.focusing: not in use
# Beamline.harmonic_rejection: flat mirror, Pt stripe, pitch = 7.0 mrad relative to beam
# Beamline.software: Bluesky 1.10.0, Ophyd 1.7.0, DataBroker 2.0.0b13, Python 3.10.8, 2023-1.0-py310-tiled
# Detector.I0: 10 cm N2
# Detector.I1: 25 cm N2
# Detector.I2: 25 cm N2
# Element.symbol: Zr
# Element.edge: K
# Element.reference: Zr
# Element.reference_material: Zr foil
# Facility.name: NSLS-II
# Facility.energy: 3.0
# Facility.current: 400.7
# Facility.mode: top-off
# Facility.GUP: 301027
# Facility.SAF: 310583
# Facility.cycle: 2023-2
# Mono.name: Si(111)
# Mono.d_spacing: 3.13519
# Mono.encoder_resolution: 0.0000050 deg/ct
# Mono.angle_offset: 16.0754 deg
# Mono.scan_mode: pseudo channel cut
# Mono.scan_type: step
# Mono.direction: forward in energy
# Sample.name: Li2ZrO3
# Sample.prep: powder in BN pellet
# Sample.x: 117.785 mm
# Sample.y: 114.695 mm
# Sample.SDD_position: 205.000 mm
# Scan.experimenters: Bruce Ravel
# Scan.edge_energy: 17997.6
# Scan.start_time: 2023-06-23T19:56:48
# Scan.end_time: 2023-06-23T20:04:44
# Scan.transient_id: 84989
# Scan.uid: ef646e9b-705e-44d3-a3f7-bd6585b6fa45
# Scan.plot_hint: ln(I0/It)  --  ln($5/$6)
# Column.1: energy eV
# Column.2: requested_energy eV
# Column.3: measurement_time seconds
# Column.4: xmu
# Column.5: I0 nA
# Column.6: It nA
# Column.7: Ir nA
# ///////////
# BMM standards collection
# -----------
# energy  requested_energy  measurement_time  xmu  I0  It  Ir
  17797.442  17797.600  0.500  0.553422  13.4673  7.743433  5.831738
  17807.673  17807.600  0.500  0.551956  13.4152  7.724793  5.821530
  17817.665  17817.600  0.500  0.550364  13.3624  7.706647  5.807230
  17827.696  17827.600  0.500  0.548946  13.3301  7.698897  5.805433
  17837.683  17837.600  0.500  0.547842  13.2917  7.685197  5.795769
  17847.710  17847.600  0.500  0.546662  13.2467  7.668259  5.786579
  17857.733  17857.600  0.500  0.545890  13.2149  7.655738  5.778128
  17867.656  17867.600  0.500  0.544968  13.1685  7.635903  5.765869
  17877.702  17877.600  0.500  0.544300  13.1216  7.613796  5.747749
  17887.689  17887.600  0.500  0.543711  13.0754  7.591453  5.730570
  17897.716  17897.600  0.500  0.543734  13.0596  7.582087  5.723783
  17907.712  17907.600  0.500  0.544208  13.0162  7.553306  5.702090
  17917.719  17917.600  0.500  0.545116  12.9714  7.520502  5.676860
  17927.709  17927.600  0.500  0.547104  12.9183  7.474838  5.639964
  17937.682  17937.600  0.500  0.550028  12.8836  7.432964  5.604671
  17947.723  17947.600  0.500  0.554985  12.8532  7.378757  5.555537
  17957.704  17957.600  0.500  0.562780  12.8123  7.298177  5.483007
  17967.739  17967.600  0.500  0.575451  12.7268  7.158191  5.359369
  17969.467  17969.600  0.500  0.578706  12.6953  7.117276  5.325305
  17971.464  17971.600  0.500  0.583016  12.7299  7.106007  5.309882
  17973.476  17973.600  0.500  0.587563  12.7417  7.080319  5.284621
  17975.517  17975.600  0.500  0.592824  12.7426  7.043625  5.249502
  17977.502  17977.600  0.500  0.598167  12.7303  6.999365  5.206290
  17979.473  17979.600  0.500  0.604544  12.7114  6.944515  5.153566
  17981.501  17981.600  0.500  0.612204  12.7066  6.888940  5.099415
  17983.515  17983.600  0.500  0.621876  12.6996  6.818879  5.029772
  17985.473  17985.600  0.500  0.632764  12.6974  6.743847  4.954588
  17987.516  17987.600  0.500  0.646232  12.6964  6.653124  4.860492
  17987.786  17987.900  0.500  0.648178  12.6802  6.631737  4.839556
  17988.113  17988.200  0.500  0.650770  12.6885  6.618869  4.825248
  17988.397  17988.500  0.500  0.653077  12.6866  6.602621  4.809022
  17988.695  17988.800  0.500  0.655155  12.6828  6.586947  4.790911
  17988.993  17989.100  0.500  0.657725  12.6759  6.566485  4.772360
  17989.319  17989.400  0.500  0.660676  12.6816  6.550065  4.751374
  17989.617  17989.700  0.500  0.662910  12.6823  6.535798  4.737017
  17989.901  17990.000  0.500  0.666038  12.6795  6.513984  4.715378
  17990.185  17990.300  0.500  0.668546  12.6743  6.494957  4.692876
  17990.498  17990.600  0.500  0.671751  12.675  6.474570  4.672360
  17990.796  17990.900  0.500  0.674704  12.675  6.455463  4.651142
  17991.094  17991.200  0.500  0.677602  12.6531  6.425640  4.622092
  17991.406  17991.500  0.500  0.680975  12.6714  6.413271  4.603251
  17991.719  17991.800  0.500  0.685012  12.6777  6.390608  4.577356
  17992.003  17992.100  0.500  0.687988  12.6711  6.368306  4.551165
  17992.301  17992.400  0.500  0.692133  12.6647  6.338764  4.522239
  17992.642  17992.700  0.500  0.696240  12.6597  6.310304  4.488883
  17992.940  17993.000  0.500  0.700200  12.6635  6.287249  4.459794
  17993.224  17993.300  0.500  0.704271  12.6639  6.261909  4.430352
  17993.551  17993.600  0.500  0.709303  12.6504  6.223836  4.388216
  17993.863  17993.900  0.500  0.714439  12.6521  6.192775  4.351418
  17994.133  17994.200  0.500  0.718983  12.6628  6.169912  4.317879
  17994.445  17994.500  0.500  0.724397  12.6596  6.135036  4.273910
  17994.758  17994.800  0.500  0.730261  12.6556  6.097236  4.227857
  17995.056  17995.100  0.500  0.736033  12.6579  6.063255  4.181551
  17995.355  17995.400  0.500  0.742073  12.6375  6.017027  4.127422
  17995.667  17995.700  0.500  0.749105  12.6496  5.980602  4.071198
  17995.994  17996.000  0.500  0.756763  12.645  5.932805  4.006736
  17996.278  17996.300  0.500  0.763754  12.6538  5.895601  3.949172
  17996.562  17996.600  0.500  0.771459  12.6484  5.847826  3.879856
  17996.889  17996.900  0.500  0.780780  12.6476  5.793234  3.799211
  17997.173  17997.200  0.500  0.789714  12.6391  5.737814  3.717936
  17997.457  17997.500  0.500  0.799312  12.644  5.685218  3.634210
  17997.784  17997.800  0.500  0.811754  12.6441  5.614973  3.524335
  17998.097  17998.100  0.500  0.824538  12.647  5.544913  3.418906
  17998.381  17998.400  0.500  0.835894  12.6387  5.478727  3.316960
  17998.679  17998.700  0.500  0.850789  12.633  5.395253  3.195511
  17999.006  17999.000  0.500  0.867639  12.6311  5.304324  3.068689
  17999.276  17999.300  0.500  0.883506  12.6318  5.221138  2.956145
  17999.575  17999.600  0.500  0.904545  12.6405  5.115939  2.817566
  17999.901  17999.900  0.500  0.928291  12.6314  4.992271  2.675729
  18000.186  18000.200  0.500  0.950913  12.6304  4.880226  2.555372
  18000.456  18000.500  0.500  0.975493  12.6269  4.760406  2.437441
  18000.768  18000.800  0.500  1.006141  12.6263  4.616514  2.306469
  18001.081  18001.100  0.500  1.038976  12.6203  4.465290  2.183582
  18001.365  18001.400  0.500  1.070961  12.625  4.326330  2.079495
  18001.650  18001.700  0.500  1.105880  12.6178  4.175470  1.975010
  18001.963  18002.000  0.500  1.147352  12.6132  4.004392  1.866030
  18002.261  18002.300  0.500  1.188268  12.6175  3.845173  1.770642
  18002.560  18002.600  0.500  1.228229  12.6221  3.695880  1.687514
  18002.844  18002.900  0.500  1.271266  12.6134  3.537750  1.603158
  18003.171  18003.200  0.500  1.316922  12.6192  3.381418  1.521998
  18003.470  18003.500  0.500  1.360869  12.6179  3.235717  1.447423
  18003.740  18003.800  0.500  1.404111  12.6189  3.099023  1.379257
  18004.081  18004.100  0.500  1.452115  12.6218  2.954445  1.304189
  18004.380  18004.400  0.500  1.498717  12.6133  2.818014  1.234325
  18004.678  18004.700  0.500  1.542665  12.6096  2.696065  1.171615
  18004.963  18005.000  0.500  1.585515  12.6149  2.584060  1.112856
  18005.261  18005.300  0.500  1.631654  12.616  2.467766  1.050386
  18005.574  18005.600  0.500  1.677946  12.6213  2.357111  0.990329
  18005.873  18005.900  0.500  1.720076  12.6207  2.259772  0.937344
  18006.157  18006.200  0.500  1.765747  12.6123  2.157441  0.882222
  18006.484  18006.500  0.500  1.816481  12.6134  2.050903  0.823762
  18006.797  18006.800  0.500  1.867675  12.6047  1.947204  0.768181
  18007.082  18007.100  0.500  1.916118  12.6158  1.856764  0.719056
  18007.395  18007.400  0.500  1.965964  12.6126  1.766020  0.670145
  18007.722  18007.700  0.500  2.020705  12.6085  1.671403  0.620576
  18008.006  18008.000  0.500  2.075203  12.6027  1.582028  0.574754
  18008.277  18008.300  0.500  2.125511  12.6122  1.505543  0.535576
  18008.590  18008.600  0.500  2.187130  12.6037  1.414615  0.490413
  18008.903  18008.900  0.500  2.251548  12.5999  1.325966  0.447789
  18009.201  18009.200  0.500  2.309662  12.5959  1.250707  0.412580
  18009.500  18009.500  0.500  2.372916  12.5959  1.174042  0.377908
  18009.799  18009.800  0.500  2.440737  12.5983  1.097270  0.344338
  18010.098  18010.100  0.500  2.513103  12.5994  1.020756  0.311293
  18010.397  18010.400  0.500  2.588529  12.6001  0.946650  0.281399
  18010.695  18010.700  0.500  2.664293  12.5829  0.876379  0.253909
  18011.023  18011.000  0.500  2.752746  12.5937  0.802881  0.226366
  18011.307  18011.300  0.500  2.834546  12.5904  0.739627  0.203643
  18011.592  18011.600  0.500  2.918063  12.5824  0.679931  0.183315
  18011.877  18011.900  0.500  3.015814  12.5806  0.616524  0.162365
  18012.204  18012.200  0.500  3.118669  12.5686  0.555734  0.143130
  18012.474  18012.500  0.500  3.213924  12.5692  0.505265  0.127553
  18012.773  18012.800  0.500  3.316074  12.5696  0.456213  0.112932
  18013.072  18013.100  0.500  3.437525  12.5674  0.403969  0.098198
  18013.385  18013.400  0.500  3.556735  12.5639  0.358471  0.085438
  18013.670  18013.700  0.500  3.677919  12.5635  0.317548  0.074738
  18013.955  18014.000  0.500  3.801372  12.556  0.280501  0.064995
  18014.268  18014.300  0.500  3.936957  12.5545  0.244907  0.055710
  18014.567  18014.600  0.500  4.068148  12.5457  0.214646  0.048406
  18014.866  18014.900  0.500  4.204264  12.5445  0.187311  0.041551
  18015.165  18015.200  0.500  4.340353  12.5378  0.163392  0.035940
  18015.478  18015.500  0.500  4.495503  12.5346  0.139874  0.030430
  18015.777  18015.800  0.500  4.627644  12.5289  0.122505  0.026487
  18016.062  18016.100  0.500  4.761144  12.5222  0.107138  0.022923
  18016.361  18016.400  0.500  4.899881  12.5204  0.093245  0.019671
  18016.688  18016.700  0.500  5.039810  12.5191  0.081061  0.016801
  18016.959  18017.000  0.500  5.159709  12.5151  0.071879  0.014945
  18017.258  18017.300  0.500  5.282949  12.5086  0.063511  0.012951
  18017.614  18017.600  0.500  5.418588  12.4978  0.055408  0.011290
  18017.770  18017.900  0.500  5.469578  12.5097  0.052703  0.010636
  18018.084  18018.200  0.500  5.583812  12.4799  0.046902  0.009217
  18018.625  18018.500  0.500  5.780951  12.485  0.038526  0.007347
  18018.668  18018.800  0.500  5.788710  12.4849  0.038228  0.007435
  18018.924  18019.100  0.500  5.870511  12.4883  0.035235  0.006627
  18019.266  18019.400  0.500  5.958511  12.4841  0.032256  0.005961
  18019.565  18019.700  0.500  6.039817  12.4747  0.029715  0.005266
  18019.864  18020.000  0.500  6.114742  12.4746  0.027569  0.004950
  18020.163  18020.300  0.500  6.178270  12.4775  0.025878  0.004461
  18020.462  18020.600  0.500  6.237507  12.4726  0.024380  0.004127
  18020.776  18020.900  0.500  6.293095  12.4712  0.023060  0.003907
  18021.089  18021.200  0.500  6.339939  12.4741  0.022010  0.003503
  18021.417  18021.500  0.500  6.376865  12.4656  0.021197  0.003411
  18021.730  18021.800  0.500  6.408509  12.4624  0.020532  0.003326
  18022.001  18022.100  0.500  6.434146  12.4609  0.020009  0.003152
  18022.329  18022.400  0.500  6.456200  12.4629  0.019576  0.002986
  18022.514  18022.600  0.500  6.462947  12.462  0.019443  0.003049
  18023.526  18023.590  0.500  6.485995  12.4556  0.018990  0.002762
  18024.552  18024.590  0.500  6.480296  12.4473  0.019086  0.002917
  18025.578  18025.610  0.500  6.421024  12.4451  0.020248  0.003131
  18026.647  18026.660  0.500  6.368052  12.4416  0.021344  0.003327
  18027.702  18027.720  0.500  6.289381  12.4406  0.023089  0.003834
  18028.800  18028.800  0.500  6.224706  12.4215  0.024593  0.004046
  18029.855  18029.900  0.500  6.153739  12.4213  0.026402  0.004353
  18031.039  18031.020  0.500  6.086178  12.4201  0.028244  0.004659
  18032.137  18032.160  0.500  6.014150  12.4114  0.030332  0.005212
  18033.321  18033.310  0.500  5.924754  12.4108  0.033167  0.005799
  18034.477  18034.490  0.500  5.820110  12.3948  0.036779  0.006607
  18035.690  18035.680  0.500  5.703149  12.395  0.041343  0.007896
  18036.903  18036.900  0.500  5.582944  12.3861  0.046590  0.009342
  18038.159  18038.130  0.500  5.470075  12.3899  0.052173  0.010828
  18039.358  18039.380  0.500  5.377273  12.3869  0.057233  0.012109
  18040.642  18040.650  0.500  5.295052  12.3672  0.062038  0.013516
  18041.913  18041.940  0.500  5.233895  12.3266  0.065734  0.014344
  18043.227  18043.250  0.500  5.181649  12.3011  0.069117  0.015328
  18044.513  18044.580  0.500  5.136724  12.3313  0.072470  0.015962
  18045.955  18045.930  0.500  5.094985  12.3506  0.075677  0.016986
  18047.241  18047.300  0.500  5.052588  12.3593  0.079010  0.017813
  18048.656  18048.680  0.500  5.003482  12.3491  0.082918  0.018865
  18050.056  18050.090  0.500  4.955704  12.345  0.086948  0.020056
  18051.514  18051.510  0.500  4.920554  12.3455  0.090061  0.020800
  18052.944  18052.950  0.500  4.904345  12.3246  0.091378  0.021077
  18054.417  18054.410  0.500  4.894475  12.3183  0.092237  0.021012
  18055.904  18055.890  0.500  4.890854  12.3217  0.092598  0.020832
  18057.377  18057.390  0.500  4.893558  12.3152  0.092299  0.020530
  18058.936  18058.910  0.500  4.903187  12.3085  0.091365  0.020090
  18060.496  18060.450  0.500  4.920772  12.3024  0.089728  0.019547
  18062.013  18062.010  0.500  4.945541  12.2864  0.087419  0.018883
  18063.630  18063.580  0.500  4.977313  12.2935  0.084734  0.018160
  18065.176  18065.180  0.500  5.019725  12.2832  0.081147  0.017516
  18066.823  18066.790  0.500  5.070553  12.2782  0.077094  0.016621
  18068.441  18068.430  0.500  5.136025  12.2722  0.072173  0.015662
  18070.060  18070.080  0.500  5.210903  12.2768  0.066992  0.014662
  18071.764  18071.750  0.500  5.295787  12.263  0.061470  0.013484
  18073.412  18073.440  0.500  5.380983  12.2583  0.056429  0.012169
  18075.146  18075.150  0.500  5.448501  12.2523  0.052718  0.011276
  18076.866  18076.880  0.500  5.511487  12.2422  0.049460  0.010533
  18078.644  18078.630  0.500  5.558338  12.2281  0.047142  0.009997
  18080.393  18080.390  0.500  5.588008  12.2092  0.045693  0.009678
  18082.201  18082.180  0.500  5.606648  12.2112  0.044856  0.009695
  18084.022  18083.980  0.500  5.602905  12.1939  0.044961  0.009534
  18085.859  18085.810  0.500  5.575775  12.198  0.046213  0.009762
  18087.667  18087.650  0.500  5.535878  12.188  0.048054  0.010075
  18089.548  18089.510  0.500  5.491264  12.1496  0.050088  0.010679
  18091.428  18091.390  0.500  5.437865  12.1069  0.052650  0.011110
  18093.310  18093.290  0.500  5.393219  12.1422  0.055214  0.011736
  18095.205  18095.210  0.500  5.343989  12.1744  0.058155  0.012515
  18097.145  18097.150  0.500  5.307784  12.1728  0.060291  0.012876
  18099.113  18099.110  0.500  5.279988  12.1565  0.061907  0.013482
  18101.097  18101.080  0.500  5.246688  12.1593  0.064018  0.013955
  18103.081  18103.080  0.500  5.215578  12.143  0.065952  0.014504
  18105.094  18105.090  0.500  5.183698  12.1382  0.068062  0.015112
  18107.107  18107.120  0.500  5.164672  12.0966  0.069131  0.015790
  18109.222  18109.180  0.500  5.146165  12.0899  0.070383  0.016154
  18111.308  18111.250  0.500  5.139064  12.1059  0.070979  0.016397
  18113.395  18113.340  0.500  5.132751  12.1039  0.071417  0.016525
  18115.468  18115.450  0.500  5.131481  12.0836  0.071388  0.016411
  18117.599  18117.580  0.500  5.126712  12.0837  0.071729  0.016491
  18119.730  18119.720  0.500  5.117528  12.053  0.072207  0.016540
  18121.935  18121.890  0.500  5.111018  11.9926  0.072315  0.016583
  18124.081  18124.080  0.500  5.093535  12.0125  0.073712  0.016755
  18126.301  18126.280  0.500  5.078455  12.0619  0.075140  0.017148
  18128.478  18128.500  0.500  5.065819  12.0395  0.075954  0.017194
  18130.756  18130.750  0.500  5.058111  12.0476  0.076593  0.017388
  18132.992  18133.010  0.500  5.048273  12.036  0.077276  0.017559
  18135.300  18135.290  0.500  5.048286  11.9976  0.077028  0.017498
  18137.609  18137.590  0.500  5.053460  12.0029  0.076665  0.017528
  18139.904  18139.910  0.500  5.066314  12.0023  0.075682  0.017071
  18142.257  18142.250  0.500  5.084735  11.9951  0.074256  0.016852
  18144.626  18144.600  0.500  5.109629  11.9749  0.072308  0.016619
  18147.009  18146.980  0.500  5.129782  11.9685  0.070828  0.016141
  18149.393  18149.370  0.500  5.152292  11.9493  0.069140  0.015817
  18151.807  18151.790  0.500  5.176274  11.9205  0.067339  0.015501
  18154.192  18154.220  0.500  5.200193  11.9479  0.065899  0.015246
  18156.651  18156.670  0.500  5.221298  11.9436  0.064499  0.015098
  18159.124  18159.150  0.500  5.234996  11.9194  0.063493  0.014917
  18161.671  18161.640  0.500  5.238651  11.9283  0.063308  0.014931
  18164.175  18164.150  0.500  5.228000  11.9152  0.063916  0.015011
  18166.665  18166.670  0.500  5.212420  11.8992  0.064833  0.015271
  18169.242  18169.220  0.500  5.188812  11.8846  0.066300  0.015461
  18171.821  18171.790  0.500  5.169485  11.8857  0.067600  0.015987
  18174.356  18174.370  0.500  5.139929  11.8694  0.069532  0.016292
  18176.965  18176.980  0.500  5.109630  11.8636  0.071636  0.016829
  18179.604  18179.600  0.500  5.085506  11.8501  0.073302  0.017117
  18182.229  18182.250  0.500  5.068355  11.8277  0.074429  0.017313
  18184.956  18184.910  0.500  5.055393  11.8336  0.075437  0.017539
  18187.626  18187.590  0.500  5.044487  11.8115  0.076123  0.017783
  18190.354  18190.290  0.500  5.037020  11.8076  0.076667  0.017858
  18192.997  18193.010  0.500  5.027915  11.7968  0.077298  0.017862
  18195.756  18195.750  0.500  5.028316  11.7764  0.077133  0.018100
  18198.487  18198.500  0.500  5.028137  11.7713  0.077114  0.018186
  18201.278  18201.280  0.500  5.033371  11.7652  0.076671  0.018148
  18204.069  18204.070  0.500  5.039892  11.7582  0.076128  0.018070
  18206.904  18206.890  0.500  5.047048  11.7336  0.075427  0.018028
  18209.770  18209.720  0.500  5.053819  11.7383  0.074948  0.017762
  18212.578  18212.570  0.500  5.064474  11.7248  0.074068  0.017837
  18215.445  18215.450  0.500  5.069022  11.7125  0.073655  0.017670
  18218.328  18218.340  0.500  5.069738  11.7075  0.073570  0.017787
  18221.241  18221.250  0.500  5.058280  11.6449  0.074020  0.017922
  18224.213  18224.170  0.500  5.045587  11.6635  0.075086  0.018350
  18227.142  18227.120  0.500  5.027141  11.6675  0.076510  0.018673
  18230.116  18230.090  0.500  5.018418  11.6544  0.077094  0.018681
  18233.091  18233.070  0.500  5.012182  11.6347  0.077445  0.018749
  18236.111  18236.080  0.500  5.004439  11.6335  0.078039  0.018755
  18239.088  18239.100  0.500  5.006747  11.6237  0.077793  0.018705
  18242.154  18242.150  0.500  5.008210  11.6026  0.077538  0.018434
  18245.249  18245.210  0.500  5.009261  11.5904  0.077376  0.018416
  18248.332  18248.290  0.500  5.012846  11.5819  0.077042  0.018198
  18251.444  18251.390  0.500  5.019300  11.5684  0.076457  0.018120
  18254.543  18254.510  0.500  5.022238  11.5566  0.076155  0.017992
  18257.672  18257.650  0.500  5.026444  11.5451  0.075760  0.018002
  18260.817  18260.800  0.500  5.028868  11.5267  0.075456  0.017872
  18263.978  18263.980  0.500  5.031551  11.5172  0.075192  0.017985
  18267.213  18267.170  0.500  5.030177  11.5032  0.075204  0.017976
  18270.464  18270.390  0.500  5.034195  11.4958  0.074854  0.018051
  18273.657  18273.620  0.500  5.036959  11.4851  0.074578  0.018056
  18276.910  18276.870  0.500  5.037397  11.4523  0.074333  0.017994
  18280.179  18280.150  0.500  5.035933  11.4313  0.074305  0.017990
  18283.449  18283.440  0.500  5.029184  11.1174  0.072754  0.017724
  18286.765  18286.750  0.500  5.029378  11.1639  0.073044  0.017975
  18290.111  18290.070  0.500  5.019321  11.3847  0.075241  0.018493
  18293.487  18293.420  0.500  5.007196  11.3984  0.076251  0.018747
  18296.821  18296.790  0.500  4.995042  11.3923  0.077142  0.018925
  18300.170  18300.170  0.500  4.983798  11.3828  0.077950  0.019256
  18303.595  18303.580  0.500  4.968515  11.3738  0.079088  0.019463
  18307.020  18307.000  0.500  4.955387  11.3538  0.079991  0.019711
  18310.506  18310.450  0.500  4.943442  11.3341  0.080813  0.020025
  18313.963  18313.910  0.500  4.931462  11.3189  0.081676  0.020119
  18317.452  18317.390  0.500  4.929289  11.32  0.081862  0.020075
  18320.912  18320.890  0.500  4.931211  11.3091  0.081626  0.019862
  18324.403  18324.410  0.500  4.937071  11.2961  0.081056  0.019716
  18327.940  18327.950  0.500  4.945322  11.2792  0.080270  0.019638
  18331.537  18331.500  0.500  4.952757  11.267  0.079589  0.019269
  18335.135  18335.080  0.500  4.957514  11.2343  0.078981  0.019467
  18338.735  18338.680  0.500  4.957938  11.2333  0.078941  0.019339
  18342.292  18342.290  0.500  4.957020  11.2153  0.078887  0.019561
  18345.894  18345.920  0.500  4.945854  11.1631  0.079401  0.019600
  18349.587  18349.580  0.500  4.939938  11.1805  0.079997  0.019928
  18353.296  18353.250  0.500  4.933608  11.1747  0.080463  0.020185
  18356.992  18356.940  0.500  4.930632  11.1704  0.080672  0.020125
  18360.704  18360.650  0.500  4.932763  11.1476  0.080336  0.020111
  18364.417  18364.380  0.500  4.929333  11.1377  0.080540  0.020120
  18368.147  18368.120  0.500  4.925491  11.1178  0.080706  0.020370
  18371.923  18371.890  0.500  4.917782  11.1106  0.081278  0.020449
  18375.745  18375.680  0.500  4.908881  11.0951  0.081890  0.020528
  18379.538  18379.480  0.500  4.903803  11.0752  0.082159  0.020828
  18383.348  18383.310  0.500  4.899289  11.0599  0.082417  0.020720
  18387.160  18387.150  0.500  4.892141  11.0519  0.082948  0.020792
  18391.018  18391.010  0.500  4.891306  11.0419  0.082942  0.020902
  18394.937  18394.890  0.500  4.884976  11.0261  0.083350  0.021031
  18398.857  18398.790  0.500  4.878564  11.0064  0.083736  0.021013
  18402.780  18402.710  0.500  4.878917  10.9815  0.083517  0.020913
  18406.689  18406.650  0.500  4.882385  10.9707  0.083146  0.020817
  18410.644  18410.610  0.500  4.888192  10.9681  0.082645  0.020727
  18414.631  18414.580  0.500  4.893646  10.9702  0.082211  0.020704
  18418.634  18418.580  0.500  4.894839  10.9572  0.082016  0.020716
  18422.639  18422.590  0.500  4.891097  10.9495  0.082266  0.020793
  18426.676  18426.630  0.500  4.893058  10.9404  0.082036  0.020671
  18430.714  18430.680  0.500  4.892448  10.9256  0.081975  0.020710
  18434.755  18434.750  0.500  4.887096  10.8939  0.082176  0.020876
  18438.856  18438.840  0.500  4.876655  10.8824  0.082951  0.021166
  18442.990  18442.950  0.500  4.867690  10.8692  0.083596  0.021368
  18447.095  18447.080  0.500  4.854289  10.8537  0.084603  0.021685
  18451.247  18451.230  0.500  4.851115  10.8346  0.084723  0.021753
  18455.401  18455.390  0.500  4.845741  10.8107  0.084992  0.021847
  18459.617  18459.580  0.500  4.837773  10.8126  0.085687  0.022025
  18463.804  18463.780  0.500  4.834270  10.7914  0.085819  0.022137
  18468.009  18468.010  0.500  4.827930  10.7849  0.086312  0.022150
  18472.275  18472.250  0.500  4.819583  10.7625  0.086855  0.022195
  18476.529  18476.510  0.500  4.816791  10.7469  0.086971  0.022335
  18480.829  18480.790  0.500  4.817301  10.6669  0.086280  0.022250
  18485.116  18485.090  0.500  4.817626  10.7181  0.086666  0.022357
  18489.466  18489.410  0.500  4.821116  10.7137  0.086329  0.022255
  18493.772  18493.750  0.500  4.825148  10.6933  0.085818  0.022167
  18498.110  18498.110  0.500  4.825755  10.666  0.085546  0.022062
  18502.541  18502.490  0.500  4.828582  10.6518  0.085192  0.022059
  18506.929  18506.880  0.500  4.826915  10.6364  0.085210  0.021988
  18511.378  18511.300  0.500  4.822931  10.6211  0.085428  0.022189
  18515.740  18515.730  0.500  4.818190  10.6046  0.085700  0.022258
  18520.179  18520.180  0.500  4.812012  10.5881  0.086097  0.022364
  18524.696  18524.650  0.500  4.800418  10.5717  0.086966  0.022600
  18529.184  18529.140  0.500  4.793967  10.5581  0.087416  0.022876
  18533.675  18533.650  0.500  4.789421  10.5444  0.087701  0.022821
  18538.198  18538.180  0.500  4.778690  10.5249  0.088483  0.022943
  18542.754  18542.730  0.500  4.777523  10.5126  0.088483  0.023305
  18547.402  18547.300  0.500  4.769703  10.4862  0.088953  0.023382
  18551.887  18551.880  0.500  4.768125  10.4774  0.089019  0.023541
  18556.509  18556.490  0.500  4.761542  10.4633  0.089486  0.023546
  18561.119  18561.110  0.500  4.759334  10.4345  0.089437  0.023575
  18565.822  18565.760  0.500  4.758879  10.4345  0.089478  0.023482
  18570.467  18570.420  0.500  4.759722  10.417  0.089253  0.023449
  18575.114  18575.100  0.500  4.760130  10.3939  0.089018  0.023456
  18579.840  18579.800  0.500  4.761545  10.3778  0.088755  0.023336
  18584.567  18584.520  0.500  4.755996  10.3548  0.089051  0.023453
  18589.313  18589.260  0.500  4.754417  10.3515  0.089163  0.023552
  18594.045  18594.010  0.500  4.749501  10.3215  0.089343  0.023695
  18598.826  18598.790  0.500  4.742647  10.2988  0.089760  0.023808
  18603.594  18603.590  0.500  4.739793  10.2898  0.089937  0.023891
  18608.455  18608.400  0.500  4.736971  10.2696  0.090015  0.023911
  18613.289  18613.230  0.500  4.729612  10.2632  0.090623  0.024041
  18618.125  18618.090  0.500  4.723993  10.2277  0.090819  0.024228
  18622.979  18622.960  0.500  4.719783  10.2094  0.091038  0.024208
  18627.881  18627.850  0.500  4.715495  10.2031  0.091373  0.024483
  18632.831  18632.760  0.500  4.709119  10.1916  0.091854  0.024669
  18637.723  18637.690  0.500  4.702476  10.169  0.092261  0.024682
  18642.664  18642.630  0.500  4.696519  10.1571  0.092704  0.025123
  18647.622  18647.600  0.500  4.691997  10.1387  0.092955  0.025035
  18652.674  18652.590  0.500  4.688502  10.127  0.093173  0.025055
  18657.638  18657.590  0.500  4.688164  10.102  0.092974  0.024997
  18662.650  18662.620  0.500  4.686374  10.079  0.092929  0.025064
  18667.665  18667.660  0.500  4.684229  10.0624  0.092975  0.025223
  18672.790  18672.720  0.500  4.683328  10.0437  0.092886  0.025275
  18677.871  18677.800  0.500  4.679024  10.0277  0.093138  0.025253
  18682.941  18682.900  0.500  4.673531  10.0013  0.093404  0.025269
  18688.043  18688.020  0.500  4.674620  9.987570  0.093175  0.025414
  18693.225  18693.160  0.500  4.668286  9.985375  0.093746  0.025529
  18698.395  18698.320  0.500  4.664276  9.954087  0.093828  0.025546
  18703.536  18703.500  0.500  4.658879  9.939358  0.094196  0.025629
  18708.727  18708.690  0.500  4.655816  9.921916  0.094319  0.025784
  18713.982  18713.910  0.500  4.650150  9.904123  0.094685  0.025959
  18719.224  18719.140  0.500  4.645920  9.895348  0.095002  0.026074
  18724.424  18724.390  0.500  4.642056  9.872077  0.095146  0.026139
  18729.657  18729.660  0.500  4.635148  9.857939  0.095668  0.026252
  18735.016  18734.950  0.500  4.629681  9.837722  0.095995  0.026454
  18740.317  18740.260  0.500  4.624137  9.819353  0.096349  0.026566
  18745.605  18745.590  0.500  4.620673  9.794858  0.096442  0.026668
  18750.974  18750.940  0.500  4.619392  9.777274  0.096392  0.026663
  18756.391  18756.310  0.500  4.614030  9.750107  0.096641  0.026703
  18761.766  18761.690  0.500  4.610448  9.737629  0.096864  0.026893
  18767.159  18767.100  0.500  4.605422  9.724299  0.097219  0.026952
  18772.540  18772.520  0.500  4.598896  9.690731  0.097517  0.026962
  18778.063  18777.970  0.500  4.599270  9.668172  0.097254  0.027067
  18783.497  18783.430  0.500  4.596140  9.672336  0.097601  0.027142
  18788.949  18788.910  0.500  4.593293  9.643580  0.097588  0.027161
  18794.420  18794.410  0.500  4.591334  9.622962  0.097570  0.027161
  18800.018  18799.930  0.500  4.587788  9.613733  0.097823  0.027364
  18805.573  18805.470  0.500  4.582427  9.590817  0.098114  0.027359
  18811.101  18811.020  0.500  4.577765  9.573160  0.098391  0.027364
  18816.616  18816.600  0.500  4.575460  9.551768  0.098398  0.027743
  18822.258  18822.200  0.500  4.569510  9.539075  0.098854  0.027757
  18827.858  18827.810  0.500  4.563467  9.520752  0.099262  0.027825
  18833.523  18833.450  0.500  4.555952  9.503904  0.099834  0.028165
  18839.176  18839.100  0.500  4.551483  9.471930  0.099944  0.028126
  18844.863  18844.770  0.500  4.547841  9.458811  0.100169  0.028255
  18850.554  18850.460  0.500  4.542283  9.449421  0.100627  0.028412