File: xdidata/Data/Zr/Zr-K-ZirconiumFoil.xdi
# XDI/1.0 BlueSky/1.10.0 BMM/2023-1.0-py310-tiled
# Beamline.name: BMM (06BM) -- Beamline for Materials Measurement (NIST)
# Beamline.xray_source: NSLS-II three-pole wiggler
# Beamline.collimation: paraboloid mirror, 5 nm Rh on 30 nm Pt
# Beamline.focusing: not in use
# Beamline.harmonic_rejection: flat mirror, Pt stripe, pitch = 7.0 mrad relative to beam
# Beamline.software: Bluesky 1.10.0, Ophyd 1.7.0, DataBroker 2.0.0b13, Python 3.10.8, 2023-1.0-py310-tiled
# Detector.I0: 10 cm N2
# Detector.I1: 25 cm N2
# Detector.I2: 25 cm N2
# Element.symbol: Zr
# Element.edge: K
# Element.reference: Zr
# Element.reference_material: Zr foil
# Facility.name: NSLS-II
# Facility.energy: 3.0
# Facility.current: 399.9
# Facility.mode: top-off
# Facility.GUP: 301027
# Facility.SAF: 310583
# Facility.cycle: 2023-2
# Mono.name: Si(111)
# Mono.d_spacing: 3.13519
# Mono.encoder_resolution: 0.0000050 deg/ct
# Mono.angle_offset: 16.0754 deg
# Mono.scan_mode: pseudo channel cut
# Mono.scan_type: step
# Mono.direction: forward in energy
# Sample.name: Zr foil
# Sample.prep: reference foil
# Sample.x: 109.138 mm
# Sample.y: 153.150 mm
# Sample.SDD_position: 205.000 mm
# Scan.experimenters: Bruce Ravel
# Scan.edge_energy: 17997.6
# Scan.start_time: 2023-05-28T22:18:31
# Scan.end_time: 2023-05-28T22:26:07
# Scan.transient_id: 79064
# Scan.uid: 071aacf5-2d6b-4c75-bae0-a38b751e8111
# Scan.plot_hint: ln(It/Ir)  --  ln($6/$7)
# Column.1: energy eV
# Column.2: requested_energy eV
# Column.3: measurement_time seconds
# Column.4: xmu
# Column.5: I0 nA
# Column.6: It nA
# Column.7: Ir nA
# ///////////
# standard reference foil
# -----------
# energy  requested_energy  measurement_time  xmu  I0  It  Ir
  17797.719  17797.600  0.500  0.295125  13.4752  25.1651  18.7339
  17807.561  17807.600  0.500  0.295050  13.4543  25.1315  18.7102
  17817.553  17817.600  0.500  0.294704  13.4323  25.0916  18.687
  17827.585  17827.600  0.500  0.294226  13.4062  25.0423  18.6592
  17837.586  17837.600  0.500  0.293941  13.3806  24.9922  18.6272
  17847.556  17847.600  0.500  0.293428  13.3532  24.9479  18.6037
  17857.607  17857.600  0.500  0.293279  13.3245  24.8941  18.5664
  17867.558  17867.600  0.500  0.293053  13.2857  24.8218  18.5167
  17877.576  17877.600  0.500  0.292836  13.2484  24.7528  18.4691
  17887.619  17887.600  0.500  0.292884  13.2148  24.6969  18.4266
  17897.590  17897.600  0.500  0.292786  13.1892  24.6523  18.3951
  17907.627  17907.600  0.500  0.292642  13.1633  24.6011  18.3595
  17917.606  17917.600  0.500  0.292842  13.123  24.5295  18.3024
  17927.596  17927.600  0.500  0.293250  13.0972  24.4775  18.2562
  17937.626  17937.600  0.500  0.294070  13.0805  24.4523  18.2225
  17947.624  17947.600  0.500  0.295429  13.0395  24.3745  18.1398
  17957.591  17957.600  0.500  0.297624  13.0086  24.3267  18.0645
  17967.626  17967.600  0.500  0.301025  12.9263  24.1686  17.8862
  17969.552  17969.600  0.500  0.301979  12.9128  24.1485  17.8543
  17971.535  17971.600  0.500  0.303074  12.9713  24.2531  17.912
  17973.561  17973.600  0.500  0.304476  12.969  24.251  17.8853
  17975.503  17975.600  0.500  0.306301  12.9529  24.222  17.8314
  17977.516  17977.600  0.500  0.307927  12.9515  24.219  17.8002
  17979.487  17979.600  0.500  0.310123  12.9435  24.2048  17.7508
  17981.486  17981.600  0.500  0.312813  12.9306  24.1783  17.6837
  17983.515  17983.600  0.500  0.316217  12.9352  24.1905  17.6325
  17985.544  17985.600  0.500  0.320598  12.9215  24.1608  17.5339
  17987.559  17987.600  0.500  0.326588  12.9255  24.1699  17.4357
  17987.800  17987.900  0.500  0.327560  12.9142  24.1501  17.4045
  17988.113  17988.200  0.500  0.328529  12.9121  24.1483  17.3863
  17988.425  17988.500  0.500  0.329939  12.9096  24.1459  17.3602
  17988.737  17988.800  0.500  0.331043  12.9048  24.1349  17.3331
  17989.049  17989.100  0.500  0.332361  12.9072  24.139  17.3132
  17989.348  17989.400  0.500  0.333724  12.908  24.1422  17.2919
  17989.632  17989.700  0.500  0.335022  12.9097  24.1424  17.2696
  17989.930  17990.000  0.500  0.336379  12.9088  24.1404  17.2447
  17990.214  17990.300  0.500  0.337571  12.9066  24.1359  17.221
  17990.540  17990.600  0.500  0.339713  12.9003  24.1271  17.1779
  17990.852  17990.900  0.500  0.341433  12.8982  24.123  17.1455
  17991.179  17991.200  0.500  0.343452  12.8981  24.1234  17.1112
  17991.463  17991.500  0.500  0.345489  12.9007  24.1277  17.0794
  17991.761  17991.800  0.500  0.347568  12.8992  24.1239  17.0412
  17992.045  17992.100  0.500  0.349945  12.8978  24.1211  16.9988
  17992.343  17992.400  0.500  0.352312  12.8971  24.1231  16.96
  17992.627  17992.700  0.500  0.354955  12.8949  24.1185  16.912
  17992.954  17993.000  0.500  0.358123  12.898  24.1206  16.86
  17993.281  17993.300  0.500  0.361862  12.8893  24.1056  16.7866
  17993.607  17993.600  0.500  0.365786  12.8871  24.0984  16.7159
  17993.891  17993.900  0.500  0.369614  12.8846  24.1006  16.6536
  17994.176  17994.200  0.500  0.373824  12.8923  24.1112  16.5909
  17994.474  17994.500  0.500  0.378485  12.8821  24.0936  16.5017
  17994.772  17994.800  0.500  0.383655  12.8829  24.0908  16.4147
  17995.070  17995.100  0.500  0.389779  12.8925  24.1151  16.3309
  17995.355  17995.400  0.500  0.397167  12.8836  24.1012  16.2014
  17995.667  17995.700  0.500  0.405278  12.881  24.0961  16.0671
  17995.980  17996.000  0.500  0.414299  12.8804  24.0904  15.919
  17996.264  17996.300  0.500  0.424016  12.9313  24.1885  15.8293
  17996.562  17996.600  0.500  0.435135  12.9203  24.1654  15.6393
  17996.860  17996.900  0.500  0.448377  12.9256  24.1732  15.4385
  17997.187  17997.200  0.500  0.463955  12.926  24.1801  15.2042
  17997.486  17997.500  0.500  0.481113  12.9279  24.1748  14.9423
  17997.798  17997.800  0.500  0.500583  12.9279  24.1836  14.6596
  17998.097  17998.100  0.500  0.521096  12.9254  24.1737  14.356
  17998.381  17998.400  0.500  0.542208  12.9352  24.195  14.0685
  17998.679  17998.700  0.500  0.565283  12.924  24.172  13.7345
  17998.949  17999.000  0.500  0.589545  12.9188  24.1663  13.4021
  17999.248  17999.300  0.500  0.614493  12.9176  24.1673  13.0724
  17999.560  17999.600  0.500  0.641403  12.9158  24.1598  12.7214
  17999.859  17999.900  0.500  0.665951  12.9154  24.1616  12.4139
  18000.186  18000.200  0.500  0.692623  12.9153  24.1557  12.0842
  18000.470  18000.500  0.500  0.714399  12.915  24.1612  11.8266
  18000.754  18000.800  0.500  0.733223  12.9168  24.1607  11.6058
  18001.053  18001.100  0.500  0.749958  12.9106  24.1568  11.4114
  18001.337  18001.400  0.500  0.766948  12.9132  24.1598  11.2205
  18001.650  18001.700  0.500  0.780118  12.9067  24.1495  11.069
  18002.005  18002.000  0.500  0.791622  12.9131  24.1591  10.9467
  18002.304  18002.300  0.500  0.800351  12.9069  24.1487  10.8469
  18002.588  18002.600  0.500  0.807635  12.9067  24.1427  10.7655
  18002.887  18002.900  0.500  0.814483  12.9032  24.1411  10.6913
  18003.157  18003.200  0.500  0.820537  12.9133  24.1602  10.6352
  18003.484  18003.500  0.500  0.827713  12.9049  24.1438  10.552
  18003.768  18003.800  0.500  0.835424  12.9121  24.1539  10.4753
  18004.081  18004.100  0.500  0.844069  12.9074  24.146  10.3817
  18004.394  18004.400  0.500  0.854220  12.8959  24.1258  10.2683
  18004.692  18004.700  0.500  0.865896  12.8899  24.1163  10.1451
  18004.977  18005.000  0.500  0.877776  12.8906  24.116  10.0252
  18005.275  18005.300  0.500  0.891796  12.8902  24.1189  9.886806
  18005.588  18005.600  0.500  0.906659  12.8953  24.1272  9.744270
  18005.901  18005.900  0.500  0.923309  12.8917  24.117  9.579347
  18006.186  18006.200  0.500  0.941679  12.8923  24.1188  9.405663
  18006.499  18006.500  0.500  0.962045  12.8946  24.1271  9.219215
  18006.812  18006.800  0.500  0.982893  12.893  24.1261  9.028634
  18007.096  18007.100  0.500  1.004175  12.8858  24.1071  8.831566
  18007.395  18007.400  0.500  1.026360  12.8825  24.1008  8.635529
  18007.679  18007.700  0.500  1.049717  12.8898  24.1187  8.442452
  18007.992  18008.000  0.500  1.075907  12.8743  24.086  8.213035
  18008.305  18008.300  0.500  1.101964  12.8749  24.0936  8.004319
  18008.618  18008.600  0.500  1.129092  12.877  24.0928  7.789832
  18008.903  18008.900  0.500  1.154904  12.8792  24.1041  7.594905
  18009.201  18009.200  0.500  1.181383  12.885  24.1139  7.399451
  18009.500  18009.500  0.500  1.208056  12.8711  24.0872  7.196708
  18009.799  18009.800  0.500  1.234378  12.8707  24.087  7.009695
  18010.098  18010.100  0.500  1.261575  12.8768  24.097  6.824448
  18010.411  18010.400  0.500  1.288796  12.8734  24.0896  6.639155
  18010.724  18010.700  0.500  1.315489  12.8679  24.0833  6.462579
  18011.023  18011.000  0.500  1.339624  12.8634  24.0782  6.307149
  18011.322  18011.300  0.500  1.362445  12.8641  24.075  6.164016
  18011.606  18011.600  0.500  1.382244  12.8659  24.0761  6.043454
  18011.891  18011.900  0.500  1.401984  12.8664  24.0809  5.926500
  18012.204  18012.200  0.500  1.420578  12.8658  24.0768  5.816336
  18012.503  18012.500  0.500  1.436252  12.8722  24.0903  5.729097
  18012.844  18012.800  0.500  1.451184  12.8596  24.0665  5.638604
  18013.129  18013.100  0.500  1.462313  12.8608  24.0719  5.577458
  18013.414  18013.400  0.500  1.471386  12.8595  24.0683  5.526245
  18013.684  18013.700  0.500  1.478627  12.8619  24.0723  5.487294
  18013.997  18014.000  0.500  1.483778  12.8611  24.0698  5.458527
  18014.311  18014.300  0.500  1.487315  12.8638  24.071  5.439537
  18014.624  18014.600  0.500  1.488732  12.8583  24.0649  5.430446
  18014.937  18014.900  0.500  1.488104  12.8597  24.0665  5.434220
  18015.236  18015.200  0.500  1.486456  12.8603  24.0712  5.444254
  18015.506  18015.500  0.500  1.483272  12.8521  24.0537  5.457643
  18015.805  18015.800  0.500  1.478830  12.8439  24.0356  5.477805
  18016.119  18016.100  0.500  1.473884  12.8483  24.0476  5.507716
  18016.432  18016.400  0.500  1.468512  12.8432  24.0393  5.535473
  18016.702  18016.700  0.500  1.463194  12.8404  24.0342  5.563822
  18017.030  18017.000  0.500  1.456982  12.8439  24.0366  5.599037
  18017.315  18017.300  0.500  1.451436  12.8361  24.022  5.626762
  18017.600  18017.600  0.500  1.446322  12.8461  24.0398  5.659789
  18017.913  18017.900  0.500  1.441690  12.846  24.0436  5.686987
  18018.198  18018.200  0.500  1.437422  12.8439  24.0332  5.708839
  18018.497  18018.500  0.500  1.433455  12.832  24.0125  5.726588
  18018.824  18018.800  0.500  1.430158  12.8344  24.0217  5.747698
  18019.123  18019.100  0.500  1.427641  12.8338  24.0191  5.761546
  18019.394  18019.400  0.500  1.425469  12.8327  24.0179  5.773795
  18019.693  18019.700  0.500  1.423775  12.8307  24.0119  5.782149
  18019.992  18020.000  0.500  1.422754  12.8316  24.0145  5.788669
  18020.292  18020.300  0.500  1.421751  12.8315  24.0164  5.794954
  18020.591  18020.600  0.500  1.421102  12.8321  24.0139  5.798093
  18020.918  18020.900  0.500  1.420718  12.8251  24.0021  5.797483
  18021.203  18021.200  0.500  1.420620  12.8341  24.0199  5.802354
  18021.474  18021.500  0.500  1.420716  12.8237  24.0032  5.797763
  18021.773  18021.800  0.500  1.420762  12.819  23.9943  5.795328
  18022.058  18022.100  0.500  1.421124  12.8245  24.0012  5.794910
  18022.400  18022.400  0.500  1.421527  12.8207  24.0013  5.792592
  18022.600  18022.600  0.500  1.421495  12.834  24.018  5.796820
  18023.597  18023.590  0.500  1.424741  12.8164  23.9885  5.770922
  18024.609  18024.590  0.500  1.431070  12.8094  23.9742  5.731114
  18025.578  18025.610  0.500  1.441489  12.8078  23.9733  5.671498
  18026.690  18026.660  0.500  1.458156  12.8071  23.9698  5.576941
  18027.688  18027.720  0.500  1.475715  12.8011  23.9614  5.477935
  18028.828  18028.800  0.500  1.494901  12.7958  23.9495  5.371177
  18029.884  18029.900  0.500  1.508931  12.7876  23.9348  5.293100
  18031.039  18031.020  0.500  1.516369  12.7885  23.9362  5.254183
  18032.180  18032.160  0.500  1.514568  12.7821  23.9297  5.262212
  18033.321  18033.310  0.500  1.504180  12.7914  23.9428  5.320087
  18034.562  18034.490  0.500  1.486211  12.7758  23.9123  5.409635
  18035.718  18035.680  0.500  1.465753  12.7761  23.9098  5.520864
  18036.903  18036.900  0.500  1.445219  12.7806  23.9209  5.638020
  18038.187  18038.130  0.500  1.427468  12.7649  23.8921  5.732094
  18039.386  18039.380  0.500  1.416418  12.7513  23.8717  5.790841
  18040.657  18040.650  0.500  1.410841  12.7271  23.8229  5.811320
  18041.985  18041.940  0.500  1.408953  12.6914  23.7584  5.806525
  18043.241  18043.250  0.500  1.408429  12.6933  23.7568  5.809176
  18044.584  18044.580  0.500  1.407202  12.7189  23.8086  5.828992
  18045.927  18045.930  0.500  1.404110  12.7408  23.8468  5.856429
  18047.284  18047.300  0.500  1.400192  12.7455  23.862  5.883174
  18048.684  18048.680  0.500  1.395773  12.7441  23.8533  5.907062
  18050.085  18050.090  0.500  1.392937  12.7343  23.839  5.920296
  18051.529  18051.510  0.500  1.392845  12.7323  23.8341  5.919631
  18052.958  18052.950  0.500  1.396948  12.7263  23.8248  5.893078
  18054.431  18054.410  0.500  1.405234  12.7236  23.8204  5.843376
  18055.932  18055.890  0.500  1.416682  12.7238  23.8164  5.775900
  18057.420  18057.390  0.500  1.429928  12.7124  23.7918  5.693992
  18058.936  18058.910  0.500  1.443140  12.7051  23.7862  5.617934
  18060.482  18060.450  0.500  1.453354  12.697  23.771  5.557300
  18062.013  18062.010  0.500  1.458031  12.6973  23.7688  5.530854
  18063.602  18063.580  0.500  1.456598  12.6904  23.758  5.536265
  18065.176  18065.180  0.500  1.448802  12.6839  23.7471  5.577043
  18066.794  18066.790  0.500  1.436056  12.6827  23.7426  5.647499
  18068.441  18068.430  0.500  1.421843  12.6734  23.7265  5.724456
  18070.103  18070.080  0.500  1.410150  12.6734  23.726  5.791674
  18071.764  18071.750  0.500  1.402210  12.6641  23.7091  5.833681
  18073.498  18073.440  0.500  1.397935  12.6581  23.7006  5.856586
  18075.161  18075.150  0.500  1.395656  12.652  23.6911  5.867592
  18076.909  18076.880  0.500  1.393327  12.6522  23.6875  5.880369
  18078.658  18078.630  0.500  1.391158  12.6503  23.6861  5.892798
  18080.393  18080.390  0.500  1.388987  12.6385  23.6603  5.899162
  18082.172  18082.180  0.500  1.387898  12.6226  23.6387  5.900216
  18083.951  18083.980  0.500  1.388762  12.6168  23.626  5.891956
  18085.802  18085.810  0.500  1.391923  12.6213  23.6297  5.874255
  18087.639  18087.650  0.500  1.397455  12.6151  23.6206  5.839613
  18089.533  18089.510  0.500  1.404150  12.5728  23.5375  5.780231
  18091.414  18091.390  0.500  1.411015  12.5311  23.4632  5.722569
  18093.338  18093.290  0.500  1.416098  12.5655  23.527  5.709041
  18095.263  18095.210  0.500  1.419230  12.5959  23.5859  5.705438
  18097.202  18097.150  0.500  1.419631  12.5868  23.5687  5.698975
  18099.142  18099.110  0.500  1.416228  12.5818  23.5613  5.716608
  18101.097  18101.080  0.500  1.409202  12.5804  23.5618  5.757048
  18103.095  18103.080  0.500  1.399572  12.5678  23.537  5.806630
  18105.094  18105.090  0.500  1.388718  12.5591  23.519  5.865515
  18107.093  18107.120  0.500  1.378554  12.5355  23.4783  5.915191
  18109.179  18109.180  0.500  1.370336  12.5339  23.4715  5.962260
  18111.265  18111.250  0.500  1.365692  12.5373  23.4807  5.992382
  18113.381  18113.340  0.500  1.364892  12.5399  23.4806  5.997143
  18115.482  18115.450  0.500  1.367146  12.5214  23.4509  5.976067
  18117.585  18117.580  0.500  1.370709  12.5137  23.4337  5.950447
  18119.745  18119.720  0.500  1.374890  12.4819  23.3765  5.911152
  18121.891  18121.890  0.500  1.378982  12.4124  23.2442  5.853695
  18124.110  18124.080  0.500  1.383122  12.4564  23.3355  5.852415
  18126.272  18126.280  0.500  1.386230  12.5006  23.4119  5.853341
  18128.521  18128.500  0.500  1.388548  12.4909  23.396  5.835834
  18130.771  18130.750  0.500  1.390249  12.4838  23.3799  5.821917
  18133.064  18133.010  0.500  1.391684  12.4708  23.3604  5.808709
  18135.329  18135.290  0.500  1.392609  12.4479  23.3126  5.791467
  18137.623  18137.590  0.500  1.392767  12.448  23.3133  5.790712
  18139.962  18139.910  0.500  1.391362  12.4618  23.3429  5.806225
  18142.286  18142.250  0.500  1.387696  12.4622  23.3442  5.827877
  18144.568  18144.600  0.500  1.382007  12.4508  23.3232  5.855863
  18146.966  18146.980  0.500  1.374122  12.4355  23.2937  5.894738
  18149.422  18149.370  0.500  1.366233  12.4248  23.2728  5.936100
  18151.822  18151.790  0.500  1.358203  12.4355  23.2897  5.988314
  18154.236  18154.220  0.500  1.350851  12.4535  23.3244  6.041489
  18156.752  18156.670  0.500  1.345292  12.46  23.3404  6.079322
  18159.168  18159.150  0.500  1.341150  12.4439  23.3102  6.096664
  18161.656  18161.640  0.500  1.339670  12.437  23.2998  6.102971
  18164.175  18164.150  0.500  1.339312  12.4383  23.3019  6.105692
  18166.650  18166.670  0.500  1.340053  12.4299  23.2899  6.098038
  18169.242  18169.220  0.500  1.341943  12.4151  23.2618  6.079181
  18171.821  18171.790  0.500  1.345132  12.4141  23.2563  6.058403
  18174.443  18174.370  0.500  1.350057  12.4007  23.2296  6.021715
  18177.009  18176.980  0.500  1.355879  12.3919  23.2169  5.983481
  18179.647  18179.600  0.500  1.361013  12.3786  23.1901  5.945976
  18182.272  18182.250  0.500  1.365561  12.3749  23.1841  5.917443
  18184.927  18184.910  0.500  1.368787  12.3639  23.1671  5.894071
  18187.553  18187.590  0.500  1.371164  12.3515  23.1429  5.873942
  18190.340  18190.290  0.500  1.371655  12.3541  23.1456  5.871726
  18193.040  18193.010  0.500  1.369208  12.3474  23.1346  5.883333
  18195.800  18195.750  0.500  1.364662  12.3369  23.1148  5.905077
  18198.546  18198.500  0.500  1.359133  12.3288  23.1011  5.934285
  18201.307  18201.280  0.500  1.353253  12.3158  23.0767  5.962975
  18204.083  18204.070  0.500  1.348195  12.3135  23.0704  5.991572
  18206.875  18206.890  0.500  1.343395  12.3157  23.0773  6.022212
  18209.770  18209.720  0.500  1.339133  12.2901  23.0295  6.035399
  18212.593  18212.570  0.500  1.334972  12.2847  23.0172  6.057326
  18215.504  18215.450  0.500  1.330953  12.278  23.0145  6.081006
  18218.401  18218.340  0.500  1.327033  12.2505  22.959  6.090187
  18221.270  18221.250  0.500  1.323802  12.1826  22.8301  6.075577
  18224.169  18224.170  0.500  1.322530  12.2492  22.9549  6.116569
  18227.157  18227.120  0.500  1.323686  12.2421  22.9461  6.107146
  18230.087  18230.090  0.500  1.326360  12.2424  22.9429  6.090011
  18233.077  18233.070  0.500  1.330348  12.2275  22.9113  6.057418
  18236.097  18236.080  0.500  1.335462  12.2074  22.8847  6.019508
  18239.103  18239.100  0.500  1.341261  12.2056  22.8776  5.982844
  18242.154  18242.150  0.500  1.347028  12.1953  22.8586  5.943502
  18245.206  18245.210  0.500  1.351993  12.185  22.8436  5.910198
  18248.317  18248.290  0.500  1.355589  12.1739  22.8174  5.882212
  18251.415  18251.390  0.500  1.356375  12.1555  22.7885  5.870163
  18254.558  18254.510  0.500  1.354310  12.151  22.7803  5.880165
  18257.687  18257.650  0.500  1.349642  12.1486  22.7776  5.906991
  18260.773  18260.800  0.500  1.343983  12.1382  22.7533  5.934167
  18264.007  18263.980  0.500  1.338624  12.1318  22.7421  5.963120
  18267.184  18267.170  0.500  1.333995  12.1179  22.7176  5.984328
  18270.405  18270.390  0.500  1.330420  12.1057  22.6971  6.000343
  18273.657  18273.620  0.500  1.327218  12.0935  22.6713  6.012747
  18276.881  18276.870  0.500  1.324985  12.0864  22.6628  6.023924
  18280.135  18280.150  0.500  1.323062  12.0364  22.5663  6.009818
  18283.435  18283.440  0.500  1.320673  11.666  21.8714  5.838684
  18286.794  18286.750  0.500  1.317661  11.8032  22.1311  5.925854
  18290.111  18290.070  0.500  1.315202  12.021  22.5379  6.049636
  18293.458  18293.420  0.500  1.314200  12.0282  22.5537  6.059941
  18296.791  18296.790  0.500  1.313938  12.0221  22.5441  6.058941
  18300.156  18300.170  0.500  1.314459  12.0154  22.5305  6.052138
  18303.609  18303.580  0.500  1.315582  12.0077  22.5154  6.041281
  18306.991  18307.000  0.500  1.317253  11.9993  22.4982  6.026605
  18310.491  18310.450  0.500  1.319535  11.9941  22.4931  6.011485
  18313.919  18313.910  0.500  1.322114  11.967  22.4413  5.982214
  18317.422  18317.390  0.500  1.325047  11.9632  22.4329  5.962462
  18320.942  18320.890  0.500  1.327331  11.9548  22.4161  5.944401
  18324.492  18324.410  0.500  1.329192  11.9457  22.4033  5.929954
  18328.013  18327.950  0.500  1.328758  11.938  22.3855  5.927808
  18331.522  18331.500  0.500  1.327075  11.9283  22.3695  5.933547
  18335.076  18335.080  0.500  1.323533  11.9123  22.3413  5.947107
  18338.691  18338.680  0.500  1.318965  11.8991  22.3173  5.967908
  18342.366  18342.290  0.500  1.314820  11.8762  22.2764  5.981727
  18345.953  18345.920  0.500  1.310963  11.8175  22.1651  5.974843
  18349.587  18349.580  0.500  1.308476  11.8554  22.2398  6.009902
  18353.281  18353.250  0.500  1.306006  11.8638  22.2577  6.029615
  18356.992  18356.940  0.500  1.303362  11.8495  22.2274  6.037327
  18360.689  18360.650  0.500  1.301468  11.8436  22.215  6.045411
  18364.447  18364.380  0.500  1.300081  11.8259  22.1849  6.045591
  18368.147  18368.120  0.500  1.298973  11.8089  22.1517  6.043235
  18371.878  18371.890  0.500  1.298228  11.8048  22.1453  6.046008
  18375.715  18375.680  0.500  1.298482  11.8004  22.137  6.042208
  18379.538  18379.480  0.500  1.299293  11.7839  22.1103  6.030009
  18383.304  18383.310  0.500  1.300370  11.7616  22.0676  6.011903
  18387.130  18387.150  0.500  1.301558  11.7603  22.0607  6.002875
  18391.003  18391.010  0.500  1.302555  11.7446  22.0375  5.990580
  18394.981  18394.890  0.500  1.303154  11.7364  22.0216  5.982687
  18398.828  18398.790  0.500  1.303208  11.7255  22.0005  5.976620
  18402.735  18402.710  0.500  1.303253  11.7136  21.9822  5.971381
  18406.629  18406.650  0.500  1.302606  11.7006  21.9535  5.967455
  18410.644  18410.610  0.500  1.302348  11.687  21.9322  5.963194
  18414.631  18414.580  0.500  1.301447  11.6777  21.9088  5.962217
  18418.604  18418.580  0.500  1.300100  11.6621  21.887  5.964322
  18422.594  18422.590  0.500  1.297751  11.6455  21.8557  5.969795
  18426.676  18426.630  0.500  1.295656  11.6349  21.8388  5.977679
  18430.714  18430.680  0.500  1.293161  11.6325  21.833  5.991009
  18434.829  18434.750  0.500  1.290678  11.6172  21.8009  5.997086
  18438.827  18438.840  0.500  1.288385  11.601  21.7763  6.004071
  18442.960  18442.950  0.500  1.286957  11.5951  21.7595  6.008018
  18447.155  18447.080  0.500  1.285436  11.5833  21.736  6.010661
  18451.307  18451.230  0.500  1.284459  11.5724  21.7215  6.012507
  18455.416  18455.390  0.500  1.283493  11.5559  21.6885  6.009180
  18459.617  18459.580  0.500  1.282689  11.5465  21.6671  6.008082
  18463.789  18463.780  0.500  1.282781  11.5343  21.6525  6.003479
  18468.084  18468.010  0.500  1.282843  11.5244  21.6326  5.997601
  18472.260  18472.250  0.500  1.282959  11.5095  21.6064  5.989637
  18476.529  18476.510  0.500  1.283300  11.4899  21.5674  5.976771
  18480.844  18480.790  0.500  1.283229  11.4112  21.4237  5.937376
  18485.146  18485.090  0.500  1.282424  11.4641  21.5227  5.969634
  18489.466  18489.410  0.500  1.281576  11.4578  21.5082  5.970662
  18493.757  18493.750  0.500  1.280850  11.4402  21.4783  5.966700
  18498.140  18498.110  0.500  1.280157  11.4246  21.4511  5.963278
  18502.556  18502.490  0.500  1.279406  11.4184  21.4411  5.964971
  18506.913  18506.880  0.500  1.278631  11.4056  21.4169  5.962844
  18511.318  18511.300  0.500  1.277637  11.3944  21.3914  5.961685
  18515.785  18515.730  0.500  1.276611  11.3711  21.3524  5.956923
  18520.224  18520.180  0.500  1.275015  11.355  21.3284  5.959730
  18524.726  18524.650  0.500  1.273245  11.3488  21.3109  5.965380
  18529.169  18529.140  0.500  1.271211  11.3309  21.2798  5.968813
  18533.705  18533.650  0.500  1.269337  11.3203  21.2585  5.974028
  18538.274  18538.180  0.500  1.267551  11.31  21.2409  5.979727
  18542.799  18542.730  0.500  1.266436  11.2965  21.2171  5.979706
  18547.372  18547.300  0.500  1.265032  11.2817  21.1884  5.980018
  18551.902  18551.880  0.500  1.264088  11.2715  21.1657  5.979229
  18556.540  18556.490  0.500  1.263137  11.2558  21.1384  5.977210
  18561.210  18561.110  0.500  1.263128  11.2428  21.1108  5.969448
  18565.837  18565.760  0.500  1.262920  11.2332  21.0997  5.967578
  18570.467  18570.420  0.500  1.262500  11.2148  21.0638  5.959915
  18575.175  18575.100  0.500  1.262174  11.201  21.0416  5.955567
  18579.900  18579.800  0.500  1.261188  11.1887  21.0193  5.955123
  18584.628  18584.520  0.500  1.260487  11.1734  20.9915  5.951440
  18589.358  18589.260  0.500  1.259281  11.1648  20.9734  5.953461
  18594.091  18594.010  0.500  1.258108  11.1452  20.936  5.949835
  18598.902  18598.790  0.500  1.257157  11.1334  20.9192  5.950698
  18603.791  18603.590  0.500  1.256201  11.1176  20.8868  5.947169
  18608.349  18608.400  0.500  1.255081  11.1018  20.8615  5.946621
  18613.197  18613.230  0.500  1.254016  11.0909  20.8354  5.945514
  18618.049  18618.090  0.500  1.252843  11.0738  20.8061  5.944132
  18622.948  18622.960  0.500  1.251693  11.0545  20.7719  5.941184
  18627.805  18627.850  0.500  1.250600  11.0362  20.7409  5.938795
  18632.740  18632.760  0.500  1.248934  11.0315  20.7289  5.945257
  18637.677  18637.690  0.500  1.247384  11.0179  20.7044  5.947448
  18642.618  18642.630  0.500  1.246229  11.003  20.6778  5.946664
  18647.622  18647.600  0.500  1.244956  10.982  20.6399  5.943325
  18652.598  18652.590  0.500  1.243651  10.9712  20.6132  5.943406
  18657.592  18657.590  0.500  1.242678  10.9573  20.5913  5.942865
  18662.604  18662.620  0.500  1.241855  10.9423  20.5614  5.939121
  18667.711  18667.660  0.500  1.240948  10.9313  20.5408  5.938557
  18672.729  18672.720  0.500  1.240154  10.9141  20.5116  5.934819
  18677.810  18677.800  0.500  1.239337  10.8996  20.4851  5.931995
  18682.910  18682.900  0.500  1.238405  10.8874  20.4665  5.932142
  18688.043  18688.020  0.500  1.237598  10.8686  20.4329  5.927187
  18693.179  18693.160  0.500  1.236881  10.8528  20.4019  5.922420
  18698.333  18698.320  0.500  1.235878  10.839  20.3792  5.921792
  18703.552  18703.500  0.500  1.234738  10.8295  20.3568  5.922005
  18708.711  18708.690  0.500  1.233564  10.8127  20.3268  5.920243
  18713.966  18713.910  0.500  1.232438  10.7931  20.2933  5.917135
  18719.163  18719.140  0.500  1.231173  10.7817  20.2693  5.917618
  18724.408  18724.390  0.500  1.230180  10.7621  20.2373  5.914131
  18729.734  18729.660  0.500  1.228912  10.7477  20.2046  5.912068
  18735.001  18734.950  0.500  1.227753  10.7327  20.1802  5.911787
  18740.286  18740.260  0.500  1.226367  10.7147  20.1469  5.910211
  18745.620  18745.590  0.500  1.225215  10.6989  20.1199  5.909093
  18750.958  18750.940  0.500  1.223955  10.6897  20.0992  5.910471
  18756.330  18756.310  0.500  1.222871  10.6696  20.0636  5.906396
  18761.735  18761.690  0.500  1.221517  10.6815  20.085  5.920725
  18767.128  18767.100  0.500  1.220424  10.6688  20.0665  5.921717
  18772.525  18772.520  0.500  1.219274  10.6569  20.0398  5.920647
  18777.986  18777.970  0.500  1.218425  10.6426  20.0171  5.918958
  18783.435  18783.430  0.500  1.217648  10.6239  19.9841  5.913804
  18788.980  18788.910  0.500  1.216312  10.609  19.9555  5.913220
  18794.467  18794.410  0.500  1.215568  10.5929  19.9269  5.909148
  18799.941  18799.930  0.500  1.214651  10.5818  19.905  5.908070
  18805.449  18805.470  0.500  1.213329  10.5648  19.874  5.906690
  18811.054  18811.020  0.500  1.212281  10.5465  19.8376  5.902027
  18816.631  18816.600  0.500  1.211188  10.5308  19.8105  5.900424
  18822.212  18822.200  0.500  1.210347  10.5153  19.7852  5.897833
  18827.796  18827.810  0.500  1.209160  10.4958  19.7472  5.893499
  18833.414  18833.450  0.500  1.207967  10.4799  19.7167  5.891430
  18839.129  18839.100  0.500  1.206605  10.4625  19.6817  5.888985
  18844.785  18844.770  0.500  1.205166  10.4454  19.6549  5.889439
  18850.492  18850.460  0.500  1.204229  10.4337  19.6317  5.887992