File: xdidata/Data/Zr/Zr-K-Zirconolite.xdi
# XDI/1.0 BlueSky/1.10.0 BMM/2023-1.0-py310-tiled
# Beamline.name: BMM (06BM) -- Beamline for Materials Measurement (NIST)
# Beamline.xray_source: NSLS-II three-pole wiggler
# Beamline.collimation: paraboloid mirror, 5 nm Rh on 30 nm Pt
# Beamline.focusing: not in use
# Beamline.harmonic_rejection: flat mirror, Pt stripe, pitch = 7.0 mrad relative to beam
# Beamline.software: Bluesky 1.10.0, Ophyd 1.7.0, DataBroker 2.0.0b13, Python 3.10.8, 2023-1.0-py310-tiled
# Detector.I0: 10 cm N2
# Detector.I1: 25 cm N2
# Detector.I2: 25 cm N2
# Element.symbol: Zr
# Element.edge: K
# Element.reference: Zr
# Element.reference_material: Zr foil
# Facility.name: NSLS-II
# Facility.energy: 3.0
# Facility.current: 400.1
# Facility.mode: top-off
# Facility.GUP: 301027
# Facility.SAF: 310583
# Facility.cycle: 2023-2
# Mono.name: Si(111)
# Mono.d_spacing: 3.13519
# Mono.encoder_resolution: 0.0000050 deg/ct
# Mono.angle_offset: 16.0754 deg
# Mono.scan_mode: pseudo channel cut
# Mono.scan_type: step
# Mono.direction: forward in energy
# Sample.name: CaZrTi2O7
# Sample.prep: powder in PEG pellet
# Sample.x: 117.785 mm
# Sample.y: 114.695 mm
# Sample.SDD_position: 205.000 mm
# Scan.experimenters: Bruce Ravel
# Scan.edge_energy: 17997.6
# Scan.start_time: 2023-06-23T19:48:31
# Scan.end_time: 2023-06-23T19:56:18
# Scan.transient_id: 84984
# Scan.uid: 4b699b96-a2f8-44ff-a3af-93b541923c15
# Scan.plot_hint: ln(I0/It)  --  ln($5/$6)
# Column.1: energy eV
# Column.2: requested_energy eV
# Column.3: measurement_time seconds
# Column.4: xmu
# Column.5: I0 nA
# Column.6: It nA
# Column.7: Ir nA
# ///////////
# sample courtesy Martin Stennett, University of Sheffield
# -----------
# energy  requested_energy  measurement_time  xmu  I0  It  Ir
  17797.622  17797.600  0.500  0.023022  13.4166  13.1113  9.872785
  17807.687  17807.600  0.500  0.021730  13.362  13.0747  9.850532
  17817.693  17817.600  0.500  0.020897  13.3143  13.039  9.827792
  17827.668  17827.600  0.500  0.019704  13.2754  13.0163  9.810519
  17837.697  17837.600  0.500  0.018717  13.2351  12.9897  9.790206
  17847.710  17847.600  0.500  0.018004  13.2021  12.9665  9.779872
  17857.733  17857.600  0.500  0.016846  13.1654  12.9455  9.763735
  17867.712  17867.600  0.500  0.016097  13.1362  12.9265  9.751604
  17877.730  17877.600  0.500  0.015301  13.0824  12.8838  9.724822
  17887.717  17887.600  0.500  0.014611  13.035  12.8459  9.696490
  17897.744  17897.600  0.500  0.013664  13.022  12.8453  9.696305
  17907.627  17907.600  0.500  0.013274  13.0041  12.8326  9.687982
  17917.592  17917.600  0.500  0.012549  12.9588  12.7972  9.657566
  17927.610  17927.600  0.500  0.012168  12.9142  12.758  9.623179
  17937.611  17937.600  0.500  0.012087  12.8858  12.731  9.595485
  17947.581  17947.600  0.500  0.012155  12.8417  12.6865  9.551090
  17957.563  17957.600  0.500  0.012661  12.8057  12.6446  9.501344
  17967.612  17967.600  0.500  0.014495  12.7295  12.5463  9.394996
  17969.552  17969.600  0.500  0.015038  12.7026  12.513  9.357949
  17971.564  17971.600  0.500  0.015365  12.7326  12.5385  9.366498
  17973.576  17973.600  0.500  0.016129  12.7437  12.5398  9.354986
  17975.560  17975.600  0.500  0.016992  12.7407  12.526  9.330005
  17977.601  17977.600  0.500  0.017738  12.7306  12.5068  9.298353
  17979.586  17979.600  0.500  0.018968  12.717  12.478  9.259033
  17981.543  17981.600  0.500  0.020017  12.7027  12.451  9.213024
  17983.558  17983.600  0.500  0.021770  12.7004  12.4269  9.164884
  17985.572  17985.600  0.500  0.023589  12.6849  12.3892  9.098362
  17987.502  17987.600  0.500  0.025804  12.6942  12.3708  9.035634
  17987.800  17987.900  0.500  0.026177  12.6901  12.3622  9.022685
  17988.127  17988.200  0.500  0.026605  12.6956  12.3623  9.010742
  17988.439  17988.500  0.500  0.027011  12.6853  12.3472  8.990480
  17988.737  17988.800  0.500  0.027498  12.6882  12.3441  8.979366
  17989.007  17989.100  0.500  0.028016  12.6903  12.3397  8.969016
  17989.319  17989.400  0.500  0.028158  12.6844  12.3322  8.947552
  17989.646  17989.700  0.500  0.028723  12.6825  12.3234  8.930346
  17989.915  17990.000  0.500  0.029071  12.6901  12.3265  8.920106
  17990.199  17990.300  0.500  0.029736  12.686  12.3143  8.898367
  17990.540  17990.600  0.500  0.030151  12.6903  12.3134  8.881468
  17990.867  17990.900  0.500  0.030740  12.6857  12.3017  8.859225
  17991.136  17991.200  0.500  0.031405  12.6894  12.297  8.840257
  17991.420  17991.500  0.500  0.031911  12.6788  12.2806  8.814202
  17991.733  17991.800  0.500  0.032673  12.6904  12.2825  8.795066
  17992.045  17992.100  0.500  0.033336  12.6851  12.2692  8.768761
  17992.329  17992.400  0.500  0.033747  12.6777  12.257  8.738848
  17992.656  17992.700  0.500  0.034573  12.6841  12.253  8.712739
  17992.997  17993.000  0.500  0.035353  12.6826  12.2421  8.677418
  17993.267  17993.300  0.500  0.036096  12.6656  12.2165  8.637788
  17993.579  17993.600  0.500  0.036806  12.6762  12.2181  8.608766
  17993.891  17993.900  0.500  0.037616  12.6756  12.2076  8.568136
  17994.204  17994.200  0.500  0.038886  12.6734  12.19  8.524561
  17994.488  17994.500  0.500  0.039594  12.6641  12.1725  8.475252
  17994.744  17994.800  0.500  0.040407  12.6683  12.1666  8.432405
  17995.085  17995.100  0.500  0.041826  12.666  12.1472  8.371185
  17995.397  17995.400  0.500  0.042772  12.6592  12.1292  8.303914
  17995.695  17995.700  0.500  0.044079  12.6568  12.111  8.240386
  17995.965  17996.000  0.500  0.045239  12.6677  12.1074  8.176002
  17996.278  17996.300  0.500  0.046734  12.7112  12.1308  8.118880
  17996.576  17996.600  0.500  0.048128  12.6909  12.0946  8.012240
  17996.860  17996.900  0.500  0.049696  12.7004  12.0847  7.914418
  17997.201  17997.200  0.500  0.051419  12.6956  12.0593  7.789341
  17997.329  17997.500  0.500  0.052558  12.6952  12.0452  7.731505
  17997.926  17997.800  0.500  0.056423  12.6852  11.9893  7.443234
  17997.940  17998.100  0.500  0.056650  12.6787  11.9804  7.434127
  17998.253  17998.400  0.500  0.058709  12.6789  11.956  7.276257
  17998.566  17998.700  0.500  0.061366  12.6803  11.9256  7.092324
  17998.892  17999.000  0.500  0.064585  12.6706  11.8781  6.892420
  17999.191  17999.300  0.500  0.067698  12.6666  11.8375  6.701450
  17999.475  17999.600  0.500  0.071060  12.679  11.8093  6.512827
  17999.788  17999.900  0.500  0.075257  12.6749  11.7561  6.320879
  18000.072  18000.200  0.500  0.079729  12.6762  11.7048  6.131210
  18000.413  18000.500  0.500  0.085160  12.6756  11.6409  5.934684
  18000.683  18000.800  0.500  0.090764  12.6664  11.5674  5.756486
  18001.039  18001.100  0.500  0.097061  12.6636  11.4922  5.596035
  18001.351  18001.400  0.500  0.104699  12.6697  11.4103  5.446921
  18001.621  18001.700  0.500  0.112278  12.6677  11.3224  5.319904
  18001.920  18002.000  0.500  0.120256  12.665  11.23  5.207929
  18002.218  18002.300  0.500  0.128662  12.6624  11.1337  5.109989
  18002.517  18002.600  0.500  0.138089  12.6556  11.0233  5.013001
  18002.830  18002.900  0.500  0.148020  12.6598  10.918  4.927053
  18003.171  18003.200  0.500  0.157945  12.6512  10.8029  4.844370
  18003.455  18003.500  0.500  0.168720  12.6618  10.696  4.766968
  18003.782  18003.800  0.500  0.178963  12.662  10.5872  4.687771
  18004.053  18004.100  0.500  0.188768  12.6546  10.4778  4.606465
  18004.380  18004.400  0.500  0.198625  12.6502  10.3713  4.523556
  18004.636  18004.700  0.500  0.207685  12.6518  10.2791  4.444091
  18004.934  18005.000  0.500  0.216772  12.6502  10.1849  4.356989
  18005.247  18005.300  0.500  0.226025  12.6353  10.0792  4.254002
  18005.588  18005.600  0.500  0.234667  12.6455  10.0005  4.164784
  18005.887  18005.900  0.500  0.242914  12.6416  9.915308  4.066470
  18006.200  18006.200  0.500  0.250801  12.6431  9.838540  3.967099
  18006.484  18006.500  0.500  0.258114  12.64  9.764517  3.868263
  18006.769  18006.800  0.500  0.264873  12.6394  9.698278  3.770922
  18007.039  18007.100  0.500  0.271804  12.6252  9.620420  3.671104
  18007.338  18007.400  0.500  0.279159  12.632  9.555067  3.569160
  18007.665  18007.700  0.500  0.287530  12.6373  9.479398  3.456326
  18007.978  18008.000  0.500  0.296174  12.6347  9.395930  3.344429
  18008.319  18008.300  0.500  0.305074  12.6331  9.311442  3.229439
  18008.618  18008.600  0.500  0.314757  12.6194  9.211718  3.112970
  18008.888  18008.900  0.500  0.324431  12.6173  9.121542  3.005641
  18009.173  18009.200  0.500  0.335247  12.6263  9.029824  2.898922
  18009.472  18009.500  0.500  0.347129  12.6244  8.921823  2.788532
  18009.785  18009.800  0.500  0.359560  12.625  8.812057  2.683553
  18010.098  18010.100  0.500  0.373936  12.6199  8.682727  2.573185
  18010.368  18010.400  0.500  0.388788  12.6125  8.549718  2.464984
  18010.695  18010.700  0.500  0.404823  12.6203  8.418970  2.364500
  18011.008  18011.000  0.500  0.422556  12.6159  8.268075  2.260824
  18011.293  18011.300  0.500  0.440897  12.6056  8.111204  2.165245
  18011.578  18011.600  0.500  0.459332  12.6113  7.966642  2.080708
  18011.862  18011.900  0.500  0.478548  12.6095  7.813877  1.999951
  18012.175  18012.200  0.500  0.501104  12.609  7.639293  1.914677
  18012.474  18012.500  0.500  0.523969  12.6145  7.469867  1.836867
  18012.787  18012.800  0.500  0.549198  12.6131  7.282933  1.761440
  18013.086  18013.100  0.500  0.576436  12.6129  7.087171  1.687723
  18013.414  18013.400  0.500  0.603530  12.6049  6.893364  1.620339
  18013.684  18013.700  0.500  0.631754  12.6043  6.701194  1.559068
  18013.997  18014.000  0.500  0.661416  12.5984  6.502281  1.500212
  18014.268  18014.300  0.500  0.691077  12.5992  6.312633  1.447404
  18014.581  18014.600  0.500  0.724353  12.6064  6.109552  1.393561
  18014.866  18014.900  0.500  0.758933  12.6053  5.901367  1.342075
  18015.179  18015.200  0.500  0.793498  12.5839  5.691191  1.293645
  18015.492  18015.500  0.500  0.830396  12.5998  5.491938  1.249258
  18015.791  18015.800  0.500  0.867762  12.6022  5.291546  1.206667
  18016.076  18016.100  0.500  0.901636  12.6002  5.114489  1.169656
  18016.361  18016.400  0.500  0.935098  12.5934  4.943488  1.135195
  18016.646  18016.700  0.500  0.967548  12.5837  4.781996  1.103843
  18016.959  18017.000  0.500  1.000666  12.5786  4.624342  1.072851
  18017.272  18017.300  0.500  1.032062  12.5961  4.487642  1.047316
  18017.571  18017.600  0.500  1.063881  12.5907  4.345240  1.021107
  18017.899  18017.900  0.500  1.091119  12.5885  4.227736  0.999444
  18018.198  18018.200  0.500  1.114660  12.5831  4.127601  0.980951
  18018.497  18018.500  0.500  1.134723  12.5822  4.045331  0.966564
  18018.810  18018.800  0.500  1.151321  12.5818  3.978596  0.954505
  18019.081  18019.100  0.500  1.165207  12.5779  3.922521  0.943880
  18019.351  18019.400  0.500  1.176971  12.5795  3.877142  0.935587
  18019.665  18019.700  0.500  1.186565  12.5794  3.840098  0.928700
  18019.978  18020.000  0.500  1.194085  12.5709  3.808750  0.922835
  18020.263  18020.300  0.500  1.199942  12.5883  3.791736  0.920544
  18020.576  18020.600  0.500  1.204447  12.5826  3.772987  0.917221
  18020.876  18020.900  0.500  1.207390  12.5781  3.760571  0.913808
  18021.189  18021.200  0.500  1.209544  12.572  3.750652  0.912434
  18021.474  18021.500  0.500  1.211506  12.5682  3.742165  0.911248
  18021.773  18021.800  0.500  1.212923  12.5719  3.737956  0.909676
  18022.072  18022.100  0.500  1.214158  12.5638  3.730955  0.908069
  18022.372  18022.400  0.500  1.215192  12.5658  3.727681  0.906966
  18022.585  18022.600  0.500  1.215645  12.5679  3.726621  0.906382
  18023.597  18023.590  0.500  1.217048  12.5556  3.717765  0.902186
  18024.595  18024.590  0.500  1.215703  12.5551  3.722593  0.898981
  18025.649  18025.610  0.500  1.208928  12.5506  3.746579  0.896525
  18026.676  18026.660  0.500  1.196698  12.5423  3.790163  0.893943
  18027.773  18027.720  0.500  1.181185  12.542  3.849317  0.890580
  18028.857  18028.800  0.500  1.164033  12.5405  3.915455  0.888301
  18029.941  18029.900  0.500  1.144847  12.5319  3.988545  0.890589
  18031.053  18031.020  0.500  1.123997  12.5189  4.068375  0.900406
  18032.208  18032.160  0.500  1.099651  12.5277  4.171565  0.922975
  18033.350  18033.310  0.500  1.073027  12.5206  4.281685  0.955660
  18034.505  18034.490  0.500  1.046643  12.5141  4.393889  0.996429
  18035.704  18035.680  0.500  1.020635  12.5158  4.510257  1.044623
  18036.945  18036.900  0.500  0.997878  12.509  4.611569  1.090911
  18038.173  18038.130  0.500  0.979694  12.499  4.692435  1.131252
  18039.386  18039.380  0.500  0.965304  12.4926  4.758017  1.161686
  18040.671  18040.650  0.500  0.951728  12.4696  4.814188  1.182891
  18041.956  18041.940  0.500  0.939257  12.4378  4.862164  1.197619
  18043.256  18043.250  0.500  0.927436  12.4237  4.914412  1.211856
  18044.570  18044.580  0.500  0.915883  12.4397  4.977930  1.228501
  18045.927  18045.930  0.500  0.903340  12.464  5.050584  1.248354
  18047.298  18047.300  0.500  0.890290  12.4595  5.115063  1.270421
  18048.699  18048.680  0.500  0.876387  12.4563  5.185371  1.293669
  18050.099  18050.090  0.500  0.862804  12.4467  5.252224  1.315298
  18051.486  18051.510  0.500  0.851410  12.4511  5.314285  1.330949
  18052.987  18052.950  0.500  0.842975  12.4283  5.349482  1.336289
  18054.417  18054.410  0.500  0.838392  12.4335  5.376320  1.332955
  18055.918  18055.890  0.500  0.836452  12.432  5.386118  1.321016
  18057.434  18057.390  0.500  0.836983  12.4257  5.380532  1.301449
  18058.922  18058.910  0.500  0.840462  12.4203  5.359490  1.279781
  18060.510  18060.450  0.500  0.847149  12.4139  5.321041  1.256672
  18062.027  18062.010  0.500  0.856977  12.397  5.261822  1.234442
  18063.630  18063.580  0.500  0.870845  12.3914  5.186997  1.217178
  18065.191  18065.180  0.500  0.886155  12.3956  5.109933  1.207332
  18066.823  18066.790  0.500  0.902470  12.38  5.020915  1.200466
  18068.470  18068.430  0.500  0.917742  12.3674  4.939778  1.198218
  18070.103  18070.080  0.500  0.929915  12.3738  4.882526  1.199185
  18071.736  18071.750  0.500  0.939824  12.3726  4.833942  1.197628
  18073.441  18073.440  0.500  0.947927  12.3608  4.790356  1.192083
  18075.146  18075.150  0.500  0.955939  12.3566  4.750508  1.185689
  18076.866  18076.880  0.500  0.963718  12.3424  4.708263  1.177513
  18078.630  18078.630  0.500  0.970781  12.338  4.673493  1.170258
  18080.408  18080.390  0.500  0.976542  12.3301  4.643651  1.165807
  18082.201  18082.180  0.500  0.979372  12.3126  4.623974  1.163558
  18083.994  18083.980  0.500  0.979578  12.3111  4.622455  1.162110
  18085.845  18085.810  0.500  0.976929  12.2991  4.630179  1.161593
  18087.710  18087.650  0.500  0.972024  12.2799  4.645678  1.158884
  18089.533  18089.510  0.500  0.965279  12.2582  4.668870  1.156856
  18091.414  18091.390  0.500  0.957556  12.2176  4.689483  1.153790
  18093.353  18093.290  0.500  0.949581  12.2435  4.737058  1.159658
  18095.249  18095.210  0.500  0.941901  12.279  4.787420  1.167182
  18097.174  18097.150  0.500  0.934819  12.2716  4.818533  1.173615
  18099.099  18099.110  0.500  0.928389  12.2485  4.840476  1.182685
  18101.068  18101.080  0.500  0.922659  12.2518  4.869613  1.196943
  18103.081  18103.080  0.500  0.917348  12.2413  4.891361  1.214566
  18105.108  18105.090  0.500  0.912133  12.2322  4.913253  1.232384
  18107.136  18107.120  0.500  0.907385  12.2101  4.927727  1.250280
  18109.164  18109.180  0.500  0.902675  12.1841  4.940451  1.264006
  18111.251  18111.250  0.500  0.898872  12.2113  4.970362  1.278057
  18113.366  18113.340  0.500  0.895750  12.1992  4.980958  1.282674
  18115.497  18115.450  0.500  0.892949  12.186  4.989521  1.282026
  18117.642  18117.580  0.500  0.891254  12.1786  4.994951  1.279834
  18119.759  18119.720  0.500  0.889448  12.1509  4.992612  1.273772
  18121.935  18121.890  0.500  0.887552  12.0673  4.967664  1.262180
  18124.067  18124.080  0.500  0.884991  12.089  4.989328  1.262082
  18126.301  18126.280  0.500  0.880964  12.1466  5.033346  1.269491
  18128.492  18128.500  0.500  0.877234  12.1538  5.055157  1.271909
  18130.756  18130.750  0.500  0.873439  12.1419  5.069381  1.272836
  18132.977  18133.010  0.500  0.871512  12.1301  5.074261  1.271870
  18135.300  18135.290  0.500  0.871647  12.0997  5.060829  1.268042
  18137.623  18137.590  0.500  0.873654  12.0883  5.045946  1.263723
  18139.947  18139.910  0.500  0.876984  12.0887  5.029335  1.261334
  18142.272  18142.250  0.500  0.880780  12.084  5.008336  1.259982
  18144.611  18144.600  0.500  0.885046  12.1135  4.999188  1.264377
  18146.966  18146.980  0.500  0.888758  12.1053  4.977282  1.268053
  18149.379  18149.370  0.500  0.892655  12.0864  4.950180  1.271174
  18151.778  18151.790  0.500  0.895657  12.059  4.924156  1.274886
  18154.236  18154.220  0.500  0.897838  12.078  4.921176  1.283838
  18156.680  18156.670  0.500  0.898990  12.0706  4.912513  1.289567
  18159.182  18159.150  0.500  0.898467  12.0548  4.908617  1.293378
  18161.685  18161.640  0.500  0.897669  12.0508  4.910920  1.296440
  18164.160  18164.150  0.500  0.895839  12.0366  4.914136  1.297884
  18166.650  18166.670  0.500  0.894121  12.031  4.920261  1.299176
  18169.257  18169.220  0.500  0.891957  12.0211  4.926890  1.298779
  18171.763  18171.790  0.500  0.889422  12.0031  4.931983  1.295787
  18174.356  18174.370  0.500  0.886482  11.9934  4.942523  1.292560
  18177.038  18176.980  0.500  0.883019  11.9745  4.951838  1.287561
  18179.604  18179.600  0.500  0.879914  11.9791  4.969172  1.284574
  18182.272  18182.250  0.500  0.877664  11.963  4.973670  1.280542
  18184.970  18184.910  0.500  0.875405  11.9434  4.976751  1.276381
  18187.582  18187.590  0.500  0.873701  11.9429  4.985024  1.275614
  18190.282  18190.290  0.500  0.871697  11.9307  4.989914  1.276093
  18192.982  18193.010  0.500  0.868543  11.9276  5.004355  1.281754
  18195.756  18195.750  0.500  0.866801  11.9144  5.007549  1.288233
  18198.531  18198.500  0.500  0.865904  11.8899  5.001732  1.294364
  18201.292  18201.280  0.500  0.865490  11.8876  5.002827  1.302239
  18204.127  18204.070  0.500  0.865564  11.8819  5.000062  1.308269
  18206.890  18206.890  0.500  0.865857  11.8725  4.994649  1.313732
  18209.741  18209.720  0.500  0.866658  11.8538  4.982807  1.316126
  18212.578  18212.570  0.500  0.865427  11.8246  4.976625  1.319087
  18215.460  18215.450  0.500  0.864203  11.8216  4.981457  1.326943
  18218.343  18218.340  0.500  0.861911  11.8145  4.989902  1.333287
  18221.270  18221.250  0.500  0.860796  11.7433  4.965373  1.331479
  18224.228  18224.170  0.500  0.860194  11.7859  4.986389  1.338714
  18227.186  18227.120  0.500  0.860255  11.7951  4.989983  1.338963
  18230.116  18230.090  0.500  0.860439  11.7644  4.976042  1.331785
  18233.062  18233.070  0.500  0.860290  11.7744  4.981043  1.328182
  18236.082  18236.080  0.500  0.858531  11.7545  4.981356  1.321629
  18239.132  18239.100  0.500  0.857158  11.7397  4.981927  1.313529
  18242.154  18242.150  0.500  0.855601  11.722  4.982196  1.306279
  18245.235  18245.210  0.500  0.855146  11.7168  4.982247  1.300097
  18248.317  18248.290  0.500  0.854898  11.7043  4.978144  1.294212
  18251.430  18251.390  0.500  0.854666  11.6888  4.972697  1.291087
  18254.543  18254.510  0.500  0.854980  11.6753  4.965421  1.291501
  18257.643  18257.650  0.500  0.854723  11.6599  4.960149  1.295571
  18260.817  18260.800  0.500  0.854590  11.6562  4.959232  1.302986
  18264.022  18263.980  0.500  0.854691  11.6415  4.952487  1.308206
  18267.198  18267.170  0.500  0.854550  11.6265  4.946776  1.312799
  18270.435  18270.390  0.500  0.854602  11.614  4.941205  1.317509
  18273.643  18273.620  0.500  0.855098  11.6096  4.936905  1.319655
  18276.881  18276.870  0.500  0.855397  11.5874  4.925962  1.319095
  18280.179  18280.150  0.500  0.855587  11.5489  4.908676  1.317024
  18283.464  18283.440  0.500  0.855051  11.2313  4.776222  1.284860
  18286.779  18286.750  0.500  0.854705  11.2851  4.800763  1.295087
  18290.111  18290.070  0.500  0.852959  11.5103  4.905156  1.326505
  18293.472  18293.420  0.500  0.850738  11.505  4.913799  1.330667
  18296.791  18296.790  0.500  0.848556  11.5126  4.927753  1.335403
  18300.170  18300.170  0.500  0.846148  11.4881  4.929146  1.334827
  18303.609  18303.580  0.500  0.843906  11.4938  4.942655  1.337469
  18307.064  18307.000  0.500  0.842550  11.4711  4.939590  1.334261
  18310.491  18310.450  0.500  0.840706  11.4611  4.944371  1.331712
  18313.949  18313.910  0.500  0.840005  11.4353  4.936724  1.327140
  18317.408  18317.390  0.500  0.838733  11.4224  4.937410  1.322968
  18320.927  18320.890  0.500  0.837689  11.4204  4.941731  1.320893
  18324.433  18324.410  0.500  0.835945  11.4072  4.944596  1.319814
  18327.999  18327.950  0.500  0.834460  11.3873  4.943314  1.318966
  18331.537  18331.500  0.500  0.833202  11.3788  4.945836  1.321666
  18335.135  18335.080  0.500  0.832187  11.3727  4.948237  1.327446
  18338.720  18338.680  0.500  0.831609  11.3526  4.942348  1.331952
  18342.262  18342.290  0.500  0.831219  11.3198  4.929966  1.333434
  18345.939  18345.920  0.500  0.831241  11.2697  4.908033  1.333133
  18349.617  18349.580  0.500  0.831000  11.2773  4.912531  1.337865
  18353.311  18353.250  0.500  0.831077  11.3059  4.924617  1.345330
  18356.992  18356.940  0.500  0.829700  11.2862  4.922799  1.347051
  18360.674  18360.650  0.500  0.829148  11.2624  4.915163  1.348276
  18364.402  18364.380  0.500  0.827571  11.2446  4.915130  1.350079
  18368.177  18368.120  0.500  0.826153  11.2336  4.917271  1.352028
  18371.938  18371.890  0.500  0.824641  11.2267  4.921705  1.353828
  18375.745  18375.680  0.500  0.823421  11.2103  4.920501  1.352851
  18379.523  18379.480  0.500  0.822209  11.1825  4.914271  1.350965
  18383.319  18383.310  0.500  0.822025  11.1712  4.910216  1.348166
  18387.190  18387.150  0.500  0.822037  11.1721  4.910548  1.346737
  18391.048  18391.010  0.500  0.821530  11.1561  4.905989  1.344823
  18394.966  18394.890  0.500  0.820686  11.1356  4.901110  1.341623
  18398.842  18398.790  0.500  0.819775  11.1098  4.894209  1.340122
  18402.735  18402.710  0.500  0.818458  11.0982  4.895527  1.340382
  18406.644  18406.650  0.500  0.817279  11.1045  4.904112  1.342746
  18410.629  18410.610  0.500  0.816653  11.0861  4.899030  1.341460
  18414.631  18414.580  0.500  0.816020  11.0739  4.896730  1.343018
  18418.619  18418.580  0.500  0.815538  11.055  4.890749  1.343686
  18422.609  18422.590  0.500  0.814959  11.0411  4.887449  1.345091
  18426.646  18426.630  0.500  0.814194  11.0209  4.882206  1.346806
  18430.685  18430.680  0.500  0.813422  11.0046  4.878753  1.348701
  18434.784  18434.750  0.500  0.812660  10.9904  4.876161  1.351559
  18438.886  18438.840  0.500  0.812155  10.9771  4.872732  1.353854
  18443.020  18442.950  0.500  0.810396  10.9576  4.872628  1.355738
  18447.080  18447.080  0.500  0.809600  10.9413  4.869276  1.357173
  18451.217  18451.230  0.500  0.808223  10.936  4.873606  1.359898
  18455.431  18455.390  0.500  0.807285  10.9203  4.871207  1.360679
  18459.647  18459.580  0.500  0.805847  10.9074  4.872425  1.361940
  18463.819  18463.780  0.500  0.804697  10.8869  4.868880  1.360574
  18468.039  18468.010  0.500  0.802748  10.8535  4.863396  1.358754
  18472.245  18472.250  0.500  0.801284  10.8423  4.865499  1.359040
  18476.544  18476.510  0.500  0.800149  10.8376  4.868907  1.359950
  18480.829  18480.790  0.500  0.799182  10.7691  4.842814  1.352839
  18485.131  18485.090  0.500  0.798119  10.8099  4.866338  1.360302
  18489.406  18489.410  0.500  0.797032  10.8001  4.867206  1.361359
  18493.772  18493.750  0.500  0.796604  10.7811  4.860719  1.360631
  18498.170  18498.110  0.500  0.795619  10.7632  4.857432  1.360287
  18502.541  18502.490  0.500  0.794893  10.7505  4.855259  1.360423
  18506.898  18506.880  0.500  0.793999  10.7425  4.855969  1.362066
  18511.303  18511.300  0.500  0.792756  10.7195  4.851591  1.362403
  18515.740  18515.730  0.500  0.792199  10.7003  4.845625  1.361912
  18520.239  18520.180  0.500  0.790952  10.6907  4.847294  1.364532
  18524.696  18524.650  0.500  0.790414  10.673  4.841867  1.365985
  18529.139  18529.140  0.500  0.789956  10.654  4.835468  1.366744
  18533.660  18533.650  0.500  0.789084  10.6373  4.832112  1.368860
  18538.213  18538.180  0.500  0.788631  10.6172  4.825148  1.369328
  18542.799  18542.730  0.500  0.787942  10.6087  4.824617  1.370122
  18547.372  18547.300  0.500  0.786419  10.5957  4.826068  1.372573
  18551.872  18551.880  0.500  0.784963  10.5788  4.825398  1.373892
  18556.540  18556.490  0.500  0.783274  10.5569  4.823541  1.373649
  18561.119  18561.110  0.500  0.782064  10.5374  4.820464  1.373251
  18565.853  18565.760  0.500  0.780720  10.5241  4.820841  1.373769
  18570.437  18570.420  0.500  0.779122  10.5075  4.820938  1.373701
  18575.130  18575.100  0.500  0.778721  10.5005  4.819632  1.375319
  18579.825  18579.800  0.500  0.777632  10.4725  4.812056  1.373274
  18584.583  18584.520  0.500  0.776549  10.4475  4.805755  1.373089
  18589.298  18589.260  0.500  0.775301  10.4431  4.809709  1.375375
  18594.015  18594.010  0.500  0.774418  10.431  4.808399  1.375602
  18598.780  18598.790  0.500  0.773362  10.4138  4.805561  1.377753
  18603.670  18603.590  0.500  0.772204  10.4001  4.804756  1.378306
  18608.425  18608.400  0.500  0.771122  10.3657  4.794091  1.376698
  18613.273  18613.230  0.500  0.770261  10.3475  4.789791  1.377328
  18618.094  18618.090  0.500  0.769177  10.3439  4.793320  1.380435
  18623.024  18622.960  0.500  0.768084  10.3249  4.789719  1.379983
  18627.911  18627.850  0.500  0.767336  10.292  4.778040  1.379029
  18632.816  18632.760  0.500  0.765958  10.296  4.786511  1.383791
  18637.708  18637.690  0.500  0.764903  10.2755  4.781980  1.383905
  18642.694  18642.630  0.500  0.763694  10.2619  4.781470  1.385862
  18647.668  18647.600  0.500  0.762599  10.2452  4.778899  1.386742
  18652.659  18652.590  0.500  0.760943  10.2224  4.776163  1.386897
  18657.592  18657.590  0.500  0.760065  10.2058  4.772592  1.387616
  18662.666  18662.620  0.500  0.758526  10.1866  4.770951  1.388621
  18667.726  18667.660  0.500  0.757414  10.1634  4.765372  1.388677
  18672.775  18672.720  0.500  0.756050  10.1577  4.769193  1.389903
  18677.856  18677.800  0.500  0.754868  10.139  4.766075  1.390549
  18682.910  18682.900  0.500  0.753996  10.1189  4.760777  1.390629
  18688.089  18688.020  0.500  0.752517  10.0984  4.758174  1.390741
  18693.240  18693.160  0.500  0.751691  10.0933  4.759658  1.392021
  18698.318  18698.320  0.500  0.750724  10.0634  4.750165  1.390791
  18703.552  18703.500  0.500  0.749910  10.0514  4.748386  1.391764
  18708.758  18708.690  0.500  0.748639  10.0308  4.744673  1.392810
  18713.997  18713.910  0.500  0.747825  10.0214  4.744057  1.393824
  18719.194  18719.140  0.500  0.746456  10.0032  4.741967  1.394258
  18724.393  18724.390  0.500  0.745621  9.967288  4.728877  1.392648
  18729.703  18729.660  0.500  0.744116  9.958352  4.731753  1.393893
  18735.016  18734.950  0.500  0.742736  9.937448  4.728342  1.395622
  18740.286  18740.260  0.500  0.742019  9.931882  4.729083  1.397383
  18745.651  18745.590  0.500  0.740659  9.902135  4.721332  1.397700
  18751.004  18750.940  0.500  0.739546  9.890014  4.720808  1.398160
  18756.360  18756.310  0.500  0.738361  9.872209  4.717896  1.399426
  18761.797  18761.690  0.500  0.737136  9.846610  4.711430  1.399310
  18767.113  18767.100  0.500  0.735891  9.830485  4.709574  1.400320
  18772.525  18772.520  0.500  0.734340  9.810796  4.707438  1.400398
  18778.079  18777.970  0.500  0.733079  9.802705  4.709487  1.402396
  18783.481  18783.430  0.500  0.732024  9.780572  4.703814  1.402674
  18788.965  18788.910  0.500  0.730554  9.754931  4.698386  1.402246
  18794.498  18794.410  0.500  0.729503  9.750111  4.701004  1.404614
  18800.018  18799.930  0.500  0.728088  9.728061  4.697014  1.404341
  18805.542  18805.470  0.500  0.727368  9.703768  4.688657  1.404123
  18811.054  18811.020  0.500  0.726235  9.684932  4.684863  1.403532
  18816.647  18816.600  0.500  0.724997  9.666592  4.681784  1.404573
  18822.305  18822.200  0.500  0.723827  9.649118  4.678791  1.405454
  18827.889  18827.810  0.500  0.722443  9.628985  4.675494  1.405780
  18833.461  18833.450  0.500  0.721009  9.613213  4.674535  1.406651
  18839.129  18839.100  0.500  0.720057  9.594965  4.670104  1.407923
  18844.816  18844.770  0.500  0.718993  9.576891  4.666269  1.407961
  18850.570  18850.460  0.500  0.717365  9.558983  4.665134  1.408601