File: xdidata/Data/Dy/Dy-L3-DysprosiumOxide.xdi
# XDI/1.0 BlueSky/1.10.0 BMM/2023-1.0-py310-tiled
# Beamline.name: BMM (06BM) -- Beamline for Materials Measurement (NIST)
# Beamline.xray_source: NSLS-II three-pole wiggler
# Beamline.collimation: paraboloid mirror, 5 nm Rh on 30 nm Pt
# Beamline.focusing: not in use
# Beamline.harmonic_rejection: flat mirror, Si stripe, pitch = 7.0 mrad relative to beam
# Beamline.software: Bluesky 1.10.0, Ophyd 1.7.0, DataBroker 2.0.0b13, Python 3.10.8, 2023-1.0-py310-tiled
# Detector.I0: 10 cm N2
# Detector.I1: 25 cm N2
# Detector.I2: 25 cm N2
# Element.symbol: Dy
# Element.edge: L3
# Element.reference: Dy
# Element.reference_material: Dy2O3
# Facility.name: NSLS-II
# Facility.energy: 3.0
# Facility.current: 399.3
# Facility.mode: top-off
# Facility.GUP: 301027
# Facility.SAF: 310583
# Facility.cycle: 2023-2
# Mono.name: Si(111)
# Mono.d_spacing: 3.13519
# Mono.encoder_resolution: 0.0000050 deg/ct
# Mono.angle_offset: 16.0754 deg
# Mono.scan_mode: pseudo channel cut
# Mono.scan_type: step
# Mono.direction: forward in energy
# Sample.name: Dy2O3
# Sample.prep: PEG pellet
# Sample.x: 109.138 mm
# Sample.y: 153.150 mm
# Sample.SDD_position: 205.000 mm
# Scan.experimenters: Bruce Ravel
# Scan.edge_energy: 7790.1
# Scan.start_time: 2023-05-28T14:21:54
# Scan.end_time: 2023-05-28T14:30:24
# Scan.transient_id: 78756
# Scan.uid: 1ba70c9e-abdc-4bf8-bb65-0da13854fc00
# Scan.plot_hint: ln(It/Ir)  --  ln($6/$7)
# Column.1: energy eV
# Column.2: requested_energy eV
# Column.3: measurement_time seconds
# Column.4: xmu
# Column.5: I0 nA
# Column.6: It nA
# Column.7: Ir nA
# ///////////
# sample courtesy Martin Stennett, University of Sheffield
# -----------
# energy  requested_energy  measurement_time  xmu  I0  It  Ir
  7590.105  7590.100  0.500  2.156867  144.521  161.09  18.636
  7600.117  7600.100  0.500  2.149104  144.448  161.347  18.8112
  7610.116  7610.100  0.500  2.141236  143.788  160.997  18.9186
  7620.109  7620.100  0.500  2.133498  143.957  161.543  19.1303
  7630.121  7630.100  0.500  2.125921  144.209  162.199  19.3541
  7640.205  7640.100  0.500  2.118299  144.139  162.495  19.5377
  7650.108  7650.100  0.500  2.110599  144.035  162.714  19.7154
  7660.107  7660.100  0.500  2.103166  143.934  162.96  19.8925
  7670.121  7670.100  0.500  2.095670  143.805  163.173  20.0683
  7680.121  7680.100  0.500  2.088392  143.66  163.361  20.2381
  7690.131  7690.100  0.500  2.080949  143.61  163.651  20.4256
  7700.110  7700.100  0.500  2.073704  143.379  163.745  20.5859
  7710.113  7710.100  0.500  2.066649  143.386  164.094  20.7758
  7720.102  7720.100  0.500  2.059798  142.744  163.689  20.867
  7730.111  7730.100  0.500  2.053357  143.055  164.398  21.0928
  7740.113  7740.100  0.500  2.047682  141.416  162.879  21.0169
  7750.117  7750.100  0.500  2.043074  142.767  164.774  21.3596
  7760.101  7760.100  0.500  2.041419  142.621  164.896  21.4109
  7762.098  7762.100  0.500  2.041690  142.585  164.949  21.4119
  7764.094  7764.100  0.500  2.042382  142.549  164.974  21.4003
  7766.093  7766.100  0.500  2.043438  142.515  164.989  21.3797
  7768.094  7768.100  0.500  2.044933  142.477  165.014  21.3509
  7770.088  7770.100  0.500  2.047389  142.451  165.057  21.3042
  7772.091  7772.100  0.500  2.050723  142.413  165.08  21.2362
  7774.092  7774.100  0.500  2.055597  142.37  165.085  21.1335
  7776.099  7776.100  0.500  2.062499  142.324  165.085  20.9882
  7778.093  7778.100  0.500  2.072487  142.296  165.147  20.7875
  7780.094  7780.100  0.500  2.087195  142.259  165.179  20.4879
  7780.376  7780.400  0.500  2.090069  142.256  165.2  20.4317
  7780.673  7780.700  0.500  2.093052  142.245  165.173  20.3675
  7780.978  7781.000  0.500  2.096411  142.236  165.162  20.2979
  7781.283  7781.300  0.500  2.100126  142.221  165.147  20.2208
  7781.578  7781.600  0.500  2.103960  142.231  165.174  20.1466
  7781.883  7781.900  0.500  2.108090  142.204  165.174  20.0637
  7782.183  7782.200  0.500  2.112554  142.207  165.175  19.9744
  7782.475  7782.500  0.500  2.117470  142.207  165.189  19.8781
  7782.782  7782.800  0.500  2.123113  142.18  165.176  19.7647
  7783.080  7783.100  0.500  2.129068  142.168  165.166  19.6461
  7783.377  7783.400  0.500  2.135814  142.165  165.178  19.5155
  7783.680  7783.700  0.500  2.143469  142.155  165.173  19.3661
  7783.985  7784.000  0.500  2.151596  142.147  165.167  19.2087
  7784.280  7784.300  0.500  2.160373  142.143  165.159  19.0398
  7784.582  7784.600  0.500  2.169911  142.128  165.165  18.8598
  7784.888  7784.900  0.500  2.180087  142.117  165.173  18.6697
  7785.190  7785.200  0.500  2.190867  142.122  165.196  18.4722
  7785.490  7785.500  0.500  2.201993  142.119  165.2  18.2683
  7785.793  7785.800  0.500  2.213026  142.118  165.2  18.0678
  7786.091  7786.100  0.500  2.224306  142.107  165.208  17.866
  7786.391  7786.400  0.500  2.235614  142.1  165.209  17.6652
  7786.691  7786.700  0.500  2.247144  142.081  165.155  17.457
  7786.991  7787.000  0.500  2.259303  142.064  165.127  17.2431
  7787.292  7787.300  0.500  2.272855  142.059  165.13  17.0113
  7787.592  7787.600  0.500  2.287680  142.041  165.137  16.7617
  7787.885  7787.900  0.500  2.304030  142.035  165.133  16.4894
  7788.185  7788.200  0.500  2.322890  142.028  165.141  16.1821
  7788.490  7788.500  0.500  2.344330  142.022  165.146  15.8394
  7788.788  7788.800  0.500  2.367994  142  165.168  15.471
  7789.086  7789.100  0.500  2.394947  141.995  165.126  15.0558
  7789.397  7789.400  0.500  2.426406  141.991  165.105  14.5876
  7789.697  7789.700  0.500  2.460332  141.994  165.12  14.1023
  7789.998  7790.000  0.500  2.499743  141.984  165.124  13.5577
  7790.301  7790.300  0.500  2.545885  141.977  165.166  12.9496
  7790.599  7790.600  0.500  2.598610  141.965  165.169  12.2848
  7790.899  7790.900  0.500  2.658836  141.964  165.183  11.5677
  7791.200  7791.200  0.500  2.725363  141.96  165.185  10.8233
  7791.498  7791.500  0.500  2.800029  141.935  165.175  10.044
  7791.793  7791.800  0.500  2.877871  141.937  165.187  9.292501
  7792.089  7792.100  0.500  2.959774  141.921  165.187  8.561717
  7792.390  7792.400  0.500  3.045528  141.919  165.196  7.858554
  7792.688  7792.700  0.500  3.129585  141.919  165.207  7.225485
  7792.994  7793.000  0.500  3.216807  141.899  165.193  6.621387
  7793.294  7793.300  0.500  3.297453  141.895  165.194  6.108417
  7793.600  7793.600  0.500  3.372431  141.881  165.193  5.667123
  7793.901  7793.900  0.500  3.438666  141.879  165.192  5.303914
  7794.205  7794.200  0.500  3.494180  141.864  165.199  5.017683
  7794.500  7794.500  0.500  3.539842  141.876  165.215  4.794182
  7794.804  7794.800  0.500  3.576646  141.87  165.228  4.621325
  7795.094  7795.100  0.500  3.605579  141.865  165.238  4.489790
  7795.395  7795.400  0.500  3.629435  141.848  165.192  4.382726
  7795.694  7795.700  0.500  3.648418  141.841  165.188  4.300220
  7795.992  7796.000  0.500  3.661733  141.839  165.205  4.243787
  7796.293  7796.300  0.500  3.668826  141.826  165.222  4.214217
  7796.596  7796.600  0.500  3.668792  141.827  165.249  4.215042
  7796.895  7796.900  0.500  3.660422  141.809  165.238  4.250198
  7797.204  7797.200  0.500  3.644191  141.8  165.23  4.319546
  7797.497  7797.500  0.500  3.620678  141.796  165.213  4.421839
  7797.801  7797.800  0.500  3.588909  141.786  165.218  4.564716
  7798.099  7798.100  0.500  3.550309  141.771  165.189  4.743518
  7798.395  7798.400  0.500  3.505847  141.772  165.164  4.958451
  7798.694  7798.700  0.500  3.456285  141.775  165.2  5.211507
  7799.000  7799.000  0.500  3.401975  141.761  165.221  5.503082
  7799.296  7799.300  0.500  3.346962  141.753  165.211  5.813954
  7799.598  7799.600  0.500  3.292089  141.743  165.199  6.141443
  7799.901  7799.900  0.500  3.238475  141.728  165.19  6.479346
  7800.203  7800.200  0.500  3.187488  141.715  165.169  6.817405
  7800.504  7800.500  0.500  3.138423  141.716  165.18  7.160749
  7800.803  7800.800  0.500  3.092213  141.705  165.173  7.499063
  7801.107  7801.100  0.500  3.048226  141.695  165.203  7.837743
  7801.400  7801.400  0.500  3.009286  141.684  165.176  8.147614
  7801.702  7801.700  0.500  2.973514  141.682  165.166  8.443861
  7802.001  7802.000  0.500  2.942119  141.676  165.205  8.715199
  7802.297  7802.300  0.500  2.914780  141.677  165.244  8.958882
  7802.596  7802.600  0.500  2.890920  141.65  165.223  9.174015
  7802.900  7802.900  0.500  2.869623  141.642  165.231  9.371965
  7803.207  7803.200  0.500  2.850474  141.647  165.216  9.552261
  7803.506  7803.500  0.500  2.833781  141.628  165.172  9.710478
  7803.802  7803.800  0.500  2.818983  141.625  165.201  9.856981
  7804.104  7804.100  0.500  2.805380  141.61  165.217  9.992947
  7804.400  7804.400  0.500  2.793457  141.603  165.215  10.1127
  7804.702  7804.700  0.500  2.782472  141.599  165.19  10.2228
  7804.996  7805.000  0.500  2.772832  141.59  165.182  10.3213
  7805.300  7805.300  0.500  2.763840  141.579  165.209  10.4163
  7805.589  7805.600  0.500  2.755901  141.579  165.23  10.5007
  7805.893  7805.900  0.500  2.748235  141.571  165.235  10.5818
  7806.192  7806.200  0.500  2.741501  141.553  165.23  10.6529
  7806.504  7806.500  0.500  2.734993  141.558  165.223  10.7221
  7806.799  7806.800  0.500  2.729671  141.541  165.223  10.7793
  7807.098  7807.100  0.500  2.724777  141.545  165.186  10.8297
  7807.400  7807.400  0.500  2.720710  141.539  165.206  10.8752
  7807.702  7807.700  0.500  2.717314  141.543  165.24  10.9144
  7807.993  7808.000  0.500  2.714708  141.535  165.243  10.9431
  7808.292  7808.300  0.500  2.712533  141.519  165.234  10.9663
  7808.597  7808.600  0.500  2.710885  141.507  165.238  10.9847
  7808.891  7808.900  0.500  2.709995  141.497  165.198  10.9918
  7809.188  7809.200  0.500  2.709507  141.493  165.209  10.9979
  7809.490  7809.500  0.500  2.709683  141.478  165.27  11
  7809.795  7809.800  0.500  2.710497  141.468  165.246  10.9895
  7810.097  7810.100  0.500  2.711594  141.462  165.263  10.9786
  7810.402  7810.400  0.500  2.713176  141.451  165.241  10.9597
  7810.701  7810.700  0.500  2.714854  141.448  165.233  10.9409
  7810.998  7811.000  0.500  2.716996  141.43  165.228  10.9171
  7811.292  7811.300  0.500  2.719045  141.424  165.193  10.8925
  7811.589  7811.600  0.500  2.721271  141.423  165.214  10.8696
  7811.889  7811.900  0.500  2.723290  141.417  165.231  10.8488
  7812.191  7812.200  0.500  2.725048  141.428  165.261  10.8317
  7812.496  7812.500  0.500  2.726409  141.419  165.274  10.8178
  7812.856  7812.800  0.500  2.727491  141.402  165.258  10.8051
  7813.077  7813.100  0.500  2.728144  141.777  165.677  10.8254
  7813.375  7813.400  0.500  2.728519  141.804  165.702  10.823
  7813.719  7813.700  0.500  2.728322  141.792  165.76  10.8289
  7814.052  7814.000  0.500  2.727767  141.795  165.723  10.8325
  7814.287  7814.300  0.500  2.726825  141.792  165.72  10.8425
  7814.592  7814.600  0.500  2.725552  141.766  165.753  10.8585
  7814.879  7814.900  0.500  2.723988  141.743  165.69  10.8714
  7815.074  7815.100  0.500  2.722648  141.693  165.678  10.8851
  7816.063  7816.090  0.500  2.714980  141.626  165.611  10.9645
  7817.104  7817.090  0.500  2.705967  141.6  165.63  11.065
  7818.095  7818.110  0.500  2.699052  141.577  165.613  11.1407
  7819.140  7819.160  0.500  2.696273  141.549  165.618  11.172
  7820.202  7820.220  0.500  2.699764  141.529  165.675  11.1369
  7821.286  7821.300  0.500  2.708823  141.506  165.675  11.0364
  7822.383  7822.400  0.500  2.722347  141.496  165.685  10.8889
  7823.512  7823.520  0.500  2.738884  141.477  165.688  10.7105
  7824.652  7824.660  0.500  2.756564  141.454  165.699  10.5235
  7825.802  7825.810  0.500  2.775940  141.434  165.735  10.3238
  7826.982  7826.990  0.500  2.796996  141.423  165.746  10.1094
  7828.173  7828.180  0.500  2.819636  141.384  165.708  9.880811
  7829.384  7829.400  0.500  2.840575  141.375  165.729  9.677284
  7830.625  7830.630  0.500  2.857435  141.339  165.729  9.515480
  7831.877  7831.880  0.500  2.866397  140.356  164.638  9.368497
  7833.145  7833.150  0.500  2.867161  141.097  165.558  9.413619
  7834.437  7834.440  0.500  2.860244  141.206  165.732  9.488939
  7835.743  7835.750  0.500  2.847494  141.208  165.792  9.614198
  7837.083  7837.080  0.500  2.831949  141.184  165.783  9.764255
  7838.429  7838.430  0.500  2.815003  141.15  165.79  9.931577
  7839.794  7839.800  0.500  2.799395  140.219  164.724  10.0229
  7841.180  7841.180  0.500  2.785605  140.991  165.65  10.2193
  7842.587  7842.590  0.500  2.774673  141.067  165.781  10.3397
  7844.009  7844.010  0.500  2.765326  141.051  165.839  10.4405
  7845.447  7845.450  0.500  2.757015  140.8  165.618  10.5136
  7846.916  7846.910  0.500  2.749019  140.313  165.088  10.5641
  7848.395  7848.390  0.500  2.742312  140.941  165.87  10.6855
  7849.884  7849.890  0.500  2.736338  140.94  165.942  10.7542
  7851.403  7851.410  0.500  2.731446  140.917  165.925  10.8059
  7852.957  7852.950  0.500  2.727057  140.894  165.972  10.8565
  7854.506  7854.510  0.500  2.723132  140.017  164.961  10.8328
  7856.079  7856.080  0.500  2.719335  140.667  165.771  10.9274
  7857.688  7857.680  0.500  2.716396  140.745  165.938  10.9706
  7859.297  7859.290  0.500  2.714382  140.733  165.988  10.996
  7860.935  7860.930  0.500  2.713656  140.713  166.011  11.0055
  7862.586  7862.580  0.500  2.714398  140.682  166.046  10.9997
  7864.255  7864.250  0.500  2.716607  140.648  166.046  10.9754
  7865.943  7865.940  0.500  2.720599  140.635  166.056  10.9324
  7867.654  7867.650  0.500  2.725749  140.603  166.035  10.8748
  7869.386  7869.380  0.500  2.731616  140.574  166.048  10.8121
  7871.130  7871.130  0.500  2.737752  140.54  166.086  10.7483
  7872.896  7872.890  0.500  2.743581  140.493  166.108  10.6873
  7874.683  7874.680  0.500  2.748349  140.468  166.119  10.6372
  7876.485  7876.480  0.500  2.752100  140.43  166.135  10.5983
  7878.306  7878.310  0.500  2.754171  140.38  166.135  10.5764
  7880.147  7880.150  0.500  2.754919  140.354  166.154  10.5697
  7882.015  7882.010  0.500  2.754452  140.318  166.162  10.5752
  7883.889  7883.890  0.500  2.752988  140.286  166.187  10.5923
  7885.797  7885.790  0.500  2.751119  140.255  166.222  10.6144
  7887.707  7887.710  0.500  2.749300  140.216  166.264  10.6363
  7889.656  7889.650  0.500  2.747893  140.171  166.287  10.6528
  7891.614  7891.610  0.500  2.746205  140.14  166.303  10.6718
  7893.584  7893.580  0.500  2.744647  140.117  166.353  10.6917
  7895.578  7895.580  0.500  2.742533  140.082  166.405  10.7177
  7897.585  7897.590  0.500  2.740423  140.034  166.405  10.7403
  7899.627  7899.620  0.500  2.738695  138.972  165.215  10.6819
  7901.680  7901.680  0.500  2.737471  139.825  166.289  10.7645
  7903.764  7903.750  0.500  2.736552  139.824  166.303  10.7753
  7905.842  7905.840  0.500  2.735579  139.813  166.377  10.7906
  7907.960  7907.950  0.500  2.734336  139.774  166.392  10.805
  7910.085  7910.080  0.500  2.731608  139.731  166.433  10.8372
  7912.230  7912.220  0.500  2.727336  139.688  166.429  10.8833
  7914.395  7914.390  0.500  2.721175  139.649  166.453  10.9522
  7916.594  7916.580  0.500  2.714060  139.595  166.473  11.0317
  7918.788  7918.780  0.500  2.706224  139.551  166.49  11.1196
  7921.002  7921.000  0.500  2.698469  139.505  166.46  11.2042
  7923.258  7923.250  0.500  2.691316  139.462  166.474  11.2856
  7925.515  7925.510  0.500  2.686339  139.412  166.506  11.3441
  7927.803  7927.790  0.500  2.684233  138.977  166.07  11.3382
  7930.095  7930.090  0.500  2.684851  139.182  166.344  11.3499
  7932.420  7932.410  0.500  2.687072  139.201  166.442  11.3314
  7934.758  7934.750  0.500  2.689181  139.126  166.456  11.3085
  7937.113  7937.100  0.500  2.690836  138.964  166.35  11.2826
  7939.489  7939.480  0.500  2.692212  133.686  160.113  10.8446
  7941.880  7941.870  0.500  2.693422  139.166  166.75  11.2805
  7944.302  7944.290  0.500  2.695616  139.064  166.718  11.2536
  7946.736  7946.720  0.500  2.698907  138.983  166.706  11.2158
  7949.177  7949.170  0.500  2.702816  138.886  166.661  11.1691
  7951.663  7951.650  0.500  2.706627  137.981  165.608  11.0562
  7954.147  7954.140  0.500  2.709107  138.755  166.617  11.096
  7956.664  7956.650  0.500  2.708947  138.709  166.661  11.1008
  7959.184  7959.170  0.500  2.706444  138.64  166.646  11.1276
  7961.739  7961.720  0.500  2.701473  138.571  166.649  11.1832
  7964.300  7964.290  0.500  2.695021  138.504  166.656  11.2561
  7966.880  7966.870  0.500  2.688259  138.421  166.622  11.3302
  7969.494  7969.480  0.500  2.682615  138.337  166.606  11.3932
  7972.105  7972.100  0.500  2.678205  138.228  166.568  11.441
  7974.766  7974.750  0.500  2.674608  138.074  166.467  11.4752
  7977.418  7977.410  0.500  2.672279  137.899  166.317  11.4916
  7980.102  7980.090  0.500  2.671028  137.299  165.674  11.4615
  7982.798  7982.790  0.500  2.670561  137.647  166.211  11.504
  7985.530  7985.510  0.500  2.670481  137.602  166.205  11.5046
  7988.260  7988.250  0.500  2.670067  137.561  166.252  11.5126
  7991.012  7991.000  0.500  2.669869  137.497  166.224  11.5129
  7993.795  7993.780  0.500  2.669770  137.426  166.225  11.5141
  7996.575  7996.570  0.500  2.669478  137.354  166.226  11.5175
  7999.401  7999.390  0.500  2.668393  137.283  166.228  11.5302
  8002.234  8002.220  0.500  2.665908  137.242  166.246  11.5601
  8005.086  8005.070  0.500  2.662078  137.167  166.23  11.6034
  8007.970  8007.950  0.500  2.657133  137.194  166.377  11.6712
  8010.854  8010.840  0.500  2.652004  137.248  166.501  11.74
  8013.772  8013.750  0.500  2.647633  137.235  166.578  11.7969
  8016.677  8016.670  0.500  2.643771  137.207  166.658  11.8482
  8019.635  8019.620  0.500  2.640737  137.15  166.681  11.8858
  8022.599  8022.590  0.500  2.638583  137.086  166.703  11.913
  8025.582  8025.570  0.500  2.637416  137.008  166.704  11.927
  8028.597  8028.580  0.500  2.636903  136.93  166.656  11.9297
  8031.620  8031.600  0.500  2.636640  136.875  166.682  11.9347
  8034.659  8034.650  0.500  2.636500  137.151  167.145  11.9695
  8037.726  8037.710  0.500  2.636106  137.1  167.159  11.9752
  8040.808  8040.790  0.500  2.635740  137.034  167.169  11.9803
  8043.905  8043.890  0.500  2.635287  136.972  167.161  11.9852
  8047.028  8047.010  0.500  2.634964  136.895  167.16  11.989
  8050.168  8050.150  0.500  2.633984  136.8  167.161  12.0008
  8053.308  8053.300  0.500  2.632248  136.665  167.091  12.0166
  8056.497  8056.480  0.500  2.629975  136.393  166.853  12.0268
  8059.684  8059.670  0.500  2.627245  134.849  165.048  11.9292
  8062.909  8062.890  0.500  2.624620  136.499  167.165  12.114
  8066.134  8066.120  0.500  2.621648  136.305  167.042  12.1411
  8069.393  8069.370  0.500  2.618356  135.179  165.726  12.0852
  8072.668  8072.650  0.500  2.614779  136.33  167.228  12.2384
  8075.957  8075.940  0.500  2.611079  136.098  167.042  12.2701
  8079.268  8079.250  0.500  2.607271  131.455  161.459  11.9053
  8082.594  8082.570  0.500  2.603314  136.151  167.293  12.3843
  8085.933  8085.920  0.500  2.600597  135.968  167.174  12.4092
  8089.306  8089.290  0.500  2.598715  135.694  166.938  12.415
  8092.688  8092.670  0.500  2.596930  134.058  165.016  12.294
  8096.097  8096.080  0.500  2.595844  135.75  167.183  12.469
  8099.513  8099.500  0.500  2.594790  135.634  167.138  12.4788
  8102.971  8102.950  0.500  2.593342  135.522  167.124  12.4958
  8106.429  8106.410  0.500  2.591439  135.413  167.104  12.5181
  8109.909  8109.890  0.500  2.588714  135.299  167.056  12.5487
  8113.407  8113.390  0.500  2.585701  135.19  167.05  12.5861
  8116.928  8116.910  0.500  2.582262  135.087  167.003  12.6259
  8120.472  8120.450  0.500  2.578885  134.973  166.966  12.6658
  8124.022  8124.000  0.500  2.575962  134.867  166.931  12.7002
  8127.597  8127.580  0.500  2.573171  134.75  166.896  12.7331
  8131.193  8131.180  0.500  2.570739  134.634  166.832  12.7592
  8134.812  8134.790  0.500  2.568490  134.527  166.783  12.7841
  8138.437  8138.420  0.500  2.566576  134.414  166.743  12.8055
  8142.096  8142.080  0.500  2.564657  134.302  166.726  12.8288
  8145.754  8145.750  0.500  2.562285  134.185  166.678  12.8556
  8149.463  8149.440  0.500  2.559411  134.062  166.629  12.8888
  8153.167  8153.150  0.500  2.556506  133.944  166.583  12.9227
  8156.897  8156.880  0.500  2.554215  133.833  166.575  12.9518
  8160.637  8160.620  0.500  2.552228  133.721  166.517  12.973
  8164.400  8164.390  0.500  2.550408  133.591  166.461  12.9922
  8168.201  8168.180  0.500  2.548540  133.476  166.41  13.0125
  8172.002  8171.980  0.500  2.546891  133.348  166.374  13.0312
  8175.836  8175.810  0.500  2.544938  133.212  166.318  13.0523
  8179.677  8179.650  0.500  2.542686  133.09  166.283  13.079
  8183.524  8183.510  0.500  2.540031  132.971  166.245  13.1108
  8187.406  8187.390  0.500  2.536841  132.843  166.156  13.1456
  8191.313  8191.290  0.500  2.533800  132.728  166.115  13.1823
  8195.231  8195.210  0.500  2.530689  132.601  166.059  13.219
  8199.166  8199.150  0.500  2.527410  132.476  166.006  13.2582
  8203.118  8203.110  0.500  2.523946  132.33  165.944  13.2992
  8207.095  8207.080  0.500  2.520742  132.212  165.917  13.3397
  8211.098  8211.080  0.500  2.517610  132.075  165.857  13.3767
  8215.106  8215.090  0.500  2.514378  131.936  165.805  13.4158
  8219.144  8219.130  0.500  2.511050  131.785  165.721  13.4538
  8223.192  8223.180  0.500  2.507502  131.659  165.672  13.4975
  8227.261  8227.250  0.500  2.504139  131.521  165.594  13.5366
  8231.349  8231.340  0.500  2.501076  131.387  165.527  13.5727
  8235.458  8235.450  0.500  2.498464  131.245  165.477  13.6041
  8239.592  8239.580  0.500  2.496546  131.101  165.418  13.6253
  8243.742  8243.730  0.500  2.494822  130.954  165.349  13.6432
  8247.903  8247.890  0.500  2.493200  130.807  165.285  13.66
  8252.099  8252.080  0.500  2.491549  130.655  165.2  13.6755
  8256.288  8256.280  0.500  2.489249  130.518  165.127  13.7009
  8260.523  8260.510  0.500  2.486347  130.375  165.055  13.7348
  8264.756  8264.750  0.500  2.483112  130.232  164.99  13.7739
  8269.023  8269.010  0.500  2.479903  130.074  164.885  13.8093
  8273.301  8273.290  0.500  2.476366  129.907  164.791  13.8503
  8277.606  8277.590  0.500  2.473266  129.722  164.659  13.8823
  8281.919  8281.910  0.500  2.469846  129.531  164.53  13.9189
  8286.261  8286.250  0.500  2.466594  129.398  164.474  13.9595
  8290.615  8290.610  0.500  2.463488  129.239  164.382  13.9951
  8295.004  8294.990  0.500  2.460200  129.066  164.285  14.0329
  8299.392  8299.380  0.500  2.456771  128.892  164.16  14.0703
  8303.814  8303.800  0.500  2.453026  128.73  164.069  14.1153
  8308.244  8308.230  0.500  2.449582  128.528  163.945  14.1533
  8312.700  8312.680  0.500  2.446327  128.213  163.649  14.1738
  8317.158  8317.150  0.500  2.443642  127.898  163.35  14.186
  8321.650  8321.640  0.500  2.441170  127.12  162.469  14.1444
  8326.159  8326.150  0.500  2.438983  127.817  163.487  14.2641
  8330.697  8330.680  0.500  2.437337  127.675  163.432  14.2829
  8335.243  8335.230  0.500  2.435702  127.324  163.072  14.2747
  8339.812  8339.800  0.500  2.433370  127.117  162.891  14.2922
  8344.401  8344.380  0.500  2.430651  126.855  162.682  14.3127
  8349.013  8348.990  0.500  2.427227  126.582  162.462  14.3424
  8353.628  8353.610  0.500  2.423354  126.133  161.998  14.3569
  8358.280  8358.260  0.500  2.419614  125.967  161.899  14.4019
  8362.941  8362.920  0.500  2.416132  125.827  161.85  14.4477
  8367.617  8367.600  0.500  2.410983  125.66  161.744  14.5128
  8372.321  8372.300  0.500  2.406611  125.499  161.632  14.5663
  8377.026  8377.020  0.500  2.402721  125.317  161.523  14.6132
  8381.781  8381.760  0.500  2.399229  125.125  161.389  14.6522
  8386.523  8386.510  0.500  2.396033  124.892  161.205  14.6823
  8391.334  8391.290  0.500  2.392889  124.63  160.98  14.708
  8396.136  8396.090  0.500  2.389826  124.417  160.806  14.7372
  8400.932  8400.900  0.500  2.387504  124.202  160.642  14.7563
  8405.751  8405.730  0.500  2.385149  123.991  160.496  14.7777
  8410.618  8410.590  0.500  2.382790  123.782  160.355  14.7996
  8415.510  8415.460  0.500  2.380232  123.567  160.182  14.8215
  8420.389  8420.350  0.500  2.377552  123.34  160.005  14.8449
  8425.304  8425.260  0.500  2.374822  123.117  159.838  14.8699
  8430.216  8430.190  0.500  2.372004  122.883  159.654  14.8947
  8435.156  8435.130  0.500  2.368874  122.65  159.485  14.9255
  8440.153  8440.100  0.500  2.365146  122.41  159.27  14.9611
  8445.144  8445.090  0.500  2.361093  122.157  159.053  15.0014
  8450.114  8450.090  0.500  2.356725  121.896  158.835  15.0464
  8455.166  8455.120  0.500  2.352481  121.644  158.621  15.0901
  8460.203  8460.160  0.500  2.348132  121.382  158.392  15.134
  8465.247  8465.220  0.500  2.344317  121.117  158.168  15.1703
  8470.324  8470.300  0.500  2.340607  120.853  157.921  15.203
  8475.460  8475.400  0.500  2.337079  120.57  157.653  15.2308
  8480.565  8480.520  0.500  2.333661  120.293  157.426  15.2609
  8485.710  8485.660  0.500  2.330395  120.01  157.183  15.2872
  8490.844  8490.820  0.500  2.327015  119.709  156.895  15.3109
  8496.039  8496.000  0.500  2.323963  119.421  156.641  15.3328
  8501.238  8501.190  0.500  2.321207  119.121  156.364  15.3479
  8506.456  8506.410  0.500  2.318498  118.817  156.074  15.361
  8511.681  8511.640  0.500  2.315645  118.496  155.774  15.3753
  8516.937  8516.890  0.500  2.312659  118.157  155.449  15.3891
  8522.150  8522.160  0.500  2.309157  117.785  155.065  15.4049
  8527.501  8527.450  0.500  2.305453  117.132  154.33  15.3888
  8532.789  8532.760  0.500  2.301372  112.527  148.337  14.8517
  8538.075  8538.090  0.500  2.297470  116.867  154.177  15.4968
  8543.453  8543.440  0.500  2.293690  116.555  153.884  15.5259
  8548.793  8548.810  0.500  2.290063  116.191  153.544  15.5479
  8554.244  8554.190  0.500  2.286978  115.822  153.177  15.5587
  8559.655  8559.600  0.500  2.284683  115.429  152.766  15.5526