File: xdidata/Data/Tm/Tm-L1-ThuliumOxide.xdi
# XDI/1.0 BlueSky/1.10.0 BMM/2023-1.0-py310-tiled
# Beamline.name: BMM (06BM) -- Beamline for Materials Measurement (NIST)
# Beamline.xray_source: NSLS-II three-pole wiggler
# Beamline.collimation: paraboloid mirror, 5 nm Rh on 30 nm Pt
# Beamline.focusing: not in use
# Beamline.harmonic_rejection: flat mirror, Pt stripe, pitch = 7.0 mrad relative to beam
# Beamline.software: Bluesky 1.10.0, Ophyd 1.7.0, DataBroker 2.0.0b13, Python 3.10.8, 2023-1.0-py310-tiled
# Detector.I0: 10 cm N2
# Detector.I1: 25 cm N2
# Detector.I2: 25 cm N2
# Element.symbol: Tm
# Element.edge: L1
# Element.reference: Tm
# Element.reference_material: Tm2O3
# Facility.name: NSLS-II
# Facility.energy: 3.0
# Facility.current: 399.1
# Facility.mode: top-off
# Facility.GUP: 301027
# Facility.SAF: 310583
# Facility.cycle: 2023-2
# Mono.name: Si(111)
# Mono.d_spacing: 3.13519
# Mono.encoder_resolution: 0.0000050 deg/ct
# Mono.angle_offset: 16.0754 deg
# Mono.scan_mode: pseudo channel cut
# Mono.scan_type: step
# Mono.direction: forward in energy
# Sample.name: Tm2O3
# Sample.prep: PEG pellet
# Sample.x: 109.138 mm
# Sample.y: 153.150 mm
# Sample.SDD_position: 205.000 mm
# Scan.experimenters: Bruce Ravel
# Scan.edge_energy: 10115.7
# Scan.start_time: 2023-05-28T17:28:36
# Scan.end_time: 2023-05-28T17:37:41
# Scan.transient_id: 78875
# Scan.uid: 960233a9-57fd-46de-89e4-ffed7eb1a5c7
# Scan.plot_hint: ln(It/Ir)  --  ln($6/$7)
# Column.1: energy eV
# Column.2: requested_energy eV
# Column.3: measurement_time seconds
# Column.4: xmu
# Column.5: I0 nA
# Column.6: It nA
# Column.7: Ir nA
# ///////////
# sample courtesy Martin Stennett, University of Sheffield
# -----------
# energy  requested_energy  measurement_time  xmu  I0  It  Ir
  9915.538  9915.700  0.500  0.989053  98.8463  150.527  55.9853
  9925.732  9925.700  0.500  0.986475  98.6627  150.361  56.0679
  9935.764  9935.700  0.500  0.984380  98.5569  150.325  56.1721
  9945.783  9945.700  0.500  0.982506  98.3438  150.112  56.1976
  9955.753  9955.700  0.500  0.981278  97.6099  149.113  55.8922
  9965.732  9965.700  0.500  0.977476  97.8151  149.536  56.2644
  9975.739  9975.700  0.500  0.975873  97.8235  149.674  56.4067
  9985.741  9985.700  0.500  0.976402  95.557  146.295  55.104
  9995.750  9995.700  0.500  0.971211  97.3403  149.13  56.4642
  10005.706  10005.700  0.500  0.969556  97.317  149.204  56.5857
  10015.730  10015.700  0.500  0.967848  94.9385  145.675  55.3419
  10025.719  10025.700  0.500  0.965676  96.8893  148.751  56.6334
  10035.736  10035.700  0.500  0.963031  95.8114  147.226  56.2012
  10045.726  10045.700  0.500  0.961051  96.5762  148.506  56.8021
  10055.736  10055.700  0.500  0.958664  96.4023  148.347  56.8771
  10065.731  10065.700  0.500  0.956400  96.1864  148.108  56.9141
  10075.746  10075.700  0.500  0.954330  96.0279  147.958  56.9742
  10085.743  10085.700  0.500  0.953040  95.8329  147.774  56.9766
  10087.702  10087.700  0.500  0.952906  95.6517  147.52  56.8863
  10089.680  10089.700  0.500  0.952449  93.3827  144.049  55.5735
  10091.689  10091.700  0.500  0.952338  95.4484  147.249  56.8143
  10093.691  10093.700  0.500  0.951924  95.6028  147.496  56.9329
  10095.693  10095.700  0.500  0.951713  95.5947  147.531  56.9587
  10097.692  10097.700  0.500  0.951472  95.5708  147.5  56.9603
  10099.718  10099.700  0.500  0.951241  95.5469  147.49  56.9698
  10101.736  10101.700  0.500  0.951039  95.8251  147.936  57.1536
  10104.108  10103.700  0.500  0.950860  95.8208  147.965  57.175
  10105.725  10105.700  0.500  0.950485  95.8394  147.987  57.205
  10106.194  10106.000  0.500  0.950775  95.7981  147.935  57.1682
  10106.256  10106.300  0.500  0.950790  95.8018  147.946  57.1717
  10106.556  10106.600  0.500  0.950923  95.7712  147.887  57.1413
  10106.861  10106.900  0.500  0.950577  95.8076  147.954  57.1869
  10107.162  10107.200  0.500  0.950808  95.7692  147.919  57.1601
  10107.458  10107.500  0.500  0.950758  95.7714  147.909  57.1593
  10107.763  10107.800  0.500  0.950710  95.7732  147.911  57.1626
  10108.069  10108.100  0.500  0.950793  95.7494  147.884  57.1476
  10108.378  10108.400  0.500  0.950853  95.7478  147.877  57.1413
  10108.679  10108.700  0.500  0.950775  95.7409  147.855  57.1371
  10108.980  10109.000  0.500  0.950817  95.7388  147.859  57.1363
  10109.280  10109.300  0.500  0.950950  95.7199  147.829  57.1172
  10109.581  10109.600  0.500  0.950864  95.7184  147.833  57.1236
  10109.962  10109.900  0.500  0.950892  95.7144  147.823  57.1181
  10110.156  10110.200  0.500  0.950953  95.6969  147.811  57.1102
  10110.488  10110.500  0.500  0.950931  95.6876  147.808  57.1103
  10110.780  10110.800  0.500  0.951182  95.6618  147.783  57.0863
  10111.143  10111.100  0.500  0.951128  95.6706  147.804  57.0975
  10111.435  10111.400  0.500  0.951208  95.6541  147.775  57.0817
  10111.749  10111.700  0.500  0.951180  95.6567  147.782  57.086
  10111.957  10112.000  0.500  0.951306  95.5928  147.687  57.0421
  10112.347  10112.300  0.500  0.951419  95.5727  147.645  57.0196
  10112.670  10112.600  0.500  0.951482  95.5246  147.593  56.9956
  10112.856  10112.900  0.500  0.951368  95.5237  147.58  56.9971
  10113.152  10113.200  0.500  0.951738  95.5066  147.554  56.9659
  10113.471  10113.500  0.500  0.951785  95.5219  147.575  56.9714
  10113.763  10113.800  0.500  0.951971  95.5025  147.547  56.9502
  10114.073  10114.100  0.500  0.952235  95.4767  147.52  56.9248
  10114.379  10114.400  0.500  0.952348  95.4898  147.548  56.9291
  10114.666  10114.700  0.500  0.952815  95.4589  147.494  56.8818
  10114.972  10115.000  0.500  0.952883  95.4806  147.527  56.8905
  10115.269  10115.300  0.500  0.953375  95.4491  147.492  56.849
  10115.579  10115.600  0.500  0.953716  95.4484  147.498  56.8318
  10115.884  10115.900  0.500  0.954253  95.4401  147.49  56.7983
  10116.168  10116.200  0.500  0.954528  95.4403  147.491  56.783
  10116.473  10116.500  0.500  0.955167  95.4255  147.463  56.7362
  10116.770  10116.800  0.500  0.955696  95.4281  147.469  56.7082
  10117.072  10117.100  0.500  0.956326  95.4141  147.455  56.6671
  10117.382  10117.400  0.500  0.957161  95.4048  147.446  56.6166
  10117.679  10117.700  0.500  0.957794  95.4079  147.457  56.5849
  10117.971  10118.000  0.500  0.958617  95.3948  147.43  56.5281
  10118.272  10118.300  0.500  0.959342  95.397  147.42  56.4833
  10118.569  10118.600  0.500  0.960354  95.3689  147.389  56.4144
  10118.884  10118.900  0.500  0.961108  95.3724  147.421  56.384
  10119.185  10119.200  0.500  0.961941  95.3727  147.422  56.3374
  10119.482  10119.500  0.500  0.962585  95.376  147.427  56.3031
  10119.788  10119.800  0.500  0.963458  95.3544  147.374  56.2337
  10120.076  10120.100  0.500  0.964306  95.3469  147.379  56.1879
  10120.395  10120.400  0.500  0.965087  95.3369  147.363  56.1382
  10120.688  10120.700  0.500  0.965667  95.3361  147.357  56.1033
  10120.994  10121.000  0.500  0.966388  95.3357  147.373  56.0687
  10121.295  10121.300  0.500  0.967164  95.3204  147.356  56.0189
  10121.588  10121.600  0.500  0.967835  95.3201  147.345  55.9769
  10121.903  10121.900  0.500  0.968740  95.2956  147.308  55.9124
  10122.200  10122.200  0.500  0.969284  95.2996  147.337  55.8928
  10122.497  10122.500  0.500  0.970174  95.2794  147.308  55.8321
  10122.799  10122.800  0.500  0.970705  95.2939  147.331  55.8114
  10123.096  10123.100  0.500  0.971623  95.2731  147.292  55.7454
  10123.402  10123.400  0.500  0.972571  95.2558  147.286  55.6901
  10123.699  10123.700  0.500  0.973389  95.2495  147.281  55.6429
  10123.992  10124.000  0.500  0.974186  95.2375  147.241  55.5834
  10124.294  10124.300  0.500  0.974933  95.2474  147.268  55.5523
  10124.586  10124.600  0.500  0.975746  95.2471  147.283  55.5126
  10124.888  10124.900  0.500  0.976755  95.2342  147.264  55.4496
  10125.194  10125.200  0.500  0.977704  95.2188  147.25  55.3916
  10125.492  10125.500  0.500  0.978685  95.205  147.23  55.3297
  10125.793  10125.800  0.500  0.979776  95.1962  147.216  55.2642
  10126.082  10126.100  0.500  0.980663  95.1953  147.212  55.2138
  10126.379  10126.400  0.500  0.981756  95.1796  147.198  55.1481
  10126.690  10126.700  0.500  0.982698  95.1827  147.202  55.0977
  10126.987  10127.000  0.500  0.983790  95.1727  147.194  55.0346
  10127.289  10127.300  0.500  0.985114  95.1672  147.185  54.9585
  10127.596  10127.600  0.500  0.986262  95.1589  147.172  54.8906
  10127.893  10127.900  0.500  0.987654  95.1531  147.167  54.8124
  10128.204  10128.200  0.500  0.989124  95.1473  147.167  54.7319
  10128.497  10128.500  0.500  0.990481  95.133  147.146  54.6497
  10128.803  10128.800  0.500  0.991928  95.1271  147.137  54.5672
  10129.105  10129.100  0.500  0.993309  95.1354  147.154  54.4982
  10129.398  10129.400  0.500  0.994980  95.0956  147.071  54.3767
  10129.705  10129.700  0.500  0.996338  95.102  147.089  54.3096
  10130.002  10130.000  0.500  0.997610  95.1095  147.107  54.2473
  10130.305  10130.300  0.500  0.998916  95.0864  147.087  54.1691
  10130.607  10130.600  0.500  0.999974  95.0869  147.088  54.1121
  10130.900  10130.900  0.500  1.000757  95.1035  147.1  54.0741
  10131.202  10131.200  0.500  1.001736  95.0549  147.028  53.9947
  10131.500  10131.500  0.500  1.002173  95.0711  147.047  53.9783
  10131.797  10131.800  0.500  1.002697  95.341  147.474  54.1065
  10132.095  10132.100  0.500  1.003033  95.3503  147.497  54.0967
  10132.402  10132.400  0.500  1.003163  95.3508  147.525  54.1001
  10132.699  10132.700  0.500  1.003096  95.3563  147.531  54.106
  10133.011  10133.000  0.500  1.002861  95.3573  147.53  54.1182
  10133.291  10133.300  0.500  1.002649  95.3536  147.537  54.1322
  10133.597  10133.600  0.500  1.002333  95.3503  147.525  54.145
  10133.891  10133.900  0.500  1.001940  95.336  147.497  54.1559
  10134.193  10134.200  0.500  1.001580  95.3272  147.476  54.1679
  10134.504  10134.500  0.500  1.001127  95.3245  147.479  54.1932
  10134.789  10134.800  0.500  1.000809  95.3061  147.463  54.2047
  10135.091  10135.100  0.500  1.000337  95.2925  147.453  54.2265
  10135.393  10135.400  0.500  1.000103  95.258  147.407  54.2223
  10135.682  10135.700  0.500  0.999816  95.2452  147.387  54.2305
  10135.994  10136.000  0.500  0.999329  95.2609  147.417  54.268
  10136.287  10136.300  0.500  0.999373  95.2422  147.376  54.2507
  10136.598  10136.600  0.500  0.999574  95.2285  147.354  54.2316
  10136.901  10136.900  0.500  0.999590  95.2264  147.352  54.23
  10137.199  10137.200  0.500  0.999646  95.2397  147.388  54.24
  10137.501  10137.500  0.500  0.999615  95.2472  147.39  54.2428
  10137.808  10137.800  0.500  0.999617  95.2429  147.39  54.2424
  10138.102  10138.100  0.500  0.999739  95.236  147.39  54.236
  10138.405  10138.400  0.500  0.999934  95.2373  147.401  54.2294
  10138.703  10138.700  0.500  0.999904  95.2323  147.406  54.2328
  10139.001  10139.000  0.500  1.000114  95.2164  147.378  54.2113
  10139.299  10139.300  0.500  1.000211  95.207  147.367  54.2018
  10139.602  10139.600  0.500  1.000310  95.1993  147.35  54.1904
  10139.904  10139.900  0.500  1.000130  95.2134  147.359  54.2032
  10140.202  10140.200  0.500  1.000219  95.191  147.33  54.1879
  10140.501  10140.500  0.500  1.000271  95.1747  147.305  54.1758
  10140.705  10140.700  0.500  1.000314  95.1698  147.319  54.1787
  10141.712  10141.690  0.500  0.999902  95.1471  147.297  54.1929
  10142.696  10142.690  0.500  0.999274  95.1347  147.294  54.2259
  10143.720  10143.710  0.500  0.998386  95.1032  147.254  54.2592
  10144.780  10144.760  0.500  0.996921  95.0852  147.231  54.3302
  10145.827  10145.820  0.500  0.995273  95.0756  147.215  54.414
  10146.919  10146.900  0.500  0.993394  95.0369  147.162  54.4966
  10148.015  10148.000  0.500  0.991532  95.0145  147.143  54.5912
  10149.135  10149.120  0.500  0.989603  94.9957  147.137  54.6942
  10150.281  10150.260  0.500  0.987784  94.9825  147.125  54.7894
  10151.405  10151.410  0.500  0.985967  94.9571  147.103  54.8809
  10152.591  10152.590  0.500  0.984443  94.9269  147.076  54.9545
  10153.783  10153.780  0.500  0.983129  94.9027  147.045  55.0152
  10155.015  10155.000  0.500  0.981887  94.877  147.011  55.071
  10156.261  10156.230  0.500  0.980947  94.8547  146.989  55.1144
  10157.502  10157.480  0.500  0.980375  94.8344  146.977  55.1413
  10158.771  10158.750  0.500  0.980088  94.8015  146.931  55.1398
  10160.040  10160.040  0.500  0.979880  94.7857  146.914  55.1453
  10161.349  10161.350  0.500  0.979814  94.7515  146.879  55.1356
  10162.690  10162.680  0.500  0.979774  94.7167  146.84  55.1233
  10164.036  10164.030  0.500  0.979725  94.6995  146.832  55.1228
  10165.409  10165.400  0.500  0.979965  94.6644  146.798  55.0968
  10166.774  10166.780  0.500  0.980042  94.599  146.706  55.0582
  10168.188  10168.190  0.500  0.980227  94.6006  146.717  55.052
  10169.621  10169.610  0.500  0.980384  94.5932  146.717  55.0433
  10171.072  10171.050  0.500  0.980604  94.5801  146.698  55.024
  10172.518  10172.510  0.500  0.981035  94.5295  146.647  54.9813
  10173.997  10173.990  0.500  0.981537  94.507  146.622  54.9445
  10175.507  10175.490  0.500  0.982125  94.4797  146.579  54.8958
  10177.032  10177.010  0.500  0.982621  94.4493  146.561  54.8621
  10178.561  10178.550  0.500  0.983010  94.4232  146.539  54.8323
  10180.122  10180.110  0.500  0.983477  94.4045  146.516  54.7984
  10181.684  10181.680  0.500  0.984126  94.3678  146.464  54.7434
  10183.282  10183.280  0.500  0.984857  94.3198  146.413  54.6842
  10184.907  10184.890  0.500  0.985155  94.3081  146.433  54.6753
  10186.538  10186.530  0.500  0.985486  94.2718  146.395  54.6429
  10188.196  10188.180  0.500  0.985605  94.2335  146.338  54.6153
  10189.850  10189.850  0.500  0.985338  94.2  146.301  54.616
  10191.554  10191.540  0.500  0.984719  94.1722  146.271  54.6388
  10193.259  10193.250  0.500  0.984065  94.0866  146.153  54.6301
  10194.982  10194.980  0.500  0.982911  93.8393  145.783  54.5549
  10196.728  10196.730  0.500  0.981845  94.04  146.118  54.7387
  10198.511  10198.490  0.500  0.980421  94.0479  146.138  54.8243
  10200.299  10200.280  0.500  0.978966  94.014  146.106  54.8918
  10202.083  10202.080  0.500  0.977728  93.9666  146.052  54.9397
  10203.918  10203.910  0.500  0.976576  93.9333  146.019  54.9906
  10205.771  10205.750  0.500  0.975926  93.8785  145.968  55.0071
  10207.620  10207.610  0.500  0.975260  93.8475  145.949  55.0365
  10209.480  10209.490  0.500  0.974628  93.8229  145.929  55.0636
  10211.389  10211.390  0.500  0.974365  93.7778  145.877  55.0585
  10213.326  10213.310  0.500  0.974041  93.7498  145.842  55.0634
  10215.260  10215.250  0.500  0.973674  93.7233  145.799  55.0673
  10217.212  10217.210  0.500  0.973541  93.6778  145.746  55.0546
  10219.179  10219.180  0.500  0.973182  93.6363  145.704  55.0583
  10221.187  10221.180  0.500  0.972603  93.6037  145.689  55.0846
  10223.191  10223.190  0.500  0.972025  93.5584  145.646  55.1004
  10225.237  10225.220  0.500  0.971149  93.5255  145.606  55.1333
  10227.302  10227.280  0.500  0.970757  93.4392  145.512  55.1195
  10229.372  10229.350  0.500  0.969953  93.4308  145.498  55.1585
  10231.443  10231.440  0.500  0.969368  93.3947  145.453  55.1736
  10233.552  10233.550  0.500  0.968730  93.3521  145.402  55.1895
  10235.702  10235.680  0.500  0.968176  93.3031  145.346  55.1988
  10237.835  10237.820  0.500  0.967569  93.2323  145.272  55.2041
  10239.986  10239.990  0.500  0.967153  92.9162  144.798  55.047
  10242.203  10242.180  0.500  0.966708  93.2094  145.288  55.2578
  10244.406  10244.380  0.500  0.966712  93.1415  145.203  55.2252
  10246.593  10246.600  0.500  0.966713  93.1009  145.159  55.2083
  10248.876  10248.850  0.500  0.966511  93.0616  145.114  55.2025
  10251.119  10251.110  0.500  0.966653  93.012  145.069  55.1775
  10253.390  10253.390  0.500  0.966918  92.9696  145.032  55.1491
  10255.703  10255.690  0.500  0.967128  92.9271  144.955  55.108
  10258.027  10258.010  0.500  0.967135  92.8851  144.907  55.0893
  10260.361  10260.350  0.500  0.966923  92.8408  144.864  55.0849
  10262.718  10262.700  0.500  0.966360  92.7908  144.81  55.0951
  10265.095  10265.080  0.500  0.965785  92.7407  144.767  55.1104
  10267.473  10267.470  0.500  0.965258  92.694  144.725  55.1237
  10269.912  10269.890  0.500  0.964702  92.6365  144.664  55.1309
  10272.334  10272.320  0.500  0.964255  92.5859  144.603  55.1322
  10274.775  10274.770  0.500  0.963620  92.5294  144.55  55.1471
  10277.262  10277.250  0.500  0.962675  92.2104  144.067  55.015
  10279.747  10279.740  0.500  0.962120  92.4564  144.466  55.1979
  10282.251  10282.250  0.500  0.960992  92.4134  144.416  55.241
  10284.784  10284.770  0.500  0.959950  92.3623  144.364  55.2788
  10287.327  10287.320  0.500  0.958982  92.2999  144.291  55.3044
  10289.899  10289.890  0.500  0.957794  92.2608  144.253  55.3555
  10292.486  10292.470  0.500  0.957088  92.1955  144.191  55.3708
  10295.075  10295.080  0.500  0.956179  92.1486  144.129  55.3971
  10297.706  10297.700  0.500  0.955927  92.0906  144.064  55.3863
  10300.366  10300.350  0.500  0.955536  92.0466  144.009  55.3867
  10303.018  10303.010  0.500  0.955129  92.0034  143.961  55.3907
  10305.709  10305.690  0.500  0.954928  91.9423  143.896  55.3771
  10308.391  10308.390  0.500  0.954454  91.8858  143.83  55.3778
  10311.117  10311.110  0.500  0.953976  91.8364  143.781  55.3855
  10313.848  10313.850  0.500  0.953367  91.79  143.739  55.4028
  10316.609  10316.600  0.500  0.952677  91.7337  143.675  55.4166
  10319.385  10319.380  0.500  0.952091  91.6795  143.629  55.4313
  10322.172  10322.170  0.500  0.951498  91.52  143.398  55.375
  10324.998  10324.990  0.500  0.950764  91.5903  143.526  55.4652
  10327.824  10327.820  0.500  0.950198  91.5215  143.459  55.4706
  10330.685  10330.670  0.500  0.949556  91.456  143.384  55.477
  10333.562  10333.550  0.500  0.948778  91.3928  143.32  55.4956
  10336.449  10336.440  0.500  0.948056  91.3436  143.26  55.5124
  10339.370  10339.350  0.500  0.947534  91.2787  143.187  55.5128
  10342.270  10342.270  0.500  0.946926  91.2246  143.113  55.5182
  10345.236  10345.220  0.500  0.946294  91.1835  143.068  55.5356
  10348.200  10348.190  0.500  0.945973  91.1238  143.003  55.5284
  10351.174  10351.170  0.500  0.945774  91.0587  142.931  55.5115
  10354.183  10354.180  0.500  0.945481  91.0016  142.88  55.5078
  10357.217  10357.200  0.500  0.944973  90.9424  142.819  55.5124
  10360.262  10360.250  0.500  0.944368  90.8948  142.773  55.5279
  10363.308  10363.310  0.500  0.944073  90.8157  142.676  55.5066
  10366.404  10366.390  0.500  0.943552  90.7489  142.6  55.5059
  10369.491  10369.490  0.500  0.942700  90.6776  142.498  55.5136
  10372.632  10372.610  0.500  0.942047  90.6038  142.407  55.5144
  10375.751  10375.750  0.500  0.941294  90.5402  142.33  55.526
  10378.905  10378.900  0.500  0.940654  90.4838  142.275  55.5404
  10382.103  10382.080  0.500  0.939776  90.4165  142.211  55.5642
  10385.266  10385.270  0.500  0.938941  90.3508  142.148  55.5859
  10388.501  10388.490  0.500  0.937971  90.2918  142.083  55.6142
  10391.719  10391.720  0.500  0.937112  90.2337  142.006  55.6321
  10394.990  10394.970  0.500  0.936273  90.169  141.928  55.6479
  10398.250  10398.250  0.500  0.935575  90.1007  141.855  55.6583
  10401.568  10401.540  0.500  0.934479  90.0561  141.796  55.6962
  10404.860  10404.850  0.500  0.933789  89.9819  141.721  55.705
  10408.196  10408.170  0.500  0.933219  89.9061  141.629  55.7006
  10411.535  10411.520  0.500  0.932463  89.8468  141.566  55.7179
  10414.894  10414.890  0.500  0.931876  89.7814  141.498  55.7241
  10418.289  10418.270  0.500  0.931174  89.7228  141.424  55.7339
  10421.700  10421.680  0.500  0.930698  89.6514  141.333  55.7247
  10425.127  10425.100  0.500  0.930272  89.5732  141.254  55.7172
  10428.566  10428.550  0.500  0.929610  89.5072  141.192  55.7294
  10432.041  10432.010  0.500  0.928765  89.4479  141.122  55.7488
  10435.504  10435.490  0.500  0.928280  89.3739  141.024  55.7374
  10439.021  10438.990  0.500  0.927500  89.3063  140.94  55.7477
  10442.540  10442.510  0.500  0.926674  89.4333  141.184  55.8904
  10446.085  10446.050  0.500  0.925880  89.4433  141.234  55.9545
  10449.624  10449.600  0.500  0.925248  89.3779  141.179  55.9682
  10453.212  10453.180  0.500  0.924568  89.3255  141.141  55.9912
  10456.812  10456.780  0.500  0.923961  89.258  141.054  55.9905
  10460.415  10460.390  0.500  0.923185  89.1976  140.973  56.0016
  10464.049  10464.020  0.500  0.922620  89.1327  140.89  56.0005
  10467.690  10467.680  0.500  0.921930  89.0524  140.801  56.0036
  10471.381  10471.350  0.500  0.921021  88.9889  140.744  56.0318
  10475.060  10475.040  0.500  0.920362  88.9159  140.665  56.0373
  10478.771  10478.750  0.500  0.919573  88.8434  140.578  56.0468
  10482.513  10482.480  0.500  0.918857  88.7708  140.493  56.0531
  10486.244  10486.220  0.500  0.918039  88.6977  140.407  56.0649
  10490.010  10489.990  0.500  0.917326  88.6291  140.328  56.0732
  10493.813  10493.780  0.500  0.916607  88.5554  140.229  56.074
  10497.613  10497.580  0.500  0.915834  88.4759  140.159  56.0892
  10501.446  10501.410  0.500  0.915041  88.4019  140.069  56.0978
  10505.281  10505.250  0.500  0.914189  88.334  139.99  56.1139
  10509.123  10509.110  0.500  0.913316  88.2625  139.905  56.1287
  10513.031  10512.990  0.500  0.912613  88.1268  139.733  56.099
  10516.908  10516.890  0.500  0.911776  88.1005  139.72  56.1409
  10520.846  10520.810  0.500  0.910761  88.0284  139.634  56.1631
  10524.763  10524.750  0.500  0.909968  87.9012  139.466  56.1401
  10528.750  10528.710  0.500  0.909341  87.8674  139.45  56.1691
  10532.706  10532.680  0.500  0.908313  87.8031  139.37  56.1946
  10536.723  10536.680  0.500  0.907564  87.7147  139.269  56.1957
  10540.710  10540.690  0.500  0.906623  87.5672  139.067  56.1673
  10544.757  10544.730  0.500  0.905973  87.5492  139.081  56.2093
  10548.794  10548.780  0.500  0.905098  87.4809  138.984  56.2194
  10552.891  10552.850  0.500  0.904317  87.3895  138.871  56.2175
  10556.962  10556.940  0.500  0.903524  87.2425  138.68  56.1847
  10561.081  10561.050  0.500  0.902699  87.2387  138.701  56.2396
  10565.202  10565.180  0.500  0.901961  87.1621  138.614  56.2457
  10569.356  10569.330  0.500  0.901269  87.0816  138.532  56.2514
  10573.523  10573.490  0.500  0.900635  86.9967  138.438  56.2488
  10577.703  10577.680  0.500  0.899601  86.9233  138.354  56.273
  10581.905  10581.880  0.500  0.899226  86.8313  138.234  56.2452
  10586.141  10586.110  0.500  0.898243  86.544  137.814  56.1296
  10590.384  10590.350  0.500  0.897628  86.6781  138.061  56.2649
  10594.636  10594.610  0.500  0.896744  86.5977  137.963  56.2743
  10598.930  10598.890  0.500  0.895847  86.4019  137.706  56.2201
  10603.218  10603.190  0.500  0.894807  86.423  137.785  56.3111
  10607.544  10607.510  0.500  0.893987  86.337  137.643  56.299
  10611.879  10611.850  0.500  0.892963  86.1588  137.406  56.2595
  10616.246  10616.210  0.500  0.892093  86.1622  137.44  56.3223
  10620.617  10620.590  0.500  0.891391  85.9531  137.156  56.2456
  10625.011  10624.980  0.500  0.890303  85.9973  137.242  56.3421
  10629.418  10629.400  0.500  0.889487  85.9105  137.149  56.35
  10633.854  10633.830  0.500  0.888657  85.829  137.051  56.3563
  10638.294  10638.280  0.500  0.887824  85.7369  136.941  56.3581
  10642.777  10642.750  0.500  0.886536  85.1274  135.998  56.0422
  10647.253  10647.240  0.500  0.885974  85.5793  136.764  56.3896
  10651.778  10651.750  0.500  0.885413  85.486  136.644  56.3717
  10656.307  10656.280  0.500  0.884552  85.3941  136.534  56.375
  10660.864  10660.830  0.500  0.883699  85.1977  136.264  56.3113
  10665.430  10665.400  0.500  0.883051  85.2353  136.351  56.3838
  10670.001  10669.980  0.500  0.882271  85.1316  136.22  56.3737
  10674.634  10674.590  0.500  0.881304  85.0328  136.093  56.3753
  10679.232  10679.210  0.500  0.880850  84.4737  135.224  56.0409
  10683.894  10683.860  0.500  0.879461  84.8704  135.897  56.3982
  10688.554  10688.520  0.500  0.878685  84.7735  135.775  56.3913
  10693.224  10693.200  0.500  0.877483  84.6763  135.654  56.4089
  10697.928  10697.900  0.500  0.876216  84.1602  134.863  56.1508
  10702.641  10702.620  0.500  0.875792  84.5172  135.483  56.433
  10707.398  10707.360  0.500  0.874849  84.4203  135.354  56.4324
  10712.134  10712.110  0.500  0.873899  84.3248  135.24  56.4385
  10716.924  10716.890  0.500  0.873143  84.2359  135.141  56.4398
  10721.704  10721.690  0.500  0.872332  84.1396  135.016  56.4335
  10726.528  10726.500  0.500  0.871301  84.0495  134.902  56.444
  10731.357  10731.330  0.500  0.870577  83.951  134.775  56.4315
  10736.225  10736.190  0.500  0.869726  83.8612  134.655  56.4294
  10741.092  10741.060  0.500  0.868702  83.6424  134.356  56.3619
  10745.984  10745.950  0.500  0.867889  83.659  134.407  56.4289
  10750.880  10750.860  0.500  0.867122  83.5654  134.304  56.4292
  10755.817  10755.790  0.500  0.865955  83.4696  134.187  56.4457
  10760.757  10760.730  0.500  0.865209  83.3643  134.069  56.438
  10765.723  10765.700  0.500  0.864119  83.2719  133.942  56.4463
  10770.723  10770.690  0.500  0.863283  83.1677  133.819  56.4416
  10775.718  10775.690  0.500  0.862256  83.072  133.689  56.4446
  10780.758  10780.720  0.500  0.861271  82.9747  133.558  56.445
  10785.793  10785.760  0.500  0.860252  82.5664  132.956  56.2478
  10790.838  10790.820  0.500  0.859045  82.7755  133.328  56.4733
  10795.938  10795.900  0.500  0.858316  82.6742  133.208  56.4634
  10801.037  10801.000  0.500  0.857092  82.2787  132.621  56.2835
  10806.162  10806.120  0.500  0.856303  82.424  132.883  56.4392
  10811.302  10811.260  0.500  0.855599  82.3967  132.882  56.4787
  10816.442  10816.420  0.500  0.854605  82.3032  132.745  56.4765
  10821.633  10821.600  0.500  0.853711  82.1989  132.612  56.4704
  10826.819  10826.790  0.500  0.852862  82.0762  132.46  56.4537
  10832.045  10832.010  0.500  0.851946  81.9495  132.288  56.4318
  10837.271  10837.240  0.500  0.851081  81.8835  132.219  56.4515
  10842.518  10842.490  0.500  0.850096  81.7701  132.073  56.4444
  10847.796  10847.760  0.500  0.848789  81.3484  131.428  56.2425
  10853.078  10853.050  0.500  0.848160  81.5466  131.78  56.4285
  10858.402  10858.360  0.500  0.847242  81.4617  131.694  56.4435
  10863.721  10863.690  0.500  0.846326  81.3752  131.59  56.4506
  10869.065  10869.040  0.500  0.845475  81.0707  131.135  56.3034
  10874.446  10874.410  0.500  0.844217  81.1506  131.288  56.44
  10879.807  10879.790  0.500  0.843168  81.0409  131.132  56.4319
  10885.239  10885.200  0.500  0.842060  80.9374  130.998  56.4368
  10890.657  10890.620  0.500  0.841128  80.8289  130.874  56.436
  10896.106  10896.070  0.500  0.840155  80.7229  130.746  56.4355
  10901.561  10901.530  0.500  0.839143  80.6165  130.612  56.4348
  10907.031  10907.010  0.500  0.838110  80.5067  130.454  56.4248
  10912.538  10912.510  0.500  0.837368  80.3983  130.321  56.4091
  10918.045  10918.030  0.500  0.836207  80.24  130.105  56.3811
  10923.595  10923.570  0.500  0.835106  80.1706  130.034  56.4126
  10929.150  10929.120  0.500  0.834345  80.0684  129.906  56.3997
  10934.716  10934.700  0.500  0.833584  79.9636  129.776  56.3862
  10940.319  10940.300  0.500  0.832487  79.8637  129.65  56.3932
  10945.922  10945.910  0.500  0.831420  79.7461  129.508  56.3918
  10951.573  10951.550  0.500  0.830508  79.587  129.292  56.3489
  10957.215  10957.200  0.500  0.829600  79.5299  129.213  56.3659
  10962.899  10962.870  0.500  0.828685  79.4158  129.073  56.3563
  10968.568  10968.560  0.500  0.827615  79.3104  128.93  56.3541