File: xdidata/Yb/Yb-L1-Yb2O3.xdi
# XDI/1.0 BlueSky/1.10.0 BMM/2023-1.0-py310-tiled
# Beamline.name: BMM (06BM) -- Beamline for Materials Measurement (NIST)
# Beamline.xray_source: NSLS-II three-pole wiggler
# Beamline.collimation: paraboloid mirror, 5 nm Rh on 30 nm Pt
# Beamline.focusing: not in use
# Beamline.harmonic_rejection: flat mirror, Pt stripe, pitch = 7.0 mrad relative to beam
# Beamline.software: Bluesky 1.10.0, Ophyd 1.7.0, DataBroker 2.0.0b13, Python 3.10.8, 2023-1.0-py310-tiled
# Detector.I0: 10 cm N2
# Detector.I1: 25 cm N2
# Detector.I2: 25 cm N2
# Element.symbol: Yb
# Element.edge: L1
# Element.reference: Yb
# Element.reference_material: Yb2O3
# Facility.name: NSLS-II
# Facility.energy: 3.0
# Facility.current: 400.0
# Facility.mode: top-off
# Facility.GUP: 123456
# Facility.SAF: 301027
# Facility.cycle: 2023-2
# Mono.name: Si(111)
# Mono.d_spacing: 3.13519
# Mono.encoder_resolution: 0.0000050 deg/ct
# Mono.angle_offset: 16.0754 deg
# Mono.scan_mode: pseudo channel cut
# Mono.scan_type: step
# Mono.direction: forward in energy
# Sample.name: Yb2O3
# Sample.prep: Powder in PEG pellet
# Sample.x: 123.848 mm
# Sample.y: 114.690 mm
# Sample.SDD_position: 205.000 mm
# Scan.experimenters: Bruce Ravel
# Scan.edge_energy: 10486.4
# Scan.start_time: 2023-05-08T23:02:42
# Scan.end_time: 2023-05-08T23:08:25
# Scan.transient_id: 75704
# Scan.uid: 7d4fd6a0-b4e3-4cc4-8bda-f879bc89a5d4
# Scan.plot_hint: ln(I0/It)  --  ln($5/$6)
# Column.1: energy eV
# Column.2: requested_energy eV
# Column.3: measurement_time seconds
# Column.4: xmu
# Column.5: I0 nA
# Column.6: It nA
# Column.7: Ir nA
# ///////////
# sample courtesy Martin Stennett, University of Sheffield
# -----------
# energy  requested_energy  measurement_time  xmu  I0  It  Ir
  10286.447  10286.400  0.500  2.938880  90.4156  4.785243  1.198306
  10296.429  10296.400  0.500  2.933391  90.2155  4.800935  1.205949
  10306.491  10306.400  0.500  2.928648  90.023  4.813465  1.211405
  10316.480  10316.400  0.500  2.919750  89.8209  4.845582  1.223460
  10326.434  10326.400  0.500  2.910594  89.6302  4.879773  1.237159
  10336.463  10336.400  0.500  2.903499  89.433  4.903706  1.246365
  10346.428  10346.400  0.500  2.897231  89.2264  4.923140  1.255200
  10356.459  10356.400  0.500  2.888522  89.0436  4.956026  1.267715
  10366.441  10366.400  0.500  2.882209  88.8273  4.975299  1.277137
  10376.428  10376.400  0.500  2.875099  87.9955  4.963874  1.277121
  10386.430  10386.400  0.500  2.868122  87.8551  4.990655  1.287193
  10396.418  10396.400  0.500  2.860171  87.6476  5.018610  1.298728
  10406.418  10406.400  0.500  2.851754  87.4412  5.049115  1.311348
  10416.436  10416.400  0.500  2.843666  87.2525  5.079131  1.323636
  10426.418  10426.400  0.500  2.835511  87.0331  5.107843  1.335263
  10436.429  10436.400  0.500  2.827398  86.8365  5.137824  1.347531
  10446.435  10446.400  0.500  2.823397  86.6265  5.145941  1.351961
  10456.414  10456.400  0.500  2.820734  86.4154  5.147093  1.354868
  10458.386  10458.400  0.500  2.820342  86.3815  5.147093  1.355541
  10460.377  10460.400  0.500  2.819960  86.3378  5.146453  1.356090
  10462.374  10462.400  0.500  2.819391  86.2858  5.146279  1.356249
  10464.371  10464.400  0.500  2.818612  86.2454  5.147878  1.357142
  10466.365  10466.400  0.500  2.817931  86.1959  5.148429  1.357431
  10468.374  10468.400  0.500  2.817136  86.1545  5.150048  1.358779
  10470.374  10470.400  0.500  2.816602  86.1038  5.149766  1.358943
  10472.374  10472.400  0.500  2.816131  86.0656  5.149911  1.359589
  10474.361  10474.400  0.500  2.815930  86.0124  5.147758  1.359134
  10476.373  10476.400  0.500  2.816169  85.975  5.144292  1.358571
  10476.863  10476.900  0.500  2.816419  85.9584  5.142012  1.358805
  10477.367  10477.400  0.500  2.816572  85.9411  5.140191  1.357829
  10477.862  10477.900  0.500  2.816719  85.9557  5.140307  1.357590
  10478.371  10478.400  0.500  2.816900  85.9189  5.137182  1.356707
  10478.857  10478.900  0.500  2.817093  85.9081  5.135543  1.356649
  10479.371  10479.400  0.500  2.817370  85.9085  5.134146  1.355434
  10479.875  10479.900  0.500  2.817922  85.8992  5.130750  1.354763
  10480.366  10480.400  0.500  2.818423  85.8808  5.127086  1.353754
  10480.870  10480.900  0.500  2.818837  85.8614  5.123804  1.352829
  10481.366  10481.400  0.500  2.819249  85.8406  5.120459  1.352047
  10481.870  10481.900  0.500  2.819713  85.8365  5.117831  1.351032
  10482.370  10482.400  0.500  2.820369  85.8237  5.113715  1.349354
  10482.866  10482.900  0.500  2.821059  85.7999  5.108769  1.348300
  10483.371  10483.400  0.500  2.821985  85.7994  5.104014  1.346927
  10483.871  10483.900  0.500  2.823199  85.796  5.097617  1.344795
  10484.376  10484.400  0.500  2.824306  85.7809  5.091085  1.342452
  10484.881  10484.900  0.500  2.825751  85.7783  5.083578  1.339619
  10485.381  10485.400  0.500  2.827353  85.7669  5.074763  1.336744
  10485.891  10485.900  0.500  2.829412  85.7276  5.062006  1.332789
  10486.382  10486.400  0.500  2.831561  85.7363  5.051656  1.328628
  10486.887  10486.900  0.500  2.834635  85.7313  5.035853  1.324525
  10487.388  10487.400  0.500  2.838063  85.7059  5.017130  1.317564
  10487.888  10487.900  0.500  2.842392  85.698  4.995001  1.310948
  10488.379  10488.400  0.500  2.847287  85.6787  4.969488  1.302007
  10488.889  10488.900  0.500  2.853448  85.6836  4.939251  1.291613
  10489.385  10489.400  0.500  2.860462  85.6777  4.904394  1.280309
  10489.872  10489.900  0.500  2.868384  85.6612  4.864755  1.266739
  10490.382  10490.400  0.500  2.877161  85.6436  4.821249  1.252167
  10490.883  10490.900  0.500  2.886680  85.63  4.774816  1.236986
  10491.384  10491.400  0.500  2.896127  85.6206  4.729405  1.221842
  10491.885  10491.900  0.500  2.905115  85.6074  4.686365  1.207199
  10492.391  10492.400  0.500  2.914188  85.898  4.659803  1.197638
  10492.901  10492.900  0.500  2.922751  85.8934  4.619822  1.184466
  10493.402  10493.400  0.500  2.931392  85.8981  4.580325  1.171715
  10493.894  10493.900  0.500  2.940022  85.8751  4.539750  1.158505
  10494.390  10494.400  0.500  2.948501  85.8423  4.499702  1.145516
  10494.901  10494.900  0.500  2.957503  85.8477  4.459660  1.131937
  10495.407  10495.400  0.500  2.967016  85.8266  4.416348  1.117966
  10495.894  10495.900  0.500  2.976532  85.8146  4.373909  1.104315
  10496.386  10496.400  0.500  2.986149  85.8065  4.331640  1.090021
  10496.887  10496.900  0.500  2.996641  85.7945  4.285832  1.075040
  10497.384  10497.400  0.500  3.007165  85.789  4.240688  1.060577
  10497.895  10497.900  0.500  3.017870  85.7815  4.195165  1.046033
  10498.397  10498.400  0.500  3.029679  85.7702  4.145372  1.030365
  10498.894  10498.900  0.500  3.041696  85.7526  4.095013  1.014492
  10499.395  10499.400  0.500  3.054698  85.7549  4.042226  0.997338
  10499.911  10499.900  0.500  3.068977  85.7452  3.984465  0.979616
  10500.404  10500.400  0.500  3.083469  85.7281  3.926354  0.960367
  10500.906  10500.900  0.500  3.099896  85.7156  3.861820  0.940144
  10501.393  10501.400  0.500  3.116556  85.7212  3.798265  0.920527
  10501.909  10501.900  0.500  3.133519  85.713  3.734023  0.900627
  10502.402  10502.400  0.500  3.148696  85.6729  3.676055  0.882419
  10502.894  10502.900  0.500  3.162062  85.666  3.626954  0.867647
  10503.382  10503.400  0.500  3.172810  85.6615  3.587992  0.855153
  10503.884  10503.900  0.500  3.180284  85.6511  3.560845  0.846753
  10504.401  10504.400  0.500  3.184303  85.6394  3.546079  0.842248
  10504.898  10504.900  0.500  3.185118  85.6305  3.542819  0.841647
  10505.386  10505.400  0.500  3.183531  85.6175  3.547913  0.843316
  10505.888  10505.900  0.500  3.179930  85.6041  3.560151  0.846889
  10506.410  10506.400  0.500  3.175548  85.6001  3.575622  0.851805
  10506.912  10506.900  0.500  3.171024  85.5837  3.591142  0.857295
  10507.405  10507.400  0.500  3.166677  85.59  3.607053  0.861833
  10507.903  10507.900  0.500  3.163198  85.5614  3.618413  0.865180
  10508.410  10508.400  0.500  3.160980  85.5617  3.626463  0.867790
  10508.908  10508.900  0.500  3.160017  85.5505  3.629482  0.869071
  10509.411  10509.400  0.500  3.160138  85.5253  3.627972  0.868724
  10509.894  10509.900  0.500  3.161314  85.4982  3.622560  0.866930
  10510.392  10510.400  0.500  3.162424  85.4274  3.615549  0.865042
  10510.905  10510.900  0.500  3.164017  85.4025  3.608740  0.863171
  10511.393  10511.400  0.500  3.165261  85.3832  3.603440  0.861341
  10512.394  10512.390  0.500  3.166856  85.4346  3.599861  0.860795
  10513.405  10513.390  0.500  3.166397  85.4304  3.601335  0.861341
  10514.435  10514.410  0.500  3.163410  85.4001  3.610830  0.863468
  10515.475  10515.460  0.500  3.158930  85.4018  3.627111  0.869442
  10516.525  10516.520  0.500  3.151432  85.384  3.653652  0.877169
  10517.604  10517.600  0.500  3.141568  85.3472  3.688279  0.888379
  10518.702  10518.700  0.500  3.130509  85.3209  3.728144  0.901289
  10519.829  10519.820  0.500  3.119382  85.3069  3.769243  0.914184
  10520.976  10520.960  0.500  3.107798  85.2797  3.811942  0.927994
  10522.127  10522.110  0.500  3.096690  85.2404  3.852743  0.940829
  10523.303  10523.290  0.500  3.086265  85.2142  3.891922  0.953476
  10524.494  10524.480  0.500  3.076567  85.009  3.920384  0.963947
  10525.714  10525.700  0.500  3.067291  85.0091  3.956925  0.975131
  10526.953  10526.930  0.500  3.060365  85.1153  3.989400  0.985442
  10528.197  10528.180  0.500  3.055232  85.1308  4.010666  0.991981
  10529.466  10529.450  0.500  3.052183  85.1067  4.021773  0.995505
  10530.744  10530.740  0.500  3.050479  85.0727  4.027026  0.997336
  10532.052  10532.050  0.500  3.049478  85.0528  4.030111  0.998512
  10533.380  10533.380  0.500  3.049899  85.024  4.027050  0.997960
  10534.736  10534.730  0.500  3.050927  84.9798  4.020824  0.996446
  10536.112  10536.100  0.500  3.052659  84.9511  4.012508  0.993479
  10537.489  10537.480  0.500  3.054855  84.9425  4.003302  0.991081
  10538.894  10538.890  0.500  3.057077  84.8254  3.988912  0.986654
  10540.315  10540.310  0.500  3.059289  84.8144  3.979581  0.984136
  10541.774  10541.750  0.500  3.061430  84.8302  3.971810  0.981311
  10543.230  10543.210  0.500  3.063676  84.7996  3.961467  0.978296
  10544.690  10544.690  0.500  3.066046  84.7682  3.950628  0.975393
  10546.184  10546.190  0.500  3.069054  84.7223  3.936627  0.971457
  10547.728  10547.710  0.500  3.072630  84.6985  3.921475  0.966292
  10549.261  10549.250  0.500  3.076562  84.657  3.904176  0.961399
  10550.825  10550.810  0.500  3.080578  84.6342  3.887474  0.956287
  10552.379  10552.380  0.500  3.084111  84.5823  3.871391  0.950782
  10553.992  10553.980  0.500  3.088700  84.5183  3.850752  0.945027
  10555.600  10555.590  0.500  3.092814  84.437  3.831253  0.939252
  10557.228  10557.230  0.500  3.097083  84.2898  3.808283  0.932817
  10558.886  10558.880  0.500  3.099729  84.4541  3.805622  0.931416
  10560.558  10560.550  0.500  3.100998  84.4343  3.799900  0.930186
  10562.251  10562.240  0.500  3.100466  84.4086  3.800770  0.930487
  10563.973  10563.950  0.500  3.098711  84.3736  3.805866  0.932000
  10565.681  10565.680  0.500  3.095254  84.3297  3.817059  0.935211
  10567.438  10567.430  0.500  3.090676  84.297  3.833088  0.941698
  10569.201  10569.190  0.500  3.084190  84.2394  3.855389  0.948744
  10570.983  10570.980  0.500  3.076206  84.2139  3.885120  0.958393
  10572.791  10572.780  0.500  3.068469  84.1724  3.913368  0.967932
  10574.623  10574.610  0.500  3.060700  84.1364  3.942200  0.977309
  10576.471  10576.450  0.500  3.054465  84.0763  3.964021  0.984629
  10578.314  10578.310  0.500  3.050376  84.0603  3.979513  0.989878
  10580.201  10580.190  0.500  3.047548  84.0207  3.988899  0.993011
  10582.104  10582.090  0.500  3.045803  83.9755  3.993714  0.995468
  10584.027  10584.010  0.500  3.044422  83.9187  3.996531  0.996158
  10585.956  10585.950  0.500  3.043807  83.6914  3.988156  0.994720
  10587.914  10587.910  0.500  3.043585  83.8611  3.997130  0.996967
  10589.893  10589.880  0.500  3.043104  83.8285  3.997499  0.996999
  10591.902  10591.880  0.500  3.042086  83.7788  3.999199  0.998769
  10593.891  10593.890  0.500  3.040059  83.7359  4.005261  1.000737
  10595.936  10595.920  0.500  3.037041  83.697  4.015501  1.003845
  10598.010  10597.980  0.500  3.034001  83.5511  4.020709  1.006363
  10600.060  10600.050  0.500  3.031221  83.6178  4.035118  1.011595
  10602.156  10602.140  0.500  3.028405  83.5627  4.043833  1.014417
  10604.262  10604.250  0.500  3.025799  83.4509  4.048958  1.016978
  10606.398  10606.380  0.500  3.023013  83.4821  4.061772  1.020878
  10608.535  10608.520  0.500  3.020880  83.4433  4.068553  1.023892
  10610.707  10610.690  0.500  3.018885  83.2817  4.068782  1.024260
  10612.894  10612.880  0.500  3.016965  83.3411  4.079507  1.027563
  10615.097  10615.080  0.500  3.016321  83.327  4.081450  1.028400
  10617.311  10617.300  0.500  3.017004  83.2006  4.072473  1.026705
  10619.575  10619.550  0.500  3.017554  83.0345  4.062108  1.023952
  10621.825  10621.810  0.500  3.018782  83.1729  4.063885  1.024076
  10624.100  10624.090  0.500  3.020300  83.1281  4.055536  1.021818
  10626.416  10626.390  0.500  3.022206  83.0769  4.045321  1.018861
  10628.713  10628.710  0.500  3.024449  83.0197  4.033479  1.014898
  10631.075  10631.050  0.500  3.025935  82.994  4.026241  1.012776
  10633.408  10633.400  0.500  3.026001  82.949  4.023796  1.013081
  10635.792  10635.780  0.500  3.023909  82.8882  4.029263  1.014552
  10638.181  10638.170  0.500  3.021486  82.8239  4.035903  1.017688
  10640.621  10640.590  0.500  3.019104  82.7229  4.040598  1.019488
  10643.042  10643.020  0.500  3.016580  82.442  4.037051  1.019521
  10645.489  10645.470  0.500  3.014760  82.7166  4.057879  1.026086
  10647.966  10647.950  0.500  3.012010  82.6675  4.066639  1.028586
  10650.460  10650.440  0.500  3.008850  82.6138  4.076861  1.032658
  10652.969  10652.950  0.500  3.004490  82.5406  4.091047  1.037960
  10655.485  10655.470  0.500  2.999040  82.4805  4.110407  1.044513
  10658.036  10658.020  0.500  2.993418  82.4289  4.130994  1.051867
  10660.598  10660.590  0.500  2.987634  82.0578  4.136251  1.054698
  10663.191  10663.170  0.500  2.982360  82.3376  4.172300  1.066520
  10665.805  10665.780  0.500  2.977634  82.2857  4.189425  1.072579
  10668.411  10668.400  0.500  2.974431  82.2173  4.199371  1.076111
  10671.072  10671.050  0.500  2.973189  82.1852  4.202953  1.077694
  10673.725  10673.710  0.500  2.972583  82.1165  4.201982  1.078216
  10676.424  10676.390  0.500  2.972412  82.0031  4.196892  1.076826
  10679.114  10679.090  0.500  2.971389  81.8697  4.194355  1.076537
  10681.830  10681.810  0.500  2.970788  81.9486  4.200927  1.078757
  10684.572  10684.550  0.500  2.969631  81.9  4.203292  1.079992
  10687.311  10687.300  0.500  2.967777  81.833  4.207645  1.081971
  10690.091  10690.080  0.500  2.965330  81.7752  4.214977  1.084925
  10692.882  10692.870  0.500  2.962919  81.7102  4.221792  1.087393
  10695.714  10695.690  0.500  2.960708  81.6195  4.226443  1.090297
  10698.524  10698.520  0.500  2.957854  81.3148  4.222700  1.089809
  10701.399  10701.370  0.500  2.955463  81.5465  4.244867  1.096735
  10704.271  10704.250  0.500  2.952513  81.4778  4.253819  1.100130
  10707.154  10707.140  0.500  2.949423  81.3624  4.260943  1.103203
  10710.079  10710.050  0.500  2.946722  81.356  4.272130  1.107475
  10712.980  10712.970  0.500  2.944302  81.2779  4.278371  1.109482
  10715.938  10715.920  0.500  2.942436  81.2151  4.283051  1.112483
  10718.912  10718.890  0.500  2.941290  81.1696  4.285557  1.113263
  10721.884  10721.870  0.500  2.940386  81.0839  4.284906  1.113733
  10724.911  10724.880  0.500  2.940093  81.0192  4.282741  1.113757
  10727.941  10727.900  0.500  2.939669  80.9572  4.281277  1.113597
  10730.972  10730.950  0.500  2.939015  80.8937  4.280720  1.114336
  10734.040  10734.010  0.500  2.937565  80.8083  4.282402  1.115466
  10737.110  10737.090  0.500  2.935847  80.7314  4.285688  1.116884
  10740.206  10740.190  0.500  2.933620  80.5504  4.285612  1.118364
  10743.345  10743.310  0.500  2.930248  80.5821  4.301781  1.123666
  10746.460  10746.450  0.500  2.927207  80.514  4.311234  1.127058
  10749.632  10749.600  0.500  2.923926  80.4548  4.322220  1.131196
  10752.796  10752.780  0.500  2.920893  80.369  4.330727  1.135441
  10755.997  10755.970  0.500  2.917349  80.2885  4.341749  1.138941
  10759.230  10759.190  0.500  2.913651  80.202  4.353143  1.144162
  10762.440  10762.420  0.500  2.910005  80.141  4.365720  1.148997
  10765.693  10765.670  0.500  2.906520  80.0544  4.376224  1.153127
  10768.987  10768.950  0.500  2.903282  79.9816  4.386428  1.157679
  10772.258  10772.240  0.500  2.899749  79.9248  4.398824  1.161790
  10775.582  10775.550  0.500  2.896395  79.8505  4.409501  1.165943
  10778.898  10778.870  0.500  2.893456  79.7642  4.417696  1.170110
  10782.251  10782.220  0.500  2.890145  79.6721  4.427235  1.173679
  10785.631  10785.590  0.500  2.887078  79.4232  4.426955  1.175055
  10788.989  10788.970  0.500  2.884932  79.495  4.440477  1.179894
  10792.434  10792.380  0.500  2.883310  79.4319  4.444158  1.181194
  10795.786  10795.800  0.500  2.881908  79.3218  4.444222  1.182041
  10799.281  10799.250  0.500  2.880107  79.1535  4.442788  1.183435
  10802.733  10802.710  0.500  2.877887  79.1647  4.453292  1.186797
  10806.213  10806.190  0.500  2.875940  78.7491  4.438546  1.184126
  10809.720  10809.690  0.500  2.873143  79.0377  4.467295  1.192877
  10813.230  10813.210  0.500  2.870743  78.7287  4.460518  1.192346
  10816.798  10816.750  0.500  2.867958  78.8498  4.479839  1.198842
  10820.317  10820.300  0.500  2.864942  78.7743  4.489065  1.201866
  10823.920  10823.880  0.500  2.862274  78.6906  4.496281  1.205977
  10827.521  10827.480  0.500  2.859604  78.4671  4.495492  1.206223
  10831.118  10831.090  0.500  2.857013  78.4812  4.507968  1.211412
  10834.759  10834.720  0.500  2.854767  78.4756  4.517783  1.215136
  10838.413  10838.380  0.500  2.852097  78.6739  4.541305  1.222410
  10842.084  10842.050  0.500  2.848962  78.5664  4.549339  1.226187
  10845.774  10845.740  0.500  2.846368  78.4596  4.554956  1.228791
  10849.466  10849.450  0.500  2.843527  78.43  4.566194  1.233716
  10853.221  10853.180  0.500  2.840602  78.1776  4.564830  1.234526
  10856.954  10856.920  0.500  2.837171  78.2336  4.583795  1.241183
  10860.715  10860.690  0.500  2.833760  77.9885  4.585049  1.243406
  10864.525  10864.480  0.500  2.831150  78.0792  4.602377  1.249348
  10868.296  10868.280  0.500  2.828396  77.8256  4.600084  1.249825
  10872.142  10872.110  0.500  2.826013  77.9133  4.616255  1.255769
  10875.971  10875.950  0.500  2.823210  77.6629  4.614336  1.256978
  10879.832  10879.810  0.500  2.819898  77.7267  4.633443  1.262863
  10883.718  10883.690  0.500  2.816776  77.6475  4.643199  1.267094
  10887.616  10887.590  0.500  2.813491  77.5583  4.653122  1.271230
  10891.548  10891.510  0.500  2.810377  77.4679  4.662197  1.275837
  10895.472  10895.450  0.500  2.807024  77.3768  4.672353  1.280244
  10899.436  10899.410  0.500  2.803649  77.3068  4.683911  1.285188
  10903.418  10903.380  0.500  2.800223  77.207  4.693917  1.289223
  10907.408  10907.380  0.500  2.796601  77.1246  4.705921  1.293954
  10911.421  10911.390  0.500  2.793458  77.0201  4.714338  1.298464
  10915.459  10915.430  0.500  2.790204  76.894  4.721958  1.301423
  10919.520  10919.480  0.500  2.787401  76.8528  4.732677  1.306484
  10923.579  10923.550  0.500  2.784384  76.7531  4.740819  1.310265
  10927.672  10927.640  0.500  2.781511  76.6587  4.748609  1.314005
  10931.769  10931.750  0.500  2.778788  76.578  4.756546  1.317634
  10935.910  10935.880  0.500  2.775757  76.4975  4.765970  1.321927
  10940.059  10940.030  0.500  2.772879  76.3754  4.772075  1.325021
  10944.211  10944.190  0.500  2.770495  76.2992  4.778693  1.328113
  10948.419  10948.380  0.500  2.767994  76.1969  4.784240  1.330650
  10952.604  10952.580  0.500  2.765719  76.1142  4.789929  1.334228
  10956.834  10956.810  0.500  2.763354  76.0224  4.795482  1.337002
  10961.078  10961.050  0.500  2.760411  75.933  4.803960  1.340479
  10965.341  10965.310  0.500  2.757229  75.8376  4.813218  1.345529
  10969.617  10969.590  0.500  2.754000  75.7428  4.822749  1.349841
  10973.923  10973.890  0.500  2.750339  75.6507  4.834551  1.355169
  10978.233  10978.210  0.500  2.746368  75.5195  4.845365  1.360246
  10982.577  10982.550  0.500  2.742356  75.437  4.859528  1.365372
  10986.946  10986.910  0.500  2.738816  75.3663  4.872196  1.371551
  10991.324  10991.290  0.500  2.735501  75.2628  4.881662  1.376704
  10995.721  10995.680  0.500  2.731704  75.1899  4.895484  1.381436
  11000.127  11000.100  0.500  2.728150  75.067  4.904882  1.386130
  11004.573  11004.530  0.500  2.724643  74.9541  4.914711  1.390222
  11009.002  11008.980  0.500  2.721754  74.8551  4.922421  1.394546
  11013.487  11013.450  0.500  2.718382  74.6941  4.928423  1.397730
  11017.960  11017.940  0.500  2.715266  74.6678  4.942063  1.403896
  11022.484  11022.450  0.500  2.712062  74.5738  4.951681  1.408148
  11026.996  11026.980  0.500  2.709045  74.4529  4.958595  1.412143
  11031.559  11031.530  0.500  2.706070  74.3714  4.967918  1.416118