File: xdidata/Yb/Yb-L3-Yb2O3.xdi
# XDI/1.0 BlueSky/1.10.0 BMM/2023-1.0-py310-tiled
# Beamline.name: BMM (06BM) -- Beamline for Materials Measurement (NIST)
# Beamline.xray_source: NSLS-II three-pole wiggler
# Beamline.collimation: paraboloid mirror, 5 nm Rh on 30 nm Pt
# Beamline.focusing: not in use
# Beamline.harmonic_rejection: flat mirror, Pt stripe, pitch = 7.0 mrad relative to beam
# Beamline.software: Bluesky 1.10.0, Ophyd 1.7.0, DataBroker 2.0.0b13, Python 3.10.8, 2023-1.0-py310-tiled
# Detector.I0: 10 cm N2
# Detector.I1: 25 cm N2
# Detector.I2: 25 cm N2
# Element.symbol: Yb
# Element.edge: L3
# Element.reference: Yb
# Element.reference_material: Yb2O3
# Facility.name: NSLS-II
# Facility.energy: 3.0
# Facility.current: 399.9
# Facility.mode: top-off
# Facility.GUP: 123456
# Facility.SAF: 301027
# Facility.cycle: 2023-2
# Mono.name: Si(111)
# Mono.d_spacing: 3.13519
# Mono.encoder_resolution: 0.0000050 deg/ct
# Mono.angle_offset: 16.0754 deg
# Mono.scan_mode: pseudo channel cut
# Mono.scan_type: step
# Mono.direction: forward in energy
# Sample.name: Yb2O3
# Sample.prep: Powder in PEG pellet
# Sample.x: 123.848 mm
# Sample.y: 114.690 mm
# Sample.SDD_position: 205.000 mm
# Scan.experimenters: Bruce Ravel
# Scan.edge_energy: 8943.6
# Scan.start_time: 2023-05-08T19:30:12
# Scan.end_time: 2023-05-08T19:36:10
# Scan.transient_id: 75540
# Scan.uid: 9a8a0b37-28a1-4a4d-80b0-afc65dfed344
# Scan.plot_hint: ln(I0/It)  --  ln($5/$6)
# Column.1: energy eV
# Column.2: requested_energy eV
# Column.3: measurement_time seconds
# Column.4: xmu
# Column.5: I0 nA
# Column.6: It nA
# Column.7: Ir nA
# ///////////
# sample courtesy Martin Stennett, University of Sheffield
# -----------
# energy  requested_energy  measurement_time  xmu  I0  It  Ir
  8743.639  8743.600  0.500  1.962922  123.396  17.3307  4.684843
  8753.623  8753.600  0.500  1.954576  123.199  17.448  4.736719
  8763.679  8763.600  0.500  1.945996  123.003  17.5704  4.790943
  8773.660  8773.600  0.500  1.937548  122.808  17.6914  4.842964
  8783.632  8783.600  0.500  1.929414  122.587  17.8037  4.894371
  8793.643  8793.600  0.500  1.921035  122.358  17.92  4.946394
  8803.657  8803.600  0.500  1.912800  122.162  18.0393  5.002035
  8813.628  8813.600  0.500  1.904434  121.947  18.1587  5.054477
  8823.629  8823.600  0.500  1.896082  121.761  18.2831  5.110054
  8833.630  8833.600  0.500  1.887890  121.551  18.4017  5.165032
  8843.665  8843.600  0.500  1.880101  121.282  18.5046  5.213994
  8853.584  8853.600  0.500  1.872396  121.104  18.6203  5.268451
  8863.570  8863.600  0.500  1.864985  120.894  18.7262  5.317907
  8873.573  8873.600  0.500  1.857961  120.682  18.8252  5.365922
  8883.582  8883.600  0.500  1.851729  120.473  18.9101  5.411026
  8893.576  8893.600  0.500  1.846667  120.254  18.9715  5.444716
  8903.574  8903.600  0.500  1.844339  120.027  18.9799  5.460496
  8913.573  8913.600  0.500  1.847961  119.82  18.8787  5.435599
  8915.577  8915.600  0.500  1.849897  119.68  18.8201  5.419589
  8917.572  8917.600  0.500  1.852597  117.544  18.4343  5.305043
  8919.568  8919.600  0.500  1.856010  119.754  18.7169  5.383002
  8921.564  8921.600  0.500  1.861082  119.581  18.5954  5.343273
  8923.579  8923.600  0.500  1.867250  117.553  18.1675  5.212896
  8925.574  8925.600  0.500  1.875599  119.868  18.3714  5.259778
  8927.570  8927.600  0.500  1.887267  119.853  18.156  5.182615
  8929.574  8929.600  0.500  1.903009  119.683  17.847  5.074853
  8931.578  8931.600  0.500  1.925961  118.304  17.2411  4.872649
  8933.577  8933.600  0.500  1.962519  119.797  16.832  4.711444
  8934.065  8934.100  0.500  1.975255  119.786  16.6174  4.634520
  8934.570  8934.600  0.500  1.989775  119.759  16.3741  4.548987
  8935.075  8935.100  0.500  2.005949  119.656  16.0976  4.453686
  8935.573  8935.600  0.500  2.022839  119.475  15.8041  4.351321
  8936.078  8936.100  0.500  2.040598  119.398  15.5158  4.251881
  8936.573  8936.600  0.500  2.057728  119.456  15.2598  4.161171
  8937.079  8937.100  0.500  2.074775  119.612  15.0215  4.077558
  8937.577  8937.600  0.500  2.092537  119.654  14.7621  3.987994
  8938.076  8938.100  0.500  2.112222  119.649  14.4738  3.888280
  8938.578  8938.600  0.500  2.135929  119.638  14.1334  3.771931
  8939.076  8939.100  0.500  2.164880  119.627  13.7288  3.635130
  8939.578  8939.600  0.500  2.199765  119.615  13.2568  3.477093
  8940.081  8940.100  0.500  2.242834  119.603  12.6967  3.290625
  8940.576  8940.600  0.500  2.295506  119.591  12.044  3.076347
  8941.082  8941.100  0.500  2.360168  119.577  11.2886  2.832119
  8941.581  8941.600  0.500  2.437542  119.569  10.4474  2.565589
  8942.087  8942.100  0.500  2.530202  119.551  9.521418  2.279289
  8942.582  8942.600  0.500  2.641229  119.541  8.520128  1.978137
  8943.085  8943.100  0.500  2.781070  119.53  7.407543  1.655261
  8943.588  8943.600  0.500  2.954179  119.516  6.229339  1.327396
  8944.083  8944.100  0.500  3.166095  119.499  5.039032  1.013198
  8944.579  8944.600  0.500  3.426346  119.488  3.884006  0.727385
  8945.082  8945.100  0.500  3.731300  119.477  2.862872  0.493327
  8945.585  8945.600  0.500  4.074819  119.466  2.030353  0.318179
  8946.091  8946.100  0.500  4.451940  119.455  1.392357  0.195679
  8946.587  8946.600  0.500  4.825178  119.441  0.958531  0.120377
  8947.094  8947.100  0.500  5.159924  119.42  0.685727  0.077473
  8947.593  8947.600  0.500  5.403792  119.41  0.537285  0.055868
  8948.097  8948.100  0.500  5.567398  119.404  0.456174  0.045118
  8948.593  8948.600  0.500  5.668467  119.386  0.412259  0.039337
  8949.100  8949.100  0.500  5.737834  119.374  0.384591  0.035951
  8949.589  8949.600  0.500  5.775908  119.357  0.370171  0.034311
  8950.092  8950.100  0.500  5.767665  119.343  0.373191  0.034543
  8950.596  8950.600  0.500  5.695676  119.321  0.400973  0.038075
  8951.089  8951.100  0.500  5.545840  119.257  0.465538  0.046372
  8951.589  8951.600  0.500  5.332134  119.095  0.575675  0.061476
  8952.093  8952.100  0.500  5.075500  118.972  0.743332  0.085744
  8952.600  8952.600  0.500  4.811479  119.021  0.968330  0.121232
  8953.104  8953.100  0.500  4.552603  119.17  1.256016  0.169453
  8953.600  8953.600  0.500  4.319191  119.213  1.586802  0.228794
  8954.104  8954.100  0.500  4.114523  119.208  1.947118  0.297496
  8954.598  8954.600  0.500  3.945628  119.204  2.305295  0.369077
  8955.102  8955.100  0.500  3.806508  119.183  2.648922  0.441259
  8955.595  8955.600  0.500  3.699432  119.176  2.948133  0.506312
  8956.093  8956.100  0.500  3.611702  119.16  3.218009  0.566820
  8956.583  8956.600  0.500  3.539858  119.147  3.457356  0.621355
  8957.101  8957.100  0.500  3.476612  119.137  3.682744  0.674034
  8957.591  8957.600  0.500  3.423345  119.13  3.884029  0.721857
  8958.103  8958.100  0.500  3.377008  119.122  4.067951  0.765977
  8958.603  8958.600  0.500  3.339111  119.117  4.224885  0.803777
  8959.097  8959.100  0.500  3.308013  119.095  4.357541  0.837210
  8959.599  8959.600  0.500  3.282479  119.091  4.470072  0.864585
  8960.103  8960.100  0.500  3.261316  119.08  4.565263  0.888362
  8960.594  8960.600  0.500  3.244169  119.064  4.643596  0.908368
  8961.095  8961.100  0.500  3.229597  119.052  4.711291  0.925089
  8961.586  8961.600  0.500  3.219437  119.04  4.758916  0.937447
  8962.094  8962.100  0.500  3.212926  119.01  4.788824  0.945158
  8962.589  8962.600  0.500  3.211195  118.997  4.796592  0.947127
  8963.093  8963.100  0.500  3.213888  118.983  4.783114  0.944003
  8963.602  8963.600  0.500  3.220579  118.97  4.750717  0.935992
  8964.100  8964.100  0.500  3.229895  118.941  4.705505  0.924329
  8964.605  8964.600  0.500  3.240702  118.825  4.650393  0.911124
  8965.103  8965.100  0.500  3.250746  118.673  4.598029  0.898220
  8965.605  8965.600  0.500  3.259047  118.632  4.558423  0.888292
  8966.100  8966.100  0.500  3.264701  118.74  4.536875  0.882910
  8966.591  8966.600  0.500  3.267994  118.845  4.525956  0.879930
  8967.093  8967.100  0.500  3.268824  118.865  4.522960  0.878810
  8967.591  8967.600  0.500  3.267623  118.855  4.528013  0.880921
  8968.100  8968.100  0.500  3.263756  118.846  4.545190  0.885704
  8968.599  8968.600  0.500  3.257068  118.837  4.575348  0.892776
  8969.600  8969.590  0.500  3.239486  118.816  4.655675  0.913474
  8970.604  8970.590  0.500  3.219571  118.789  4.748265  0.937043
  8971.619  8971.610  0.500  3.202636  118.764  4.828328  0.957447
  8972.669  8972.660  0.500  3.195812  118.739  4.860365  0.965889
  8973.727  8973.720  0.500  3.203439  118.713  4.822393  0.956286
  8974.805  8974.800  0.500  3.226415  118.687  4.711811  0.928557
  8975.915  8975.900  0.500  3.260610  118.655  4.552198  0.888284
  8977.028  8977.020  0.500  3.298012  118.628  4.384097  0.846206
  8978.163  8978.160  0.500  3.337504  118.599  4.213288  0.804225
  8979.322  8979.310  0.500  3.379375  118.569  4.039487  0.762264
  8980.506  8980.490  0.500  3.424611  118.534  3.859709  0.718604
  8981.697  8981.680  0.500  3.475107  118.276  3.661644  0.671797
  8982.899  8982.900  0.500  3.528414  118.282  3.471752  0.627511
  8984.139  8984.130  0.500  3.573983  118.391  3.320143  0.592105
  8985.387  8985.380  0.500  3.606289  118.367  3.213952  0.568042
  8986.669  8986.650  0.500  3.617541  118.336  3.177154  0.559718
  8987.949  8987.940  0.500  3.607290  118.298  3.208860  0.567227
  8989.250  8989.250  0.500  3.580484  118.256  3.294880  0.587492
  8990.590  8990.580  0.500  3.543202  118.2  3.418419  0.615922
  8991.940  8991.930  0.500  3.503071  118.112  3.555750  0.648821
  8993.312  8993.300  0.500  3.462629  117.418  3.680741  0.679971
  8994.677  8994.680  0.500  3.425868  116.657  3.793811  0.708142
  8996.102  8996.090  0.500  3.397676  118.135  3.951714  0.743574
  8997.520  8997.510  0.500  3.375982  118.084  4.036654  0.764608
  8998.957  8998.950  0.500  3.357932  118.024  4.108089  0.782689
  9000.421  9000.410  0.500  3.339464  117.937  4.181563  0.801022
  9001.908  9001.890  0.500  3.321346  117.706  4.249674  0.818300
  9003.394  9003.390  0.500  3.304869  115.64  4.244462  0.821679
  9004.920  9004.910  0.500  3.292224  117.911  4.382899  0.851875
  9006.463  9006.450  0.500  3.282412  117.889  4.425253  0.862452
  9008.028  9008.010  0.500  3.274631  117.805  4.456649  0.870887
  9009.583  9009.580  0.500  3.267866  117.563  4.477708  0.876700
  9011.184  9011.180  0.500  3.261757  115.75  4.435670  0.870146
  9012.803  9012.790  0.500  3.258783  117.789  4.527227  0.888973
  9014.441  9014.430  0.500  3.257601  117.74  4.530706  0.890130
  9016.082  9016.080  0.500  3.258938  117.674  4.522122  0.888471
  9017.762  9017.750  0.500  3.263291  117.605  4.499851  0.883570
  9019.454  9019.440  0.500  3.270148  117.354  4.459562  0.874183
  9021.157  9021.150  0.500  3.279355  116.006  4.367928  0.853306
  9022.892  9022.880  0.500  3.292789  117.596  4.368706  0.850705
  9024.631  9024.630  0.500  3.307239  117.55  4.304341  0.835099
  9026.399  9026.390  0.500  3.322104  117.507  4.239266  0.819516
  9028.196  9028.180  0.500  3.336220  117.454  4.177962  0.804372
  9029.986  9029.980  0.500  3.348227  117.405  4.126393  0.791997
  9031.826  9031.810  0.500  3.357798  117.359  4.085492  0.781902
  9033.664  9033.650  0.500  3.363874  117.319  4.059352  0.775898
  9035.527  9035.510  0.500  3.367412  117.273  4.043420  0.772432
  9037.401  9037.390  0.500  3.367992  117.218  4.039177  0.771645
  9039.312  9039.290  0.500  3.367277  117.159  4.040035  0.772410
  9041.216  9041.210  0.500  3.365255  116.036  4.009408  0.767111
  9043.163  9043.150  0.500  3.363650  116.931  4.046823  0.774978
  9045.125  9045.110  0.500  3.363298  116.977  4.049833  0.775655
  9047.088  9047.080  0.500  3.363003  116.944  4.049900  0.775652
  9049.094  9049.080  0.500  3.361871  116.9  4.052950  0.777317
  9051.108  9051.090  0.500  3.359219  116.857  4.062224  0.779579
  9053.131  9053.120  0.500  3.354461  116.806  4.079825  0.784296
  9055.192  9055.180  0.500  3.349763  116.761  4.097461  0.789059
  9057.262  9057.250  0.500  3.345820  116.713  4.111959  0.793280
  9059.347  9059.340  0.500  3.342316  116.667  4.124773  0.796422
  9061.462  9061.450  0.500  3.339241  116.593  4.134833  0.799609
  9063.591  9063.580  0.500  3.336599  115.312  4.100224  0.793821
  9065.725  9065.720  0.500  3.332973  116.464  4.156219  0.805274
  9067.907  9067.890  0.500  3.327430  116.445  4.178660  0.811368
  9070.089  9070.080  0.500  3.318062  116.401  4.216375  0.821568
  9072.300  9072.280  0.500  3.305623  116.356  4.267521  0.834613
  9074.506  9074.500  0.500  3.291434  116.302  4.326498  0.850236
  9076.766  9076.750  0.500  3.277038  116.253  4.387386  0.865560
  9079.017  9079.010  0.500  3.262853  116.193  4.447764  0.881619
  9081.311  9081.290  0.500  3.250154  114.93  4.455623  0.886589
  9083.603  9083.590  0.500  3.241641  116.009  4.535906  0.905025
  9085.924  9085.910  0.500  3.240007  116.003  4.543097  0.907294
  9088.268  9088.250  0.500  3.244653  115.95  4.519965  0.902275
  9090.599  9090.600  0.500  3.252206  115.901  4.484072  0.892904
  9092.999  9092.980  0.500  3.260052  115.848  4.446973  0.883934
  9095.372  9095.370  0.500  3.265861  115.791  4.419040  0.877178
  9097.811  9097.790  0.500  3.270827  115.736  4.395078  0.871988
  9100.236  9100.220  0.500  3.275081  115.686  4.374527  0.866874
  9102.695  9102.670  0.500  3.280110  115.482  4.344898  0.860117
  9105.165  9105.150  0.500  3.286247  115.31  4.311890  0.852220
  9107.659  9107.640  0.500  3.295441  115.464  4.278154  0.844183
  9110.176  9110.150  0.500  3.304582  115.423  4.237696  0.833858
  9112.683  9112.670  0.500  3.311903  115.366  4.204730  0.826222
  9115.245  9115.220  0.500  3.315675  115.298  4.186435  0.822126
  9117.805  9117.790  0.500  3.313776  115.241  4.192294  0.823796
  9120.392  9120.370  0.500  3.306334  115.175  4.221208  0.831444
  9122.984  9122.980  0.500  3.293425  115.121  4.274030  0.845307
  9125.617  9125.600  0.500  3.277845  115.055  4.338669  0.862382
  9128.258  9128.250  0.500  3.263823  114.977  4.396925  0.877596
  9130.937  9130.910  0.500  3.253812  114.907  4.438484  0.889215
  9133.611  9133.590  0.500  3.246419  114.833  4.468546  0.897539
  9136.311  9136.290  0.500  3.241492  114.753  4.487464  0.903250
  9139.035  9139.010  0.500  3.239108  114.648  4.494073  0.905104
  9141.774  9141.750  0.500  3.239609  114.463  4.484588  0.903428
  9144.523  9144.500  0.500  3.240428  110.803  4.337626  0.873628
  9147.302  9147.280  0.500  3.242768  114.586  4.475211  0.901837
  9150.093  9150.070  0.500  3.244206  114.47  4.464276  0.899380
  9152.905  9152.890  0.500  3.245626  114.344  4.453023  0.896936
  9155.739  9155.720  0.500  3.247061  113.991  4.432917  0.893252
  9158.591  9158.570  0.500  3.246914  113.677  4.421341  0.891032
  9161.469  9161.450  0.500  3.247546  114.25  4.440830  0.895663
  9164.374  9164.340  0.500  3.244090  114.102  4.450427  0.898850
  9167.260  9167.250  0.500  3.237257  113.322  4.450341  0.900616
  9170.191  9170.170  0.500  3.227958  114.109  4.523076  0.917748
  9173.131  9173.120  0.500  3.218324  114.489  4.582092  0.933127
  9176.123  9176.090  0.500  3.209501  114.362  4.617585  0.942745
  9179.089  9179.070  0.500  3.202596  114.192  4.642647  0.950627
  9182.119  9182.080  0.500  3.197868  110.319  4.506459  0.924878
  9185.081  9185.100  0.500  3.195396  114.264  4.679129  0.961543
  9188.155  9188.150  0.500  3.195140  114.145  4.675463  0.961197
  9191.216  9191.210  0.500  3.195681  114.033  4.668343  0.959328
  9194.297  9194.290  0.500  3.197274  113.936  4.656973  0.957046
  9197.406  9197.390  0.500  3.199281  113.831  4.643330  0.954123
  9200.521  9200.510  0.500  3.200879  113.732  4.631897  0.951967
  9203.667  9203.650  0.500  3.201553  113.651  4.625469  0.951362
  9206.819  9206.800  0.500  3.202029  113.571  4.620038  0.949856
  9209.996  9209.980  0.500  3.202633  113.499  4.614314  0.949297
  9213.192  9213.170  0.500  3.202343  113.426  4.612681  0.949145
  9216.406  9216.390  0.500  3.200833  113.348  4.616471  0.950733
  9219.637  9219.620  0.500  3.197416  113.269  4.629042  0.955225
  9222.888  9222.870  0.500  3.193450  113.191  4.644237  0.959392
  9226.175  9226.150  0.500  3.189748  113.109  4.658101  0.964083
  9229.453  9229.440  0.500  3.185793  113.025  4.673079  0.968943
  9232.766  9232.750  0.500  3.180521  112.939  4.694212  0.975180
  9236.086  9236.070  0.500  3.174685  112.863  4.718505  0.982531
  9239.441  9239.420  0.500  3.167831  112.769  4.746993  0.990378
  9242.814  9242.790  0.500  3.160510  112.691  4.778568  1.000314
  9246.185  9246.170  0.500  3.153425  112.607  4.808970  1.008562
  9249.607  9249.580  0.500  3.148064  112.536  4.831761  1.016043
  9253.023  9253.000  0.500  3.145132  112.439  4.841767  1.019103
  9256.480  9256.450  0.500  3.142782  112.348  4.849233  1.021484
  9259.932  9259.910  0.500  3.141040  112.257  4.853738  1.023447
  9263.408  9263.390  0.500  3.140328  112.172  4.853538  1.024531
  9266.913  9266.890  0.500  3.139646  112.083  4.852995  1.025018
  9270.429  9270.410  0.500  3.137843  111.996  4.857960  1.027200
  9273.973  9273.950  0.500  3.135372  111.885  4.865146  1.029705
  9277.516  9277.500  0.500  3.131306  111.867  4.884180  1.036041
  9281.106  9281.080  0.500  3.126439  111.769  4.903707  1.041874
  9284.699  9284.680  0.500  3.120869  111.661  4.926350  1.048326
  9288.303  9288.290  0.500  3.116253  111.555  4.944453  1.055006
  9291.943  9291.920  0.500  3.112461  111.02  4.939411  1.055338
  9295.589  9295.580  0.500  3.108482  111.352  4.973967  1.064066
  9299.265  9299.250  0.500  3.106623  108.629  4.861343  1.041780
  9302.947  9302.940  0.500  3.102786  111.268  4.998576  1.072234
  9306.670  9306.650  0.500  3.100406  110.298  4.966818  1.067197
  9310.396  9310.380  0.500  3.098063  111.084  5.013964  1.078474
  9314.132  9314.120  0.500  3.094448  110.99  5.027851  1.082842
  9317.916  9317.890  0.500  3.090224  110.891  5.044633  1.088608
  9321.688  9321.680  0.500  3.085924  110.756  5.060213  1.094474
  9325.490  9325.480  0.500  3.082264  110.728  5.077483  1.099381
  9329.318  9329.310  0.500  3.079987  110.624  5.084279  1.102115
  9333.175  9333.150  0.500  3.077683  110.525  5.091441  1.105020
  9337.016  9337.010  0.500  3.076116  110.42  5.094569  1.107360
  9340.910  9340.890  0.500  3.073738  110.322  5.102153  1.109741
  9344.810  9344.790  0.500  3.071550  110.216  5.108412  1.112677
  9348.729  9348.710  0.500  3.068230  110.122  5.121048  1.117228
  9352.667  9352.650  0.500  3.064795  110.028  5.134304  1.122052
  9356.619  9356.610  0.500  3.060705  109.929  5.150678  1.126844
  9360.598  9360.580  0.500  3.056307  109.824  5.168456  1.133271
  9364.595  9364.580  0.500  3.051904  109.73  5.186816  1.139541
  9368.610  9368.590  0.500  3.046981  109.626  5.207474  1.146041
  9372.645  9372.630  0.500  3.042052  109.517  5.228008  1.152768
  9376.690  9376.680  0.500  3.037066  109.418  5.249387  1.160387
  9380.773  9380.750  0.500  3.032009  109.317  5.271109  1.167195
  9384.856  9384.840  0.500  3.026914  109.208  5.292756  1.173868
  9388.974  9388.950  0.500  3.021354  109.111  5.317528  1.182065
  9393.094  9393.080  0.500  3.015798  109.014  5.342436  1.190451
  9397.249  9397.230  0.500  3.010144  108.92  5.368080  1.199182
  9401.412  9401.390  0.500  3.005406  108.821  5.388667  1.205491
  9405.594  9405.580  0.500  3.001699  108.718  5.403558  1.210868
  9409.810  9409.780  0.500  2.999466  108.605  5.410025  1.213853
  9414.037  9414.010  0.500  2.997730  108.507  5.414512  1.216397
  9418.268  9418.250  0.500  2.996595  108.402  5.415406  1.217936
  9422.523  9422.510  0.500  2.995116  108.292  5.417951  1.219464
  9426.816  9426.790  0.500  2.993257  108.194  5.423111  1.221581
  9431.105  9431.090  0.500  2.989934  108.088  5.435848  1.226718
  9435.429  9435.410  0.500  2.985618  107.937  5.451693  1.232134
  9439.768  9439.750  0.500  2.980502  107.866  5.476062  1.240235
  9444.143  9444.110  0.500  2.975735  107.775  5.497599  1.247776
  9448.510  9448.490  0.500  2.970783  107.668  5.519392  1.255237
  9452.896  9452.880  0.500  2.965524  107.562  5.543031  1.263324
  9457.326  9457.300  0.500  2.960188  107.454  5.567090  1.270974
  9461.744  9461.730  0.500  2.955219  107.335  5.588619  1.279021
  9466.205  9466.180  0.500  2.950502  107.234  5.609786  1.286499
  9470.670  9470.650  0.500  2.945558  107.12  5.631597  1.293863
  9475.155  9475.140  0.500  2.940567  107.008  5.653867  1.302071
  9479.680  9479.650  0.500  2.935163  106.896  5.678552  1.310544
  9484.197  9484.180  0.500  2.929794  106.783  5.703083  1.318431
  9488.757  9488.730  0.500  2.925397  106.672  5.722242  1.325640