File: xdidata/Data/Lu/Lu-L1-Lu2TiO5.xdi
# XDI/1.0 BlueSky/1.10.0 BMM/2023-1.0-py310-tiled
# Beamline.name: BMM (06BM) -- Beamline for Materials Measurement (NIST)
# Beamline.xray_source: NSLS-II three-pole wiggler
# Beamline.collimation: paraboloid mirror, 5 nm Rh on 30 nm Pt
# Beamline.focusing: not in use
# Beamline.harmonic_rejection: flat mirror, Pt stripe, pitch = 7.0 mrad relative to beam
# Beamline.software: Bluesky 1.10.0, Ophyd 1.7.0, DataBroker 2.0.0b13, Python 3.10.8, 2023-1.0-py310-tiled
# Detector.I0: 10 cm N2
# Detector.I1: 25 cm N2
# Detector.I2: 25 cm N2
# Element.symbol: Lu
# Element.edge: L1
# Element.reference: Lu
# Element.reference_material: Lu2O3
# Facility.name: NSLS-II
# Facility.energy: 3.0
# Facility.current: 400.6
# Facility.mode: top-off
# Facility.GUP: 123456
# Facility.SAF: 301027
# Facility.cycle: 2023-2
# Mono.name: Si(111)
# Mono.d_spacing: 3.13519
# Mono.encoder_resolution: 0.0000050 deg/ct
# Mono.angle_offset: 16.0754 deg
# Mono.scan_mode: pseudo channel cut
# Mono.scan_type: step
# Mono.direction: forward in energy
# Sample.name: Lu2TiO5
# Sample.prep: Powder in PEG pellet
# Sample.x: 149.848 mm
# Sample.y: 114.690 mm
# Sample.SDD_position: 205.000 mm
# Scan.experimenters: Bruce Ravel
# Scan.edge_energy: 10870.4
# Scan.start_time: 2023-05-08T23:11:23
# Scan.end_time: 2023-05-08T23:17:06
# Scan.transient_id: 75711
# Scan.uid: 26c7d0ff-6972-44b1-a57b-4815277eecb1
# Scan.plot_hint: ln(I0/It)  --  ln($5/$6)
# Column.1: energy eV
# Column.2: requested_energy eV
# Column.3: measurement_time seconds
# Column.4: xmu
# Column.5: I0 nA
# Column.6: It nA
# Column.7: Ir nA
# ///////////
# sample courtesy Martin Stennett, University of Sheffield
# -----------
# energy  requested_energy  measurement_time  xmu  I0  It  Ir
  10670.465  10670.400  0.500  0.721064  83.087  40.3998  7.211127
  10680.509  10680.400  0.500  0.718961  82.8801  40.384  7.224989
  10690.497  10690.400  0.500  0.717008  82.6643  40.3576  7.248302
  10700.445  10700.400  0.500  0.715054  82.4839  40.3483  7.275157
  10710.472  10710.400  0.500  0.713089  82.2831  40.3292  7.292145
  10720.418  10720.400  0.500  0.711330  82.0783  40.2997  7.304850
  10730.423  10730.400  0.500  0.709574  81.8839  40.2749  7.328805
  10740.446  10740.400  0.500  0.707883  81.5477  40.1774  7.332198
  10750.389  10750.400  0.500  0.705937  81.4965  40.2304  7.357438
  10760.441  10760.400  0.500  0.703335  80.4737  39.829  7.304063
  10770.421  10770.400  0.500  0.701441  80.3622  39.8492  7.333126
  10780.430  10780.400  0.500  0.699485  80.1527  39.8232  7.355351
  10790.418  10790.400  0.500  0.697636  79.9543  39.7981  7.377853
  10800.410  10800.400  0.500  0.695944  79.4907  39.6343  7.376253
  10810.425  10810.400  0.500  0.694241  79.5851  39.749  7.425897
  10820.414  10820.400  0.500  0.692560  79.3688  39.7077  7.434377
  10830.416  10830.400  0.500  0.691121  78.935  39.5476  7.412484
  10840.412  10840.400  0.500  0.689340  78.9595  39.6303  7.439460
  10842.370  10842.400  0.500  0.689018  78.9024  39.6144  7.438642
  10844.370  10844.400  0.500  0.688718  78.8555  39.6027  7.438996
  10846.371  10846.400  0.500  0.688280  78.654  39.5189  7.426694
  10848.362  10848.400  0.500  0.688378  78.7432  39.5598  7.435874
  10850.365  10850.400  0.500  0.688110  78.751  39.5743  7.440815
  10852.363  10852.400  0.500  0.687751  78.6917  39.5588  7.439722
  10854.367  10854.400  0.500  0.687785  78.44  39.4308  7.417515
  10856.366  10856.400  0.500  0.687577  78.6256  39.5324  7.436587
  10858.376  10858.400  0.500  0.687402  78.5526  39.5026  7.430277
  10860.357  10860.400  0.500  0.687484  78.27  39.3572  7.400966
  10860.859  10860.900  0.500  0.687580  78.3811  39.4094  7.410692
  10861.360  10861.400  0.500  0.687606  78.4737  39.4549  7.417731
  10861.857  10861.900  0.500  0.687473  78.4851  39.4659  7.419130
  10862.369  10862.400  0.500  0.687431  78.5088  39.4794  7.420022
  10862.860  10862.900  0.500  0.687442  78.4923  39.4707  7.416054
  10863.367  10863.400  0.500  0.687622  78.485  39.4599  7.413592
  10863.864  10863.900  0.500  0.687641  78.4535  39.4434  7.408093
  10864.376  10864.400  0.500  0.687735  78.4327  39.4292  7.401594
  10864.873  10864.900  0.500  0.687830  78.4214  39.4197  7.399422
  10865.370  10865.400  0.500  0.687803  78.4026  39.4114  7.393170
  10865.872  10865.900  0.500  0.687925  78.3845  39.3974  7.387786
  10866.364  10866.400  0.500  0.688298  78.3738  39.3774  7.380600
  10866.877  10866.900  0.500  0.688192  78.2255  39.3071  7.361543
  10867.358  10867.400  0.500  0.688474  78.0647  39.2152  7.338780
  10867.866  10867.900  0.500  0.688903  78.0829  39.2075  7.330608
  10868.363  10868.400  0.500  0.689333  78.2016  39.2502  7.330193
  10868.865  10868.900  0.500  0.689635  78.2821  39.2788  7.327335
  10869.373  10869.400  0.500  0.689952  78.3241  39.2874  7.316904
  10869.876  10869.900  0.500  0.690368  78.3174  39.2677  7.300366
  10870.373  10870.400  0.500  0.690959  78.3061  39.2388  7.276816
  10870.896  10870.900  0.500  0.691823  78.3017  39.2028  7.251453
  10871.388  10871.400  0.500  0.692667  78.2881  39.1628  7.220516
  10871.886  10871.900  0.500  0.693745  78.263  39.1081  7.182510
  10872.389  10872.400  0.500  0.694992  78.2418  39.0488  7.139058
  10872.897  10872.900  0.500  0.696360  78.2255  38.9873  7.096373
  10873.389  10873.400  0.500  0.697781  78.2011  38.9198  7.051629
  10873.892  10873.900  0.500  0.699072  78.2009  38.8695  7.009674
  10874.390  10874.400  0.500  0.700259  78.1524  38.7993  6.968989
  10874.882  10874.900  0.500  0.701466  78.1034  38.7282  6.928677
  10875.391  10875.400  0.500  0.702685  78.0312  38.6452  6.888332
  10875.883  10875.900  0.500  0.703775  78.0108  38.5931  6.849837
  10876.381  10876.400  0.500  0.704929  78.0271  38.5566  6.817379
  10876.890  10876.900  0.500  0.706110  78.0828  38.5386  6.784340
  10877.383  10877.400  0.500  0.707168  78.1115  38.512  6.748827
  10877.881  10877.900  0.500  0.708443  78.0872  38.4509  6.708347
  10878.389  10878.400  0.500  0.709862  78.0751  38.3905  6.667058
  10878.892  10878.900  0.500  0.711262  78.068  38.3333  6.625517
  10879.385  10879.400  0.500  0.712667  78.0691  38.28  6.584681
  10879.904  10879.900  0.500  0.714199  78.0501  38.2121  6.541267
  10880.408  10880.400  0.500  0.715728  78.0424  38.1499  6.497833
  10880.896  10880.900  0.500  0.717393  78.0258  38.0784  6.449509
  10881.399  10881.400  0.500  0.719066  78.007  38.0055  6.397320
  10881.903  10881.900  0.500  0.721117  78.0123  37.9303  6.342316
  10882.402  10882.400  0.500  0.723131  78.0019  37.8489  6.283210
  10882.905  10882.900  0.500  0.725419  77.9856  37.7545  6.216086
  10883.404  10883.400  0.500  0.727826  77.9667  37.6546  6.148668
  10883.882  10883.900  0.500  0.730236  77.946  37.554  6.086394
  10884.386  10884.400  0.500  0.732525  77.9654  37.4775  6.025299
  10884.885  10884.900  0.500  0.734454  77.941  37.3935  5.970230
  10885.394  10885.400  0.500  0.736175  77.9301  37.324  5.929008
  10885.893  10885.900  0.500  0.737432  77.9189  37.2718  5.899762
  10886.397  10886.400  0.500  0.738130  77.8891  37.2315  5.881845
  10886.890  10886.900  0.500  0.738361  77.8879  37.2224  5.878422
  10887.405  10887.400  0.500  0.738249  77.8849  37.2251  5.883414
  10887.904  10887.900  0.500  0.737596  77.8547  37.235  5.895669
  10888.403  10888.400  0.500  0.736953  77.8415  37.2526  5.912314
  10888.897  10888.900  0.500  0.736207  77.8482  37.2836  5.932797
  10889.406  10889.400  0.500  0.735319  77.8433  37.3144  5.950470
  10889.911  10889.900  0.500  0.734475  77.8332  37.3411  5.965472
  10890.395  10890.400  0.500  0.733818  77.8242  37.3613  5.976358
  10890.899  10890.900  0.500  0.733174  77.8202  37.3834  5.983126
  10891.398  10891.400  0.500  0.732674  77.8104  37.3974  5.984507
  10891.882  10891.900  0.500  0.732239  77.7973  37.4073  5.984261
  10892.387  10892.400  0.500  0.731901  77.7674  37.4057  5.980075
  10892.902  10892.900  0.500  0.731546  77.7663  37.4184  5.977507
  10893.391  10893.400  0.500  0.731219  77.7532  37.4243  5.973824
  10893.886  10893.900  0.500  0.730889  77.7442  37.4323  5.973594
  10894.406  10894.400  0.500  0.730428  77.7387  37.447  5.972395
  10894.895  10894.900  0.500  0.730040  77.7214  37.4531  5.974580
  10895.400  10895.400  0.500  0.729648  77.6995  37.4573  5.978484
  10896.415  10896.390  0.500  0.728810  77.7013  37.4896  5.991078
  10897.410  10897.390  0.500  0.727946  77.675  37.5092  6.007569
  10898.425  10898.410  0.500  0.727293  77.6507  37.522  6.029525
  10899.467  10899.460  0.500  0.726553  77.607  37.5287  6.059024
  10900.529  10900.520  0.500  0.725895  77.6181  37.5587  6.093852
  10901.602  10901.600  0.500  0.725057  77.5992  37.5811  6.128971
  10902.726  10902.700  0.500  0.724043  77.588  37.6138  6.164366
  10903.831  10903.820  0.500  0.722950  77.542  37.6325  6.196961
  10904.976  10904.960  0.500  0.721712  77.5239  37.6704  6.233872
  10906.122  10906.110  0.500  0.720514  77.4964  37.7022  6.266004
  10907.294  10907.290  0.500  0.719440  77.4638  37.7268  6.294280
  10908.487  10908.480  0.500  0.718319  77.4317  37.7535  6.323116
  10909.711  10909.700  0.500  0.717432  77.42  37.7812  6.345831
  10910.936  10910.930  0.500  0.716603  77.3936  37.7997  6.362034
  10912.197  10912.180  0.500  0.715996  77.3745  37.8133  6.371214
  10913.473  10913.450  0.500  0.715434  77.3354  37.8154  6.374566
  10914.761  10914.740  0.500  0.714988  77.2939  37.812  6.374174
  10916.054  10916.050  0.500  0.714934  77.2048  37.7705  6.364464
  10917.393  10917.380  0.500  0.715220  77.2518  37.7827  6.363031
  10918.749  10918.730  0.500  0.715345  77.2267  37.7657  6.354376
  10920.115  10920.100  0.500  0.715590  77.2099  37.7482  6.346574
  10921.503  10921.480  0.500  0.715998  77.1803  37.7183  6.334547
  10922.895  10922.890  0.500  0.716379  77.1594  37.6938  6.325167
  10924.315  10924.310  0.500  0.716720  77.1374  37.6702  6.316155
  10925.760  10925.750  0.500  0.717053  77.109  37.6438  6.305447
  10927.242  10927.210  0.500  0.717369  77.0656  37.6107  6.293712
  10928.719  10928.690  0.500  0.717736  77.0369  37.5829  6.279762
  10930.202  10930.190  0.500  0.718125  77.0119  37.5561  6.263878
  10931.711  10931.710  0.500  0.718541  76.9576  37.514  6.243816
  10933.252  10933.250  0.500  0.718607  76.9285  37.4973  6.228544
  10934.830  10934.810  0.500  0.718805  76.9079  37.4799  6.214840
  10936.408  10936.380  0.500  0.718667  76.8964  37.4794  6.201845
  10937.997  10937.980  0.500  0.718579  76.8479  37.4591  6.188095
  10939.602  10939.590  0.500  0.718322  77.1112  37.5971  6.199940
  10941.249  10941.230  0.500  0.717945  77.0685  37.5904  6.189409
  10942.901  10942.880  0.500  0.717706  77.0525  37.5916  6.188201
  10944.565  10944.550  0.500  0.717478  77.0297  37.5891  6.190505
  10946.245  10946.240  0.500  0.716907  76.988  37.5902  6.196485
  10947.956  10947.950  0.500  0.716670  76.9351  37.5732  6.203096
  10949.705  10949.680  0.500  0.716332  76.8475  37.5431  6.212194
  10951.443  10951.430  0.500  0.715714  76.8507  37.5679  6.235161
  10953.198  10953.190  0.500  0.715248  76.8084  37.5647  6.256011
  10954.990  10954.980  0.500  0.714637  76.7945  37.5809  6.281919
  10956.793  10956.780  0.500  0.714049  76.7517  37.582  6.304769
  10958.643  10958.610  0.500  0.713565  76.6993  37.5746  6.321150
  10960.457  10960.450  0.500  0.712962  76.673  37.5844  6.336336
  10962.304  10962.310  0.500  0.712363  76.636  37.5887  6.344112
  10964.208  10964.190  0.500  0.711966  76.5951  37.5836  6.348020
  10966.108  10966.090  0.500  0.711517  76.5608  37.5836  6.349726
  10968.024  10968.010  0.500  0.711073  76.5231  37.5818  6.350451
  10969.946  10969.950  0.500  0.710714  76.4844  37.5763  6.351572
  10971.922  10971.910  0.500  0.710212  76.4428  37.5747  6.349532
  10973.892  10973.880  0.500  0.709897  76.4086  37.5697  6.352250
  10975.890  10975.880  0.500  0.709378  76.3362  37.5536  6.353303
  10977.893  10977.890  0.500  0.708913  76.2925  37.5496  6.360335
  10979.939  10979.920  0.500  0.708384  76.2084  37.528  6.365672
  10982.001  10981.980  0.500  0.707907  76.2332  37.5581  6.378160
  10984.049  10984.050  0.500  0.707542  76.1901  37.5506  6.384557
  10986.145  10986.140  0.500  0.707228  76.1459  37.5406  6.389666
  10988.278  10988.250  0.500  0.706802  76.1051  37.5365  6.394986
  10990.390  10990.380  0.500  0.706342  76.0485  37.5258  6.397526
  10992.541  10992.520  0.500  0.705970  76.0263  37.5288  6.402680
  10994.697  10994.690  0.500  0.705627  75.9831  37.5204  6.406288
  10996.897  10996.880  0.500  0.705397  75.914  37.4949  6.404088
  10999.087  10999.080  0.500  0.705156  75.8746  37.4845  6.403150
  11001.309  11001.300  0.500  0.705094  75.8188  37.4592  6.396702
  11003.563  11003.550  0.500  0.705001  75.8008  37.4538  6.392305
  11005.814  11005.810  0.500  0.704770  75.7436  37.4342  6.385403
  11008.091  11008.090  0.500  0.704556  75.6929  37.4171  6.377699
  11010.407  11010.390  0.500  0.704373  75.6381  37.3969  6.367798
  11012.723  11012.710  0.500  0.704282  75.5794  37.3712  6.357455
  11015.062  11015.050  0.500  0.703925  75.5141  37.3523  6.351384
  11017.427  11017.400  0.500  0.703413  75.5058  37.3673  6.357475
  11019.784  11019.780  0.500  0.702973  75.4547  37.3585  6.362668
  11022.183  11022.170  0.500  0.702360  75.3893  37.349  6.366888
  11024.615  11024.590  0.500  0.701828  75.3405  37.3447  6.375666
  11027.038  11027.020  0.500  0.701219  75.2939  37.3443  6.381913
  11029.478  11029.470  0.500  0.700553  75.2451  37.345  6.390485
  11031.977  11031.950  0.500  0.699967  75.1859  37.3375  6.397948
  11034.456  11034.440  0.500  0.699432  75.1392  37.3342  6.408322
  11036.962  11036.950  0.500  0.698703  75.0738  37.3289  6.421193
  11039.486  11039.470  0.500  0.698198  75.0327  37.3274  6.436686
  11042.047  11042.020  0.500  0.697600  74.9665  37.3167  6.452073
  11044.589  11044.590  0.500  0.697161  74.9105  37.3052  6.466440
  11047.191  11047.170  0.500  0.696695  74.867  37.301  6.480252
  11049.782  11049.780  0.500  0.696117  74.804  37.2911  6.489490
  11052.418  11052.400  0.500  0.695600  74.7531  37.285  6.497389
  11055.076  11055.050  0.500  0.695179  74.7082  37.2783  6.496828
  11057.720  11057.710  0.500  0.694781  74.6586  37.2684  6.494372
  11060.417  11060.390  0.500  0.694413  74.546  37.2258  6.487127
  11063.127  11063.090  0.500  0.693893  74.5487  37.2466  6.491747
  11065.817  11065.810  0.500  0.693512  74.474  37.2234  6.489404
  11068.588  11068.550  0.500  0.693092  74.4155  37.2098  6.491524
  11071.329  11071.300  0.500  0.692625  74.3539  37.1964  6.494809
  11074.092  11074.080  0.500  0.691940  74.2876  37.1887  6.499111
  11076.894  11076.870  0.500  0.691510  74.2234  37.1725  6.502310
  11079.708  11079.690  0.500  0.690932  74.175  37.1697  6.510133
  11082.539  11082.520  0.500  0.690400  74.096  37.1499  6.511018
  11085.388  11085.370  0.500  0.689896  74.0603  37.1507  6.519762
  11088.260  11088.250  0.500  0.689285  73.9873  37.1368  6.524363
  11091.160  11091.140  0.500  0.688858  73.9457  37.1318  6.531723
  11094.088  11094.050  0.500  0.688288  73.879  37.1194  6.536499
  11096.981  11096.970  0.500  0.687660  73.7422  37.074  6.535919
  11099.950  11099.920  0.500  0.687374  73.7758  37.1015  6.545980
  11102.904  11102.890  0.500  0.686835  73.6916  37.0791  6.546288
  11105.881  11105.870  0.500  0.686324  73.5599  37.0318  6.539994
  11108.919  11108.880  0.500  0.685854  73.5677  37.0531  6.543321
  11111.922  11111.900  0.500  0.685513  73.4761  37.0196  6.538871
  11114.979  11114.950  0.500  0.684865  73.4098  37.0101  6.540032
  11118.033  11118.010  0.500  0.684295  73.299  36.9754  6.538422
  11121.115  11121.090  0.500  0.683805  73.3251  37.0067  6.549666
  11124.232  11124.190  0.500  0.683350  73.2701  36.9957  6.556526
  11127.334  11127.310  0.500  0.682913  73.1938  36.9734  6.562930
  11130.475  11130.450  0.500  0.682239  73.1125  36.9572  6.568555
  11133.640  11133.600  0.500  0.681622  73.0566  36.9517  6.576618
  11136.801  11136.780  0.500  0.680986  73.0043  36.9488  6.585413
  11139.996  11139.970  0.500  0.680357  72.9461  36.9425  6.593996
  11143.210  11143.190  0.500  0.679729  72.8553  36.9197  6.600084
  11146.452  11146.420  0.500  0.679140  72.7744  36.9004  6.606722
  11149.707  11149.670  0.500  0.678449  72.7284  36.9026  6.617075
  11152.964  11152.950  0.500  0.677784  72.6693  36.8972  6.626214
  11156.271  11156.240  0.500  0.677350  72.619  36.8876  6.633797
  11159.581  11159.550  0.500  0.676679  72.5334  36.8689  6.640870
  11162.892  11162.870  0.500  0.676055  72.4691  36.8592  6.647352
  11166.255  11166.220  0.500  0.675611  72.4119  36.8465  6.655138
  11169.608  11169.590  0.500  0.674800  72.3211  36.8301  6.659909
  11173.018  11172.970  0.500  0.674253  72.2917  36.8353  6.667924
  11176.408  11176.380  0.500  0.673701  72.2203  36.8192  6.667565
  11179.838  11179.800  0.500  0.673119  72.1371  36.7982  6.668955
  11183.276  11183.250  0.500  0.672513  72.0699  36.7862  6.670076
  11186.749  11186.710  0.500  0.671824  72.0117  36.7819  6.674216
  11190.229  11190.190  0.500  0.671270  71.9535  36.7725  6.677784
  11193.728  11193.690  0.500  0.670675  71.8836  36.7586  6.682893
  11197.250  11197.210  0.500  0.670070  71.8194  36.748  6.689054
  11200.776  11200.750  0.500  0.669340  71.7379  36.7331  6.693803
  11204.346  11204.300  0.500  0.668722  71.6651  36.7186  6.699965
  11207.909  11207.880  0.500  0.668139  71.5841  36.6984  6.705407
  11211.517  11211.480  0.500  0.667528  71.5331  36.6947  6.713502
  11215.155  11215.090  0.500  0.666895  71.4627  36.6818  6.717902
  11218.730  11218.720  0.500  0.666161  71.3736  36.663  6.721960
  11222.438  11222.380  0.500  0.665480  71.304  36.6522  6.727283
  11226.078  11226.050  0.500  0.664805  71.228  36.6378  6.732804
  11229.775  11229.740  0.500  0.664242  71.1622  36.6245  6.738611
  11233.474  11233.450  0.500  0.663586  71.0409  36.5861  6.740979
  11237.209  11237.180  0.500  0.662926  70.8533  36.5136  6.736435
  11240.968  11240.920  0.500  0.663416  69.1844  35.6361  6.584540
  11244.719  11244.690  0.500  0.661583  70.9974  36.6371  6.779105
  11248.511  11248.480  0.500  0.660982  70.8905  36.6039  6.781211
  11252.316  11252.280  0.500  0.660207  70.8057  36.5884  6.785333
  11256.146  11256.110  0.500  0.659592  70.7053  36.5591  6.788570
  11259.990  11259.950  0.500  0.658865  70.6298  36.5466  6.794197
  11263.842  11263.810  0.500  0.658167  70.5446  36.528  6.798082
  11267.730  11267.690  0.500  0.657631  70.4815  36.5149  6.805323
  11271.631  11271.590  0.500  0.656962  70.3799  36.4866  6.809259
  11275.530  11275.510  0.500  0.656243  70.2681  36.4548  6.813710
  11279.492  11279.450  0.500  0.655407  70.2071  36.4537  6.822697
  11283.429  11283.410  0.500  0.654814  70.1397  36.4403  6.830744
  11287.414  11287.380  0.500  0.654210  70.0526  36.417  6.836841
  11291.412  11291.380  0.500  0.653461  69.9326  36.3819  6.840728
  11295.402  11295.390  0.500  0.652630  69.7655  36.3252  6.838718
  11299.451  11299.430  0.500  0.653030  68.8009  35.8086  6.750629
  11303.508  11303.480  0.500  0.651291  69.7786  36.3806  6.867480
  11307.557  11307.550  0.500  0.650694  69.6655  36.3434  6.869333
  11311.670  11311.640  0.500  0.649823  69.5246  36.3014  6.870249
  11315.769  11315.750  0.500  0.649113  69.4194  36.2723  6.875297
  11319.905  11319.880  0.500  0.648102  69.0054  36.0924  6.848966
  11324.044  11324.030  0.500  0.647828  69.3542  36.2848  6.894381
  11328.208  11328.190  0.500  0.647145  68.788  36.0131  6.848894
  11332.392  11332.380  0.500  0.646322  69.0908  36.2014  6.891608
  11336.596  11336.580  0.500  0.645448  68.8901  36.1278  6.884962
  11340.831  11340.810  0.500  0.645471  68.7138  36.0346  6.873626
  11345.047  11345.050  0.500  0.644128  68.4893  35.9651  6.869952
  11349.334  11349.310  0.500  0.643600  68.3389  35.9051  6.868073
  11353.612  11353.590  0.500  0.642425  67.7106  35.6168  6.822974
  11357.899  11357.890  0.500  0.648300  58.8779  30.7893  5.908802
  11362.246  11362.210  0.500  0.641142  68.9764  36.3292  6.980659
  11366.557  11366.550  0.500  0.640645  68.4141  36.051  6.939148
  11370.933  11370.910  0.500  0.639603  68.5473  36.1588  6.970894
  11375.301  11375.290  0.500  0.639184  66.9329  35.322  6.819693
  11379.689  11379.680  0.500  0.638187  68.3688  36.1158  6.983789
  11384.120  11384.100  0.500  0.637527  68.2455  36.0744  6.986449
  11388.549  11388.530  0.500  0.636827  68.0113  35.9758  6.978918
  11393.005  11392.980  0.500  0.635219  66.1218  35.0326  6.804776
  11397.458  11397.450  0.500  0.635172  67.7472  35.8955  6.982608
  11401.959  11401.940  0.500  0.634379  67.8559  35.9816  7.009258
  11406.471  11406.450  0.500  0.633749  67.7365  35.9409  7.011887
  11411.008  11410.980  0.500  0.632943  67.6199  35.908  7.015767
  11415.560  11415.530  0.500  0.631726  67.092  35.6711  6.975928