File: xdidata/Data/Lu/Lu-L1-LutetiumOxide.xdi
# XDI/1.0 BlueSky/1.10.0 BMM/2023-1.0-py310-tiled
# Beamline.name: BMM (06BM) -- Beamline for Materials Measurement (NIST)
# Beamline.xray_source: NSLS-II three-pole wiggler
# Beamline.collimation: paraboloid mirror, 5 nm Rh on 30 nm Pt
# Beamline.focusing: not in use
# Beamline.harmonic_rejection: flat mirror, Pt stripe, pitch = 7.0 mrad relative to beam
# Beamline.software: Bluesky 1.10.0, Ophyd 1.7.0, DataBroker 2.0.0b13, Python 3.10.8, 2023-1.0-py310-tiled
# Detector.I0: 10 cm N2
# Detector.I1: 25 cm N2
# Detector.I2: 25 cm N2
# Element.symbol: Lu
# Element.edge: L1
# Element.reference: Lu
# Element.reference_material: Lu2O3
# Facility.name: NSLS-II
# Facility.energy: 3.0
# Facility.current: 400.1
# Facility.mode: top-off
# Facility.GUP: 301027
# Facility.SAF: 310583
# Facility.cycle: 2023-2
# Mono.name: Si(111)
# Mono.d_spacing: 3.13519
# Mono.encoder_resolution: 0.0000050 deg/ct
# Mono.angle_offset: 16.0754 deg
# Mono.scan_mode: pseudo channel cut
# Mono.scan_type: step
# Mono.direction: forward in energy
# Sample.name: Lu2O3
# Sample.prep: PEG pellet
# Sample.x: 109.138 mm
# Sample.y: 153.150 mm
# Sample.SDD_position: 205.000 mm
# Scan.experimenters: Bruce Ravel
# Scan.edge_energy: 10870.4
# Scan.start_time: 2023-05-28T18:25:21
# Scan.end_time: 2023-05-28T18:33:05
# Scan.transient_id: 78910
# Scan.uid: d0d62fac-d52a-40db-b25b-639b955d80d8
# Scan.plot_hint: ln(It/Ir)  --  ln($6/$7)
# Column.1: energy eV
# Column.2: requested_energy eV
# Column.3: measurement_time seconds
# Column.4: xmu
# Column.5: I0 nA
# Column.6: It nA
# Column.7: Ir nA
# ///////////
# sample courtesy Martin Stennett, University of Sheffield
# -----------
# energy  requested_energy  measurement_time  xmu  I0  It  Ir
  10670.415  10670.400  0.500  1.909557  84.5679  135.337  20.0496
  10680.479  10680.400  0.500  1.906914  84.3837  135.125  20.0711
  10690.487  10690.400  0.500  1.902687  84.238  134.964  20.1323
  10700.485  10700.400  0.500  1.898432  84.062  134.745  20.1853
  10710.442  10710.400  0.500  1.895193  83.8664  134.505  20.2146
  10720.463  10720.400  0.500  1.892323  83.6951  134.316  20.2443
  10730.393  10730.400  0.500  1.888271  83.4795  134.052  20.2866
  10740.381  10740.400  0.500  1.885215  83.2607  133.765  20.3051
  10750.404  10750.400  0.500  1.882590  83.1038  133.598  20.3331
  10760.411  10760.400  0.500  1.879552  82.9375  133.381  20.3617
  10770.406  10770.400  0.500  1.875833  82.7581  133.16  20.4038
  10780.415  10780.400  0.500  1.871798  82.5776  132.949  20.4537
  10790.423  10790.400  0.500  1.867606  82.3921  132.73  20.5059
  10800.430  10800.400  0.500  1.863466  82.0606  132.271  20.5198
  10810.440  10810.400  0.500  1.859309  82.0729  132.345  20.6167
  10820.434  10820.400  0.500  1.856766  81.8812  132.117  20.6336
  10830.467  10830.400  0.500  1.855468  81.3979  131.406  20.5493
  10840.422  10840.400  0.500  1.853676  81.5246  131.675  20.6283
  10842.380  10842.400  0.500  1.853151  81.4929  131.649  20.6351
  10844.375  10844.400  0.500  1.852820  81.4299  131.567  20.629
  10846.376  10846.400  0.500  1.852394  81.3745  131.487  20.6252
  10848.368  10848.400  0.500  1.851801  81.1047  131.055  20.5697
  10850.375  10850.400  0.500  1.851687  81.3249  131.422  20.6296
  10852.368  10852.400  0.500  1.851295  81.2729  131.358  20.6277
  10854.372  10854.400  0.500  1.851156  81.0153  130.948  20.5662
  10856.366  10856.400  0.500  1.850946  81.1895  131.258  20.6191
  10858.366  10858.400  0.500  1.850851  81.1769  131.257  20.6209
  10860.372  10860.400  0.500  1.851193  80.9397  130.873  20.5536
  10860.654  10860.700  0.500  1.851194  80.8644  130.743  20.5331
  10860.961  10861.000  0.500  1.851214  80.8065  130.653  20.5186
  10861.253  10861.300  0.500  1.851095  80.8134  130.665  20.5228
  10861.555  10861.600  0.500  1.851003  80.8752  130.764  20.5403
  10861.857  10861.900  0.500  1.851109  80.9637  130.91  20.5611
  10862.164  10862.200  0.500  1.851346  81.0044  130.989  20.5687
  10862.451  10862.500  0.500  1.851419  81.0644  131.082  20.5817
  10862.778  10862.800  0.500  1.851596  81.0709  131.094  20.58
  10863.065  10863.100  0.500  1.851707  81.0681  131.098  20.5783
  10863.362  10863.400  0.500  1.851781  81.0604  131.089  20.5754
  10863.659  10863.700  0.500  1.851905  81.058  131.089  20.5729
  10863.962  10864.000  0.500  1.852157  81.0474  131.074  20.5653
  10864.264  10864.300  0.500  1.852192  81.0377  131.051  20.561
  10864.571  10864.600  0.500  1.852292  81.0416  131.063  20.5608
  10864.873  10864.900  0.500  1.852646  81.0249  131.038  20.5496
  10865.170  10865.200  0.500  1.852748  81.0116  131.027  20.5457
  10865.468  10865.500  0.500  1.852862  81.0141  131.029  20.5438
  10865.765  10865.800  0.500  1.853228  80.9926  130.993  20.5306
  10866.062  10866.100  0.500  1.853473  80.9907  130.993  20.5256
  10866.380  10866.400  0.500  1.853730  80.9724  130.969  20.5166
  10866.677  10866.700  0.500  1.854011  80.9692  130.971  20.511
  10866.969  10867.000  0.500  1.854282  80.9682  130.959  20.5037
  10867.276  10867.300  0.500  1.854561  80.9271  130.885  20.4863
  10867.569  10867.600  0.500  1.855159  80.8656  130.8  20.4608
  10867.871  10867.900  0.500  1.855610  80.7663  130.639  20.4263
  10868.179  10868.200  0.500  1.856073  80.666  130.486  20.393
  10868.476  10868.500  0.500  1.856480  80.6142  130.399  20.371
  10868.778  10868.800  0.500  1.856914  80.8727  130.814  20.4272
  10869.081  10869.100  0.500  1.857565  80.9544  130.955  20.4359
  10869.378  10869.400  0.500  1.858385  81.0448  131.098  20.4414
  10869.681  10869.700  0.500  1.859187  81.106  131.197  20.4405
  10869.988  10870.000  0.500  1.860062  81.1557  131.286  20.4364
  10870.296  10870.300  0.500  1.860989  81.162  131.305  20.4204
  10870.588  10870.600  0.500  1.862252  81.1644  131.299  20.3938
  10870.896  10870.900  0.500  1.863471  81.159  131.293  20.368
  10871.194  10871.200  0.500  1.864766  81.1477  131.293  20.3416
  10871.491  10871.500  0.500  1.866317  81.1435  131.287  20.3091
  10871.804  10871.800  0.500  1.868135  81.1385  131.278  20.2709
  10872.101  10872.100  0.500  1.870180  81.1322  131.274  20.2289
  10872.389  10872.400  0.500  1.872217  81.121  131.249  20.1838
  10872.696  10872.700  0.500  1.874731  81.1111  131.225  20.1295
  10872.994  10873.000  0.500  1.877451  81.0996  131.209  20.0723
  10873.292  10873.300  0.500  1.880302  81.0893  131.203  20.0143
  10873.605  10873.600  0.500  1.883160  81.0835  131.186  19.9546
  10873.902  10873.900  0.500  1.886087  81.0759  131.184  19.896
  10874.200  10874.200  0.500  1.888809  81.0838  131.198  19.8439
  10874.498  10874.500  0.500  1.891718  81.0625  131.17  19.782
  10874.795  10874.800  0.500  1.894197  81.0516  131.148  19.7298
  10875.088  10875.100  0.500  1.896770  81.022  131.115  19.6741
  10875.401  10875.400  0.500  1.899264  80.9928  131.062  19.6172
  10875.699  10875.700  0.500  1.901511  80.9524  131.007  19.565
  10875.976  10876.000  0.500  1.903799  80.9096  130.936  19.5097
  10876.289  10876.300  0.500  1.906155  80.9015  130.916  19.4607
  10876.587  10876.600  0.500  1.908655  80.8777  130.883  19.4072
  10876.884  10876.900  0.500  1.910961  80.8583  130.853  19.3582
  10877.187  10877.200  0.500  1.913613  80.8803  130.903  19.3143
  10877.490  10877.500  0.500  1.916337  80.8885  130.92  19.2642
  10877.778  10877.800  0.500  1.919002  80.9153  130.955  19.218
  10878.081  10878.100  0.500  1.921819  80.9438  130.996  19.17
  10878.384  10878.400  0.500  1.924608  80.938  130.984  19.1149
  10878.687  10878.700  0.500  1.927471  80.9336  130.98  19.0596
  10879.000  10879.000  0.500  1.930273  80.9338  130.981  19.0065
  10879.303  10879.300  0.500  1.933149  80.9334  130.989  18.953
  10879.591  10879.600  0.500  1.935897  80.9306  130.985  18.9005
  10879.894  10879.900  0.500  1.938890  80.9203  130.966  18.8412
  10880.202  10880.200  0.500  1.941740  80.9074  130.955  18.786
  10880.495  10880.500  0.500  1.944668  80.9049  130.942  18.7293
  10880.809  10880.800  0.500  1.947514  80.9086  130.955  18.6779
  10881.117  10881.100  0.500  1.950831  80.8944  130.935  18.6132
  10881.394  10881.400  0.500  1.953719  80.8913  130.938  18.5599
  10881.708  10881.700  0.500  1.957286  80.8683  130.906  18.4893
  10882.011  10882.000  0.500  1.960823  80.8755  130.92  18.426
  10882.299  10882.300  0.500  1.964499  80.8629  130.899  18.3555
  10882.597  10882.600  0.500  1.968678  80.8501  130.883  18.2766
  10882.916  10882.900  0.500  1.973332  80.8605  130.894  18.1933
  10883.203  10883.200  0.500  1.977874  80.8381  130.868  18.1073
  10883.502  10883.500  0.500  1.982866  80.8316  130.843  18.0137
  10883.805  10883.800  0.500  1.987836  80.8292  130.845  17.9247
  10884.103  10884.100  0.500  1.992893  80.8201  130.835  17.8328
  10884.417  10884.400  0.500  1.998131  80.8071  130.827  17.7386
  10884.715  10884.700  0.500  2.003136  80.8056  130.818  17.6488
  10884.987  10885.000  0.500  2.007784  80.7992  130.804  17.5652
  10885.286  10885.300  0.500  2.012157  80.7985  130.797  17.4876
  10885.599  10885.600  0.500  2.016410  80.7784  130.784  17.4116
  10885.887  10885.900  0.500  2.019908  80.779  130.793  17.352
  10886.201  10886.200  0.500  2.023071  80.7646  130.776  17.295
  10886.505  10886.500  0.500  2.025666  80.7611  130.764  17.2486
  10886.793  10886.800  0.500  2.027345  80.7606  130.759  17.2189
  10887.091  10887.100  0.500  2.028787  80.7431  130.75  17.1929
  10887.389  10887.400  0.500  2.029332  80.7408  130.734  17.1814
  10887.683  10887.700  0.500  2.029567  80.7464  130.741  17.1783
  10887.996  10888.000  0.500  2.029196  80.7299  130.722  17.1823
  10888.300  10888.300  0.500  2.028433  80.7318  130.726  17.1959
  10888.593  10888.600  0.500  2.027331  80.7149  130.708  17.2124
  10888.892  10888.900  0.500  2.025952  80.711  130.694  17.2344
  10889.206  10889.200  0.500  2.024485  80.7025  130.688  17.2589
  10889.494  10889.500  0.500  2.022968  80.7009  130.677  17.2837
  10889.798  10889.800  0.500  2.021591  80.6982  130.671  17.3067
  10890.117  10890.100  0.500  2.020010  80.6954  130.676  17.3347
  10890.400  10890.400  0.500  2.018739  80.6839  130.663  17.3551
  10890.703  10890.700  0.500  2.017814  80.6873  130.665  17.3713
  10891.002  10891.000  0.500  2.017025  80.6665  130.645  17.3824
  10891.306  10891.300  0.500  2.016261  80.6659  130.632  17.394
  10891.599  10891.600  0.500  2.016012  80.6482  130.616  17.3962
  10891.918  10891.900  0.500  2.015678  80.6478  130.613  17.4016
  10892.202  10892.200  0.500  2.015807  80.6401  130.604  17.3982
  10892.505  10892.500  0.500  2.015964  80.6317  130.599  17.3947
  10892.799  10892.800  0.500  2.016296  80.6208  130.581  17.3865
  10893.092  10893.100  0.500  2.016642  80.6158  130.58  17.3804
  10893.396  10893.400  0.500  2.017261  80.6005  130.555  17.3663
  10893.711  10893.700  0.500  2.017498  80.5989  130.547  17.3612
  10894.004  10894.000  0.500  2.018051  80.5874  130.53  17.3493
  10894.298  10894.300  0.500  2.018334  80.5805  130.519  17.343
  10894.591  10894.600  0.500  2.018721  80.5787  130.531  17.3378
  10894.890  10894.900  0.500  2.018891  80.5667  130.5  17.3308
  10895.194  10895.200  0.500  2.019047  80.5585  130.493  17.3272
  10895.395  10895.400  0.500  2.019083  80.557  130.487  17.3256
  10896.395  10896.390  0.500  2.018470  80.5496  130.475  17.3347
  10897.405  10897.390  0.500  2.017083  80.519  130.454  17.356
  10898.410  10898.410  0.500  2.014403  80.507  130.437  17.4004
  10899.467  10899.460  0.500  2.010228  80.4913  130.422  17.471
  10900.534  10900.520  0.500  2.005593  80.4636  130.375  17.5459
  10901.622  10901.600  0.500  2.000301  80.4409  130.342  17.6345
  10902.726  10902.700  0.500  1.995013  80.4139  130.31  17.7238
  10903.841  10903.820  0.500  1.989922  80.397  130.279  17.8099
  10904.971  10904.960  0.500  1.984929  80.3765  130.258  17.8961
  10906.117  10906.110  0.500  1.980218  80.354  130.23  17.9769
  10907.289  10907.290  0.500  1.975815  80.3402  130.222  18.055
  10908.477  10908.480  0.500  1.971667  80.3131  130.178  18.124
  10909.711  10909.700  0.500  1.967883  80.2994  130.156  18.1896
  10910.946  10910.930  0.500  1.965078  80.2722  130.129  18.2369
  10912.197  10912.180  0.500  1.963341  80.2367  130.086  18.2627
  10913.468  10913.450  0.500  1.962331  80.216  130.059  18.2772
  10914.756  10914.740  0.500  1.962040  80.2017  130.034  18.279
  10916.064  10916.050  0.500  1.962019  80.1385  129.944  18.2668
  10917.388  10917.380  0.500  1.962542  80.0814  129.865  18.2461
  10918.744  10918.730  0.500  1.963333  80.1104  129.925  18.2401
  10920.115  10920.100  0.500  1.964263  80.0968  129.91  18.221
  10921.482  10921.480  0.500  1.965102  80.0806  129.891  18.2031
  10922.885  10922.890  0.500  1.965987  80.0464  129.855  18.1819
  10924.309  10924.310  0.500  1.966901  80.0231  129.817  18.16
  10925.760  10925.750  0.500  1.967842  79.9865  129.772  18.1366
  10927.237  10927.210  0.500  1.968845  79.9654  129.752  18.1157
  10928.704  10928.690  0.500  1.969984  79.9405  129.717  18.0903
  10930.202  10930.190  0.500  1.971735  79.9174  129.691  18.055
  10931.711  10931.710  0.500  1.973641  79.8735  129.618  18.0105
  10933.263  10933.250  0.500  1.975583  79.8493  129.599  17.9729
  10934.819  10934.810  0.500  1.977533  79.8259  129.586  17.936
  10936.392  10936.380  0.500  1.979358  79.7918  129.53  17.8955
  10937.981  10937.980  0.500  1.981301  79.7738  129.506  17.8576
  10939.586  10939.590  0.500  1.983163  79.7334  129.457  17.8175
  10941.238  10941.230  0.500  1.984908  79.7105  129.42  17.7815
  10942.896  10942.880  0.500  1.985694  79.6824  129.388  17.763
  10944.565  10944.550  0.500  1.985624  79.6534  129.357  17.7601
  10946.260  10946.240  0.500  1.984895  79.6239  129.311  17.7667
  10947.967  10947.950  0.500  1.983545  79.5897  129.271  17.7853
  10949.684  10949.680  0.500  1.981627  79.5282  129.187  17.8078
  10951.443  10951.430  0.500  1.978895  79.4628  129.085  17.8424
  10953.203  10953.190  0.500  1.975432  79.4838  129.138  17.9116
  10954.990  10954.980  0.500  1.971753  79.4495  129.088  17.9707
  10956.787  10956.780  0.500  1.967844  79.4161  129.051  18.0359
  10958.638  10958.610  0.500  1.964525  79.3798  129.002  18.089
  10960.457  10960.450  0.500  1.961977  79.3483  128.961  18.1294
  10962.319  10962.310  0.500  1.960298  79.3178  128.927  18.1551
  10964.187  10964.190  0.500  1.959386  79.2795  128.88  18.165
  10966.119  10966.090  0.500  1.958749  79.2539  128.841  18.1711
  10968.014  10968.010  0.500  1.958403  79.2156  128.793  18.1706
  10969.973  10969.950  0.500  1.958397  79.1814  128.753  18.165
  10971.911  10971.910  0.500  1.958277  79.1647  128.736  18.1648
  10973.897  10973.880  0.500  1.958056  79.1115  128.651  18.1569
  10975.900  10975.880  0.500  1.957324  79.0688  128.59  18.1615
  10977.898  10977.890  0.500  1.956249  79.0379  128.569  18.1781
  10979.934  10979.920  0.500  1.954808  78.944  128.42  18.1832
  10981.996  10981.980  0.500  1.953547  78.9563  128.458  18.2115
  10984.065  10984.050  0.500  1.952186  78.9362  128.44  18.2338
  10986.155  10986.140  0.500  1.951168  78.8883  128.379  18.2436
  10988.257  10988.250  0.500  1.949888  78.8638  128.355  18.2637
  10990.396  10990.380  0.500  1.949049  78.8176  128.288  18.2695
  10992.541  10992.520  0.500  1.948207  78.7727  128.233  18.277
  10994.713  10994.690  0.500  1.947532  78.735  128.185  18.2824
  10996.897  10996.880  0.500  1.946790  78.6922  128.112  18.2856
  10999.097  10999.080  0.500  1.946620  78.6563  128.075  18.2835
  11001.319  11001.300  0.500  1.946896  78.618  128.033  18.2723
  11003.569  11003.550  0.500  1.947295  78.5771  127.982  18.2579
  11005.809  11005.810  0.500  1.947769  78.5401  127.939  18.243
  11008.107  11008.090  0.500  1.948291  78.5045  127.895  18.2273
  11010.407  11010.390  0.500  1.949312  78.4548  127.838  18.2006
  11012.728  11012.710  0.500  1.950333  78.4175  127.776  18.1731
  11015.035  11015.050  0.500  1.950896  78.3062  127.613  18.1397
  11017.406  11017.400  0.500  1.950747  78.3368  127.68  18.1521
  11019.794  11019.780  0.500  1.949718  78.2922  127.633  18.164
  11022.167  11022.170  0.500  1.948289  78.2606  127.592  18.1841
  11024.605  11024.590  0.500  1.947238  78.4426  127.904  18.2477
  11027.049  11027.020  0.500  1.945902  78.4089  127.852  18.2647
  11029.473  11029.470  0.500  1.944571  78.384  127.825  18.2852
  11031.977  11031.950  0.500  1.943250  78.3459  127.782  18.3031
  11034.450  11034.440  0.500  1.941769  78.3019  127.729  18.3227
  11036.957  11036.950  0.500  1.939543  78.2619  127.685  18.3572
  11039.475  11039.470  0.500  1.936980  78.2153  127.618  18.3946
  11042.037  11042.020  0.500  1.934285  78.1692  127.553  18.4349
  11044.616  11044.590  0.500  1.931590  78.1273  127.497  18.4766
  11047.175  11047.170  0.500  1.928996  78.0713  127.428  18.5146
  11049.809  11049.780  0.500  1.927002  78.0237  127.377  18.5441
  11052.413  11052.400  0.500  1.925511  77.9762  127.312  18.5622
  11055.044  11055.050  0.500  1.924865  77.9362  127.262  18.5669
  11057.735  11057.710  0.500  1.924714  77.885  127.198  18.5605
  11060.412  11060.390  0.500  1.924815  77.7634  127.013  18.5316
  11063.106  11063.090  0.500  1.924536  77.7831  127.061  18.5438
  11065.833  11065.810  0.500  1.924263  77.7322  127.002  18.5402
  11068.578  11068.550  0.500  1.923808  77.6879  126.939  18.5394
  11071.302  11071.300  0.500  1.923062  77.6431  126.882  18.5448
  11074.103  11074.080  0.500  1.922076  77.584  126.8  18.5512
  11076.883  11076.870  0.500  1.920921  77.4636  126.621  18.5465
  11079.702  11079.690  0.500  1.919767  77.4848  126.67  18.575
  11082.539  11082.520  0.500  1.918561  77.4312  126.608  18.5883
  11085.378  11085.370  0.500  1.917386  77.3838  126.546  18.601
  11088.249  11088.250  0.500  1.916216  77.335  126.483  18.6135
  11091.171  11091.140  0.500  1.914854  77.2293  126.33  18.6165
  11094.051  11094.050  0.500  1.913337  77.2221  126.332  18.645
  11096.986  11096.970  0.500  1.912333  77.1541  126.224  18.6477
  11099.923  11099.920  0.500  1.911338  77.1068  126.179  18.6597
  11102.888  11102.890  0.500  1.910710  77.0624  126.124  18.6633
  11105.897  11105.870  0.500  1.910369  76.9103  125.889  18.6348
  11108.893  11108.880  0.500  1.909954  76.9479  125.965  18.6539
  11111.905  11111.900  0.500  1.909703  76.8325  125.795  18.6333
  11114.974  11114.950  0.500  1.909260  76.8504  125.844  18.6488
  11118.017  11118.010  0.500  1.908567  76.7674  125.734  18.6454
  11121.115  11121.090  0.500  1.907546  76.7265  125.673  18.6555
  11124.210  11124.190  0.500  1.906408  76.6784  125.614  18.6678
  11127.317  11127.310  0.500  1.904946  76.6212  125.549  18.6855
  11130.464  11130.450  0.500  1.903184  76.5671  125.485  18.709
  11133.602  11133.600  0.500  1.901665  76.5072  125.404  18.7254
  11136.812  11136.780  0.500  1.900118  76.4525  125.324  18.7424
  11139.980  11139.970  0.500  1.898781  76.3926  125.249  18.7561
  11143.199  11143.190  0.500  1.897018  76.3372  125.178  18.7787
  11146.452  11146.420  0.500  1.895423  76.2801  125.097  18.7964
  11149.675  11149.670  0.500  1.893879  76.2186  125.029  18.8153
  11152.975  11152.950  0.500  1.892323  76.1589  124.96  18.8342
  11156.261  11156.240  0.500  1.890629  76.1066  124.879  18.8539
  11159.586  11159.550  0.500  1.889164  76.0503  124.807  18.8706
  11162.871  11162.870  0.500  1.887612  75.9899  124.729  18.8881
  11166.249  11166.220  0.500  1.886172  75.9322  124.65  18.9034
  11169.603  11169.590  0.500  1.884692  75.8672  124.565  18.9184
  11172.985  11172.970  0.500  1.883536  75.8042  124.477  18.9269
  11176.403  11176.380  0.500  1.882734  75.7466  124.397  18.93
  11179.817  11179.800  0.500  1.882201  75.6759  124.312  18.9271
  11183.276  11183.250  0.500  1.881566  75.6146  124.229  18.9264
  11186.722  11186.710  0.500  1.880568  75.5583  124.15  18.9334
  11190.202  11190.190  0.500  1.879588  75.4907  124.055  18.9374
  11193.695  11193.690  0.500  1.878521  75.4233  123.964  18.9437
  11197.229  11197.210  0.500  1.877225  75.3588  123.88  18.9554
  11200.770  11200.750  0.500  1.875986  75.285  123.78  18.9635
  11204.325  11204.300  0.500  1.874650  75.2211  123.696  18.976
  11207.898  11207.880  0.500  1.873301  75.1533  123.604  18.9876
  11211.506  11211.480  0.500  1.871929  75.0871  123.519  19.0004
  11215.133  11215.090  0.500  1.870665  75.0198  123.426  19.0102
  11218.746  11218.720  0.500  1.869519  74.9511  123.322  19.016
  11222.411  11222.380  0.500  1.868236  74.8785  123.233  19.0266
  11226.072  11226.050  0.500  1.866892  74.8148  123.144  19.0385
  11229.758  11229.740  0.500  1.865589  74.7371  123.041  19.0474
  11233.474  11233.450  0.500  1.864038  74.6576  122.93  19.0597
  11237.198  11237.180  0.500  1.862638  74.54  122.757  19.0595
  11240.952  11240.920  0.500  1.861763  72.5152  119.452  18.5627
  11244.708  11244.690  0.500  1.859416  74.5797  122.871  19.1388
  11248.522  11248.480  0.500  1.858141  74.4716  122.713  19.1385
  11252.294  11252.280  0.500  1.856879  74.3886  122.601  19.1453
  11256.152  11256.110  0.500  1.855690  74.3083  122.485  19.1499
  11259.990  11259.950  0.500  1.854471  74.2339  122.386  19.1579
  11263.858  11263.810  0.500  1.853060  74.1517  122.274  19.1673
  11267.707  11267.690  0.500  1.851647  74.0715  122.169  19.178
  11271.609  11271.590  0.500  1.850317  73.9953  122.065  19.1871
  11275.535  11275.510  0.500  1.848607  73.9229  121.954  19.2025
  11279.464  11279.450  0.500  1.847080  73.8451  121.84  19.2138
  11283.440  11283.410  0.500  1.845368  73.7648  121.739  19.2307
  11287.403  11287.380  0.500  1.843768  73.6832  121.612  19.2414
  11291.396  11291.380  0.500  1.842307  73.5889  121.485  19.2494
  11295.413  11295.390  0.500  1.840804  73.4698  121.306  19.2501
  11299.468  11299.430  0.500  1.839426  71.6087  118.266  18.7935
  11303.514  11303.480  0.500  1.837786  73.4275  121.29  19.3057
  11307.596  11307.550  0.500  1.836369  73.3211  121.142  19.3095
  11311.653  11311.640  0.500  1.834834  73.221  120.992  19.3152
  11315.786  11315.750  0.500  1.833473  73.0971  120.812  19.3128
  11319.922  11319.880  0.500  1.831950  72.6874  120.152  19.2365
  11324.061  11324.030  0.500  1.830445  72.9582  120.626  19.3414
  11328.236  11328.190  0.500  1.829602  72.6974  120.218  19.2923
  11332.415  11332.380  0.500  1.828362  72.8318  120.464  19.3557
  11336.630  11336.580  0.500  1.827339  72.6506  120.189  19.3312
  11340.854  11340.810  0.500  1.825485  71.4151  118.165  19.041
  11345.081  11345.050  0.500  1.824884  72.4379  119.878  19.3287
  11349.345  11349.310  0.500  1.823383  71.9005  118.999  19.2157
  11353.629  11353.590  0.500  1.821925  71.7497  118.781  19.2085
  11357.916  11357.890  0.500  1.822633  60.1655  99.6206  16.0987
  11362.252  11362.210  0.500  1.818373  72.7942  120.553  19.5645
  11366.568  11366.550  0.500  1.816696  72.2759  119.72  19.4619
  11370.938  11370.910  0.500  1.814692  72.2352  119.681  19.4947
  11375.323  11375.290  0.500  1.813671  71.1986  117.981  19.2374
  11379.700  11379.680  0.500  1.811419  72.2528  119.747  19.5693
  11384.115  11384.100  0.500  1.809781  72.1096  119.531  19.566
  11388.549  11388.530  0.500  1.807901  71.6232  118.745  19.4739
  11392.999  11392.980  0.500  1.807021  71.2126  118.09  19.3836
  11397.480  11397.450  0.500  1.805019  71.7666  119.037  19.5782
  11401.965  11401.940  0.500  1.803433  71.8249  119.156  19.6289
  11406.459  11406.450  0.500  1.801862  71.7046  118.985  19.6316
  11410.991  11410.980  0.500  1.800376  71.5986  118.813  19.6323
  11415.543  11415.530  0.500  1.799114  71.3725  118.474  19.6011
  11420.116  11420.100  0.500  1.797715  71.4976  118.695  19.6651
  11424.687  11424.680  0.500  1.796522  71.3991  118.554  19.6651
  11429.308  11429.290  0.500  1.795266  71.2982  118.411  19.6661
  11433.914  11433.910  0.500  1.793804  71.2058  118.278  19.6728
  11438.588  11438.560  0.500  1.792352  71.1016  118.144  19.679
  11443.231  11443.220  0.500  1.790639  71.0048  118.015  19.6912
  11447.935  11447.900  0.500  1.788570  70.9286  117.905  19.7136
  11452.608  11452.600  0.500  1.786677  70.8373  117.767  19.7279
  11457.360  11457.320  0.500  1.784754  70.745  117.645  19.7454
  11462.081  11462.060  0.500  1.782767  70.6499  117.499  19.7601
  11466.835  11466.810  0.500  1.780934  70.5504  117.353  19.7717
  11471.604  11471.590  0.500  1.779178  70.4314  117.179  19.7771
  11476.412  11476.390  0.500  1.777837  69.9156  116.358  19.665
  11481.218  11481.200  0.500  1.776163  70.4307  117.234  19.8462
  11486.051  11486.030  0.500  1.774751  70.2839  117.005  19.8353
  11490.917  11490.890  0.500  1.773279  70.1835  116.859  19.8397
  11495.770  11495.760  0.500  1.771814  70.0823  116.718  19.8449
  11500.679  11500.650  0.500  1.770249  69.9873  116.595  19.8551
  11505.586  11505.560  0.500  1.768630  69.8861  116.449  19.8623
  11510.521  11510.490  0.500  1.767174  69.7931  116.324  19.8699
  11515.436  11515.430  0.500  1.765759  69.6964  116.183  19.8739
  11520.420  11520.400  0.500  1.764019  69.6071  116.04  19.884
  11525.396  11525.390  0.500  1.762457  69.517  115.922  19.8949
  11530.435  11530.390  0.500  1.760627  69.4188  115.777  19.9063
  11535.432  11535.420  0.500  1.758773  69.3225  115.649  19.9213
  11540.502  11540.460  0.500  1.756982  69.2062  115.486  19.9288
  11545.549  11545.520  0.500  1.755112  69.0849  115.297  19.9335
  11550.623  11550.600  0.500  1.753131  68.9547  115.1  19.9389
  11555.742  11555.700  0.500  1.751254  68.7554  114.795  19.9235
  11560.854  11560.820  0.500  1.749496  68.3129  114.08  19.8342
  11565.994  11565.960  0.500  1.747914  66.9806  111.879  19.4822
  11571.132  11571.120  0.500  1.746095  67.3501  112.519  19.6293
  11576.340  11576.300  0.500  1.744538  67.3976  112.619  19.6774
  11581.511  11581.490  0.500  1.742936  67.2552  112.413  19.673
  11586.728  11586.710  0.500  1.741278  67.2542  112.425  19.7077
  11591.956  11591.940  0.500  1.739855  67.1065  112.213  19.6985
  11597.217  11597.190  0.500  1.738213  67.0121  112.079  19.7073
  11602.495  11602.460  0.500  1.736581  66.9849  112.05  19.7344
  11607.773  11607.750  0.500  1.735031  66.9303  111.985  19.7535
  11613.096  11613.060  0.500  1.733532  66.8117  111.809  19.7522
  11618.418  11618.390  0.500  1.731749  66.6793  111.623  19.7544
  11623.780  11623.740  0.500  1.729861  66.5959  111.501  19.7702
  11629.154  11629.110  0.500  1.728067  66.5428  111.432  19.7935
  11634.514  11634.490  0.500  1.726097  66.4745  111.34  19.816
  11639.927  11639.900  0.500  1.724051  66.4064  111.257  19.8417
  11645.357  11645.320  0.500  1.722033  66.3383  111.157  19.864
  11650.798  11650.770  0.500  1.720078  66.126  110.81  19.8408
  11656.256  11656.230  0.500  1.718244  66.1322  110.849  19.8841
  11661.742  11661.710  0.500  1.716337  65.9283  110.533  19.8654
  11667.252  11667.210  0.500  1.714805  65.9059  110.531  19.8955
  11672.773  11672.730  0.500  1.712945  66.004  110.722  19.9669
  11678.311  11678.270  0.500  1.711248  65.7656  110.338  19.9315
  11683.836  11683.820  0.500  1.709401  65.8394  110.49  19.9958
  11689.450  11689.400  0.500  1.707715  65.7637  110.38  20.0096
  11695.028  11695.000  0.500  1.706045  65.6884  110.269  20.0229
  11700.647  11700.610  0.500  1.704472  65.6045  110.162  20.0349
  11706.284  11706.250  0.500  1.702778  65.5166  110.04  20.0467
  11711.932  11711.900  0.500  1.701125  65.4413  109.938  20.0612
  11717.591  11717.570  0.500  1.699387  65.34  109.796  20.0703
  11723.304  11723.260  0.500  1.697549  65.2266  109.633  20.0772