File: xdidata/Ti/Ti-K-Ti2O3.xdi
# XDI/1.0 BlueSky/1.5.0
# Beamline.name: 6BM
# Beamline.xray_source: NSLS-II three-pole wiggler
# Beamline.collimation: paraboloid mirror, 5 nm Rh on 30 nm Pt
# Beamline.focusing: not in use
# Beamline.harmonic_rejection: flat mirror, Si stripe, pitch = 7.0 mrad relative to beam
# Detector.i0: 10 cm N2
# Detector.i1: 25 cm N2
# Detector.i2: 25 cm N2
# Element.symbol: Ti
# Element.edge: K
# Facility.name: NSLS-II
# Facility.energy: 3.0
# Facility.current: 220.4
# Facility.mode: top-off
# Facility.gup: 301027
# Facility.saf: 304156
# Mono.name: Si(111)
# Mono.d_spacing: 3.13526
# Mono.encoder_resolution: 0.0000050 deg/ct
# Mono.angle_offset: 16.0571 deg
# Mono.scan_mode: pseudo channel cut
# Mono.scan_type: step
# Mono.direction: forward in energy
# Sample.name: Ti2O3
# Sample.prep: Powder in polyethylene glycol pellet
# Sample.x_position: -97.532 mm
# Sample.y_position: 117.543 mm
# Sample.wheel_position: -705.000 mm
# Scan.experimenters: Bruce Ravel, Martin Stennett
# Scan.edge_energy: 4966.0
# Scan.start_time: 2019-05-30T08:45:18
# Scan.end_time: 2019-05-30T09:28:15
# Scan.transient_id: 9809
# Scan.uid: 15d7abe1-6ad8-486c-9140-32319bb7e3b8
# Scan.plot_hint: ln(I0/It)  --  ln($5/$6)
# Scan.sequence: merge of 3 scans
# Column.1: energy eV
# Column.2: requested_energy eV
# Column.3: measurement_time seconds
# Column.4: mutrans
# Column.5: i0
# Column.6: itrans
# Column.7: irefer
# /////
#  sample disk prepared by Martin
# -----
# energy   requested_energy   measurement_time   mutrans   i0   itrans   irefer
4766 4766 0.500000 4.131557 11.0069 0.176753 0.014995
4776.01 4776 0.500000 4.102752 11.1925 0.184980 0.015835
4786.01 4786 0.500000 4.071948 11.4055 0.194396 0.016819
4796.01 4796 0.500000 4.042536 11.6204 0.203972 0.017838
4806.01 4806 0.500000 4.013594 11.8385 0.213901 0.018681
4816.01 4816 0.500000 3.984506 12.0512 0.224172 0.019940
4826.01 4826 0.500000 3.956179 12.26 0.234609 0.021064
4836 4836 0.500000 3.927476 12.4868 0.245907 0.022276
4846 4846 0.500000 3.899828 12.7067 0.257253 0.023353
4856 4856 0.500000 3.872261 12.9227 0.268932 0.024653
4866.01 4866 0.500000 3.843628 13.1411 0.281427 0.026352
4876.01 4876 0.500000 3.816125 13.3563 0.294014 0.027604
4886.01 4886 0.500000 3.788973 13.5677 0.306889 0.029211
4896.01 4896 0.500000 3.761584 13.7703 0.320116 0.031021
4906.01 4906 0.500000 3.735833 13.9672 0.333163 0.032444
4916.01 4916 0.500000 3.709728 14.1596 0.346686 0.034125
4926.01 4926 0.500000 3.684798 14.3532 0.360300 0.035739
4936 4936 0.500000 3.660318 14.5465 0.374199 0.037672
4938 4938 0.500000 3.655236 14.5835 0.377064 0.038066
4940 4940 0.500000 3.651430 14.6184 0.379408 0.038446
4942 4942 0.500000 3.646772 14.6543 0.382119 0.038835
4944 4944 0.500000 3.641195 14.6889 0.385153 0.039188
4946.01 4946 0.500000 3.637917 14.7198 0.387235 0.039446
4948.01 4948 0.500000 3.633154 14.7497 0.389876 0.039700
4950.01 4950 0.500000 3.628564 14.7851 0.392610 0.040397
4952.01 4952 0.500000 3.625386 14.822 0.394840 0.040497
4954 4954 0.500000 3.622299 14.8527 0.396882 0.040703
4956 4956 0.500000 3.619926 14.8792 0.398534 0.040862
4956.24 4956.25 0.500000 3.619560 14.8833 0.398789 0.040914
4956.5 4956.5 0.500000 3.619460 14.8872 0.398936 0.040673
4956.74 4956.75 0.500000 3.618418 14.8886 0.399386 0.041143
4956.99 4957 0.500000 3.618624 14.891 0.399369 0.041186
4957.24 4957.25 0.500000 3.618776 14.8954 0.399427 0.040992
4957.49 4957.5 0.500000 3.617664 14.8978 0.399935 0.041183
4957.75 4957.75 0.500000 3.617447 14.9025 0.400149 0.041355
4958 4958 0.500000 3.617864 14.9073 0.400112 0.041175
4958.24 4958.25 0.500000 3.617186 14.9095 0.400443 0.041264
4958.49 4958.5 0.500000 3.617613 14.9143 0.400401 0.040846
4958.75 4958.75 0.500000 3.617100 14.9182 0.400709 0.041043
4959 4959 0.500000 3.616990 14.921 0.400826 0.041306
4959.25 4959.25 0.500000 3.617265 14.9219 0.400743 0.040905
4959.5 4959.5 0.500000 3.616261 14.9251 0.401229 0.041370
4959.75 4959.75 0.500000 3.616949 14.9298 0.401082 0.040908
4960 4960 0.500000 3.616768 14.9346 0.401282 0.041111
4960.24 4960.25 0.500000 3.616809 14.9381 0.401365 0.041105
4960.49 4960.5 0.500000 3.617048 14.9429 0.401394 0.041103
4960.75 4960.75 0.500000 3.616918 14.9471 0.401560 0.041192
4960.99 4961 0.500000 3.617397 14.9517 0.401490 0.041277
4961.25 4961.25 0.500000 3.617037 14.9525 0.401656 0.040981
4961.5 4961.5 0.500000 3.617450 14.956 0.401585 0.040962
4961.75 4961.75 0.500000 3.617666 14.9611 0.401635 0.040922
4962 4962 0.500000 3.617707 14.9673 0.401785 0.040886
4962.25 4962.25 0.500000 3.618753 15.0046 0.402366 0.041116
4962.49 4962.5 0.500000 3.619554 15.0076 0.402128 0.040654
4962.74 4962.75 0.500000 3.620015 15.0146 0.402126 0.040499
4963 4963 0.500000 3.620967 15.0184 0.401843 0.040361
4963.25 4963.25 0.500000 3.621449 15.0225 0.401758 0.040328
4963.5 4963.5 0.500000 3.623342 15.0276 0.401134 0.039938
4963.75 4963.75 0.500000 3.624886 15.0301 0.400581 0.039243
4964 4964 0.500000 3.627163 15.0335 0.399762 0.038518
4964.25 4964.25 0.500000 3.629048 15.0363 0.399086 0.037347
4964.5 4964.5 0.500000 3.631895 15.0456 0.398198 0.035371
4964.75 4964.75 0.500000 3.635763 15.0516 0.396817 0.033265
4964.99 4965 0.500000 3.642703 15.0552 0.394190 0.030187
4965.25 4965.25 0.500000 3.652178 15.0796 0.391085 0.028169
4965.5 4965.5 0.500000 3.667362 15.0828 0.385241 0.026963
4965.75 4965.75 0.500000 3.688002 15.0885 0.377519 0.026471
4966 4966 0.500000 3.712212 15.0923 0.368566 0.026429
4966.25 4966.25 0.500000 3.732775 15.0963 0.361238 0.027252
4966.5 4966.5 0.500000 3.748959 15.0984 0.355443 0.027685
4966.75 4966.75 0.500000 3.765509 15.1008 0.349686 0.027780
4967 4967 0.500000 3.783553 15.1019 0.343416 0.027532
4967.25 4967.25 0.500000 3.805111 15.1022 0.336078 0.026977
4967.5 4967.5 0.500000 3.826529 15.1073 0.329131 0.026435
4967.75 4967.75 0.500000 3.845361 15.1125 0.323045 0.025801
4968 4968 0.500000 3.860122 15.1187 0.318462 0.025080
4968.25 4968.25 0.500000 3.869840 15.1257 0.315557 0.024435
4968.5 4968.5 0.500000 3.880800 15.1286 0.312153 0.023857
4968.75 4968.75 0.500000 3.893202 15.1275 0.308309 0.023270
4969 4969 0.500000 3.903281 15.128 0.305222 0.022964
4969.25 4969.25 0.500000 3.912451 15.1283 0.302456 0.022280
4969.5 4969.5 0.500000 3.916331 15.1303 0.301309 0.022167
4969.75 4969.75 0.500000 3.919723 15.133 0.300339 0.021817
4970 4970 0.500000 3.923722 15.1372 0.299230 0.021622
4970.25 4970.25 0.500000 3.926493 15.1438 0.298526 0.021255
4970.5 4970.5 0.500000 3.930966 15.1538 0.297387 0.021364
4970.75 4970.75 0.500000 3.936635 15.1661 0.295937 0.021039
4971 4971 0.500000 3.944305 15.1745 0.293839 0.020921
4971.25 4971.25 0.500000 3.953603 15.1807 0.291239 0.020575
4971.5 4971.5 0.500000 3.965536 15.1836 0.287839 0.019830
4971.75 4971.75 0.500000 3.980470 15.188 0.283624 0.019582
4972 4972 0.500000 3.997901 15.1942 0.278895 0.018811
4972.25 4972.25 0.500000 4.018300 15.1993 0.273336 0.018115
4972.5 4972.5 0.500000 4.041874 15.2051 0.267086 0.017643
4972.75 4972.75 0.500000 4.068735 15.2068 0.259932 0.016819
4973 4973 0.500000 4.101207 15.2098 0.251785 0.015890
4973.25 4973.25 0.500000 4.137553 15.2135 0.242835 0.015062
4973.5 4973.5 0.500000 4.176439 15.2404 0.234011 0.014191
4973.75 4973.75 0.500000 4.219555 15.2546 0.224318 0.013562
4974 4974 0.500000 4.269100 15.2562 0.213605 0.013063
4974.25 4974.25 0.500000 4.320880 15.2556 0.202747 0.011989
4974.5 4974.5 0.500000 4.373667 15.2583 0.192287 0.011528
4974.75 4974.75 0.500000 4.430360 15.2608 0.181693 0.010739
4975 4975 0.500000 4.487361 15.2605 0.171649 0.010103
4975.25 4975.25 0.500000 4.540392 15.2628 0.162880 0.009351
4975.5 4975.5 0.500000 4.590566 15.2615 0.154830 0.008882
4975.75 4975.75 0.500000 4.640162 15.2636 0.147419 0.008452
4976 4976 0.500000 4.689478 15.261 0.140288 0.007941
4976.25 4976.25 0.500000 4.735317 15.2626 0.134000 0.007698
4976.5 4976.5 0.500000 4.779197 15.2638 0.128229 0.007433
4976.75 4976.75 0.500000 4.825645 15.2634 0.122435 0.007138
4977 4977 0.500000 4.868178 15.264 0.117316 0.006527
4977.25 4977.25 0.500000 4.908646 15.2643 0.112720 0.006354
4977.5 4977.5 0.500000 4.947152 15.267 0.108440 0.006098
4977.75 4977.75 0.500000 4.984606 15.272 0.104551 0.005894
4978 4978 0.500000 5.017019 15.2765 0.101176 0.006110
4978.25 4978.25 0.500000 5.055109 15.2785 0.097445 0.005679
4978.5 4978.5 0.500000 5.087544 15.2815 0.094292 0.005391
4978.75 4978.75 0.500000 5.122959 15.2817 0.091046 0.005413
4979 4979 0.500000 5.156770 15.2831 0.088025 0.005253
4979.25 4979.25 0.500000 5.190977 15.2828 0.085090 0.004946
4979.5 4979.5 0.500000 5.226180 15.284 0.082141 0.005207
4979.75 4979.75 0.500000 5.262161 15.2812 0.079227 0.004849
4980 4980 0.500000 5.304562 15.2812 0.075921 0.004687
4980.25 4980.25 0.500000 5.342998 15.2774 0.073049 0.004669
4980.5 4980.5 0.500000 5.380538 15.2744 0.070338 0.004571
4980.75 4980.75 0.500000 5.416946 15.2734 0.067825 0.004527
4981 4981 0.500000 5.452370 15.2693 0.065453 0.004291
4981.25 4981.25 0.500000 5.484800 15.2704 0.063371 0.004335
4981.5 4981.5 0.500000 5.516995 15.2725 0.061356 0.004122
4981.75 4981.75 0.500000 5.548424 15.2744 0.059473 0.003969
4982 4982 0.500000 5.576193 15.2733 0.057829 0.004076
4982.25 4982.25 0.500000 5.605832 15.2772 0.056165 0.003887
4982.5 4982.5 0.500000 5.630532 15.2801 0.054805 0.003796
4982.75 4982.75 0.500000 5.655779 15.281 0.053438 0.003839
4983 4983 0.500000 5.681414 15.2842 0.052115 0.003698
4983.25 4983.25 0.500000 5.700437 15.2843 0.051125 0.004043
4983.5 4983.5 0.500000 5.722049 15.2841 0.050025 0.003629
4983.75 4983.75 0.500000 5.738747 15.281 0.049188 0.003751
4984 4984 0.500000 5.756483 15.2794 0.048318 0.003702
4984.25 4984.25 0.500000 5.777018 15.2786 0.047334 0.003607
4984.5 4984.5 0.500000 5.787636 15.2742 0.046820 0.003306
4984.75 4984.75 0.500000 5.798795 15.2798 0.046320 0.003660
4985 4985 0.500000 5.806514 15.2834 0.045973 0.003537
4985.25 4985.25 0.500000 5.812920 15.2824 0.045674 0.003754
4985.5 4985.5 0.500000 5.819728 15.2842 0.045368 0.003638
4985.75 4985.75 0.500000 5.824922 15.2844 0.045134 0.003715
4986 4986 0.500000 5.831698 15.2823 0.044825 0.003467
4986.26 4986.25 0.500000 5.829200 15.284 0.044942 0.003581
4986.5 4986.5 0.500000 5.822517 15.2858 0.045248 0.003690
4986.75 4986.75 0.500000 5.818580 15.2805 0.045409 0.003659
4987 4987 0.500000 5.814425 15.2801 0.045600 0.003586
4987.25 4987.25 0.500000 5.802594 15.2775 0.046135 0.003649
4987.5 4987.5 0.500000 5.794258 15.2763 0.046514 0.003880
4987.75 4987.75 0.500000 5.787217 15.276 0.046843 0.003572
4988 4988 0.500000 5.774868 15.2787 0.047436 0.003823
4988.25 4988.25 0.500000 5.761008 15.2867 0.048121 0.003867
4988.5 4988.5 0.500000 5.748294 15.2916 0.048749 0.003699
4988.75 4988.75 0.500000 5.736085 15.2997 0.049380 0.003789
4989 4989 0.500000 5.724113 15.3107 0.050009 0.003869
4989.25 4989.25 0.500000 5.711375 15.3224 0.050692 0.003611
4989.5 4989.5 0.500000 5.701770 15.3351 0.051220 0.003570
4989.75 4989.75 0.500000 5.683032 15.348 0.052236 0.003957
4990.01 4990 0.500000 5.666238 15.3606 0.053165 0.003904
4990.25 4990.25 0.500000 5.653502 15.3679 0.053869 0.003842
4990.5 4990.5 0.500000 5.636516 15.3816 0.054838 0.004109
4990.75 4990.75 0.500000 5.622305 15.3909 0.055658 0.004048
4991 4991 0.500000 5.606483 15.4372 0.056718 0.004103
4991.25 4991.25 0.500000 5.593787 15.4448 0.057471 0.004022
4991.5 4991.5 0.500000 5.583908 15.4523 0.058064 0.004160
4991.75 4991.75 0.500000 5.568826 15.4616 0.058980 0.004357
4992 4992 0.500000 5.563464 15.4689 0.059331 0.004099
4992.25 4992.25 0.500000 5.548232 15.4783 0.060268 0.004448
4992.5 4992.5 0.500000 5.541118 15.4865 0.060742 0.004461
4992.75 4992.75 0.500000 5.533105 15.4898 0.061243 0.004252
4993 4993 0.500000 5.527543 15.4977 0.061617 0.004435
4993.25 4993.25 0.500000 5.524013 15.5007 0.061845 0.004418
4993.51 4993.5 0.500000 5.520938 15.5048 0.062062 0.004387
4993.75 4993.75 0.500000 5.513407 15.5117 0.062546 0.004385
4994 4994 0.500000 5.515651 15.5136 0.062418 0.004210
4994.25 4994.25 0.500000 5.516449 15.5504 0.062515 0.004256
4994.5 4994.5 0.500000 5.517209 15.5571 0.062493 0.004289
4994.75 4994.75 0.500000 5.521575 15.5609 0.062235 0.004412
4995 4995 0.500000 5.526873 15.5655 0.061930 0.004231
4995.25 4995.25 0.500000 5.532179 15.5678 0.061606 0.004143
4995.5 4995.5 0.500000 5.536812 15.5699 0.061330 0.004246
4995.75 4995.75 0.500000 5.543769 15.5882 0.060975 0.004257
4996 4996 0.700000 5.552528 21.7409 0.084310 0.005913
4997.09 4997.08 0.710000 5.591355 22.1227 0.082513 0.005873
4998.18 4998.18 0.730000 5.621150 22.7443 0.082358 0.005723
4999.3 4999.29 0.740000 5.629605 23.0696 0.082821 0.005729
5000.44 5000.43 0.750000 5.607697 23.4211 0.085950 0.005729
5001.58 5001.58 0.760000 5.560337 23.7758 0.091471 0.006105
5002.77 5002.76 0.780000 5.499584 24.452 0.099971 0.006497
5003.96 5003.95 0.790000 5.441090 24.8219 0.107601 0.006619
5005.16 5005.16 0.800000 5.387426 25.2027 0.115266 0.007287
5006.4 5006.39 0.810000 5.346764 25.5839 0.121871 0.007494
5007.65 5007.64 0.830000 5.310433 26.2735 0.129793 0.007979
5008.91 5008.91 0.840000 5.278634 26.6459 0.135871 0.008442
5010.2 5010.2 0.850000 5.246941 27.0198 0.142216 0.008993
5011.52 5011.51 0.860000 5.226880 27.3956 0.147123 0.009189
5012.83 5012.83 0.880000 5.223018 28.0791 0.151374 0.009383
5014.18 5014.18 0.890000 5.223878 28.4547 0.153269 0.009684
5015.55 5015.54 0.900000 5.226987 28.8205 0.154756 0.009545
5016.94 5016.93 0.910000 5.225652 29.2009 0.157008 0.010075
5018.33 5018.33 0.930000 5.217670 29.8978 0.162044 0.010479
5019.75 5019.75 0.940000 5.207357 30.304 0.165949 0.010649
5021.19 5021.19 0.950000 5.197149 30.733 0.170021 0.010777
5022.65 5022.65 0.960000 5.191578 31.1232 0.173143 0.011077
5024.13 5024.13 0.980000 5.196330 31.8423 0.176311 0.011518
5025.63 5025.63 0.990000 5.211448 32.2305 0.175782 0.011307
5027.14 5027.14 1.000000 5.225413 32.6227 0.175452 0.011455
5028.69 5028.68 1.010000 5.245659 33.0242 0.174048 0.011293
5030.24 5030.24 1.030000 5.264913 33.7454 0.174461 0.011475
5031.81 5031.81 1.040000 5.287892 34.1428 0.172510 0.010935
5033.4 5033.4 1.050000 5.307068 34.5371 0.171187 0.010897
5035.01 5035.01 1.060000 5.323939 34.9346 0.170257 0.010605
5036.66 5036.65 1.080000 5.337425 35.6695 0.171501 0.010926
5038.31 5038.3 1.090000 5.349372 36.0824 0.171433 0.010656
5039.97 5039.97 1.100000 5.355518 36.4872 0.172296 0.010800
5041.65 5041.65 1.110000 5.355392 36.8985 0.174258 0.011218
5043.36 5043.36 1.130000 5.350205 37.6381 0.178672 0.011223
5045.09 5045.09 1.140000 5.337834 38.0607 0.182939 0.011249
5046.82 5046.83 1.150000 5.324806 38.4788 0.187367 0.011944
5048.6 5048.6 1.160000 5.314579 38.8969 0.191349 0.012284
5050.38 5050.38 1.180000 5.307390 39.6616 0.196520 0.012913
5052.18 5052.18 1.190000 5.300282 40.0846 0.200028 0.013019
5053.99 5054 1.200000 5.289084 40.5228 0.204493 0.013713
5055.84 5055.84 1.210000 5.281611 40.9534 0.208217 0.013943
5057.69 5057.7 1.230000 5.270235 41.7316 0.214601 0.014120
5059.57 5059.58 1.240000 5.257624 42.1735 0.219620 0.014014
5061.47 5061.48 1.250000 5.238590 42.6131 0.226178 0.015264
5063.4 5063.4 1.260000 5.223062 43.0579 0.232111 0.015160
5065.33 5065.33 1.280000 5.207263 43.8575 0.240191 0.015923
5067.28 5067.29 1.290000 5.195619 44.3026 0.245469 0.016328
5069.26 5069.26 1.300000 5.188756 44.762 0.249726 0.016598
5071.26 5071.26 1.310000 5.185336 45.2183 0.253134 0.017127
5073.27 5073.27 1.330000 5.181033 46.0253 0.258762 0.017014
5075.3 5075.3 1.340000 5.178987 46.5288 0.262131 0.017438
5077.35 5077.35 1.350000 5.171344 47.0414 0.267051 0.017749
5079.42 5079.42 1.360000 5.163913 47.5163 0.271762 0.017704
5081.51 5081.51 1.380000 5.151901 48.3377 0.279796 0.017860
5083.61 5083.61 1.390000 5.139732 48.807 0.285975 0.017825
5085.74 5085.74 1.400000 5.124447 49.2823 0.293198 0.018296
5087.89 5087.89 1.410000 5.109260 49.7628 0.300596 0.018534
5090.05 5090.05 1.430000 5.095289 50.6037 0.309983 0.018629
5092.23 5092.23 1.440000 5.082565 51.098 0.317010 0.018924
5094.44 5094.44 1.450000 5.072020 51.6064 0.323562 0.019346
5096.66 5096.66 1.460000 5.062953 52.1018 0.329644 0.020294
5098.9 5098.9 1.480000 5.056789 52.9642 0.337171 0.020877
5101.16 5101.16 1.490000 5.052302 53.4575 0.341839 0.022342
5103.44 5103.44 1.500000 5.049939 53.9737 0.345955 0.022644
5105.74 5105.74 1.510000 5.048769 54.5243 0.349895 0.023231
5108.05 5108.05 1.530000 5.051855 55.4877 0.354984 0.023379
5110.39 5110.39 1.540000 5.053212 56.0088 0.357828 0.023668
5112.74 5112.74 1.550000 5.056344 56.5159 0.359939 0.023580
5115.12 5115.12 1.560000 5.055858 57.0329 0.363408 0.024070
5117.52 5117.51 1.580000 5.054051 57.9286 0.369784 0.024644
5119.92 5119.92 1.590000 5.050405 58.4693 0.374598 0.024833
5122.35 5122.35 1.600000 5.047678 59.0071 0.379076 0.025312
5124.8 5124.8 1.610000 5.047311 59.5403 0.382642 0.025574
5127.27 5127.27 1.630000 5.047147 60.4612 0.388624 0.026105
5129.76 5129.76 1.640000 5.045921 61.0212 0.392705 0.026203
5132.27 5132.27 1.650000 5.040788 61.5822 0.398356 0.026970
5134.79 5134.79 1.660000 5.033446 62.1363 0.404897 0.026913
5137.34 5137.34 1.680000 5.022503 63.0731 0.415525 0.027698
5139.9 5139.9 1.690000 5.008643 63.6618 0.425258 0.028414
5142.49 5142.49 1.700000 4.994873 64.2404 0.435076 0.028352
5145.09 5145.09 1.710000 4.982699 64.8215 0.444389 0.029158
5147.71 5147.71 1.730000 4.972183 65.9218 0.456704 0.029517
5150.35 5150.35 1.740000 4.961051 66.5158 0.465976 0.030285
5153.01 5153.01 1.750000 4.949400 67.1085 0.475638 0.031063
5155.69 5155.69 1.760000 4.937599 67.7035 0.485556 0.031698
5158.39 5158.39 1.780000 4.926937 68.684 0.497865 0.032640
5161.11 5161.11 1.790000 4.913522 69.2684 0.508884 0.034111
5163.84 5163.84 1.800000 4.900739 69.8698 0.519911 0.034352
5166.6 5166.6 1.810000 4.887352 70.4649 0.531403 0.035448
5169.37 5169.37 1.830000 4.874410 71.4552 0.545884 0.036434
5172.17 5172.17 1.840000 4.863949 72.0537 0.556250 0.037443
5174.98 5174.98 1.850000 4.854617 72.6377 0.566016 0.038612
5177.81 5177.81 1.860000 4.845940 73.2289 0.575593 0.039786
5180.66 5180.66 1.880000 4.838068 74.2404 0.588157 0.040317
5183.53 5183.53 1.890000 4.832213 74.8787 0.596697 0.041490
5186.42 5186.42 1.900000 4.828422 75.4876 0.603834 0.041814
5189.32 5189.32 1.910000 4.826004 76.0934 0.610155 0.042355
5192.25 5192.25 1.930000 4.822439 77.0997 0.620429 0.042858
5195.2 5195.2 1.940000 4.820586 77.6972 0.626399 0.043404
5198.16 5198.16 1.950000 4.818003 78.2726 0.632672 0.044250
5201.14 5201.14 1.960000 4.813043 78.9014 0.640922 0.044497
5204.15 5204.15 1.980000 4.805255 79.9578 0.654588 0.045218
5207.17 5207.17 1.990000 4.795464 80.5939 0.666282 0.046243
5210.21 5210.21 2.000000 4.788429 81.301 0.676873 0.046825
5213.27 5213.27 2.010000 4.782102 82.0274 0.687256 0.047465
5216.35 5216.35 2.030000 4.774568 83.0839 0.701373 0.048700
5219.45 5219.45 2.040000 4.766288 83.749 0.712865 0.049342
5222.56 5222.56 2.050000 4.758768 84.4305 0.724090 0.050947
5225.7 5225.7 2.060000 4.753372 85.1053 0.733826 0.051695
5228.85 5228.85 2.080000 4.744429 86.1766 0.749737 0.052600
5232.03 5232.03 2.090000 4.734854 86.8565 0.762927 0.053677
5235.22 5235.22 2.100000 4.723408 87.5563 0.777925 0.055439
5238.43 5238.43 2.110000 4.711728 88.2593 0.793381 0.056527
5241.66 5241.66 2.130000 4.700026 89.3504 0.812645 0.058083
5244.92 5244.92 2.140000 4.688606 89.9853 0.827815 0.059694
5248.18 5248.18 2.150000 4.679366 90.161 0.837136 0.060701
5251.47 5251.47 2.160000 4.670000 91.0648 0.853482 0.062376
5254.78 5254.78 2.180000 4.661255 92.6212 0.875698 0.063916
5258.11 5258.11 2.190000 4.654345 93.449 0.889650 0.065259
5261.45 5261.45 2.200000 4.647411 94.1538 0.902599 0.066635
5264.82 5264.82 2.210000 4.641927 94.9372 0.915111 0.067602
5268.2 5268.2 2.230000 4.635942 96.1457 0.932322 0.069171
5271.6 5271.6 2.240000 4.629186 96.8982 0.945990 0.070526
5275.03 5275.03 2.250000 4.620619 97.7519 0.962530 0.071504
5278.47 5278.47 2.260000 4.611034 97.308 0.967390 0.071962
5281.93 5281.93 2.280000 4.600420 99.5301 1.000042 0.074711
5285.4 5285.4 2.290000 4.590163 100.371 1.018897 0.076070
5288.9 5288.9 2.300000 4.580649 101.112 1.036229 0.077389
5292.42 5292.42 2.310000 4.570252 101.849 1.054688 0.079296
5295.96 5295.96 2.330000 4.561108 103.29 1.079431 0.081353
5299.51 5299.51 2.340000 4.551835 103.977 1.096728 0.082812
5303.09 5303.09 2.350000 4.541406 104.712 1.116066 0.084965
5306.68 5306.68 2.360000 4.531675 105.496 1.135414 0.086479
5310.29 5310.29 2.380000 4.522492 106.75 1.159506 0.088772
5313.92 5313.92 2.390000 4.513479 107.506 1.178297 0.090375
5317.57 5317.57 2.400000 4.505356 108.255 1.196185 0.092290
5321.24 5321.24 2.410000 4.497106 108.818 1.212370 0.094016
5324.93 5324.93 2.430000 4.489384 109.894 1.233840 0.095777
5328.64 5328.64 2.440000 4.480493 110.459 1.251261 0.097861
5332.36 5332.36 2.450000 4.471735 111.021 1.268694 0.099574
5336.11 5336.11 2.460000 4.462206 111.828 1.290158 0.102045
5339.87 5339.87 2.480000 4.453105 113.028 1.315921 0.104770
5343.66 5343.66 2.490000 4.444863 113.759 1.335394 0.106595
5347.46 5347.46 2.500000 4.435631 114.356 1.354842 0.108349
5351.28 5351.28 2.510000 4.427304 114.842 1.371976 0.110604
5355.12 5355.12 2.530000 4.418213 115.189 1.388700 0.112671
5358.98 5358.98 2.540000 4.411690 116.901 1.418560 0.115271
5362.86 5362.86 2.550000 4.403828 117.687 1.439372 0.117473
5366.76 5366.76 2.560000 4.395972 118.391 1.459396 0.118973
5370.68 5370.68 2.580000 4.386997 119.4 1.485112 0.121761
5374.61 5374.61 2.590000 4.377099 120.021 1.507672 0.123869
5378.57 5378.57 2.600000 4.367502 120.606 1.529639 0.126245
5382.54 5382.54 2.610000 4.357170 121.233 1.553560 0.129135
5386.54 5386.54 2.630000 4.347175 122.256 1.582403 0.131751
5390.55 5390.55 2.640000 4.337066 122.74 1.604810 0.134637
5394.58 5394.58 2.650000 4.328239 123.335 1.626890 0.136833
5398.63 5398.63 2.660000 4.319260 123.562 1.644576 0.139087
5402.7 5402.7 2.680000 4.309722 124.71 1.675767 0.142294
5406.79 5406.79 2.690000 4.300039 125.456 1.702195 0.145183
5410.9 5410.9 2.700000 4.290446 125.969 1.725633 0.148232
5415.02 5415.02 2.710000 4.280417 126.565 1.751274 0.150932
5419.17 5419.17 2.730000 4.270044 126.951 1.774931 0.153803
5423.33 5423.33 2.740000 4.259644 127.832 1.805933 0.157381
5427.52 5427.52 2.750000 4.249309 128.379 1.832500 0.160381
5431.72 5431.72 2.760000 4.239865 128.904 1.857456 0.163455
5435.94 5435.94 2.780000 4.230441 129.938 1.890082 0.167400
5440.18 5440.18 2.790000 4.221067 130.52 1.916417 0.170090
5444.44 5444.44 2.800000 4.211869 131.127 1.943128 0.173309
5448.72 5448.72 2.810000 4.202359 131.974 1.974366 0.177276
5453.02 5453.02 2.830000 4.192897 133.095 2.010069 0.181261
5457.34 5457.34 2.840000 4.184442 133.745 2.037028 0.184657
5461.67 5461.67 2.850000 4.177072 134.443 2.062810 0.187591
5466.03 5466.03 2.860000 4.168865 135.148 2.090722 0.191053
5470.4 5470.4 2.880000 4.160632 136.356 2.126829 0.195031
5474.8 5474.8 2.890000 4.152024 137.131 2.157430 0.199117
5479.21 5479.21 2.900000 4.142472 137.894 2.190251 0.203025
5483.64 5483.64 2.910000 4.132882 138.658 2.223608 0.206970
5488.09 5488.09 2.930000 4.123815 139.912 2.264152 0.211779
5492.56 5492.56 2.940000 4.113707 140.723 2.300408 0.216172
5497.05 5497.05 2.950000 4.103603 141.545 2.337349 0.220871
5501.56 5501.56 2.960000 4.093763 142.334 2.373603 0.225128
5506.08 5506.08 2.980000 4.084068 143.616 2.418310 0.230546
5510.63 5510.63 2.990000 4.074644 144.434 2.455121 0.235092
5515.19 5515.19 3.000000 4.065341 145.519 2.496694 0.240523
5519.78 5519.78 3.010000 4.056006 146.54 2.537791 0.245948
5524.38 5524.38 3.030000 4.046741 147.946 2.585980 0.251578
5529 5529 3.040000 4.037923 148.891 2.625555 0.256420
5533.64 5533.64 3.050000 4.028935 149.854 2.666399 0.262135
5538.3 5538.3 3.060000 4.019888 150.739 2.706508 0.267584
5542.98 5542.98 3.080000 4.010835 152.153 2.756755 0.273966
5547.68 5547.68 3.090000 4.001741 153.114 2.799492 0.279602
5552.4 5552.4 3.100000 3.992740 154.112 2.843223 0.285379
5557.13 5557.13 3.110000 3.983109 155.065 2.888497 0.291040
5561.89 5561.89 3.130000 3.973900 156.516 2.942501 0.297910
5566.66 5566.66 3.140000 3.964896 157.835 2.994118 0.304669
5571.46 5571.46 3.150000 3.955449 158.797 3.040978 0.311296
5576.27 5576.27 3.160000 3.945709 159.749 3.089145 0.317230
5581.1 5581.1 3.180000 3.936179 161.23 3.147638 0.325399
5585.95 5585.95 3.190000 3.926682 162.228 3.197345 0.332093
5590.82 5590.82 3.200000 3.916695 163.591 3.256567 0.339779
5595.71 5595.71 3.210000 3.907021 164.484 3.306178 0.346607
5600.62 5600.62 3.230000 3.896971 165.95 3.369321 0.355116
5605.54 5605.54 3.240000 3.887465 166.869 3.420361 0.362645
5610.49 5610.49 3.250000 3.878117 167.816 3.472058 0.369530
5615.45 5615.45 3.260000 3.868704 168.731 3.523996 0.377303
5620.44 5620.44 3.280000 3.859654 170.134 3.585626 0.386194
5625.44 5625.44 3.290000 3.850991 170.31 3.620551 0.391880
5630.46 5630.46 3.300000 3.843320 170.928 3.661681 0.398796
5635.5 5635.5 3.310000 3.833742 171.711 3.713842 0.406583
5640.56 5640.56 3.330000 3.824625 173.188 3.780115 0.416092
5645.64 5645.64 3.340000 3.815657 173.96 3.831150 0.423690
5650.74 5650.74 3.350000 3.806944 174.806 3.883479 0.431673
5655.86 5655.86 3.360000 3.797286 175.699 3.941207 0.441019
5660.99 5660.99 3.380000 3.788413 177.273 4.011923 0.451126
5666.15 5666.15 3.390000 3.778429 178.465 4.079438 0.460795
5671.32 5671.32 3.400000 3.769125 179.651 4.144939 0.470933
5676.52 5676.52 3.410000 3.760177 181.174 4.217660 0.481635
5681.73 5681.73 3.430000 3.750715 183.1 4.303018 0.494527
5686.96 5686.96 3.440000 3.741555 184.193 4.368530 0.504714
5692.21 5692.21 3.450000 3.732096 185.131 4.432508 0.514594
5697.48 5697.48 3.460000 3.722335 186.121 4.499939 0.525507
5702.77 5702.77 3.480000 3.712760 187.606 4.579459 0.537647
5708.08 5708.08 3.490000 3.703038 188.543 4.647289 0.549043