File: xdidata/Ti/Ti-K-CaCe2Ti4O12.xdi
# XDI/1.0 BlueSky/1.5.0
# Beamline.name: 6BM
# Beamline.xray_source: NSLS-II three-pole wiggler
# Beamline.collimation: paraboloid mirror, 5 nm Rh on 30 nm Pt
# Beamline.focusing: not in use
# Beamline.harmonic_rejection: flat mirror, Si stripe, pitch = 7.0 mrad relative to beam
# Detector.i0: 10 cm N2
# Detector.i1: 25 cm N2
# Detector.i2: 25 cm N2
# Element.symbol: Ti
# Element.edge: K
# Facility.name: NSLS-II
# Facility.energy: 3.0
# Facility.current: 219.4
# Facility.mode: top-off
# Facility.gup: 301027
# Facility.saf: 304156
# Mono.name: Si(111)
# Mono.d_spacing: 3.13526
# Mono.encoder_resolution: 0.0000050 deg/ct
# Mono.angle_offset: 16.0571 deg
# Mono.scan_mode: pseudo channel cut
# Mono.scan_type: step
# Mono.direction: forward in energy
# Sample.name: CaCe2Ti4O12
# Sample.prep: Powder in polyethylene glycol pellet
# Sample.x_position: -113.290 mm
# Sample.y_position: 117.505 mm
# Sample.wheel_position: 225.000 mm
# Scan.experimenters: Bruce Ravel, Martin Stennett
# Scan.edge_energy: 4966.0
# Scan.start_time: 2019-05-30T19:31:03
# Scan.end_time: 2019-05-30T20:15:10
# Scan.transient_id: 9852
# Scan.uid: b8f09ba5-23aa-449f-920b-bdfdb9eaf65b
# Scan.plot_hint: (DTC1 + DTC2 + DTC3 + DTC4) / I0  --  ($8+$9+$10+$11) / $5
# Scan.sequence: merge of 3 scans
# Column.1: energy eV
# Column.2: requested_energy eV
# Column.3: measurement_time seconds
# Column.4: mutrans
# Column.5: i0
# Column.6: itrans
# Column.7: irefer
# /////
#  sample disk prepared by Martin
# -----
# energy   requested_energy   measurement_time   mutrans   i0   itrans   irefer
4766 4766 0.500000 76.0925 10.5498 0.037192 0.005294
4776.01 4776 0.500000 76.1877 10.7939 0.038261 0.005387
4786.01 4786 0.500000 74.2895 11.0543 0.040756 0.005704
4796.01 4796 0.500000 69.4613 11.3429 0.043405 0.006049
4806.01 4806 0.500000 67.856 11.6062 0.046102 0.006235
4816.01 4816 0.500000 62.7592 11.869 0.049000 0.006531
4826.01 4826 0.500000 59.1984 12.1341 0.051998 0.006986
4836 4836 0.500000 59.0322 12.3874 0.055518 0.007556
4846 4846 0.500000 52.862 12.6426 0.058480 0.007866
4856 4856 0.500000 48.4732 12.9086 0.062151 0.008264
4866.01 4866 0.500000 47.6365 13.1946 0.066033 0.008915
4876.01 4876 0.500000 43.6829 13.4642 0.069730 0.009637
4886 4886 0.500000 40.725 13.7269 0.073761 0.010079
4896 4896 0.500000 36.2052 13.9907 0.077827 0.010563
4906.01 4906 0.500000 35.373 14.2633 0.082430 0.011372
4916.01 4916 0.500000 33.7678 14.5336 0.086776 0.011751
4926 4926 0.500000 30.072 14.7997 0.091857 0.012657
4936 4936 0.500000 29.7822 15.0515 0.096576 0.013267
4938 4938 0.500000 31.4752 15.0992 0.097468 0.013502
4939.99 4940 0.500000 30.3735 15.1523 0.098560 0.013639
4941.99 4942 0.500000 30.6174 15.1996 0.099292 0.013643
4944 4944 0.500000 30.396 15.2452 0.100349 0.013898
4946 4946 0.500000 30.1289 15.2859 0.101216 0.013840
4948 4948 0.500000 31.705 15.3245 0.102276 0.014042
4950 4950 0.500000 30.0246 15.3738 0.103220 0.014064
4952 4952 0.500000 31.1271 15.418 0.104484 0.014472
4954 4954 0.500000 32.8444 15.4618 0.105210 0.014516
4956 4956 0.500000 33.7753 15.5064 0.106142 0.014567
4956.25 4956.25 0.500000 34.484 15.5109 0.106516 0.014835
4956.5 4956.5 0.500000 33.0186 15.517 0.106464 0.014799
4956.74 4956.75 0.500000 33.9393 15.5208 0.106720 0.014840
4956.99 4957 0.500000 34.1669 15.5233 0.106862 0.014792
4957.24 4957.25 0.500000 34.3288 15.5261 0.106770 0.014928
4957.49 4957.5 0.500000 34.1788 15.5301 0.106773 0.014646
4957.75 4957.75 0.500000 33.5843 15.5344 0.107005 0.014799
4957.99 4958 0.500000 33.5461 15.5401 0.107301 0.014967
4958.24 4958.25 0.500000 36.1015 15.5441 0.107363 0.014941
4958.5 4958.5 0.500000 35.309 15.5497 0.107601 0.014914
4958.74 4958.75 0.500000 35.6945 15.5544 0.107397 0.014833
4958.99 4959 0.500000 34.5445 15.56 0.107814 0.014957
4959.24 4959.25 0.500000 34.2786 15.5611 0.107804 0.014875
4959.49 4959.5 0.500000 35.3739 15.5669 0.107853 0.014809
4959.74 4959.75 0.500000 35.8296 15.5727 0.108059 0.014823
4960 4960 0.500000 36.3419 15.5787 0.107989 0.014880
4960.25 4960.25 0.500000 36.4775 15.5819 0.108235 0.015014
4960.5 4960.5 0.500000 35.9313 15.5877 0.108086 0.014919
4960.75 4960.75 0.500000 37.5194 15.5952 0.108107 0.014778
4960.99 4961 0.500000 37.6234 15.5987 0.108480 0.014957
4961.24 4961.25 0.500000 37.2965 15.6043 0.108791 0.015056
4961.5 4961.5 0.500000 37.2777 15.6079 0.108816 0.014899
4961.75 4961.75 0.500000 39.5172 15.6139 0.108892 0.014959
4962 4962 0.500000 37.7922 15.6206 0.108870 0.014879
4962.25 4962.25 0.500000 39.2972 15.6247 0.109006 0.014751
4962.5 4962.5 0.500000 40.3684 15.6278 0.109192 0.014936
4962.75 4962.75 0.500000 40.1004 15.6319 0.109041 0.014851
4963 4963 0.500000 40.8024 15.6358 0.109239 0.014809
4963.25 4963.25 0.500000 42.119 15.6435 0.109691 0.014784
4963.49 4963.5 0.500000 41.9306 15.6505 0.109639 0.014860
4963.75 4963.75 0.500000 42.7602 15.6521 0.109696 0.014601
4964 4964 0.500000 42.7175 15.6563 0.109894 0.014381
4964.25 4964.25 0.500000 45.4687 15.6642 0.109905 0.014005
4964.5 4964.5 0.500000 42.5488 15.6687 0.110004 0.013508
4964.75 4964.75 0.500000 47.1007 15.6758 0.110095 0.012716
4965 4965 0.500000 49.3318 15.6825 0.110264 0.011885
4965.25 4965.25 0.500000 49.3446 15.6841 0.110189 0.011145
4965.5 4965.5 0.500000 53.4049 15.6876 0.110328 0.010893
4965.74 4965.75 0.500000 56.2226 15.6918 0.110181 0.010687
4966 4966 0.500000 59.9422 15.6999 0.110174 0.010885
4966.25 4966.25 0.500000 65.8122 15.7064 0.110249 0.011175
4966.5 4966.5 0.500000 72.307 15.7119 0.110054 0.011472
4966.75 4966.75 0.500000 86.0195 15.7171 0.109886 0.011764
4967 4967 0.500000 101.279 15.721 0.109198 0.011966
4967.25 4967.25 0.500000 122.593 15.7196 0.108782 0.011955
4967.5 4967.5 0.500000 129.812 15.7227 0.108416 0.011735
4967.75 4967.75 0.500000 129.109 15.7263 0.108692 0.011780
4968 4968 0.500000 127.385 15.7362 0.108870 0.011551
4968.25 4968.25 0.500000 130.432 15.7446 0.108894 0.011567
4968.5 4968.5 0.500000 145.778 15.7485 0.108669 0.011361
4968.75 4968.75 0.500000 175.119 15.7513 0.107637 0.011107
4969 4969 0.500000 211.66 15.7524 0.106239 0.010735
4969.25 4969.25 0.500000 246.688 15.753 0.105432 0.010766
4969.5 4969.5 0.500000 267.008 15.7541 0.104620 0.010334
4969.75 4969.75 0.500000 267.063 15.7567 0.105031 0.010392
4970 4970 0.500000 252.155 15.7604 0.105617 0.010215
4970.25 4970.25 0.500000 240.296 15.7659 0.105895 0.010293
4970.5 4970.5 0.500000 235.521 15.7799 0.106201 0.010325
4970.75 4970.75 0.500000 228.862 15.7896 0.106582 0.010154
4971 4971 0.500000 226.497 15.8018 0.107245 0.010538
4971.25 4971.25 0.500000 221.547 15.8127 0.106996 0.010223
4971.5 4971.5 0.500000 225.072 15.8204 0.107352 0.010150
4971.75 4971.75 0.500000 237.852 15.8266 0.107020 0.010117
4972 4972 0.500000 252.634 15.8315 0.106477 0.009937
4972.25 4972.25 0.500000 284.692 15.8366 0.105707 0.009576
4972.5 4972.5 0.500000 304.379 15.8405 0.104979 0.009425
4972.75 4972.75 0.500000 324.025 15.8435 0.104641 0.009238
4973 4973 0.500000 333.594 15.8487 0.104637 0.009270
4973.25 4973.25 0.500000 346.488 15.8526 0.104142 0.008787
4973.5 4973.5 0.500000 344.102 15.8651 0.104481 0.008871
4973.75 4973.75 0.500000 337.537 15.8948 0.104825 0.008550
4974 4974 0.500000 329.658 15.8953 0.105033 0.008431
4974.25 4974.25 0.500000 320.65 15.9007 0.105656 0.008463
4974.5 4974.5 0.500000 311.708 15.9047 0.106108 0.008481
4974.75 4974.75 0.500000 305.989 15.908 0.106457 0.008074
4975 4975 0.500000 296.48 15.9094 0.106982 0.007928
4975.25 4975.25 0.500000 289.456 15.9099 0.107054 0.007926
4975.5 4975.5 0.500000 284.91 15.9097 0.107323 0.007776
4975.75 4975.75 0.500000 279.897 15.9356 0.107894 0.007871
4976 4976 0.500000 286.537 15.9474 0.107785 0.007572
4976.25 4976.25 0.500000 290.193 15.945 0.107977 0.007478
4976.5 4976.5 0.500000 294.407 15.944 0.107697 0.007291
4976.75 4976.75 0.500000 301.663 15.9465 0.107579 0.007294
4977 4977 0.500000 308.338 15.9485 0.107264 0.007137
4977.25 4977.25 0.500000 334.097 15.9508 0.106876 0.007233
4977.5 4977.5 0.500000 348.638 15.9509 0.106147 0.006962
4977.75 4977.75 0.500000 375.074 15.9531 0.105303 0.007050
4978 4978 0.500000 413.65 15.958 0.104308 0.006874
4978.25 4978.25 0.500000 444.959 15.9622 0.103335 0.006830
4978.5 4978.5 0.500000 485.772 15.9687 0.102037 0.006581
4978.75 4978.75 0.500000 529.302 16.0152 0.100956 0.006374
4979 4979 0.500000 570.611 16.0154 0.099520 0.006341
4979.25 4979.25 0.500000 623.37 16.0167 0.098186 0.006481
4979.5 4979.5 0.500000 673.384 16.0183 0.096942 0.006373
4979.75 4979.75 0.500000 722.124 16.0148 0.095056 0.006086
4980 4980 0.500000 775.73 16.0124 0.093516 0.006043
4980.25 4980.25 0.500000 840.461 16.0111 0.091755 0.005860
4980.5 4980.5 0.500000 907.284 16.008 0.089701 0.005965
4980.75 4980.75 0.500000 975.41 16.0066 0.087398 0.005577
4981 4981 0.500000 1063.83 16.0068 0.085141 0.005570
4981.25 4981.25 0.500000 1161.15 16.0058 0.082581 0.005541
4981.5 4981.5 0.500000 1263.63 16.0071 0.079647 0.005372
4981.75 4981.75 0.500000 1378.64 16.009 0.076814 0.005120
4982 4982 0.500000 1473.17 16.0101 0.074008 0.005143
4982.25 4982.25 0.500000 1596.75 16.0145 0.070876 0.004763
4982.5 4982.5 0.500000 1708.32 16.0177 0.068199 0.004823
4982.75 4982.75 0.500000 1815.13 16.0211 0.065851 0.004579
4983 4983 0.500000 1905.71 16.0227 0.063859 0.004626
4983.25 4983.25 0.500000 1980.29 16.0254 0.062106 0.004379
4983.5 4983.5 0.500000 2045.16 16.0246 0.060990 0.004502
4983.75 4983.75 0.500000 2050.63 16.0248 0.060159 0.004440
4984 4984 0.500000 2084.71 16.0248 0.060046 0.004255
4984.25 4984.25 0.500000 2087.75 16.0246 0.060064 0.004366
4984.5 4984.5 0.500000 2064.99 16.023 0.060750 0.004483
4984.75 4984.75 0.500000 2037.65 16.0252 0.061542 0.004678
4985 4985 0.500000 1994.59 16.0271 0.062504 0.004660
4985.25 4985.25 0.500000 1933.2 16.0309 0.063633 0.004806
4985.5 4985.5 0.500000 1909.59 16.0331 0.064300 0.004586
4985.75 4985.75 0.500000 1872 16.0345 0.065520 0.004743
4986 4986 0.500000 1842.34 16.0356 0.066452 0.004935
4986.25 4986.25 0.500000 1799.06 16.0367 0.067470 0.004831
4986.5 4986.5 0.500000 1765.77 16.0375 0.068003 0.004944
4986.75 4986.75 0.500000 1744.73 16.0355 0.068676 0.004894
4987 4987 0.500000 1715.3 16.0331 0.069242 0.005036
4987.25 4987.25 0.500000 1708.32 16.0294 0.069762 0.005079
4987.5 4987.5 0.500000 1689.25 16.0291 0.070169 0.005186
4987.75 4987.75 0.500000 1681.17 16.0308 0.070395 0.005053
4988 4988 0.500000 1701.65 16.0335 0.070448 0.005046
4988.25 4988.25 0.500000 1692.77 16.0388 0.070648 0.005138
4988.5 4988.5 0.500000 1689.96 16.0487 0.070733 0.005189
4988.75 4988.75 0.500000 1693.69 16.0579 0.070702 0.005029
4989 4989 0.500000 1707.64 16.0724 0.070660 0.005033
4989.25 4989.25 0.500000 1717.14 16.0856 0.070541 0.004992
4989.5 4989.5 0.500000 1725.32 16.0981 0.070750 0.005128
4989.75 4989.75 0.500000 1728.54 16.1118 0.070499 0.005038
4990 4990 0.500000 1744.94 16.1266 0.069984 0.004870
4990.25 4990.25 0.500000 1754.5 16.1436 0.070136 0.005269
4990.5 4990.5 0.500000 1762.19 16.155 0.069943 0.005187
4990.75 4990.75 0.500000 1791.99 16.1697 0.069417 0.005171
4991 4991 0.500000 1799.23 16.1825 0.069401 0.005213
4991.25 4991.25 0.500000 1797.32 16.1946 0.069054 0.004925
4991.5 4991.5 0.500000 1824.69 16.2066 0.069028 0.005115
4991.75 4991.75 0.500000 1837.06 16.2175 0.068761 0.005115
4992 4992 0.500000 1848.06 16.2271 0.068512 0.004961
4992.25 4992.25 0.500000 1863.81 16.2373 0.068458 0.005097
4992.5 4992.5 0.500000 1863.85 16.2451 0.068290 0.004994
4992.75 4992.75 0.500000 1892.41 16.2522 0.067987 0.004972
4993 4993 0.500000 1896.45 16.2593 0.067796 0.004906
4993.25 4993.25 0.500000 1913.18 16.2664 0.067792 0.005162
4993.5 4993.5 0.500000 1918.93 16.274 0.067531 0.004938
4993.75 4993.75 0.500000 1924.1 16.2808 0.067229 0.004939
4994 4994 0.500000 1924.22 16.2861 0.067472 0.005106
4994.25 4994.25 0.500000 1934.04 16.2895 0.067144 0.004911
4994.5 4994.5 0.500000 1934.45 16.2957 0.067164 0.004853
4994.75 4994.75 0.500000 1959.09 16.3033 0.067244 0.004951
4995 4995 0.500000 1956.87 16.3082 0.066987 0.004768
4995.25 4995.25 0.500000 1951.49 16.3118 0.067056 0.004888
4995.5 4995.5 0.500000 1958.38 16.3146 0.067174 0.005072
4995.75 4995.75 0.500000 1983.05 16.3446 0.067112 0.004979
4996.01 4996 0.700000 1978.93 22.8542 0.093705 0.006942
4997.09 4997.08 0.710000 1992.23 23.1969 0.095049 0.006826
4998.19 4998.18 0.730000 1984.34 23.8524 0.098145 0.006886
4999.3 4999.29 0.740000 1966.98 24.2003 0.100705 0.007091
5000.44 5000.43 0.750000 1945.53 24.5669 0.103603 0.007104
5001.59 5001.58 0.760000 1902.68 24.946 0.107072 0.007323
5002.77 5002.76 0.780000 1867.45 25.6598 0.112600 0.007582
5003.96 5003.95 0.790000 1823.69 26.0524 0.116561 0.008019
5005.17 5005.16 0.800000 1775.19 26.4494 0.120393 0.008179
5006.4 5006.39 0.810000 1728.44 26.8577 0.125165 0.008646
5007.64 5007.64 0.830000 1690.37 27.5907 0.130879 0.009113
5008.92 5008.91 0.840000 1658.7 27.984 0.134981 0.009433
5010.2 5010.2 0.850000 1603.7 28.3796 0.139725 0.009881
5011.52 5011.51 0.860000 1562.55 28.7733 0.144768 0.010118
5012.83 5012.83 0.880000 1536.8 29.4967 0.150440 0.010608
5014.19 5014.18 0.890000 1505.35 29.9277 0.154444 0.010827
5015.54 5015.54 0.900000 1508.27 30.3444 0.158037 0.011254
5016.94 5016.93 0.910000 1511.64 30.7994 0.161208 0.011485
5018.34 5018.33 0.930000 1518.81 31.5575 0.165301 0.011801
5019.76 5019.75 0.940000 1519.25 31.9633 0.168426 0.012147
5021.19 5021.19 0.950000 1509.39 32.3686 0.171812 0.012380
5022.65 5022.65 0.960000 1503.43 32.7769 0.175406 0.012562
5024.13 5024.13 0.980000 1500.16 33.5305 0.180634 0.013273
5025.64 5025.63 0.990000 1507 33.9403 0.183084 0.013039
5027.15 5027.14 1.000000 1526.66 34.349 0.185424 0.013234
5028.68 5028.68 1.010000 1532.64 34.7591 0.188144 0.013422
5030.24 5030.24 1.030000 1533.13 35.5127 0.193311 0.013960
5031.82 5031.81 1.040000 1542.45 36.0148 0.197114 0.013420
5033.41 5033.4 1.050000 1544.75 36.4275 0.200443 0.013574
5035.01 5035.01 1.060000 1538.46 36.8342 0.203577 0.013365
5036.66 5036.65 1.080000 1561.18 37.5984 0.208406 0.013611
5038.3 5038.3 1.090000 1584.4 38.0215 0.210162 0.013633
5039.98 5039.97 1.100000 1604.94 38.4377 0.212580 0.014262
5041.66 5041.65 1.110000 1623.97 38.8531 0.214390 0.014164
5043.36 5043.36 1.130000 1633.17 39.6152 0.219182 0.014542
5045.09 5045.09 1.140000 1643.67 40.0377 0.222496 0.014826
5046.83 5046.83 1.150000 1643.51 40.4545 0.226583 0.015534
5048.6 5048.6 1.160000 1649.74 40.8841 0.229536 0.015679
5050.37 5050.38 1.180000 1665.99 41.6614 0.234433 0.016035
5052.17 5052.18 1.190000 1693.63 42.089 0.236729 0.016849
5053.99 5054 1.200000 1722.56 42.5204 0.238349 0.016984
5055.83 5055.84 1.210000 1755.57 42.9504 0.240339 0.017643
5057.69 5057.7 1.230000 1765.19 43.7429 0.244688 0.018266
5059.57 5059.58 1.240000 1790.36 44.1801 0.247718 0.018174
5061.48 5061.48 1.250000 1787.15 44.6214 0.251436 0.018275
5063.39 5063.4 1.260000 1803.05 45.0568 0.255573 0.018770
5065.33 5065.33 1.280000 1785.76 45.8528 0.262461 0.019270
5067.28 5067.29 1.290000 1768.56 46.3002 0.268843 0.019883
5069.26 5069.26 1.300000 1745.02 46.7455 0.274954 0.020196
5071.26 5071.26 1.310000 1734 47.1876 0.281249 0.021048
5073.27 5073.27 1.330000 1716.9 47.9962 0.288703 0.021495
5075.3 5075.3 1.340000 1729.15 48.437 0.293644 0.021567
5077.35 5077.35 1.350000 1727.82 48.8821 0.298064 0.021627
5079.42 5079.42 1.360000 1729.65 49.3264 0.303236 0.022052
5081.51 5081.51 1.380000 1715.48 50.1248 0.311207 0.022032
5083.6 5083.61 1.390000 1704.76 50.5635 0.317759 0.022256
5085.74 5085.74 1.400000 1685.74 51.0098 0.324911 0.022202
5087.89 5087.89 1.410000 1668.18 51.4526 0.332065 0.022892
5090.05 5090.05 1.430000 1662.79 52.2596 0.340395 0.022981
5092.23 5092.23 1.440000 1666.28 52.7009 0.345730 0.023366
5094.44 5094.44 1.450000 1663.8 53.1473 0.351290 0.024207
5096.66 5096.66 1.460000 1668.68 53.6023 0.356609 0.024632
5098.9 5098.9 1.480000 1671.99 54.4107 0.364655 0.026103
5101.16 5101.16 1.490000 1675.7 54.8579 0.369764 0.026834
5103.44 5103.44 1.500000 1686 55.3155 0.375822 0.028125
5105.74 5105.74 1.510000 1687.63 55.7694 0.381165 0.028566
5108.05 5108.05 1.530000 1698.75 56.5857 0.389138 0.029066
5110.39 5110.39 1.540000 1703.37 57.0509 0.395398 0.029656
5112.74 5112.74 1.550000 1705.95 57.5175 0.400905 0.029842
5115.12 5115.12 1.560000 1710.35 57.9694 0.406820 0.030514
5117.51 5117.51 1.580000 1718.79 58.8082 0.415316 0.031304
5119.92 5119.92 1.590000 1726.57 59.287 0.421103 0.031430
5122.35 5122.35 1.600000 1733.4 59.7598 0.427272 0.031920
5124.8 5124.8 1.610000 1734.51 60.2374 0.433976 0.032303
5127.27 5127.27 1.630000 1738.78 61.0931 0.443638 0.033553
5129.76 5129.76 1.640000 1741.47 61.5827 0.450385 0.034054
5132.27 5132.27 1.650000 1752.16 62.0749 0.457339 0.035008
5134.79 5134.79 1.660000 1754.12 62.6828 0.465049 0.035412
5137.34 5137.34 1.680000 1763.42 63.6723 0.475549 0.036231
5139.9 5139.9 1.690000 1765.75 64.2432 0.482739 0.036108
5142.49 5142.49 1.700000 1774.17 64.7476 0.490754 0.036923
5145.09 5145.09 1.710000 1789.15 65.2494 0.498204 0.037243
5147.71 5147.71 1.730000 1789.02 66.1342 0.508556 0.037262
5150.35 5150.35 1.740000 1791.49 66.6751 0.516956 0.038110
5153.01 5153.01 1.750000 1799.51 67.3333 0.525983 0.038685
5155.69 5155.69 1.760000 1797.15 67.8732 0.534566 0.039768
5158.39 5158.39 1.780000 1811.48 68.7756 0.546137 0.040702
5161.11 5161.11 1.790000 1804.52 69.2967 0.555727 0.042272
5163.84 5163.84 1.800000 1801.55 69.8297 0.564977 0.042990
5166.6 5166.6 1.810000 1801.68 70.3652 0.575042 0.044259
5169.37 5169.37 1.830000 1809.83 71.2795 0.586731 0.045117
5172.17 5172.17 1.840000 1804.1 71.813 0.597567 0.046906
5174.98 5174.98 1.850000 1801.49 72.3355 0.607885 0.047637
5177.81 5177.81 1.860000 1805.09 72.8656 0.618406 0.048896
5180.66 5180.66 1.880000 1801.54 73.7948 0.632342 0.050498
5183.53 5183.53 1.890000 1802.21 74.3642 0.643811 0.051241
5186.42 5186.42 1.900000 1803.54 74.8959 0.654653 0.052528
5189.32 5189.32 1.910000 1804.16 75.4389 0.665549 0.053244
5192.25 5192.25 1.930000 1806.46 76.3675 0.679317 0.054269
5195.2 5195.2 1.940000 1807.44 76.9071 0.690293 0.055177
5198.16 5198.16 1.950000 1812.32 77.4234 0.701035 0.055779
5201.14 5201.14 1.960000 1815.31 77.9741 0.712888 0.056976
5204.15 5204.15 1.980000 1821.02 78.9217 0.728000 0.058210
5207.17 5207.17 1.990000 1823.85 79.4896 0.739361 0.059026
5210.21 5210.21 2.000000 1825.92 80.0524 0.751778 0.060117
5213.27 5213.27 2.010000 1836.96 80.6014 0.763526 0.061001
5216.35 5216.35 2.030000 1837.21 81.5439 0.778800 0.062099
5219.45 5219.45 2.040000 1841.65 82.0913 0.791579 0.063634
5222.56 5222.56 2.050000 1850.49 82.6197 0.804366 0.065290
5225.7 5225.7 2.060000 1852.06 83.1469 0.816611 0.066097
5228.85 5228.85 2.080000 1856.11 84.059 0.833385 0.067891
5232.03 5232.03 2.090000 1865.58 84.6118 0.846122 0.069223
5235.22 5235.22 2.100000 1870.53 85.1737 0.859488 0.070355
5238.43 5238.43 2.110000 1869.42 85.7353 0.873131 0.072593
5241.66 5241.66 2.130000 1877.53 86.6925 0.890984 0.073960
5244.92 5244.92 2.140000 1877.67 87.2145 0.904736 0.075812
5248.18 5248.18 2.150000 1882.88 87.3332 0.915091 0.077243
5251.47 5251.47 2.160000 1880.96 87.9302 0.929649 0.078586
5254.78 5254.78 2.180000 1888.47 89.2857 0.953276 0.081095
5258.11 5258.11 2.190000 1898.43 90.0088 0.969941 0.083172
5261.45 5261.45 2.200000 1907.64 90.5836 0.984489 0.084519
5264.82 5264.82 2.210000 1913 91.257 1.000855 0.086342
5268.2 5268.2 2.230000 1912.03 92.3805 1.022459 0.088489
5271.6 5271.6 2.240000 1920.58 93.0974 1.040310 0.089917
5275.03 5275.03 2.250000 1925.85 93.8981 1.059203 0.091711
5278.47 5278.47 2.260000 1929.48 93.2823 1.062201 0.091875
5281.93 5281.93 2.280000 1940.02 95.7024 1.101232 0.095771
5285.4 5285.4 2.290000 1941.75 96.72 1.123624 0.098064
5288.9 5288.9 2.300000 1945.11 97.4198 1.143249 0.099810
5292.42 5292.42 2.310000 1947.53 98.0941 1.162827 0.101562
5295.96 5295.96 2.330000 1950.51 99.247 1.187989 0.104312
5299.51 5299.51 2.340000 1955.81 99.8291 1.207586 0.106939
5303.09 5303.09 2.350000 1959.71 100.472 1.227822 0.108961
5306.68 5306.68 2.360000 1957.45 101.191 1.249435 0.111014
5310.29 5310.29 2.380000 1961.58 102.333 1.277396 0.114543
5313.92 5313.92 2.390000 1965.27 103.041 1.299209 0.116590
5317.57 5317.57 2.400000 1971.84 103.725 1.321524 0.118968
5321.24 5321.24 2.410000 1973.47 104.218 1.340391 0.121249
5324.93 5324.93 2.430000 1974.98 105.222 1.367293 0.124632
5328.64 5328.64 2.440000 1975.86 105.785 1.388253 0.126898
5332.36 5332.36 2.450000 1988.43 106.404 1.410171 0.129633
5336.11 5336.11 2.460000 1993.06 107.106 1.433589 0.132516
5339.87 5339.87 2.480000 1997.95 108.179 1.462040 0.135647
5343.66 5343.66 2.490000 1999 108.795 1.484982 0.138591
5347.46 5347.46 2.500000 2009.22 109.35 1.507821 0.141574
5351.28 5351.28 2.510000 2012.63 109.802 1.528515 0.144377
5355.12 5355.12 2.530000 2013.17 110.108 1.548045 0.146675
5358.98 5358.98 2.540000 2024.42 111.833 1.588800 0.150868
5362.86 5362.86 2.550000 2026.7 112.518 1.614480 0.153567
5366.76 5366.76 2.560000 2031.95 113.059 1.638966 0.156611
5370.68 5370.68 2.580000 2038.25 113.951 1.668645 0.159851
5374.61 5374.61 2.590000 2046.13 114.405 1.692742 0.162956
5378.57 5378.57 2.600000 2045.23 114.886 1.716689 0.164941
5382.54 5382.54 2.610000 2057.44 115.407 1.742454 0.168977
5386.54 5386.54 2.630000 2062.08 116.325 1.774543 0.172881
5390.55 5390.55 2.640000 2061.18 116.716 1.798861 0.176005
5394.58 5394.58 2.650000 2074.62 117.131 1.823253 0.179382
5398.63 5398.63 2.660000 2075.51 117.228 1.842486 0.181824
5402.7 5402.7 2.680000 2086.01 118.038 1.874304 0.185639
5406.79 5406.79 2.690000 2091.18 118.091 1.893880 0.188799
5410.9 5410.9 2.700000 2097.82 118.195 1.913956 0.191433
5415.02 5415.02 2.710000 2105.99 118.504 1.938968 0.195012
5419.17 5419.17 2.730000 2111.67 118.671 1.961737 0.198625
5423.33 5423.33 2.740000 2123.86 119.285 1.991207 0.202212
5427.52 5427.52 2.750000 2127.8 119.652 2.018430 0.206413
5431.72 5431.72 2.760000 2134.17 119.697 2.039703 0.209675
5435.94 5435.94 2.780000 2144.13 120.283 2.070424 0.213786
5440.18 5440.18 2.790000 2150.98 120.627 2.098221 0.217718
5444.44 5444.44 2.800000 2158.87 120.791 2.122747 0.221230
5448.72 5448.72 2.810000 2162.71 120.871 2.146994 0.225097
5453.02 5453.02 2.830000 2169.22 121.499 2.181141 0.230033
5457.34 5457.34 2.840000 2175.85 121.714 2.208117 0.233444
5461.67 5461.67 2.850000 2184.3 121.97 2.236085 0.236879
5466.03 5466.03 2.860000 2192.53 122.231 2.264938 0.241102
5470.4 5470.4 2.880000 2197.13 122.939 2.302265 0.246580
5474.8 5474.8 2.890000 2199.67 123.238 2.331944 0.250445
5479.21 5479.21 2.900000 2211.9 123.672 2.365260 0.255449
5483.64 5483.64 2.910000 2218.95 124.062 2.397920 0.260263
5488.09 5488.09 2.930000 2224.85 124.973 2.440352 0.265621
5492.56 5492.56 2.940000 2230.13 125.445 2.476104 0.271203
5497.05 5497.05 2.950000 2238.12 125.945 2.512413 0.276314
5501.56 5501.56 2.960000 2241.51 126.484 2.550212 0.282153
5506.08 5506.08 2.980000 2252.47 127.494 2.597310 0.288255
5510.63 5510.63 2.990000 2260.13 128.071 2.636251 0.294250
5515.19 5515.19 3.000000 2269.46 128.819 2.680093 0.300473
5519.78 5519.78 3.010000 2282.04 129.523 2.722520 0.306363
5524.38 5524.38 3.030000 2283.61 130.678 2.775886 0.313565
5529 5529 3.040000 2296.01 131.446 2.821321 0.320544
5533.64 5533.64 3.050000 2302.04 132.229 2.868439 0.327526
5538.3 5538.3 3.060000 2298.53 133.032 2.917267 0.334754
5542.98 5542.98 3.080000 2311.66 134.274 2.976033 0.342922
5547.68 5547.68 3.090000 2319.08 135.152 3.027240 0.350082
5552.4 5552.4 3.100000 2327.48 136.042 3.079922 0.357971
5557.13 5557.13 3.110000 2336.27 136.842 3.131644 0.365712
5561.89 5561.89 3.130000 2342.52 138.165 3.196489 0.374727
5566.66 5566.66 3.140000 2350.55 139.018 3.250641 0.383280
5571.46 5571.46 3.150000 2356.12 140.024 3.308767 0.391787
5576.27 5576.27 3.160000 2364 141.054 3.368435 0.400549
5581.1 5581.1 3.180000 2370.25 142.393 3.437095 0.411064
5585.95 5585.95 3.190000 2378.98 143.533 3.502124 0.420600
5590.82 5590.82 3.200000 2387.39 144.453 3.561977 0.429831
5595.71 5595.71 3.210000 2392.24 145.359 3.623026 0.439267
5600.62 5600.62 3.230000 2402.86 146.762 3.697861 0.449970
5605.54 5605.54 3.240000 2411.56 147.631 3.759605 0.459687
5610.49 5610.49 3.250000 2419.03 148.443 3.820205 0.468927
5615.45 5615.45 3.260000 2429.92 149.334 3.885007 0.479566
5620.44 5620.44 3.280000 2437.96 150.476 3.956864 0.491051
5625.44 5625.44 3.290000 2441.82 150.696 4.006100 0.499866
5630.46 5630.46 3.300000 2451.4 150.874 4.054930 0.508710
5635.5 5635.5 3.310000 2458.52 151.87 4.125918 0.519788
5640.56 5640.56 3.330000 2466.89 153.22 4.207684 0.533086
5645.64 5645.64 3.340000 2468.75 153.67 4.267128 0.543392
5650.74 5650.74 3.350000 2479.39 154.302 4.331669 0.554571
5655.86 5655.86 3.360000 2490.41 154.93 4.395739 0.565275
5660.99 5660.99 3.380000 2500.34 156.353 4.483630 0.579321
5666.15 5666.15 3.390000 2501.97 157.209 4.557464 0.592550
5671.32 5671.32 3.400000 2509.13 158.264 4.635770 0.604900
5676.52 5676.52 3.410000 2520.93 159.174 4.711414 0.617544
5681.73 5681.73 3.430000 2526.3 160.538 4.802055 0.632489
5686.96 5686.96 3.440000 2535.06 161.344 4.874371 0.645666
5692.21 5692.21 3.450000 2550.2 162.12 4.947595 0.658635
5697.48 5697.48 3.460000 2558.8 162.651 5.009248 0.670208
5702.77 5702.77 3.480000 2567.21 163.95 5.089717 0.684491
5708.08 5708.08 3.490000 2583.71 164.526 5.133748 0.694243