File: xdidata/Ti/Ti-K-Rutile.xdi
# XDI/1.0 BlueSky/1.5.0
# Beamline.name: 6BM
# Beamline.xray_source: NSLS-II three-pole wiggler
# Beamline.collimation: paraboloid mirror, 5 nm Rh on 30 nm Pt
# Beamline.focusing: not in use
# Beamline.harmonic_rejection: flat mirror, Si stripe, pitch = 7.0 mrad relative to beam
# Detector.i0: 10 cm N2
# Detector.i1: 25 cm N2
# Detector.i2: 25 cm N2
# Element.symbol: Ti
# Element.edge: K
# Facility.name: NSLS-II
# Facility.energy: 3.0
# Facility.current: 220.0
# Facility.mode: top-off
# Facility.gup: 301027
# Facility.saf: 304156
# Mono.name: Si(111)
# Mono.d_spacing: 3.13526
# Mono.encoder_resolution: 0.0000050 deg/ct
# Mono.angle_offset: 16.0571 deg
# Mono.scan_mode: pseudo channel cut
# Mono.scan_type: step
# Mono.direction: forward in energy
# Sample.name: TiO2 rutile
# Sample.prep: Powder in polyethylene glycol pellet
# Sample.x_position: -97.532 mm
# Sample.y_position: 117.543 mm
# Sample.wheel_position: -435.000 mm
# Scan.experimenters: Bruce Ravel, Martin Stennett
# Scan.edge_energy: 4966.0
# Scan.start_time: 2019-05-29T19:44:03
# Scan.end_time: 2019-05-29T20:27:44
# Scan.transient_id: 9755
# Scan.uid: a441e553-4511-4c6f-a87d-f75b7327d180
# Scan.plot_hint: ln(I0/It)  --  ln($5/$6)
# Scan.sequence: merge of 3 scans
# Column.1: energy eV
# Column.2: requested_energy eV
# Column.3: measurement_time seconds
# Column.4: mutrans
# Column.5: i0
# Column.6: itrans
# Column.7: irefer
# /////
#  sample disk prepared by Martin
# -----
# energy   requested_energy   measurement_time   mutrans   i0   itrans   irefer
4765.98 4766 0.500000 3.821011 10.8308 0.237257 0.019936
4776.01 4776 0.500000 3.792224 11.0546 0.249230 0.020771
4786.01 4786 0.500000 3.763010 11.3051 0.262434 0.022477
4796.01 4796 0.500000 3.735676 11.5555 0.275682 0.023588
4806.01 4806 0.500000 3.708448 11.8128 0.289599 0.025074
4816.01 4816 0.500000 3.681680 12.0615 0.303716 0.026460
4826.01 4826 0.500000 3.653840 12.3071 0.318651 0.028177
4836.01 4836 0.500000 3.626753 12.5565 0.334034 0.029758
4846 4846 0.500000 3.599852 12.8089 0.350030 0.031624
4856.02 4856 0.500000 3.573838 13.0596 0.366298 0.033490
4866.01 4866 0.500000 3.547293 13.3028 0.383158 0.035458
4876.01 4876 0.500000 3.521239 13.5456 0.400451 0.037700
4886.01 4886 0.500000 3.495573 13.783 0.418059 0.039633
4896.01 4896 0.500000 3.470059 14.0214 0.436279 0.041706
4906 4906 0.500000 3.445330 14.2665 0.455019 0.043803
4916 4916 0.500000 3.420315 14.5056 0.474364 0.046549
4926 4926 0.500000 3.395419 14.7407 0.494204 0.048949
4936 4936 0.500000 3.371507 14.9701 0.514044 0.051463
4938 4938 0.500000 3.367342 15.011 0.517598 0.051950
4940 4940 0.500000 3.361965 15.054 0.521881 0.052698
4942.01 4942 0.500000 3.358073 15.0962 0.525393 0.053156
4944.01 4944 0.500000 3.352566 15.1367 0.529703 0.053451
4946.01 4946 0.500000 3.348716 15.1771 0.533167 0.053885
4948 4948 0.500000 3.343784 15.2102 0.536963 0.054559
4950.01 4950 0.500000 3.338909 15.2504 0.541020 0.054985
4952.01 4952 0.500000 3.335013 15.2878 0.544463 0.055488
4954.01 4954 0.500000 3.330709 15.3245 0.548124 0.055983
4956.01 4956 0.500000 3.327290 15.3959 0.552561 0.056241
4956.24 4956.25 0.500000 3.326894 15.3993 0.552902 0.056571
4956.49 4956.5 0.500000 3.326117 15.4019 0.553422 0.056569
4956.74 4956.75 0.500000 3.325870 15.4059 0.553707 0.056397
4956.99 4957 0.500000 3.325862 15.4087 0.553811 0.056470
4957.24 4957.25 0.500000 3.325038 15.4127 0.554413 0.056724
4957.49 4957.5 0.500000 3.324342 15.4151 0.554882 0.056861
4957.74 4957.75 0.500000 3.324187 15.4192 0.555118 0.056462
4958 4958 0.500000 3.323726 15.4228 0.555503 0.056737
4958.24 4958.25 0.500000 3.323411 15.4263 0.555803 0.056835
4958.5 4958.5 0.500000 3.322717 15.4615 0.557458 0.056811
4958.74 4958.75 0.500000 3.322228 15.4664 0.557907 0.057035
4958.99 4959 0.500000 3.322033 15.4689 0.558106 0.057018
4959.24 4959.25 0.500000 3.321550 15.4731 0.558524 0.056862
4959.5 4959.5 0.500000 3.320803 15.4782 0.559132 0.057058
4959.74 4959.75 0.500000 3.320431 15.4817 0.559466 0.057171
4960 4960 0.500000 3.319882 15.5208 0.561189 0.057218
4960.25 4960.25 0.500000 3.320075 15.5257 0.561260 0.057199
4960.5 4960.5 0.500000 3.319644 15.5298 0.561646 0.057189
4960.75 4960.75 0.500000 3.319441 15.5352 0.561955 0.057105
4960.99 4961 0.500000 3.319774 15.54 0.561941 0.056930
4961.24 4961.25 0.500000 3.318656 15.5448 0.562740 0.057025
4961.5 4961.5 0.500000 3.318494 15.5506 0.563047 0.057010
4961.75 4961.75 0.500000 3.318209 15.5537 0.563322 0.057220
4962 4962 0.500000 3.318094 15.5595 0.563591 0.056959
4962.25 4962.25 0.500000 3.318081 15.5636 0.563751 0.056818
4962.5 4962.5 0.500000 3.317322 15.5695 0.564388 0.056770
4962.75 4962.75 0.500000 3.317034 15.5751 0.564757 0.056880
4963 4963 0.500000 3.317428 15.5785 0.564660 0.056264
4963.25 4963.25 0.500000 3.317458 15.5841 0.564842 0.055793
4963.5 4963.5 0.500000 3.317054 15.5897 0.565274 0.055764
4963.75 4963.75 0.500000 3.317459 15.5956 0.565259 0.055131
4964 4964 0.500000 3.317253 15.5988 0.565492 0.053826
4964.25 4964.25 0.500000 3.317246 15.6044 0.565696 0.052239
4964.5 4964.5 0.500000 3.317671 15.6088 0.565617 0.049455
4964.75 4964.75 0.500000 3.317988 15.6133 0.565600 0.045807
4965 4965 0.500000 3.318277 15.6161 0.565541 0.042382
4965.25 4965.25 0.500000 3.319102 15.6222 0.565295 0.039959
4965.5 4965.5 0.500000 3.319984 15.6257 0.564917 0.038902
4965.75 4965.75 0.500000 3.321740 15.6302 0.564093 0.039405
4966 4966 0.500000 3.324147 15.635 0.562893 0.040334
4966.25 4966.25 0.500000 3.328723 15.6377 0.560412 0.041789
4966.5 4966.5 0.500000 3.335272 15.6426 0.556951 0.042778
4966.75 4966.75 0.500000 3.346299 15.6455 0.550962 0.043290
4967 4967 0.500000 3.360092 15.6489 0.543588 0.043007
4967.25 4967.25 0.500000 3.370284 15.6515 0.538111 0.042681
4967.5 4967.5 0.500000 3.369790 15.6581 0.538601 0.042733
4967.75 4967.75 0.500000 3.364075 15.6624 0.541825 0.042212
4968 4968 0.500000 3.361388 15.6689 0.543461 0.041905
4968.25 4968.25 0.500000 3.368423 15.6755 0.539868 0.040727
4968.5 4968.5 0.500000 3.387034 15.6804 0.530117 0.039496
4968.75 4968.75 0.500000 3.415035 15.6838 0.515651 0.037896
4968.99 4969 0.500000 3.449194 15.6867 0.498710 0.036066
4969.25 4969.25 0.500000 3.483183 15.686 0.481696 0.034755
4969.5 4969.5 0.500000 3.512015 15.6878 0.468047 0.033286
4969.75 4969.75 0.500000 3.533965 15.6891 0.457947 0.032456
4970 4970 0.500000 3.545889 15.695 0.452692 0.032121
4970.25 4970.25 0.500000 3.545592 15.7045 0.453099 0.031775
4970.5 4970.5 0.500000 3.533246 15.7172 0.459139 0.032150
4970.75 4970.75 0.500000 3.511114 15.7288 0.469639 0.032956
4971 4971 0.500000 3.486500 15.7377 0.481542 0.033197
4971.25 4971.25 0.500000 3.465547 15.747 0.492188 0.033504
4971.5 4971.5 0.500000 3.453635 15.7532 0.498279 0.033540
4971.75 4971.75 0.500000 3.452641 15.7599 0.498937 0.033152
4972 4972 0.500000 3.465243 15.7649 0.492871 0.032020
4972.25 4972.25 0.500000 3.484921 15.77 0.483434 0.031192
4972.5 4972.5 0.500000 3.504626 15.7749 0.474173 0.029700
4972.75 4972.75 0.500000 3.517262 15.7789 0.468383 0.028870
4973 4973 0.500000 3.520143 15.7852 0.467173 0.028182
4973.25 4973.25 0.500000 3.516591 15.7869 0.468866 0.027842
4973.5 4973.5 0.500000 3.506984 15.7918 0.473615 0.027497
4973.75 4973.75 0.500000 3.494886 15.7941 0.479452 0.027211
4974 4974 0.500000 3.481619 15.7977 0.485903 0.026875
4974.25 4974.25 0.500000 3.470621 15.7992 0.491298 0.026627
4974.5 4974.5 0.500000 3.462103 15.803 0.495616 0.026239
4974.75 4974.75 0.500000 3.455741 15.8045 0.498842 0.026206
4975 4975 0.500000 3.455205 15.8048 0.499128 0.025649
4975.25 4975.25 0.500000 3.460168 15.8062 0.496696 0.025089
4975.5 4975.5 0.500000 3.469329 15.8043 0.492104 0.024726
4975.75 4975.75 0.500000 3.484677 15.8059 0.484585 0.023713
4976 4976 0.500000 3.506321 15.8056 0.474308 0.022819
4976.25 4976.25 0.500000 3.531843 15.8068 0.462346 0.021903
4976.5 4976.5 0.500000 3.562605 15.8093 0.448599 0.021126
4976.75 4976.75 0.500000 3.599279 15.8095 0.432312 0.020350
4977 4977 0.500000 3.641972 15.8127 0.414453 0.018882
4977.25 4977.25 0.500000 3.689255 15.8151 0.395155 0.018338
4977.5 4977.5 0.500000 3.741248 15.8187 0.375236 0.017131
4977.75 4977.75 0.500000 3.800945 15.82 0.353427 0.016191
4978 4978 0.500000 3.866568 15.8262 0.331369 0.015135
4978.25 4978.25 0.500000 3.935216 15.8278 0.309304 0.014052
4978.5 4978.5 0.500000 4.000130 15.8316 0.290038 0.013225
4978.75 4978.75 0.500000 4.060849 15.8338 0.272933 0.012557
4979 4979 0.500000 4.107651 15.8339 0.260420 0.011863
4979.25 4979.25 0.500000 4.134673 15.8341 0.253473 0.011833
4979.5 4979.5 0.500000 4.145806 15.832 0.250627 0.011613
4979.75 4979.75 0.500000 4.150135 15.8306 0.249522 0.011701
4980 4980 0.500000 4.156381 15.8266 0.247913 0.011514
4980.25 4980.25 0.500000 4.170645 15.8253 0.244403 0.011400
4980.5 4980.5 0.500000 4.193561 15.8203 0.238806 0.011192
4980.75 4980.75 0.500000 4.225951 15.8196 0.231158 0.010825
4981 4981 0.500000 4.265322 15.8178 0.222186 0.010212
4981.25 4981.25 0.500000 4.308673 15.8174 0.212744 0.010048
4981.5 4981.5 0.500000 4.353139 15.8182 0.203489 0.009364
4981.75 4981.75 0.500000 4.397836 15.8211 0.194663 0.009145
4982 4982 0.500000 4.442334 15.8236 0.186312 0.009027
4982.25 4982.25 0.500000 4.486712 15.8272 0.178189 0.008625
4982.5 4982.5 0.500000 4.531039 15.83 0.170494 0.008210
4982.75 4982.75 0.500000 4.579140 15.8326 0.162468 0.008037
4983 4983 0.500000 4.638505 15.8338 0.153037 0.007454
4983.25 4983.25 0.500000 4.708540 15.8317 0.142684 0.007272
4983.51 4983.5 0.500000 4.789399 15.8329 0.131570 0.006767
4983.75 4983.75 0.500000 4.881101 15.8302 0.120178 0.006260
4984 4984 0.500000 4.979966 15.8276 0.108894 0.006007
4984.25 4984.25 0.500000 5.077793 15.8275 0.098736 0.005817
4984.5 4984.5 0.500000 5.164014 15.8382 0.090553 0.005529
4984.75 4984.75 0.500000 5.239773 15.8645 0.084109 0.005267
4985 4985 0.500000 5.293182 15.866 0.079730 0.005086
4985.25 4985.25 0.500000 5.327062 15.8673 0.077089 0.005040
4985.5 4985.5 0.500000 5.334146 15.8701 0.076559 0.004965
4985.75 4985.75 0.500000 5.325741 15.8707 0.077201 0.005127
4986 4986 0.500000 5.305793 15.8708 0.078754 0.005022
4986.25 4986.25 0.500000 5.280244 15.8681 0.080785 0.005149
4986.5 4986.5 0.500000 5.259943 15.8685 0.082455 0.005170
4986.75 4986.75 0.500000 5.240644 15.8655 0.084042 0.005468
4987 4987 0.500000 5.232464 15.8626 0.084712 0.005174
4987.25 4987.25 0.500000 5.229353 15.8584 0.084950 0.005602
4987.5 4987.5 0.500000 5.237391 15.8663 0.084318 0.005133
4987.75 4987.75 0.500000 5.247414 15.8649 0.083469 0.005418
4988 4988 0.500000 5.259123 15.8849 0.082609 0.005633
4988.25 4988.25 0.500000 5.284148 15.9014 0.080640 0.005211
4988.5 4988.5 0.500000 5.302202 15.913 0.079269 0.005466
4988.75 4988.75 0.500000 5.333377 15.925 0.076876 0.005232
4989 4989 0.500000 5.361224 15.9765 0.075005 0.005289
4989.25 4989.25 0.500000 5.392133 15.9894 0.072786 0.004905
4989.5 4989.5 0.500000 5.416156 16.0007 0.071118 0.004975
4989.75 4989.75 0.500000 5.440784 16.0134 0.069452 0.004736
4990 4990 0.500000 5.464778 16.025 0.067836 0.004660
4990.25 4990.25 0.500000 5.478643 16.042 0.066983 0.004889
4990.5 4990.5 0.500000 5.486710 16.053 0.066483 0.004597
4990.75 4990.75 0.500000 5.486422 16.0612 0.066537 0.004644
4991 4991 0.500000 5.476366 16.0754 0.067277 0.004658
4991.25 4991.25 0.500000 5.456875 16.0849 0.068627 0.004927
4991.5 4991.5 0.500000 5.437087 16.0943 0.070032 0.004905
4991.75 4991.75 0.500000 5.410279 16.1042 0.072000 0.004846
4992 4992 0.500000 5.385074 16.1132 0.073852 0.004836
4992.25 4992.25 0.500000 5.357341 16.1214 0.075985 0.005080
4992.5 4992.5 0.500000 5.329099 16.1279 0.078196 0.005252
4992.75 4992.75 0.500000 5.303708 16.1328 0.080253 0.005117
4993 4993 0.500000 5.275521 16.1387 0.082538 0.005283
4993.25 4993.25 0.500000 5.244258 16.1445 0.085203 0.005564
4993.5 4993.5 0.500000 5.214780 16.1491 0.087757 0.005491
4993.75 4993.75 0.500000 5.186235 16.1546 0.090326 0.005730
4994 4994 0.500000 5.153915 16.1591 0.093359 0.005621
4994.25 4994.25 0.500000 5.123206 16.1636 0.096293 0.005871
4994.5 4994.5 0.500000 5.091940 16.1674 0.099387 0.006024
4994.75 4994.75 0.500000 5.061582 16.1742 0.102482 0.006110
4995 4995 0.500000 5.035476 16.1761 0.105195 0.006185
4995.25 4995.25 0.500000 5.013072 16.1795 0.107595 0.006156
4995.5 4995.5 0.500000 4.997560 16.1833 0.109295 0.006372
4995.75 4995.75 0.500000 4.985851 16.1868 0.110612 0.006218
4996 4996 0.700000 4.982125 22.6667 0.155482 0.008876
4997.09 4997.08 0.710000 5.012999 23.0028 0.152986 0.008381
4998.19 4998.18 0.730000 5.061958 23.6485 0.149762 0.008685
4999.29 4999.29 0.740000 5.120391 23.9875 0.143310 0.008168
5000.44 5000.43 0.750000 5.187434 24.35 0.136015 0.008041
5001.59 5001.58 0.760000 5.266894 24.7251 0.127565 0.007859
5002.77 5002.76 0.780000 5.321340 25.4287 0.124258 0.007655
5003.96 5003.95 0.790000 5.287048 25.812 0.130545 0.008104
5005.17 5005.16 0.800000 5.194661 26.2011 0.145334 0.008573
5006.4 5006.39 0.810000 5.078716 26.6002 0.165649 0.009980
5007.65 5007.64 0.830000 4.973612 27.3185 0.189016 0.010777
5008.92 5008.91 0.840000 4.885182 27.706 0.209420 0.011828
5010.2 5010.2 0.850000 4.783047 28.0945 0.235129 0.013055
5011.52 5011.51 0.860000 4.692840 28.4849 0.260943 0.014192
5012.84 5012.83 0.880000 4.642400 29.2 0.281332 0.015279
5014.19 5014.18 0.890000 4.636112 29.5801 0.286786 0.015486
5015.55 5015.54 0.900000 4.657343 29.9592 0.284365 0.015645
5016.94 5016.93 0.910000 4.682666 30.349 0.280855 0.015725
5018.34 5018.33 0.930000 4.698584 31.076 0.283052 0.016079
5019.76 5019.75 0.940000 4.685849 31.4702 0.290317 0.016597
5021.19 5021.19 0.950000 4.649014 31.8642 0.304966 0.017182
5022.66 5022.65 0.960000 4.602199 32.2621 0.323574 0.017827
5024.14 5024.13 0.980000 4.559848 32.9972 0.345273 0.019119
5025.63 5025.63 0.990000 4.530990 33.3958 0.359663 0.019736
5027.15 5027.14 1.000000 4.518832 33.7947 0.368421 0.020259
5028.68 5028.68 1.010000 4.526310 34.197 0.370034 0.020024
5030.25 5030.24 1.030000 4.543392 34.9384 0.371650 0.020216
5031.82 5031.81 1.040000 4.562804 35.3421 0.368700 0.019807
5033.41 5033.4 1.050000 4.578065 35.7372 0.367188 0.019285
5035.02 5035.01 1.060000 4.589103 36.1366 0.367221 0.019020
5036.65 5036.65 1.080000 4.606563 36.8819 0.368308 0.019051
5038.3 5038.3 1.090000 4.647087 37.2913 0.357632 0.018359
5039.97 5039.97 1.100000 4.708313 37.6979 0.340025 0.017796
5041.65 5041.65 1.110000 4.764787 38.1083 0.324859 0.017291
5043.36 5043.36 1.130000 4.796867 38.8547 0.320767 0.017012
5045.09 5045.09 1.140000 4.799711 39.262 0.323211 0.017748
5046.83 5046.83 1.150000 4.788613 39.6765 0.330275 0.018359
5048.6 5048.6 1.160000 4.769308 40.0913 0.340223 0.019164
5050.38 5050.38 1.180000 4.747628 40.8532 0.354290 0.020049
5052.18 5052.18 1.190000 4.730911 41.2647 0.363888 0.021048
5054 5054 1.200000 4.721642 41.6948 0.371111 0.021629
5055.84 5055.84 1.210000 4.712218 42.119 0.378438 0.022089
5057.7 5057.7 1.230000 4.700280 42.8995 0.390075 0.022916
5059.58 5059.58 1.240000 4.693926 43.3373 0.396567 0.023232
5061.48 5061.48 1.250000 4.692032 43.7711 0.401295 0.023494
5063.4 5063.4 1.260000 4.691658 44.2021 0.405398 0.023960
5065.33 5065.33 1.280000 4.693040 45.078 0.412859 0.024134
5067.29 5067.29 1.290000 4.693840 45.5254 0.416634 0.024949
5069.26 5069.26 1.300000 4.684748 45.9664 0.424518 0.025415
5071.26 5071.26 1.310000 4.658297 46.4076 0.440079 0.026365
5073.27 5073.27 1.330000 4.625289 47.2837 0.463431 0.027566
5075.3 5075.3 1.340000 4.599728 47.7732 0.480341 0.028418
5077.35 5077.35 1.350000 4.595459 48.2598 0.487298 0.028513
5079.42 5079.42 1.360000 4.608814 48.7905 0.486126 0.028043
5081.51 5081.51 1.380000 4.623459 49.614 0.487149 0.027859
5083.61 5083.61 1.390000 4.625877 50.0755 0.490505 0.027359
5085.74 5085.74 1.400000 4.610977 50.5368 0.502445 0.028081
5087.89 5087.89 1.410000 4.585721 50.9998 0.520023 0.028825
5090.05 5090.05 1.430000 4.559186 51.8314 0.542709 0.029645
5092.23 5092.23 1.440000 4.534254 52.3047 0.561482 0.030352
5094.44 5094.44 1.450000 4.506817 52.7836 0.582378 0.031537
5096.66 5096.66 1.460000 4.474624 53.2446 0.606673 0.033407
5098.9 5098.9 1.480000 4.445426 54.0747 0.634376 0.035638
5101.16 5101.16 1.490000 4.423109 54.542 0.654306 0.037500
5103.44 5103.44 1.500000 4.412587 55.0228 0.667076 0.039111
5105.74 5105.74 1.510000 4.410692 55.4903 0.674026 0.039844
5108.05 5108.05 1.530000 4.408325 56.3283 0.685828 0.040542
5110.39 5110.39 1.540000 4.402108 56.8109 0.696022 0.041455
5112.74 5112.74 1.550000 4.395900 57.2951 0.706321 0.042043
5115.12 5115.12 1.560000 4.393624 57.7781 0.713895 0.042240
5117.51 5117.51 1.580000 4.402668 58.6499 0.718149 0.042974
5119.92 5119.92 1.590000 4.418713 59.1492 0.712733 0.043103
5122.35 5122.35 1.600000 4.433221 59.654 0.708468 0.042883
5124.8 5124.8 1.610000 4.441631 60.1698 0.708604 0.043125
5127.27 5127.27 1.630000 4.442998 61.0648 0.718162 0.044034
5129.76 5129.76 1.640000 4.440147 61.5983 0.726505 0.044966
5132.27 5132.27 1.650000 4.431208 62.1271 0.739315 0.045360
5134.79 5134.79 1.660000 4.419159 62.6541 0.754618 0.046314
5137.34 5137.34 1.680000 4.407579 63.5727 0.774608 0.047178
5139.9 5139.9 1.690000 4.401599 64.1141 0.785893 0.048008
5142.49 5142.49 1.700000 4.401649 64.6512 0.792437 0.047767
5145.09 5145.09 1.710000 4.401911 65.1904 0.798838 0.047984
5147.71 5147.71 1.730000 4.396171 66.1132 0.814804 0.048632
5150.35 5150.35 1.740000 4.383869 66.6683 0.831819 0.049569
5153.01 5153.01 1.750000 4.366677 67.2217 0.853275 0.051101
5155.69 5155.69 1.760000 4.349627 67.7827 0.875192 0.052676
5158.39 5158.39 1.780000 4.333679 68.722 0.901566 0.054785
5161.11 5161.11 1.790000 4.318205 69.2703 0.922936 0.056591
5163.84 5163.84 1.800000 4.303150 69.8386 0.944629 0.058455
5166.6 5166.6 1.810000 4.291040 70.4061 0.963908 0.059722
5169.37 5169.37 1.830000 4.283937 71.3545 0.983852 0.061471
5172.17 5172.17 1.840000 4.278870 71.9247 0.996758 0.062769
5174.98 5174.98 1.850000 4.273188 72.4733 1.010087 0.064432
5177.81 5177.81 1.860000 4.265034 73.0334 1.026218 0.065384
5180.66 5180.66 1.880000 4.256081 73.9925 1.049050 0.067722
5183.53 5183.53 1.890000 4.247663 74.5913 1.066479 0.068968
5186.42 5186.42 1.900000 4.236915 75.1683 1.086337 0.070752
5189.32 5189.32 1.910000 4.224206 75.7526 1.108780 0.071722
5192.25 5192.25 1.930000 4.209647 76.7185 1.139399 0.074097
5195.2 5195.2 1.940000 4.196697 77.287 1.162792 0.075836
5198.16 5198.16 1.950000 4.186393 77.8129 1.182830 0.077062
5201.14 5201.14 1.960000 4.178196 78.4926 1.202992 0.078282
5204.15 5204.15 1.980000 4.170395 79.6112 1.229684 0.080104
5207.17 5207.17 1.990000 4.161586 80.2587 1.250654 0.081210
5210.21 5210.21 2.000000 4.151168 80.8787 1.273523 0.082690
5213.27 5213.27 2.010000 4.140208 81.5315 1.297942 0.084651
5216.35 5216.35 2.030000 4.130654 82.6621 1.328576 0.086564
5219.45 5219.45 2.040000 4.121813 83.2691 1.350218 0.088442
5222.56 5222.56 2.050000 4.115942 83.8874 1.368253 0.090133
5225.7 5225.7 2.060000 4.112389 84.4846 1.382895 0.091708
5228.85 5228.85 2.080000 4.109201 85.4914 1.403847 0.093160
5232.03 5232.03 2.090000 4.103909 86.1008 1.421354 0.095032
5235.22 5235.22 2.100000 4.097308 86.7361 1.441324 0.097120
5238.43 5238.43 2.110000 4.090100 87.3818 1.462566 0.099335
5241.66 5241.66 2.130000 4.080966 88.4137 1.493407 0.101597
5244.92 5244.92 2.140000 4.071464 89.0096 1.517826 0.103754
5248.18 5248.18 2.150000 4.062162 89.1476 1.534392 0.106114
5251.47 5251.47 2.160000 4.054321 89.9233 1.559916 0.108612
5254.78 5254.78 2.180000 4.045269 91.3689 1.599413 0.111716
5258.11 5258.11 2.190000 4.034628 92.177 1.630814 0.114681
5261.45 5261.45 2.200000 4.024481 92.8619 1.659702 0.117417
5264.82 5264.82 2.210000 4.013854 93.6168 1.691055 0.119479
5268.2 5268.2 2.230000 4.003482 94.8063 1.730405 0.123044
5271.6 5271.6 2.240000 3.993549 95.5375 1.761150 0.125292
5275.03 5275.03 2.250000 3.983361 96.3945 1.795155 0.127804
5278.47 5278.47 2.260000 3.975172 96.0265 1.803006 0.128967
5281.93 5281.93 2.280000 3.967585 98.1577 1.857050 0.132586
5285.4 5285.4 2.290000 3.959448 99.0172 1.888624 0.135354
5288.9 5288.9 2.300000 3.950578 99.8073 1.920645 0.138290
5292.42 5292.42 2.310000 3.942173 100.568 1.951621 0.141022
5295.96 5295.96 2.330000 3.934800 101.786 1.989868 0.144556
5299.51 5299.51 2.340000 3.927961 102.426 2.016130 0.147694
5303.09 5303.09 2.350000 3.920278 103.178 2.046591 0.150405
5306.68 5306.68 2.360000 3.910421 104.02 2.083750 0.153844
5310.29 5310.29 2.380000 3.899573 105.257 2.131518 0.157293
5313.92 5313.92 2.390000 3.887633 106.043 2.173222 0.161846
5317.57 5317.57 2.400000 3.876073 106.781 2.213785 0.165416
5321.24 5321.24 2.410000 3.865036 107.366 2.250628 0.168874
5324.93 5324.93 2.430000 3.852850 108.428 2.300764 0.173363
5328.64 5328.64 2.440000 3.840259 109.219 2.346906 0.178144
5332.36 5332.36 2.450000 3.828527 109.985 2.391265 0.182368
5336.11 5336.11 2.460000 3.817275 110.743 2.434983 0.186350
5339.87 5339.87 2.480000 3.807172 111.915 2.485736 0.191725
5343.66 5343.66 2.490000 3.797228 112.609 2.526133 0.196135
5347.46 5347.46 2.500000 3.788430 113.139 2.560471 0.199734
5351.28 5351.28 2.510000 3.780353 113.812 2.596580 0.203660
5355.12 5355.12 2.530000 3.772431 114.901 2.642269 0.208006
5358.98 5358.98 2.540000 3.765313 116.357 2.694881 0.212871
5362.86 5362.86 2.550000 3.759330 117.074 2.727738 0.216286
5366.76 5366.76 2.560000 3.752721 117.588 2.757883 0.219363
5370.68 5370.68 2.580000 3.744904 118.5 2.801099 0.223758
5374.61 5374.61 2.590000 3.736277 118.955 2.836223 0.227363
5378.57 5378.57 2.600000 3.727471 119.445 2.873076 0.231175
5382.54 5382.54 2.610000 3.718084 119.923 2.911793 0.235760
5386.54 5386.54 2.630000 3.709020 120.9 2.962239 0.240715
5390.55 5390.55 2.640000 3.699160 121.261 3.000526 0.245153
5394.58 5394.58 2.650000 3.688967 121.78 3.044225 0.250435
5398.63 5398.63 2.660000 3.678821 121.888 3.078014 0.254758
5402.7 5402.7 2.680000 3.667952 122.823 3.135504 0.260345
5406.79 5406.79 2.690000 3.657124 122.937 3.172599 0.264941
5410.9 5410.9 2.700000 3.646563 123.113 3.210855 0.269670
5415.02 5415.02 2.710000 3.635620 123.463 3.255424 0.274904
5419.17 5419.17 2.730000 3.624584 123.745 3.299061 0.280643
5423.33 5423.33 2.740000 3.613952 124.24 3.347658 0.285904
5427.52 5427.52 2.750000 3.603819 124.501 3.388873 0.290937
5431.72 5431.72 2.760000 3.593774 124.687 3.428184 0.295803
5435.94 5435.94 2.780000 3.583917 125.381 3.481438 0.302473
5440.18 5440.18 2.790000 3.575119 125.599 3.518290 0.307409
5444.44 5444.44 2.800000 3.566676 125.903 3.556699 0.312099
5448.72 5448.72 2.810000 3.558390 126.223 3.595408 0.317486
5453.02 5453.02 2.830000 3.549330 126.989 3.650156 0.323913
5457.34 5457.34 2.840000 3.540564 127.378 3.693568 0.329354
5461.67 5461.67 2.850000 3.531983 127.753 3.736377 0.334612
5466.03 5466.03 2.860000 3.522277 128.177 3.785314 0.340826
5470.4 5470.4 2.880000 3.512008 129.1 3.851952 0.348699
5474.8 5474.8 2.890000 3.501701 129.543 3.905199 0.354970
5479.21 5479.21 2.900000 3.490907 130.403 3.973790 0.362767
5483.64 5483.64 2.910000 3.480273 131.067 4.036724 0.370751
5488.09 5488.09 2.930000 3.470042 132.388 4.119340 0.380067
5492.56 5492.56 2.940000 3.460015 132.961 4.178874 0.387562
5497.05 5497.05 2.950000 3.449282 133.567 4.243257 0.395604
5501.56 5501.56 2.960000 3.439231 134.263 4.308397 0.403699
5506.08 5506.08 2.980000 3.429561 135.373 4.386253 0.413079
5510.63 5510.63 2.990000 3.419611 136.38 4.463070 0.422653
5515.19 5515.19 3.000000 3.410400 137.214 4.531917 0.431630
5519.78 5519.78 3.010000 3.400949 137.967 4.600053 0.440653
5524.38 5524.38 3.030000 3.392289 139.248 4.683131 0.450322
5529 5529 3.040000 3.383646 140.115 4.753191 0.459619
5533.64 5533.64 3.050000 3.374233 140.9 4.825028 0.469446
5538.3 5538.3 3.060000 3.365270 141.746 4.897703 0.478328
5542.98 5542.98 3.080000 3.356073 143.08 4.989482 0.490740
5547.68 5547.68 3.090000 3.346976 143.928 5.064923 0.500665
5552.4 5552.4 3.100000 3.337792 144.778 5.141834 0.510922
5557.13 5557.13 3.110000 3.328628 145.657 5.220677 0.520999
5561.89 5561.89 3.130000 3.318901 147.018 5.320950 0.533759
5566.66 5566.66 3.140000 3.309248 147.884 5.404208 0.545421
5571.46 5571.46 3.150000 3.299347 148.791 5.491477 0.557017
5576.27 5576.27 3.160000 3.289555 149.624 5.576565 0.568426
5581.1 5581.1 3.180000 3.279655 150.996 5.683664 0.582759
5585.95 5585.95 3.190000 3.269694 151.939 5.776432 0.595197
5590.82 5590.82 3.200000 3.259660 152.822 5.868580 0.608006
5595.71 5595.71 3.210000 3.249717 153.61 5.957784 0.620132
5600.62 5600.62 3.230000 3.240164 155.002 6.069490 0.635206
5605.54 5605.54 3.240000 3.230764 155.833 6.159691 0.648074
5610.49 5610.49 3.250000 3.221279 156.651 6.251000 0.660771
5615.45 5615.45 3.260000 3.211749 157.573 6.348003 0.674845
5620.44 5620.44 3.280000 3.202061 158.831 6.460960 0.690676
5625.44 5625.44 3.290000 3.192120 158.961 6.530819 0.702210
5630.46 5630.46 3.300000 3.182421 159.751 6.627295 0.716575
5635.5 5635.5 3.310000 3.172721 160.019 6.703104 0.729398
5640.56 5640.56 3.330000 3.162496 161.841 6.849123 0.748960
5645.64 5645.64 3.340000 3.152167 162.687 6.956380 0.765339
5650.74 5650.74 3.350000 3.142177 163.402 7.057116 0.780680
5655.86 5655.86 3.360000 3.132520 164.225 7.161471 0.796168
5660.99 5660.99 3.380000 3.122519 165.675 7.297303 0.815838
5666.15 5666.15 3.390000 3.112841 166.517 7.405769 0.832602
5671.32 5671.32 3.400000 3.103248 167.832 7.536161 0.851851
5676.52 5676.52 3.410000 3.093530 169.075 7.666135 0.871562
5681.73 5681.73 3.430000 3.083843 170.519 7.806874 0.892268
5686.96 5686.96 3.440000 3.074106 171.421 7.924932 0.910800
5692.21 5692.21 3.450000 3.064392 172.118 8.034837 0.928440
5697.48 5697.48 3.460000 3.054837 172.964 8.151846 0.947364
5702.77 5702.77 3.480000 3.044945 174.207 8.292027 0.968897
5708.08 5708.08 3.490000 3.035329 174.899 8.405433 0.987291