File: xdidata/Ti/Ti-K-CaTiO3.xdi
# XDI/1.0 BlueSky/1.5.0
# Beamline.name: 6BM
# Beamline.xray_source: NSLS-II three-pole wiggler
# Beamline.collimation: paraboloid mirror, 5 nm Rh on 30 nm Pt
# Beamline.focusing: not in use
# Beamline.harmonic_rejection: flat mirror, Si stripe, pitch = 7.0 mrad relative to beam
# Detector.i0: 10 cm N2
# Detector.i1: 25 cm N2
# Detector.i2: 25 cm N2
# Element.symbol: Ti
# Element.edge: K
# Facility.name: NSLS-II
# Facility.energy: 3.0
# Facility.current: 220.1
# Facility.mode: top-off
# Facility.gup: 301027
# Facility.saf: 304156
# Mono.name: Si(111)
# Mono.d_spacing: 3.13526
# Mono.encoder_resolution: 0.0000050 deg/ct
# Mono.angle_offset: 16.0571 deg
# Mono.scan_mode: pseudo channel cut
# Mono.scan_type: step
# Mono.direction: forward in energy
# Sample.name: CaTiO3
# Sample.prep: Powder in polyethylene glycol pellet
# Sample.x_position: -97.532 mm
# Sample.y_position: 117.543 mm
# Sample.wheel_position: -450.000 mm
# Scan.experimenters: Bruce Ravel, Martin Stennett
# Scan.edge_energy: 4966.0
# Scan.start_time: 2019-05-29T20:28:09
# Scan.end_time: 2019-05-29T21:11:16
# Scan.transient_id: 9758
# Scan.uid: 7de68e6b-651d-44d7-99e1-867c63bb4988
# Scan.plot_hint: ln(I0/It)  --  ln($5/$6)
# Scan.sequence: merge of 3 scans
# Column.1: energy eV
# Column.2: requested_energy eV
# Column.3: measurement_time seconds
# Column.4: mutrans
# Column.5: i0
# Column.6: itrans
# Column.7: irefer
# /////
#  sample disk prepared by Martin
# -----
# energy   requested_energy   measurement_time   mutrans   i0   itrans   irefer
4765.98 4766 0.500000 3.533481 10.9025 0.318387 0.025723
4776.01 4776 0.500000 3.507472 11.1448 0.334036 0.027353
4786.01 4786 0.500000 3.483155 11.3905 0.349806 0.029094
4796.01 4796 0.500000 3.457477 11.64 0.366766 0.030774
4806.01 4806 0.500000 3.433058 11.8934 0.384014 0.032535
4816.01 4816 0.500000 3.408594 12.142 0.401752 0.034513
4826.01 4826 0.500000 3.384898 12.386 0.419652 0.036302
4836.01 4836 0.500000 3.360821 12.6337 0.438477 0.038305
4846 4846 0.500000 3.336449 12.8848 0.458217 0.040703
4856.01 4856 0.500000 3.312807 13.1304 0.478127 0.043187
4866.01 4866 0.500000 3.289298 13.3698 0.498430 0.045519
4876.01 4876 0.500000 3.266898 13.6088 0.518829 0.047935
4886.01 4886 0.500000 3.243968 13.8426 0.539986 0.050331
4896.01 4896 0.500000 3.220767 14.0791 0.562103 0.053109
4906 4906 0.500000 3.198519 14.3164 0.584433 0.055928
4916 4916 0.500000 3.176693 14.5519 0.607157 0.058953
4926 4926 0.500000 3.154613 14.7853 0.630665 0.061980
4936 4936 0.500000 3.133386 15.0103 0.654002 0.065152
4938 4938 0.500000 3.128853 15.053 0.658839 0.065676
4940 4940 0.500000 3.125021 15.0938 0.663163 0.066301
4942.01 4942 0.500000 3.120456 15.1366 0.668096 0.066822
4944.01 4944 0.500000 3.115895 15.1774 0.672953 0.067515
4946.01 4946 0.500000 3.111813 15.2144 0.677360 0.068154
4948.01 4948 0.500000 3.107449 15.2504 0.681920 0.068800
4950.01 4950 0.500000 3.103264 15.2885 0.686490 0.069222
4952 4952 0.500000 3.099264 15.3244 0.690855 0.069709
4954 4954 0.500000 3.095529 15.3585 0.694988 0.070375
4956 4956 0.500000 3.091141 15.3956 0.699725 0.071065
4956.25 4956.25 0.500000 3.091256 15.3988 0.699797 0.071030
4956.49 4956.5 0.500000 3.090564 15.4009 0.700373 0.070925
4956.74 4956.75 0.500000 3.090044 15.4035 0.700857 0.070969
4956.99 4957 0.500000 3.089140 15.4066 0.701631 0.071204
4957.25 4957.25 0.500000 3.088679 15.4105 0.702135 0.071107
4957.49 4957.5 0.500000 3.088486 15.4132 0.702396 0.071299
4957.75 4957.75 0.500000 3.087964 15.4183 0.702993 0.071457
4957.99 4958 0.500000 3.087717 15.4209 0.703286 0.071437
4958.24 4958.25 0.500000 3.087402 15.4253 0.703704 0.071529
4958.5 4958.5 0.500000 3.087046 15.4299 0.704168 0.071378
4958.75 4958.75 0.500000 3.086527 15.4419 0.705079 0.071381
4958.99 4959 0.500000 3.085661 15.4754 0.707223 0.071756
4959.24 4959.25 0.500000 3.085381 15.4799 0.707628 0.071781
4959.5 4959.5 0.500000 3.084208 15.4833 0.708613 0.071811
4959.75 4959.75 0.500000 3.084281 15.5096 0.709764 0.071904
4960 4960 0.500000 3.083825 15.5153 0.710349 0.071829
4960.24 4960.25 0.500000 3.083110 15.5213 0.711131 0.072087
4960.5 4960.5 0.500000 3.082883 15.5251 0.711467 0.072107
4960.74 4960.75 0.500000 3.081957 15.53 0.712349 0.072114
4960.99 4961 0.500000 3.081667 15.5332 0.712703 0.071899
4961.25 4961.25 0.500000 3.081552 15.5357 0.712904 0.071829
4961.5 4961.5 0.500000 3.080816 15.5412 0.713680 0.071930
4961.75 4961.75 0.500000 3.080483 15.5464 0.714155 0.071936
4962 4962 0.500000 3.080425 15.5501 0.714368 0.071787
4962.25 4962.25 0.500000 3.079248 15.5558 0.715471 0.071767
4962.5 4962.5 0.500000 3.079244 15.5595 0.715644 0.071694
4962.74 4962.75 0.500000 3.078926 15.5651 0.716127 0.071333
4962.99 4963 0.500000 3.078406 15.5716 0.716798 0.070996
4963.25 4963.25 0.500000 3.078088 15.575 0.717184 0.070559
4963.5 4963.5 0.500000 3.077575 15.5805 0.717810 0.070221
4963.75 4963.75 0.500000 3.076920 15.5878 0.718614 0.069082
4964 4964 0.500000 3.076665 15.5933 0.719053 0.067642
4964.25 4964.25 0.500000 3.076365 15.5975 0.719459 0.065229
4964.5 4964.5 0.500000 3.076273 15.5993 0.719612 0.061314
4964.75 4964.75 0.500000 3.075415 15.6043 0.720451 0.056611
4965 4965 0.500000 3.075311 15.6272 0.721590 0.052415
4965.25 4965.25 0.500000 3.075312 15.6465 0.722483 0.049991
4965.5 4965.5 0.500000 3.074827 15.65 0.722988 0.049444
4965.75 4965.75 0.500000 3.074830 15.6543 0.723188 0.049881
4966 4966 0.500000 3.075264 15.6585 0.723070 0.052022
4966.25 4966.25 0.500000 3.075773 15.6613 0.722831 0.053713
4966.5 4966.5 0.500000 3.077055 15.665 0.722080 0.055341
4966.75 4966.75 0.500000 3.079424 15.6694 0.720577 0.056258
4967 4967 0.500000 3.082233 15.6715 0.718638 0.056204
4967.25 4967.25 0.500000 3.083333 15.6739 0.717964 0.056361
4967.5 4967.5 0.500000 3.081912 15.6772 0.719140 0.056000
4967.75 4967.75 0.500000 3.080312 15.6858 0.720684 0.055505
4968 4968 0.500000 3.079806 15.6913 0.721301 0.054628
4968.25 4968.25 0.500000 3.081254 15.6972 0.720522 0.053672
4968.5 4968.5 0.500000 3.084739 15.7011 0.718187 0.052663
4968.75 4968.75 0.500000 3.091032 15.704 0.713853 0.051423
4969 4969 0.500000 3.098699 15.7039 0.708405 0.050289
4969.25 4969.25 0.500000 3.105114 15.7056 0.703910 0.049212
4969.5 4969.5 0.500000 3.108055 15.708 0.701956 0.048943
4969.75 4969.75 0.500000 3.107731 15.7087 0.702214 0.048622
4970 4970 0.500000 3.106648 15.714 0.703211 0.048286
4970.25 4970.25 0.500000 3.104873 15.7242 0.704914 0.048242
4970.5 4970.5 0.500000 3.103023 15.7348 0.706677 0.048316
4970.75 4970.75 0.500000 3.100472 15.7485 0.709120 0.048243
4971 4971 0.500000 3.098136 15.7574 0.711181 0.047990
4971.25 4971.25 0.500000 3.096412 15.764 0.712705 0.047394
4971.5 4971.5 0.500000 3.095935 15.7693 0.713280 0.047049
4971.75 4971.75 0.500000 3.098342 15.775 0.711798 0.046111
4972 4972 0.500000 3.103206 15.7797 0.708587 0.045111
4972.25 4972.25 0.500000 3.109279 15.7843 0.704533 0.043917
4972.5 4972.5 0.500000 3.114849 15.7864 0.700695 0.042778
4972.75 4972.75 0.500000 3.117742 15.791 0.698858 0.041583
4973 4973 0.500000 3.119082 15.7936 0.698045 0.040648
4973.25 4973.25 0.500000 3.119240 15.7965 0.698060 0.039864
4973.5 4973.5 0.500000 3.118741 15.8007 0.698593 0.039150
4973.75 4973.75 0.500000 3.117941 15.8045 0.699321 0.038545
4974 4974 0.500000 3.117685 15.8081 0.699656 0.037795
4974.25 4974.25 0.500000 3.117103 15.8089 0.700100 0.037098
4974.5 4974.5 0.500000 3.116800 15.8108 0.700394 0.036434
4974.75 4974.75 0.500000 3.116869 15.8134 0.700464 0.035876
4975 4975 0.500000 3.116048 15.813 0.701022 0.035230
4975.25 4975.25 0.500000 3.115190 15.8135 0.701651 0.034513
4975.5 4975.5 0.500000 3.114380 15.8112 0.702110 0.033862
4975.76 4975.75 0.500000 3.113449 15.8134 0.702863 0.032979
4976 4976 0.500000 3.113237 15.8114 0.702922 0.032347
4976.25 4976.25 0.500000 3.113796 15.81 0.702468 0.032152
4976.5 4976.5 0.500000 3.114983 15.8097 0.701627 0.031683
4976.75 4976.75 0.500000 3.117480 15.8113 0.699931 0.031140
4977 4977 0.500000 3.120903 15.8135 0.697635 0.030506
4977.25 4977.25 0.500000 3.124292 15.8164 0.695389 0.029899
4977.5 4977.5 0.500000 3.128128 15.8201 0.692910 0.029836
4977.75 4977.75 0.500000 3.133701 15.8218 0.689151 0.029365
4978 4978 0.500000 3.140500 15.8243 0.684618 0.029065
4978.25 4978.25 0.500000 3.148302 15.8289 0.679452 0.028603
4978.5 4978.5 0.500000 3.156618 15.8318 0.673968 0.028062
4978.75 4978.75 0.500000 3.165242 15.8321 0.668163 0.027792
4979 4979 0.500000 3.174036 15.8319 0.662301 0.027307
4979.25 4979.25 0.500000 3.182538 15.8303 0.656609 0.026991
4979.5 4979.5 0.500000 3.190793 15.8274 0.651139 0.026918
4979.75 4979.75 0.500000 3.199472 15.8246 0.645395 0.026556
4980 4980 0.500000 3.208147 15.8193 0.639634 0.025933
4980.25 4980.25 0.500000 3.216478 15.8192 0.634287 0.025876
4980.5 4980.5 0.500000 3.226071 15.8161 0.628090 0.025451
4980.75 4980.75 0.500000 3.236306 15.8143 0.621611 0.025174
4981 4981 0.500000 3.248195 15.8114 0.614159 0.024794
4981.25 4981.25 0.500000 3.261799 15.8114 0.605883 0.024361
4981.5 4981.5 0.500000 3.276741 15.8134 0.597009 0.023982
4981.75 4981.75 0.500000 3.295042 15.816 0.586288 0.023420
4982 4982 0.500000 3.316349 15.8176 0.573975 0.023031
4982.25 4982.25 0.500000 3.340622 15.8208 0.560333 0.022204
4982.5 4982.5 0.500000 3.364882 15.8254 0.546876 0.021905
4982.75 4982.75 0.500000 3.390166 15.8273 0.533414 0.021374
4983 4983 0.500000 3.415003 15.8268 0.520250 0.021157
4983.25 4983.25 0.500000 3.437771 15.8275 0.508641 0.020315
4983.5 4983.5 0.500000 3.456485 15.8251 0.499134 0.020127
4983.75 4983.75 0.500000 3.471580 15.8213 0.491614 0.019847
4984 4984 0.500000 3.481809 15.82 0.486488 0.020002
4984.25 4984.25 0.500000 3.487514 15.8213 0.483770 0.019529
4984.5 4984.5 0.500000 3.488176 15.8198 0.483411 0.019702
4984.75 4984.75 0.500000 3.486137 15.8219 0.484455 0.019671
4985 4985 0.500000 3.480924 15.8243 0.487056 0.020387
4985.25 4985.25 0.500000 3.473988 15.8256 0.490468 0.020327
4985.5 4985.5 0.500000 3.466346 15.826 0.494248 0.020362
4985.75 4985.75 0.500000 3.457845 15.8261 0.498459 0.020772
4986 4986 0.500000 3.450139 15.8245 0.502275 0.020730
4986.25 4986.25 0.500000 3.442051 15.8238 0.506373 0.021289
4986.5 4986.5 0.500000 3.436302 15.8238 0.509263 0.021413
4986.75 4986.75 0.500000 3.431233 15.8189 0.511698 0.021505
4987 4987 0.500000 3.429308 15.8173 0.512625 0.021714
4987.25 4987.25 0.500000 3.427064 15.8165 0.513755 0.021371
4987.5 4987.5 0.500000 3.425715 15.8172 0.514465 0.021773
4987.75 4987.75 0.500000 3.424062 15.8166 0.515298 0.021998
4988 4988 0.500000 3.423576 15.8393 0.516291 0.021819
4988.25 4988.25 0.500000 3.423265 15.8621 0.517195 0.021929
4988.5 4988.5 0.500000 3.422732 15.8689 0.517693 0.021804
4988.75 4988.75 0.500000 3.422939 15.915 0.519089 0.021855
4989 4989 0.500000 3.423323 15.9278 0.519311 0.021916
4989.25 4989.25 0.500000 3.423340 15.9393 0.519678 0.022197
4989.5 4989.5 0.500000 3.424547 15.9499 0.519394 0.021912
4989.75 4989.75 0.500000 3.425320 15.9621 0.519393 0.022151
4990 4990 0.500000 3.426291 15.9761 0.519338 0.021920
4990.25 4990.25 0.500000 3.426639 15.9883 0.519557 0.021860
4990.51 4990.5 0.500000 3.425763 15.9988 0.520356 0.022154
4990.75 4990.75 0.500000 3.425313 16.0109 0.520980 0.022401
4991 4991 0.500000 3.423912 16.0226 0.522094 0.022443
4991.25 4991.25 0.500000 3.422864 16.0319 0.522937 0.022278
4991.5 4991.5 0.500000 3.421212 16.0426 0.524150 0.022618
4991.75 4991.75 0.500000 3.420844 16.0528 0.524684 0.022566
4992 4992 0.500000 3.420338 16.0607 0.525208 0.022416
4992.25 4992.25 0.500000 3.419818 16.0684 0.525732 0.022724
4992.5 4992.5 0.500000 3.420186 16.0766 0.525809 0.022778
4992.75 4992.75 0.500000 3.420695 16.0802 0.525658 0.022668
4993 4993 0.500000 3.419811 16.0864 0.526322 0.022727
4993.25 4993.25 0.500000 3.419517 16.0913 0.526639 0.022436
4993.5 4993.5 0.500000 3.418814 16.0954 0.527146 0.022549
4993.75 4993.75 0.500000 3.417042 16.1023 0.528307 0.022723
4994 4994 0.500000 3.415421 16.1086 0.529382 0.022476
4994.25 4994.25 0.500000 3.412933 16.1472 0.531957 0.022952
4994.5 4994.5 0.500000 3.411892 16.1492 0.532585 0.022685
4994.75 4994.75 0.500000 3.410043 16.1537 0.533707 0.022710
4995 4995 0.500000 3.409642 16.156 0.534002 0.022568
4995.25 4995.25 0.500000 3.409588 16.1612 0.534205 0.022769
4995.5 4995.5 0.500000 3.410300 16.1643 0.533926 0.022450
4995.75 4995.75 0.500000 3.412193 16.186 0.533628 0.022446
4996 4996 0.700000 3.414487 22.6357 0.744560 0.030979
4997.09 4997.08 0.710000 3.426331 22.9715 0.746717 0.030387
4998.19 4998.18 0.730000 3.436241 23.618 0.760159 0.030126
4999.3 4999.29 0.740000 3.443895 23.9554 0.765138 0.030104
5000.44 5000.43 0.750000 3.444329 24.3162 0.776324 0.030377
5001.59 5001.58 0.760000 3.434182 24.6843 0.796109 0.031364
5002.77 5002.76 0.780000 3.414506 25.3901 0.835137 0.033019
5003.95 5003.95 0.790000 3.392210 25.7745 0.866872 0.033986
5005.17 5005.16 0.800000 3.372044 26.1654 0.897984 0.036062
5006.4 5006.39 0.810000 3.354469 26.5591 0.927654 0.037834
5007.65 5007.64 0.830000 3.339707 27.2759 0.966843 0.040259
5008.92 5008.91 0.840000 3.327497 27.6657 0.992722 0.042227
5010.2 5010.2 0.850000 3.312552 28.0502 1.021657 0.044105
5011.52 5011.51 0.860000 3.300711 28.4367 1.048075 0.046116
5012.84 5012.83 0.880000 3.294295 29.1481 1.081225 0.047522
5014.19 5014.18 0.890000 3.290412 29.5277 1.099566 0.048720
5015.55 5015.54 0.900000 3.286846 29.9041 1.117558 0.049877
5016.94 5016.93 0.910000 3.285462 30.2956 1.133759 0.051336
5018.34 5018.33 0.930000 3.283897 31.0192 1.162665 0.052787
5019.76 5019.75 0.940000 3.279531 31.4124 1.182555 0.054440
5021.19 5021.19 0.950000 3.272010 31.8089 1.206503 0.056229
5022.65 5022.65 0.960000 3.265020 32.1993 1.229862 0.056923
5024.13 5024.13 0.980000 3.260726 32.938 1.263517 0.058707
5025.64 5025.63 0.990000 3.259565 33.3366 1.280291 0.059159
5027.15 5027.14 1.000000 3.260754 33.735 1.294058 0.059736
5028.69 5028.68 1.010000 3.262098 34.1357 1.307671 0.059929
5030.25 5030.24 1.030000 3.261298 34.8706 1.336902 0.060667
5031.82 5031.81 1.040000 3.257232 35.2697 1.357707 0.060393
5033.41 5033.4 1.050000 3.250574 35.6726 1.382392 0.060122
5035.02 5035.01 1.060000 3.243479 36.0745 1.407911 0.059972
5036.65 5036.65 1.080000 3.238009 36.8237 1.445033 0.060655
5038.31 5038.3 1.090000 3.237614 37.2341 1.461691 0.061241
5039.98 5039.97 1.100000 3.241027 37.6362 1.472446 0.060874
5041.65 5041.65 1.110000 3.246257 38.0419 1.480576 0.061693
5043.36 5043.36 1.130000 3.250309 38.7923 1.503674 0.063682
5045.09 5045.09 1.140000 3.252261 39.2042 1.516678 0.065217
5046.83 5046.83 1.150000 3.251838 39.6082 1.532957 0.067012
5048.6 5048.6 1.160000 3.250021 40.0268 1.551972 0.069111
5050.38 5050.38 1.180000 3.247860 40.7869 1.584865 0.072450
5052.18 5052.18 1.190000 3.245938 41.2052 1.604200 0.074924
5054 5054 1.200000 3.244579 41.6323 1.623035 0.077255
5055.84 5055.84 1.210000 3.242424 42.0598 1.643235 0.078959
5057.7 5057.7 1.230000 3.238920 42.8392 1.679569 0.081162
5059.58 5059.58 1.240000 3.235281 43.2726 1.702741 0.082246
5061.48 5061.48 1.250000 3.232560 43.7068 1.724516 0.083452
5063.4 5063.4 1.260000 3.230051 44.1368 1.745861 0.085223
5065.33 5065.33 1.280000 3.226664 44.9274 1.783153 0.087908
5067.29 5067.29 1.290000 3.220857 45.3694 1.811199 0.089747
5069.26 5069.26 1.300000 3.212824 45.8108 1.843554 0.092059
5071.26 5071.26 1.310000 3.202298 46.2586 1.881310 0.094047
5073.27 5073.27 1.330000 3.191558 47.1227 1.937141 0.097312
5075.3 5075.3 1.340000 3.184130 47.7286 1.976662 0.098471
5077.35 5077.35 1.350000 3.179569 48.1883 2.004807 0.099035
5079.42 5079.42 1.360000 3.177319 48.6465 2.028426 0.098816
5081.51 5081.51 1.380000 3.174936 49.4691 2.067660 0.099232
5083.6 5083.61 1.390000 3.170039 49.9254 2.096947 0.098865
5085.74 5085.74 1.400000 3.162494 50.3946 2.132702 0.099036
5087.89 5087.89 1.410000 3.153900 50.8587 2.170905 0.099264
5090.05 5090.05 1.430000 3.145786 51.6911 2.224429 0.101013
5092.23 5092.23 1.440000 3.138504 52.1698 2.261417 0.103127
5094.44 5094.44 1.450000 3.132057 52.6518 2.297079 0.106434
5096.66 5096.66 1.460000 3.126152 53.1213 2.331289 0.110715
5098.9 5098.9 1.480000 3.120857 53.9621 2.380771 0.116656
5101.16 5101.16 1.490000 3.116072 54.4282 2.412847 0.121323
5103.44 5103.44 1.500000 3.110655 54.9123 2.447541 0.126129
5105.74 5105.74 1.510000 3.106402 55.3849 2.479123 0.129096
5108.05 5108.05 1.530000 3.102583 56.2491 2.527446 0.132386
5110.39 5110.39 1.540000 3.098033 56.7477 2.561477 0.134458
5112.74 5112.74 1.550000 3.093194 57.2708 2.597625 0.136467
5115.12 5115.12 1.560000 3.088690 57.7559 2.631446 0.138747
5117.51 5117.51 1.580000 3.084141 58.616 2.682797 0.141848
5119.92 5119.92 1.590000 3.080890 59.117 2.714555 0.144002
5122.35 5122.35 1.600000 3.078043 59.6221 2.745553 0.145932
5124.8 5124.8 1.610000 3.075843 60.1276 2.774936 0.148393
5127.27 5127.27 1.630000 3.073582 61.0235 2.822656 0.151835
5129.76 5129.76 1.640000 3.070789 61.5464 2.854800 0.153959
5132.27 5132.27 1.650000 3.067181 62.08 2.889964 0.156797
5134.79 5134.79 1.660000 3.063070 62.6087 2.926574 0.158475
5137.34 5137.34 1.680000 3.057552 63.5265 2.985916 0.161548
5139.9 5139.9 1.690000 3.051622 64.069 3.029318 0.162936
5142.49 5142.49 1.700000 3.045543 64.6024 3.073188 0.164838
5145.09 5145.09 1.710000 3.040016 65.1365 3.115752 0.165754
5147.71 5147.71 1.730000 3.034658 66.0574 3.176760 0.167966
5150.35 5150.35 1.740000 3.028932 66.6115 3.221813 0.170665
5153.01 5153.01 1.750000 3.022724 67.1632 3.268741 0.174241
5155.69 5155.69 1.760000 3.016152 67.7253 3.317827 0.179087
5158.39 5158.39 1.780000 3.010421 68.652 3.382545 0.184326
5161.11 5161.11 1.790000 3.005202 69.2041 3.427584 0.189311
5163.84 5163.84 1.800000 3.000245 69.7772 3.473161 0.193126
5166.6 5166.6 1.810000 2.994704 70.3369 3.520460 0.197828
5169.37 5169.37 1.830000 2.988720 71.2814 3.589138 0.203595
5172.17 5172.17 1.840000 2.982963 71.8478 3.638561 0.208801
5174.98 5174.98 1.850000 2.977076 72.4036 3.688376 0.214050
5177.81 5177.81 1.860000 2.970952 72.9602 3.739519 0.219123
5180.66 5180.66 1.880000 2.964540 73.9215 3.813194 0.225089
5183.53 5183.53 1.890000 2.958573 74.506 3.866328 0.229028
5186.42 5186.42 1.900000 2.953181 75.0856 3.917460 0.233029
5189.32 5189.32 1.910000 2.947682 75.661 3.969258 0.236862
5192.25 5192.25 1.930000 2.941472 76.6292 4.045118 0.242036
5195.2 5195.2 1.940000 2.934575 77.1976 4.103301 0.246103
5198.16 5198.16 1.950000 2.927938 77.7326 4.159253 0.249392
5201.14 5201.14 1.960000 2.921989 78.3453 4.217059 0.253143
5204.15 5204.15 1.980000 2.916375 79.515 4.304112 0.258522
5207.17 5207.17 1.990000 2.910306 80.1366 4.364185 0.261982
5210.21 5210.21 2.000000 2.903620 80.747 4.426896 0.266398
5213.27 5213.27 2.010000 2.897613 81.3586 4.487333 0.270347
5216.35 5216.35 2.030000 2.892022 82.5314 4.577518 0.276978
5219.45 5219.45 2.040000 2.886652 83.1915 4.638984 0.282567
5222.56 5222.56 2.050000 2.881667 83.7943 4.695952 0.287512
5225.7 5225.7 2.060000 2.876489 84.4226 4.755728 0.292885
5228.85 5228.85 2.080000 2.871094 85.4333 4.838711 0.299719
5232.03 5232.03 2.090000 2.865780 86.0813 4.901372 0.305352
5235.22 5235.22 2.100000 2.860469 86.7404 4.965199 0.311520
5238.43 5238.43 2.110000 2.855831 87.4048 5.026492 0.317748
5241.66 5241.66 2.130000 2.850885 88.4597 5.112373 0.325400
5244.92 5244.92 2.140000 2.845797 89.0628 5.173483 0.332685
5248.18 5248.18 2.150000 2.840531 89.4666 5.224349 0.338404
5251.47 5251.47 2.160000 2.834664 90.2993 5.304023 0.345803
5254.78 5254.78 2.180000 2.828016 91.7531 5.425347 0.356424
5258.11 5258.11 2.190000 2.820948 92.5894 5.513636 0.364322
5261.45 5261.45 2.200000 2.814158 93.2871 5.593041 0.371903
5264.82 5264.82 2.210000 2.807938 94.0511 5.674030 0.379069
5268.2 5268.2 2.230000 2.802379 95.2464 5.778150 0.386751
5271.6 5271.6 2.240000 2.796578 96.0004 5.857771 0.393622
5275.03 5275.03 2.250000 2.790744 96.8724 5.945572 0.400311
5278.47 5278.47 2.260000 2.784650 96.6045 5.965376 0.402604
5281.93 5281.93 2.280000 2.778793 98.6787 6.129249 0.415127
5285.4 5285.4 2.290000 2.772780 99.5485 6.220562 0.422310
5288.9 5288.9 2.300000 2.766493 100.333 6.309171 0.430590
5292.42 5292.42 2.310000 2.760094 101.124 6.399723 0.439322
5295.96 5295.96 2.330000 2.754079 102.374 6.517877 0.450017
5299.51 5299.51 2.340000 2.747916 103.018 6.599458 0.457855
5303.09 5303.09 2.350000 2.742209 103.809 6.688202 0.466638
5306.68 5306.68 2.360000 2.736307 104.659 6.782856 0.475787
5310.29 5310.29 2.380000 2.729951 105.92 6.908319 0.487024
5313.92 5313.92 2.390000 2.723741 106.717 7.003725 0.496779
5317.57 5317.57 2.400000 2.717388 107.479 7.098654 0.505696
5321.24 5321.24 2.410000 2.711131 108.049 7.181091 0.514653
5324.93 5324.93 2.430000 2.704722 109.148 7.300746 0.526600
5328.64 5328.64 2.440000 2.698327 109.735 7.387115 0.536380
5332.36 5332.36 2.450000 2.692117 110.443 7.481102 0.546569
5336.11 5336.11 2.460000 2.685136 111.245 7.588248 0.558134
5339.87 5339.87 2.480000 2.678452 112.447 7.721647 0.571084
5343.66 5343.66 2.490000 2.672279 113.295 7.828103 0.583457
5347.46 5347.46 2.500000 2.666554 113.905 7.915428 0.593975
5351.28 5351.28 2.510000 2.660584 114.402 7.997570 0.603360
5355.12 5355.12 2.530000 2.654831 115.086 8.091764 0.613493
5358.98 5358.98 2.540000 2.648586 116.572 8.247648 0.627975
5362.86 5362.86 2.550000 2.642434 117.284 8.349228 0.638464
5366.76 5366.76 2.560000 2.636493 118.1 8.457421 0.649135
5370.68 5370.68 2.580000 2.630814 119.045 8.573574 0.660300
5374.61 5374.61 2.590000 2.624840 119.511 8.658777 0.670018
5378.57 5378.57 2.600000 2.618879 119.994 8.745726 0.680454
5382.54 5382.54 2.610000 2.612259 120.515 8.842075 0.691463
5386.54 5386.54 2.630000 2.606094 121.461 8.966585 0.705692
5390.55 5390.55 2.640000 2.599735 121.868 9.053977 0.716372
5394.58 5394.58 2.650000 2.593343 122.654 9.170797 0.729811
5398.63 5398.63 2.660000 2.586930 122.82 9.242282 0.739600
5402.7 5402.7 2.680000 2.580130 123.722 9.373662 0.754359
5406.79 5406.79 2.690000 2.573506 123.898 9.449433 0.765104
5410.9 5410.9 2.700000 2.566861 124.151 9.531779 0.776036
5415.02 5415.02 2.710000 2.560168 124.5 9.622760 0.788272
5419.17 5419.17 2.730000 2.553613 124.793 9.708856 0.800149
5423.33 5423.33 2.740000 2.547068 125.311 9.813223 0.813325
5427.52 5427.52 2.750000 2.540535 125.581 9.898842 0.825767
5431.72 5431.72 2.760000 2.533830 125.799 9.982682 0.837670
5435.94 5435.94 2.780000 2.526946 126.522 10.1094 0.853775
5440.18 5440.18 2.790000 2.520552 126.739 10.1917 0.865699
5444.44 5444.44 2.800000 2.514074 127.064 10.2842 0.878601
5448.72 5448.72 2.810000 2.507562 127.452 10.383 0.891822
5453.02 5453.02 2.830000 2.500814 128.27 10.5205 0.908360
5457.34 5457.34 2.840000 2.494066 128.69 10.6264 0.922573
5461.67 5461.67 2.850000 2.487489 129.179 10.7371 0.936780
5466.03 5466.03 2.860000 2.480773 129.722 10.8549 0.951958
5470.4 5470.4 2.880000 2.474168 130.695 11.0088 0.971001
5474.8 5474.8 2.890000 2.467379 131.262 11.1318 0.986717
5479.21 5479.21 2.900000 2.460337 131.873 11.2627 1.004087
5483.64 5483.64 2.910000 2.453535 132.464 11.3904 1.020602
5488.09 5488.09 2.930000 2.446644 133.513 11.56 1.041524
5492.56 5492.56 2.940000 2.439971 134.204 11.6976 1.059792
5497.05 5497.05 2.950000 2.432822 135.029 11.854 1.080707
5501.56 5501.56 2.960000 2.425957 135.957 12.0177 1.101041
5506.08 5506.08 2.980000 2.419246 137.172 12.2068 1.124877
5510.63 5510.63 2.990000 2.412529 137.808 12.346 1.143685
5515.19 5515.19 3.000000 2.405847 138.654 12.505 1.164682
5519.78 5519.78 3.010000 2.399296 139.531 12.6668 1.186402
5524.38 5524.38 3.030000 2.392695 141.055 12.89 1.214582
5529 5529 3.040000 2.385885 141.863 13.0524 1.236866
5533.64 5533.64 3.050000 2.379178 142.685 13.2164 1.259806
5538.3 5538.3 3.060000 2.372481 143.574 13.3881 1.283840
5542.98 5542.98 3.080000 2.365655 144.871 13.6016 1.311783
5547.68 5547.68 3.090000 2.358791 145.746 13.778 1.336235
5552.4 5552.4 3.100000 2.352133 146.741 13.9647 1.361767
5557.13 5557.13 3.110000 2.345252 147.817 14.1641 1.388519
5561.89 5561.89 3.130000 2.338291 149.216 14.3982 1.419369
5566.66 5566.66 3.140000 2.331477 150.054 14.5779 1.445254
5571.46 5571.46 3.150000 2.324582 150.945 14.766 1.471834
5576.27 5576.27 3.160000 2.317881 151.835 14.953 1.499351
5581.1 5581.1 3.180000 2.311271 153.169 15.1843 1.530883
5585.95 5585.95 3.190000 2.304623 154.069 15.3755 1.558850
5590.82 5590.82 3.200000 2.297931 155.013 15.5735 1.587882
5595.71 5595.71 3.210000 2.291371 155.816 15.7572 1.615301
5600.62 5600.62 3.230000 2.284366 157.132 16.002 1.649712
5605.54 5605.54 3.240000 2.277688 157.979 16.1961 1.678492
5610.49 5610.49 3.250000 2.270883 158.775 16.3888 1.708730
5615.45 5615.45 3.260000 2.264001 159.579 16.5856 1.738945
5620.44 5620.44 3.280000 2.257082 160.834 16.8321 1.774273
5625.44 5625.44 3.290000 2.250246 160.89 16.9534 1.797865
5630.46 5630.46 3.300000 2.243718 161.591 17.1388 1.828400
5635.5 5635.5 3.310000 2.236912 161.863 17.2849 1.854965
5640.56 5640.56 3.330000 2.229872 163.308 17.5624 1.895732
5645.64 5645.64 3.340000 2.223073 164.045 17.762 1.927961
5650.74 5650.74 3.350000 2.215736 164.846 17.9802 1.963904
5655.86 5655.86 3.360000 2.209065 165.706 18.1951 1.998703
5660.99 5660.99 3.380000 2.202437 167.099 18.47 2.040865
5666.15 5666.15 3.390000 2.195358 168.008 18.7024 2.078035
5671.32 5671.32 3.400000 2.188751 169.063 18.9446 2.117161
5676.52 5676.52 3.410000 2.182116 170.192 19.1981 2.157525
5681.73 5681.73 3.430000 2.175082 171.778 19.5138 2.205348
5686.96 5686.96 3.440000 2.168410 172.933 19.7764 2.248236
5692.21 5692.21 3.450000 2.161510 173.655 19.9965 2.286699
5697.48 5697.48 3.460000 2.154673 174.501 20.2318 2.326141
5702.77 5702.77 3.480000 2.147758 175.705 20.5127 2.372249
5708.08 5708.08 3.490000 2.140954 176.478 20.7436 2.412321