File: xdidata/Ti/Ti-K-SrCe2Ti4O12.xdi
# XDI/1.0 BlueSky/1.5.0
# Beamline.name: 6BM
# Beamline.xray_source: NSLS-II three-pole wiggler
# Beamline.collimation: paraboloid mirror, 5 nm Rh on 30 nm Pt
# Beamline.focusing: not in use
# Beamline.harmonic_rejection: flat mirror, Si stripe, pitch = 7.0 mrad relative to beam
# Detector.i0: 10 cm N2
# Detector.i1: 25 cm N2
# Detector.i2: 25 cm N2
# Element.symbol: Ti
# Element.edge: K
# Facility.name: NSLS-II
# Facility.energy: 3.0
# Facility.current: 220.6
# Facility.mode: top-off
# Facility.gup: 301027
# Facility.saf: 304156
# Mono.name: Si(111)
# Mono.d_spacing: 3.13526
# Mono.encoder_resolution: 0.0000050 deg/ct
# Mono.angle_offset: 16.0571 deg
# Mono.scan_mode: pseudo channel cut
# Mono.scan_type: step
# Mono.direction: forward in energy
# Sample.name: SrCe2Ti4O12
# Sample.prep: Powder in polyethylene glycol pellet
# Sample.x_position: -113.290 mm
# Sample.y_position: 117.505 mm
# Sample.wheel_position: 210.000 mm
# Scan.experimenters: Bruce Ravel, Martin Stennett
# Scan.edge_energy: 4966.0
# Scan.start_time: 2019-05-30T20:15:37
# Scan.end_time: 2019-05-30T20:59:44
# Scan.transient_id: 9855
# Scan.uid: 55fd094d-76d9-4c09-aad5-c0774c73065d
# Scan.plot_hint: (DTC1 + DTC2 + DTC3 + DTC4) / I0  --  ($8+$9+$10+$11) / $5
# Scan.sequence: merge of 3 scans
# Column.1: energy eV
# Column.2: requested_energy eV
# Column.3: measurement_time seconds
# Column.4: mutrans
# Column.5: i0
# Column.6: itrans
# Column.7: irefer
# /////
#  sample disk prepared by Martin
# -----
# energy   requested_energy   measurement_time   mutrans   i0   itrans   irefer
4766 4766 0.500000 79.8508 10.7066 0.031181 0.005012
4776.01 4776 0.500000 77.2805 10.9302 0.032292 0.004796
4786.01 4786 0.500000 70.1951 11.1943 0.034338 0.005049
4796.01 4796 0.500000 69.2679 11.4564 0.036518 0.005185
4806.01 4806 0.500000 65.1291 11.7214 0.039002 0.005680
4816.01 4816 0.500000 63.0775 11.9795 0.041389 0.005879
4826.01 4826 0.500000 61.3277 12.2449 0.043962 0.006110
4836 4836 0.500000 56.5864 12.4862 0.046830 0.006607
4846 4846 0.500000 50.893 12.7449 0.049449 0.007185
4856 4856 0.500000 47.7488 13.0066 0.052716 0.007442
4866.01 4866 0.500000 44.5109 13.2661 0.055583 0.007832
4876.01 4876 0.500000 41.1271 13.5293 0.059030 0.008230
4886.01 4886 0.500000 39.4182 13.7912 0.062467 0.008752
4896.01 4896 0.500000 37.4107 14.0551 0.065931 0.009182
4906 4906 0.500000 33.3621 14.3214 0.069724 0.009609
4916.01 4916 0.500000 31.906 14.5833 0.073577 0.010360
4926 4926 0.500000 30.1651 14.8462 0.077766 0.010992
4936 4936 0.500000 30.0218 15.0974 0.081793 0.011522
4938 4938 0.500000 29.7731 15.1448 0.082683 0.011723
4940 4940 0.500000 28.4233 15.1941 0.083683 0.011920
4941.99 4942 0.500000 29.3959 15.2375 0.084072 0.011786
4943.99 4944 0.500000 31.179 15.2811 0.085290 0.012019
4946 4946 0.500000 29.6915 15.3238 0.086142 0.012380
4948 4948 0.500000 31.0468 15.3626 0.087052 0.012539
4950 4950 0.500000 31.26 15.4088 0.087507 0.012247
4952 4952 0.500000 32.9224 15.4528 0.088665 0.012494
4954 4954 0.500000 32.0699 15.4958 0.089366 0.012697
4956 4956 0.500000 34.0021 15.538 0.090066 0.012681
4956.25 4956.25 0.500000 33.1033 15.5398 0.090429 0.012914
4956.5 4956.5 0.500000 33.1966 15.5403 0.090262 0.012740
4956.74 4956.75 0.500000 33.2219 15.5445 0.090531 0.012822
4957 4957 0.500000 33.2444 15.5468 0.090616 0.012766
4957.24 4957.25 0.500000 33.5334 15.549 0.090428 0.012637
4957.49 4957.5 0.500000 34.4925 15.5539 0.090577 0.012777
4957.74 4957.75 0.500000 34.3733 15.5597 0.090837 0.012673
4957.99 4958 0.500000 34.5399 15.5619 0.090730 0.012732
4958.24 4958.25 0.500000 35.4817 15.565 0.090996 0.012876
4958.49 4958.5 0.500000 34.7059 15.5679 0.091093 0.013013
4958.74 4958.75 0.500000 35.6235 15.5753 0.091285 0.013000
4958.99 4959 0.500000 34.6646 15.5782 0.091149 0.012842
4959.24 4959.25 0.500000 34.5404 15.5816 0.091281 0.012717
4959.5 4959.5 0.500000 35.8051 15.5849 0.091671 0.013072
4959.74 4959.75 0.500000 35.6632 15.5889 0.091511 0.012932
4960 4960 0.500000 37.5173 15.5927 0.091914 0.013174
4960.25 4960.25 0.500000 37.4292 15.5967 0.091707 0.012951
4960.5 4960.5 0.500000 36.491 15.6014 0.091845 0.013069
4960.74 4960.75 0.500000 37.8969 15.6061 0.092086 0.013140
4961 4961 0.500000 38.2345 15.6119 0.091822 0.012644
4961.25 4961.25 0.500000 36.8404 15.6169 0.091920 0.012831
4961.49 4961.5 0.500000 39.6891 15.6185 0.092159 0.012874
4961.75 4961.75 0.500000 39.1734 15.6242 0.092328 0.012905
4961.99 4962 0.500000 39.2225 15.6281 0.092424 0.013065
4962.25 4962.25 0.500000 40.0266 15.6321 0.092479 0.012996
4962.5 4962.5 0.500000 39.3909 15.6368 0.092532 0.012911
4962.75 4962.75 0.500000 40.988 15.6419 0.092766 0.012923
4963 4963 0.500000 41.6922 15.6482 0.092754 0.012834
4963.25 4963.25 0.500000 43.5972 15.6519 0.092797 0.012746
4963.49 4963.5 0.500000 43.4047 15.6543 0.092975 0.012751
4963.75 4963.75 0.500000 44.9959 15.6616 0.092911 0.012493
4964 4964 0.500000 44.0014 15.666 0.093210 0.012476
4964.25 4964.25 0.500000 47.2634 15.6721 0.093192 0.012106
4964.5 4964.5 0.500000 47.7125 15.6746 0.093438 0.011749
4964.75 4964.75 0.500000 48.7329 15.6778 0.093374 0.011345
4965 4965 0.500000 48.147 15.6815 0.093297 0.010432
4965.25 4965.25 0.500000 53.2793 15.6862 0.093268 0.009515
4965.5 4965.5 0.500000 55.3128 15.6915 0.093251 0.009280
4965.75 4965.75 0.500000 60.0912 15.6958 0.093424 0.009204
4966 4966 0.500000 66.5641 15.7002 0.093439 0.009552
4966.25 4966.25 0.500000 73.1946 15.7052 0.093027 0.009610
4966.5 4966.5 0.500000 82.925 15.7089 0.093001 0.009831
4966.75 4966.75 0.500000 95.5306 15.7117 0.092729 0.010289
4967 4967 0.500000 111.245 15.7131 0.092348 0.010579
4967.25 4967.25 0.500000 126.967 15.7139 0.091787 0.010284
4967.5 4967.5 0.500000 138.697 15.7181 0.091417 0.010310
4967.75 4967.75 0.500000 144.207 15.7253 0.091505 0.010123
4968 4968 0.500000 142.545 15.7326 0.091557 0.010009
4968.25 4968.25 0.500000 153.558 15.7716 0.091918 0.009928
4968.5 4968.5 0.500000 168.889 15.7791 0.091316 0.009680
4968.75 4968.75 0.500000 191.591 15.7823 0.090822 0.009750
4969 4969 0.500000 222.637 15.7829 0.089881 0.009413
4969.25 4969.25 0.500000 258.334 15.7874 0.089078 0.009235
4969.5 4969.5 0.500000 279.259 15.8608 0.089082 0.009287
4969.75 4969.75 0.500000 280.329 15.8628 0.088785 0.008882
4970 4970 0.500000 274.356 15.8643 0.089059 0.008959
4970.25 4970.25 0.500000 268.295 15.8705 0.089609 0.009134
4970.5 4970.5 0.500000 262.783 15.8825 0.089708 0.009026
4970.75 4970.75 0.500000 262.17 15.8933 0.089835 0.008987
4971 4971 0.500000 260.093 15.9035 0.090044 0.008797
4971.25 4971.25 0.500000 256.67 15.9108 0.090058 0.008734
4971.5 4971.5 0.500000 264.939 15.9178 0.090114 0.008670
4971.75 4971.75 0.500000 276.143 15.9267 0.089750 0.008672
4972 4972 0.500000 296.645 15.9311 0.089618 0.008678
4972.25 4972.25 0.500000 320.444 15.9332 0.088733 0.008231
4972.5 4972.5 0.500000 338.355 15.9394 0.088357 0.008234
4972.75 4972.75 0.500000 356.628 15.9433 0.087666 0.007739
4973 4973 0.500000 362.848 15.9487 0.087764 0.007939
4973.25 4973.25 0.500000 370.289 15.9525 0.087640 0.007706
4973.5 4973.5 0.500000 372.325 15.9545 0.087656 0.007396
4973.75 4973.75 0.500000 371.082 15.9581 0.087883 0.007485
4974 4974 0.500000 369.561 15.9611 0.088009 0.007222
4974.25 4974.25 0.500000 361.415 15.9632 0.088170 0.007152
4974.5 4974.5 0.500000 356.925 15.9641 0.088896 0.007559
4974.75 4974.75 0.500000 346.974 15.9658 0.089102 0.007119
4975 4975 0.500000 337.317 15.9682 0.089148 0.006890
4975.25 4975.25 0.500000 334.042 15.9697 0.089490 0.006881
4975.5 4975.5 0.500000 335.999 15.9722 0.089710 0.006854
4975.75 4975.75 0.500000 335.799 15.9699 0.089390 0.006527
4976 4976 0.500000 346.745 15.9691 0.089312 0.006663
4976.25 4976.25 0.500000 355.561 15.9703 0.089388 0.006645
4976.5 4976.5 0.500000 370.188 15.9683 0.089002 0.006473
4976.75 4976.75 0.500000 384.687 15.9683 0.088767 0.006416
4977 4977 0.500000 404.237 15.9683 0.087838 0.006080
4977.25 4977.25 0.500000 426.034 15.9711 0.087466 0.006106
4977.5 4977.5 0.500000 453.386 15.9714 0.086941 0.006126
4977.75 4977.75 0.500000 477.99 15.975 0.086096 0.006025
4978 4978 0.500000 508.622 15.9767 0.085052 0.005689
4978.25 4978.25 0.500000 549.9 15.9804 0.084136 0.005683
4978.5 4978.5 0.500000 597.875 15.9851 0.083210 0.006002
4978.75 4978.75 0.500000 644.841 15.9864 0.081492 0.005424
4979 4979 0.500000 709.205 15.9861 0.079958 0.005493
4979.25 4979.25 0.500000 773.205 15.9867 0.078382 0.005408
4979.5 4979.5 0.500000 841.601 15.987 0.076520 0.005238
4979.75 4979.75 0.500000 903.533 15.986 0.074772 0.005270
4980 4980 0.500000 993.887 15.9808 0.072533 0.005106
4980.25 4980.25 0.500000 1081.13 15.9793 0.070256 0.004813
4980.5 4980.5 0.500000 1174.72 15.9778 0.068194 0.004889
4980.75 4980.75 0.500000 1274.76 15.9736 0.065835 0.004912
4981 4981 0.500000 1388.55 15.9744 0.062928 0.004638
4981.25 4981.25 0.500000 1510.14 15.9739 0.060504 0.004461
4981.5 4981.5 0.500000 1612.19 15.9726 0.057987 0.004468
4981.75 4981.75 0.500000 1751.8 15.9755 0.055336 0.004218
4982 4982 0.500000 1863.05 15.9788 0.052875 0.004124
4982.25 4982.25 0.500000 1986.09 15.9812 0.050654 0.004070
4982.5 4982.5 0.500000 2092.21 15.9862 0.048507 0.003829
4982.75 4982.75 0.500000 2179.96 15.9874 0.046792 0.003639
4983 4983 0.500000 2253.67 15.9895 0.045312 0.003813
4983.25 4983.25 0.500000 2308.65 15.9904 0.044459 0.003748
4983.5 4983.5 0.500000 2330.94 15.9892 0.043831 0.003638
4983.75 4983.75 0.500000 2355.65 15.9901 0.043770 0.003765
4984 4984 0.500000 2369.63 15.9869 0.043868 0.003555
4984.25 4984.25 0.500000 2344.45 15.9862 0.044249 0.003782
4984.5 4984.5 0.500000 2323.02 15.9869 0.044615 0.003620
4984.75 4984.75 0.500000 2289.34 15.9861 0.045252 0.003782
4985 4985 0.500000 2251.67 15.9876 0.045966 0.003663
4985.25 4985.25 0.500000 2226.38 15.991 0.046457 0.003816
4985.5 4985.5 0.500000 2199.24 15.9927 0.046960 0.003708
4985.75 4985.75 0.500000 2165.34 15.9923 0.047763 0.004052
4986 4986 0.500000 2143.1 15.9943 0.048274 0.003933
4986.25 4986.25 0.500000 2117.89 15.9945 0.048829 0.003954
4986.5 4986.5 0.500000 2083.26 15.9918 0.049158 0.003966
4986.75 4986.75 0.500000 2070.37 15.9893 0.049590 0.003991
4987 4987 0.500000 2043.32 15.9867 0.049904 0.003925
4987.25 4987.25 0.500000 2056.82 15.9869 0.050301 0.004075
4987.5 4987.5 0.500000 2042.04 15.9832 0.050475 0.004221
4987.75 4987.75 0.500000 2042.09 15.9818 0.050518 0.004223
4988 4988 0.500000 2049.69 15.9855 0.050216 0.003980
4988.25 4988.25 0.500000 2047.74 15.9911 0.050485 0.004165
4988.5 4988.5 0.500000 2050.27 15.9982 0.050306 0.003958
4988.75 4988.75 0.500000 2066.44 16.0087 0.050128 0.004142
4989 4989 0.500000 2072.02 16.0221 0.050089 0.004044
4989.25 4989.25 0.500000 2093.14 16.0324 0.050088 0.003844
4989.5 4989.5 0.500000 2096.98 16.0453 0.049965 0.004184
4989.75 4989.75 0.500000 2114.38 16.0585 0.049748 0.004239
4990 4990 0.500000 2126.68 16.0705 0.049643 0.004135
4990.25 4990.25 0.500000 2141.06 16.0843 0.049518 0.004156
4990.5 4990.5 0.500000 2153.18 16.0959 0.049207 0.004012
4990.75 4990.75 0.500000 2160.28 16.1098 0.049195 0.004181
4991 4991 0.500000 2171.76 16.1201 0.049037 0.004237
4991.25 4991.25 0.500000 2186.7 16.1314 0.048678 0.003935
4991.5 4991.5 0.500000 2214.15 16.143 0.048721 0.004218
4991.75 4991.75 0.500000 2215 16.1543 0.048420 0.004306
4992 4992 0.500000 2242.72 16.1635 0.048124 0.003987
4992.25 4992.25 0.500000 2248.39 16.1729 0.047993 0.004006
4992.5 4992.5 0.500000 2263.45 16.1788 0.047770 0.003960
4992.75 4992.75 0.500000 2269.38 16.1883 0.047785 0.004211
4993 4993 0.500000 2293.85 16.195 0.047366 0.004027
4993.25 4993.25 0.500000 2294.65 16.2003 0.047498 0.004377
4993.5 4993.5 0.500000 2316.83 16.2054 0.047323 0.004095
4993.75 4993.75 0.500000 2318.53 16.2115 0.047370 0.004241
4994 4994 0.500000 2317.06 16.2171 0.047288 0.004056
4994.26 4994.25 0.500000 2326.38 16.2216 0.047062 0.003891
4994.5 4994.5 0.500000 2316.6 16.2268 0.047104 0.003941
4994.75 4994.75 0.500000 2323.43 16.2328 0.047206 0.004060
4995 4995 0.500000 2317.83 16.2364 0.047184 0.003969
4995.25 4995.25 0.500000 2328.07 16.2391 0.047249 0.003887
4995.5 4995.5 0.500000 2328.31 16.2437 0.047352 0.003948
4995.75 4995.75 0.500000 2334.64 16.2474 0.047631 0.004007
4996 4996 0.700000 2328.22 22.7562 0.066672 0.005610
4997.09 4997.08 0.710000 2325.07 23.152 0.068239 0.005281
4998.19 4998.18 0.730000 2288.53 23.8089 0.071257 0.005550
4999.3 4999.29 0.740000 2275.15 24.1954 0.073382 0.005771
5000.44 5000.43 0.750000 2248.56 24.5617 0.075785 0.005939
5001.59 5001.58 0.760000 2213.34 25.0021 0.078217 0.005945
5002.77 5002.76 0.780000 2184.94 25.7157 0.081659 0.006126
5003.95 5003.95 0.790000 2149.72 26.1088 0.084477 0.006523
5005.17 5005.16 0.800000 2100.93 26.5091 0.087963 0.006662
5006.4 5006.39 0.810000 2048.42 26.9131 0.092101 0.007270
5007.64 5007.64 0.830000 1985.74 27.6447 0.096562 0.007217
5008.92 5008.91 0.840000 1949.55 28.0413 0.100190 0.007933
5010.2 5010.2 0.850000 1890.31 28.44 0.104470 0.008309
5011.51 5011.51 0.860000 1835.94 28.836 0.108646 0.008674
5012.84 5012.83 0.880000 1807.8 29.5634 0.113154 0.008469
5014.19 5014.18 0.890000 1783.53 29.952 0.116541 0.008811
5015.55 5015.54 0.900000 1759.87 30.3421 0.119352 0.009156
5016.93 5016.93 0.910000 1774.21 30.7408 0.121485 0.009354
5018.33 5018.33 0.930000 1771.62 31.4775 0.124813 0.009797
5019.76 5019.75 0.940000 1776.36 31.8834 0.127143 0.009858
5021.19 5021.19 0.950000 1756.12 32.2897 0.130288 0.010204
5022.66 5022.65 0.960000 1745.43 32.6944 0.133373 0.010321
5024.14 5024.13 0.980000 1753.44 33.4457 0.137403 0.011008
5025.63 5025.63 0.990000 1760.22 33.8517 0.139053 0.010571
5027.14 5027.14 1.000000 1770.59 34.2604 0.141214 0.010929
5028.68 5028.68 1.010000 1786.67 34.6729 0.143301 0.011217
5030.24 5030.24 1.030000 1784.93 35.4219 0.146950 0.011159
5031.81 5031.81 1.040000 1789.4 35.8304 0.149236 0.010999
5033.4 5033.4 1.050000 1802.11 36.2436 0.151570 0.011255
5035.01 5035.01 1.060000 1819.41 36.6562 0.153360 0.011061
5036.66 5036.65 1.080000 1850.46 37.4192 0.155753 0.011171
5038.3 5038.3 1.090000 1879.11 37.8399 0.156559 0.011236
5039.96 5039.97 1.100000 1920.01 38.2552 0.157315 0.011300
5041.65 5041.65 1.110000 1946.22 38.6772 0.158648 0.011457
5043.36 5043.36 1.130000 1958.82 39.4399 0.162831 0.011668
5045.09 5045.09 1.140000 1953.48 39.8641 0.165461 0.011843
5046.83 5046.83 1.150000 1948.86 40.2823 0.168733 0.012387
5048.6 5048.6 1.160000 1949.04 40.7117 0.171696 0.012946
5050.38 5050.38 1.180000 1970.76 41.4906 0.174588 0.013013
5052.18 5052.18 1.190000 2012.79 41.9153 0.175079 0.013274
5054 5054 1.200000 2055.14 42.3452 0.176060 0.013738
5055.84 5055.84 1.210000 2094.83 42.7805 0.177246 0.014300
5057.69 5057.7 1.230000 2117.42 43.5756 0.179913 0.014075
5059.58 5059.58 1.240000 2127.42 44.019 0.182658 0.014570
5061.47 5061.48 1.250000 2117.11 44.4593 0.186134 0.014831
5063.4 5063.4 1.260000 2100.84 44.9051 0.190908 0.015158
5065.33 5065.33 1.280000 2075.54 45.7145 0.197747 0.015732
5067.28 5067.29 1.290000 2046.15 46.1602 0.202944 0.016027
5069.26 5069.26 1.300000 2018.91 46.6063 0.208210 0.016561
5071.26 5071.26 1.310000 2028.23 47.0531 0.212552 0.017022
5073.27 5073.27 1.330000 2028.82 47.862 0.216323 0.017109
5075.3 5075.3 1.340000 2045.92 48.3069 0.219140 0.016960
5077.35 5077.35 1.350000 2059.99 48.7598 0.222494 0.017457
5079.42 5079.42 1.360000 2049.16 49.2097 0.226844 0.017644
5081.5 5081.51 1.380000 2040.38 50.0067 0.233559 0.017716
5083.61 5083.61 1.390000 2015.03 50.4448 0.239652 0.017921
5085.73 5085.74 1.400000 1986.13 50.8945 0.246086 0.017981
5087.89 5087.89 1.410000 1970.05 51.3423 0.252075 0.018341
5090.05 5090.05 1.430000 1961.25 52.1569 0.258168 0.018535
5092.23 5092.23 1.440000 1965 52.602 0.262446 0.018824
5094.44 5094.44 1.450000 1976.63 53.0545 0.266774 0.019230
5096.66 5096.66 1.460000 1980.02 53.5139 0.271330 0.020036
5098.9 5098.9 1.480000 1974.01 54.3363 0.277948 0.020790
5101.16 5101.16 1.490000 1968.37 54.7844 0.282430 0.021541
5103.44 5103.44 1.500000 1972.15 55.2478 0.287552 0.022358
5105.74 5105.74 1.510000 1971.15 55.7068 0.292555 0.023134
5108.05 5108.05 1.530000 1974.18 56.6784 0.300308 0.023887
5110.39 5110.39 1.540000 1979.21 57.2556 0.305356 0.023892
5112.74 5112.74 1.550000 1989.75 57.7274 0.309726 0.024267
5115.12 5115.12 1.560000 2003.07 58.2145 0.313833 0.024765
5117.51 5117.51 1.580000 2015.75 59.1709 0.320458 0.025071
5119.92 5119.92 1.590000 2031.02 59.6477 0.324866 0.025612
5122.35 5122.35 1.600000 2043.69 60.1364 0.329077 0.025827
5124.8 5124.8 1.610000 2059.03 60.6147 0.333996 0.026656
5127.27 5127.27 1.630000 2070.8 61.4871 0.340259 0.026896
5129.76 5129.76 1.640000 2087.87 61.9959 0.344762 0.027516
5132.27 5132.27 1.650000 2091.89 62.4922 0.350121 0.028038
5134.79 5134.79 1.660000 2102.85 62.9975 0.355257 0.028277
5137.34 5137.34 1.680000 2105.23 63.8781 0.363143 0.028311
5139.9 5139.9 1.690000 2101.38 64.384 0.369154 0.029043
5142.49 5142.49 1.700000 2110.17 64.8948 0.375852 0.029494
5145.09 5145.09 1.710000 2109.23 65.4092 0.382289 0.029539
5147.71 5147.71 1.730000 2106.43 66.3041 0.390870 0.030135
5150.35 5150.35 1.740000 2111.68 66.837 0.398633 0.030842
5153.01 5153.01 1.750000 2112.79 67.3593 0.404790 0.031331
5155.69 5155.69 1.760000 2109.73 67.8901 0.412321 0.032253
5158.39 5158.39 1.780000 2114.52 68.7975 0.422538 0.033004
5161.11 5161.11 1.790000 2114.78 69.33 0.429519 0.033702
5163.84 5163.84 1.800000 2116.77 69.8756 0.437022 0.034836
5166.6 5166.6 1.810000 2114.41 70.4168 0.443845 0.035552
5169.37 5169.37 1.830000 2124.23 71.3455 0.453479 0.036355
5172.17 5172.17 1.840000 2129.04 71.8746 0.461404 0.037294
5174.98 5174.98 1.850000 2133.74 72.4106 0.469484 0.038483
5177.81 5177.81 1.860000 2134.56 72.95 0.477897 0.039289
5180.66 5180.66 1.880000 2131.65 73.8786 0.488773 0.040291
5183.53 5183.53 1.890000 2134.24 74.4508 0.497918 0.041060
5186.42 5186.42 1.900000 2126.05 74.9947 0.506996 0.041835
5189.32 5189.32 1.910000 2129.22 75.5542 0.516229 0.042644
5192.25 5192.25 1.930000 2138.09 76.4824 0.527236 0.043619
5195.2 5195.2 1.940000 2137.19 77.0073 0.536463 0.044542
5198.16 5198.16 1.950000 2132.42 77.5273 0.545368 0.045091
5201.14 5201.14 1.960000 2140.26 78.0703 0.554642 0.045879
5204.15 5204.15 1.980000 2140.51 79.0318 0.566947 0.046533
5207.17 5207.17 1.990000 2144 79.5986 0.576593 0.047559
5210.21 5210.21 2.000000 2145.23 80.1602 0.587240 0.048440
5213.27 5213.27 2.010000 2146.12 80.7052 0.596539 0.049252
5216.35 5216.35 2.030000 2152.31 81.6594 0.609441 0.050463
5219.45 5219.45 2.040000 2153.69 82.1933 0.618941 0.051105
5222.56 5222.56 2.050000 2166.02 82.7353 0.628579 0.052325
5225.7 5225.7 2.060000 2175.52 83.2615 0.637644 0.053263
5228.85 5228.85 2.080000 2178.74 84.1903 0.650396 0.054052
5232.03 5232.03 2.090000 2195.64 84.7248 0.659575 0.055569
5235.22 5235.22 2.100000 2202.68 85.2832 0.669233 0.056457
5238.43 5238.43 2.110000 2206.22 85.853 0.679765 0.057513
5241.66 5241.66 2.130000 2214.07 86.8157 0.695226 0.059552
5244.92 5244.92 2.140000 2212.39 87.589 0.708887 0.061036
5248.18 5248.18 2.150000 2215.11 87.8637 0.718185 0.061942
5251.47 5251.47 2.160000 2218.16 88.4817 0.730411 0.063244
5254.78 5254.78 2.180000 2224.66 89.848 0.749594 0.065589
5258.11 5258.11 2.190000 2236.07 90.6152 0.762685 0.067167
5261.45 5261.45 2.200000 2240.54 91.4125 0.776314 0.068346
5264.82 5264.82 2.210000 2248.3 92.0606 0.789469 0.069895
5268.2 5268.2 2.230000 2256.93 93.1789 0.806640 0.071504
5271.6 5271.6 2.240000 2262.5 93.8389 0.820566 0.072464
5275.03 5275.03 2.250000 2260.33 94.6333 0.835215 0.073681
5278.47 5278.47 2.260000 2271.08 93.8974 0.838019 0.074627
5281.93 5281.93 2.280000 2272.14 96.2323 0.867513 0.077280
5285.4 5285.4 2.290000 2270.58 97.0336 0.883888 0.078675
5288.9 5288.9 2.300000 2276.26 97.744 0.899794 0.080081
5292.42 5292.42 2.310000 2281.69 98.4442 0.916040 0.081860
5295.96 5295.96 2.330000 2284.4 99.5782 0.936208 0.084423
5299.51 5299.51 2.340000 2284.5 100.183 0.951462 0.085828
5303.09 5303.09 2.350000 2293.29 100.825 0.967871 0.087569
5306.68 5306.68 2.360000 2290.9 101.586 0.986018 0.089621
5310.29 5310.29 2.380000 2297.03 102.768 1.007828 0.091922
5313.92 5313.92 2.390000 2296.72 103.494 1.025804 0.093836
5317.57 5317.57 2.400000 2302.33 104.194 1.043220 0.095885
5321.24 5321.24 2.410000 2311.6 104.715 1.058937 0.097494
5324.93 5324.93 2.430000 2321.46 105.788 1.081471 0.100641
5328.64 5328.64 2.440000 2318.75 106.369 1.098019 0.102308
5332.36 5332.36 2.450000 2323.64 106.988 1.115035 0.104513
5336.11 5336.11 2.460000 2331.96 107.647 1.133870 0.106750
5339.87 5339.87 2.480000 2335.88 108.816 1.156924 0.109552
5343.66 5343.66 2.490000 2342.4 109.474 1.176994 0.111541
5347.46 5347.46 2.500000 2356.3 110.035 1.195003 0.113997
5351.28 5351.28 2.510000 2355.35 110.557 1.212610 0.116309
5355.12 5355.12 2.530000 2367.3 110.873 1.227201 0.118176
5358.98 5358.98 2.540000 2367.97 112.619 1.260511 0.121799
5362.86 5362.86 2.550000 2378.75 113.333 1.282018 0.124427
5366.76 5366.76 2.560000 2384.36 113.956 1.302220 0.126313
5370.68 5370.68 2.580000 2385.24 114.882 1.326355 0.128919
5374.61 5374.61 2.590000 2391.08 115.357 1.345725 0.131388
5378.57 5378.57 2.600000 2397.12 115.866 1.366426 0.133745
5382.54 5382.54 2.610000 2404.34 116.402 1.386874 0.136475
5386.54 5386.54 2.630000 2411.88 117.363 1.412833 0.139345
5390.55 5390.55 2.640000 2421.53 118.049 1.435935 0.142352
5394.58 5394.58 2.650000 2422.53 118.559 1.457147 0.145273
5398.63 5398.63 2.660000 2432.1 119.001 1.476459 0.147749
5402.7 5402.7 2.680000 2443.6 119.855 1.502032 0.150736
5406.79 5406.79 2.690000 2452.93 120.192 1.521253 0.153281
5410.9 5410.9 2.700000 2458.6 120.385 1.539197 0.156067
5415.02 5415.02 2.710000 2464.21 120.697 1.559124 0.158729
5419.17 5419.17 2.730000 2475.07 120.806 1.577134 0.161479
5423.33 5423.33 2.740000 2484.29 121.347 1.601563 0.164892
5427.52 5427.52 2.750000 2492.74 121.493 1.620684 0.167528
5431.72 5431.72 2.760000 2502.23 121.607 1.639465 0.170227
5435.94 5435.94 2.780000 2507.88 122.149 1.665211 0.173723
5440.18 5440.18 2.790000 2510.02 122.309 1.685934 0.176693
5444.44 5444.44 2.800000 2520.2 122.489 1.707551 0.180177
5448.72 5448.72 2.810000 2527.5 122.7 1.729725 0.183535
5453.02 5453.02 2.830000 2531.68 123.343 1.759057 0.187114
5457.34 5457.34 2.840000 2546.11 123.606 1.781985 0.190282
5461.67 5461.67 2.850000 2551.26 123.894 1.806135 0.193933
5466.03 5466.03 2.860000 2551.73 124.161 1.830100 0.196921
5470.4 5470.4 2.880000 2560.51 125.02 1.863660 0.201310
5474.8 5474.8 2.890000 2570.26 125.43 1.890406 0.205353
5479.21 5479.21 2.900000 2573.39 125.783 1.917533 0.209551
5483.64 5483.64 2.910000 2584.71 126.285 1.945324 0.212983
5488.09 5488.09 2.930000 2593.41 127.166 1.979729 0.217973
5492.56 5492.56 2.940000 2605.49 127.701 2.010144 0.222487
5497.05 5497.05 2.950000 2610.41 128.258 2.042262 0.227096
5501.56 5501.56 2.960000 2621.68 128.828 2.073518 0.231208
5506.08 5506.08 2.980000 2634.57 129.85 2.113070 0.236675
5510.63 5510.63 2.990000 2639.12 130.536 2.148307 0.241534
5515.19 5515.19 3.000000 2648.67 131.224 2.183951 0.246649
5519.78 5519.78 3.010000 2656.25 132.002 2.221474 0.252291
5524.38 5524.38 3.030000 2665.67 133.143 2.266007 0.258491
5529 5529 3.040000 2674.31 134.016 2.305518 0.264044
5533.64 5533.64 3.050000 2678.39 134.732 2.343876 0.269606
5538.3 5538.3 3.060000 2687.48 135.497 2.383938 0.275752
5542.98 5542.98 3.080000 2689.41 136.703 2.432427 0.282816
5547.68 5547.68 3.090000 2697.21 137.845 2.479915 0.289247
5552.4 5552.4 3.100000 2712.24 138.913 2.527795 0.295826
5557.13 5557.13 3.110000 2721.43 140.332 2.583703 0.304304
5561.89 5561.89 3.130000 2729.7 141.704 2.637361 0.311452
5566.66 5566.66 3.140000 2737.09 142.561 2.683428 0.318668
5571.46 5571.46 3.150000 2744.68 143.404 2.729925 0.325617
5576.27 5576.27 3.160000 2752.53 144.318 2.778286 0.332540
5581.1 5581.1 3.180000 2763.29 145.538 2.832851 0.340874
5585.95 5585.95 3.190000 2770.13 146.445 2.881538 0.348321
5590.82 5590.82 3.200000 2777.5 147.246 2.930001 0.355973
5595.7 5595.71 3.210000 2790.17 148.104 2.981190 0.363552
5600.61 5600.62 3.230000 2794.54 149.37 3.040925 0.372458
5605.54 5605.54 3.240000 2807.02 150.154 3.091324 0.380861
5610.49 5610.49 3.250000 2814.04 150.989 3.143945 0.388841
5615.45 5615.45 3.260000 2820.25 151.766 3.196270 0.396797
5620.44 5620.44 3.280000 2828.95 152.976 3.258164 0.406919
5625.44 5625.44 3.290000 2839.56 153.084 3.294274 0.413586
5630.46 5630.46 3.300000 2853.14 153.334 3.340822 0.421516
5635.5 5635.5 3.310000 2860.11 154.195 3.399529 0.430897
5640.56 5640.56 3.330000 2865.26 155.534 3.467978 0.441838
5645.64 5645.64 3.340000 2873.6 156.036 3.519800 0.450197
5650.74 5650.74 3.350000 2882.95 156.592 3.572338 0.460220
5655.86 5655.86 3.360000 2892.16 157.218 3.627221 0.468985
5660.99 5660.99 3.380000 2897.2 158.479 3.696712 0.480544
5666.15 5666.15 3.390000 2908.58 159.349 3.757720 0.491038
5671.32 5671.32 3.400000 2915.68 160.318 3.821220 0.501798
5676.52 5676.52 3.410000 2929.44 161.256 3.885397 0.512143
5681.73 5681.73 3.430000 2939.33 162.598 3.960471 0.524542
5686.96 5686.96 3.440000 2945.02 163.401 4.021937 0.535283
5692.21 5692.21 3.450000 2958.31 164.182 4.082759 0.546235
5697.48 5697.48 3.460000 2967.55 164.919 4.139923 0.557060
5702.77 5702.77 3.480000 2978.61 166.599 4.214351 0.569798
5708.08 5708.08 3.490000 2997.88 167.776 4.262396 0.579357