File: xdidata/Ti/Ti-K-Nd2Ti2O7.xdi
# XDI/1.0 BlueSky/1.5.0
# Beamline.name: 6BM
# Beamline.xray_source: NSLS-II three-pole wiggler
# Beamline.collimation: paraboloid mirror, 5 nm Rh on 30 nm Pt
# Beamline.focusing: not in use
# Beamline.harmonic_rejection: flat mirror, Si stripe, pitch = 7.0 mrad relative to beam
# Detector.i0: 10 cm N2
# Detector.i1: 25 cm N2
# Detector.i2: 25 cm N2
# Element.symbol: Ti
# Element.edge: K
# Facility.name: NSLS-II
# Facility.energy: 3.0
# Facility.current: 220.4
# Facility.mode: top-off
# Facility.gup: 301027
# Facility.saf: 304156
# Mono.name: Si(111)
# Mono.d_spacing: 3.13526
# Mono.encoder_resolution: 0.0000050 deg/ct
# Mono.angle_offset: 16.0571 deg
# Mono.scan_mode: pseudo channel cut
# Mono.scan_type: step
# Mono.direction: forward in energy
# Sample.name: Nd2Ti2O7
# Sample.prep: Powder in polyethylene glycol pellet
# Sample.x_position: -97.532 mm
# Sample.y_position: 117.543 mm
# Sample.wheel_position: -525.000 mm
# Scan.experimenters: Bruce Ravel, Martin Stennett
# Scan.edge_energy: 4966.0
# Scan.start_time: 2019-05-30T00:04:44
# Scan.end_time: 2019-05-30T00:47:57
# Scan.transient_id: 9773
# Scan.uid: 2ed10ec1-f110-4f87-8e39-c609e5f3e271
# Scan.plot_hint: ln(I0/It)  --  ln($5/$6)
# Scan.sequence: merge of 3 scans
# Column.1: energy eV
# Column.2: requested_energy eV
# Column.3: measurement_time seconds
# Column.4: mutrans
# Column.5: i0
# Column.6: itrans
# Column.7: irefer
# /////
#  sample disk prepared by Martin
# -----
# energy   requested_energy   measurement_time   mutrans   i0   itrans   irefer
4765.99 4766 0.500000 3.657538 11.0763 0.285852 0.023352
4776.01 4776 0.500000 3.652943 11.268 0.292007 0.023984
4786.01 4786 0.500000 3.626543 11.5012 0.306023 0.025467
4796.01 4796 0.500000 3.602157 11.7352 0.319958 0.026797
4806.01 4806 0.500000 3.576866 11.9725 0.334790 0.028551
4816.01 4816 0.500000 3.552279 12.2034 0.349738 0.030161
4826.01 4826 0.500000 3.527610 12.432 0.365202 0.031744
4836 4836 0.500000 3.503106 12.6666 0.381311 0.033661
4846 4846 0.500000 3.478883 12.9004 0.397871 0.035551
4856 4856 0.500000 3.455355 13.1326 0.414668 0.037711
4866.01 4866 0.500000 3.432534 13.3595 0.431579 0.039418
4876 4876 0.500000 3.409187 13.5856 0.449251 0.041716
4886 4886 0.500000 3.386822 13.8077 0.466922 0.043675
4896 4896 0.500000 3.363767 14.0226 0.485246 0.045909
4906 4906 0.500000 3.341419 14.2383 0.503845 0.048498
4916 4916 0.500000 3.318688 14.4548 0.523265 0.050756
4926 4926 0.500000 3.296520 14.6699 0.542955 0.053690
4936 4936 0.500000 3.274697 14.8764 0.562748 0.056035
4938 4938 0.500000 3.270052 14.9148 0.566830 0.056805
4940 4940 0.500000 3.265437 14.9522 0.570881 0.057098
4942 4942 0.500000 3.261464 14.9872 0.574496 0.057477
4943.99 4944 0.500000 3.256986 15.026 0.578560 0.058099
4946 4946 0.500000 3.252926 15.0637 0.582380 0.058539
4947.99 4948 0.500000 3.247483 15.0945 0.586747 0.059358
4950.01 4950 0.500000 3.243544 15.1292 0.590425 0.059602
4952 4952 0.500000 3.239612 15.1598 0.593947 0.060035
4954.01 4954 0.500000 3.234857 15.1912 0.598016 0.060899
4956 4956 0.500000 3.230765 15.2213 0.601655 0.060892
4956.25 4956.25 0.500000 3.230026 15.2213 0.602102 0.061302
4956.49 4956.5 0.500000 3.229605 15.2235 0.602442 0.061053
4956.74 4956.75 0.500000 3.229074 15.2267 0.602888 0.061260
4957 4957 0.500000 3.228547 15.2312 0.603384 0.061295
4957.24 4957.25 0.500000 3.228257 15.2348 0.603703 0.061351
4957.49 4957.5 0.500000 3.227801 15.2402 0.604194 0.061147
4957.74 4957.75 0.500000 3.227283 15.244 0.604653 0.061425
4957.99 4958 0.500000 3.226399 15.2462 0.605276 0.061424
4958.25 4958.25 0.500000 3.226099 15.2506 0.605632 0.061537
4958.49 4958.5 0.500000 3.225996 15.254 0.605833 0.061260
4958.74 4958.75 0.500000 3.224909 15.2597 0.606716 0.061698
4958.99 4959 0.500000 3.225070 15.2612 0.606678 0.061561
4959.25 4959.25 0.500000 3.224046 15.2646 0.607436 0.061686
4959.5 4959.5 0.500000 3.223662 15.269 0.607844 0.061791
4959.75 4959.75 0.500000 3.223134 15.2721 0.608287 0.061547
4960 4960 0.500000 3.222422 15.2761 0.608883 0.061729
4960.24 4960.25 0.500000 3.221886 15.2775 0.609258 0.061681
4960.5 4960.5 0.500000 3.221459 15.2839 0.609780 0.061911
4960.74 4960.75 0.500000 3.221007 15.2886 0.610241 0.061645
4961 4961 0.500000 3.220368 15.2952 0.610898 0.061674
4961.25 4961.25 0.500000 3.219145 15.2972 0.611721 0.061692
4961.5 4961.5 0.500000 3.219121 15.3011 0.611895 0.061702
4961.75 4961.75 0.500000 3.218438 15.3047 0.612457 0.061694
4962 4962 0.500000 3.218100 15.3116 0.612937 0.061693
4962.25 4962.25 0.500000 3.217897 15.3166 0.613264 0.061459
4962.49 4962.5 0.500000 3.217142 15.3205 0.613876 0.061314
4962.75 4962.75 0.500000 3.216396 15.322 0.614401 0.061272
4963 4963 0.500000 3.216184 15.3248 0.614643 0.061003
4963.25 4963.25 0.500000 3.215913 15.3315 0.615087 0.060515
4963.5 4963.5 0.500000 3.214860 15.3691 0.617238 0.060118
4963.75 4963.75 0.500000 3.214690 15.3742 0.617547 0.059261
4964 4964 0.500000 3.213881 15.3793 0.618251 0.057605
4964.25 4964.25 0.500000 3.213851 15.3849 0.618495 0.055264
4964.5 4964.5 0.500000 3.213622 15.3882 0.618768 0.051802
4964.75 4964.75 0.500000 3.212819 15.3923 0.619428 0.047610
4965 4965 0.500000 3.212393 15.3962 0.619849 0.044612
4965.25 4965.25 0.500000 3.211758 15.3979 0.620314 0.042758
4965.5 4965.5 0.500000 3.212101 15.3984 0.620120 0.042314
4965.75 4965.75 0.500000 3.211420 15.4058 0.620843 0.043394
4966 4966 0.500000 3.211439 15.4084 0.620937 0.044946
4966.25 4966.25 0.500000 3.211338 15.4117 0.621131 0.046728
4966.5 4966.5 0.500000 3.212162 15.414 0.620711 0.047860
4966.75 4966.75 0.500000 3.213420 15.4137 0.619920 0.048627
4967 4967 0.500000 3.215100 15.4158 0.618963 0.048797
4967.25 4967.25 0.500000 3.215512 15.4201 0.618884 0.048559
4967.5 4967.5 0.500000 3.215036 15.4237 0.619320 0.048065
4967.75 4967.75 0.500000 3.214752 15.4616 0.621018 0.047673
4968 4968 0.500000 3.215656 15.4665 0.620657 0.046765
4968.25 4968.25 0.500000 3.218497 15.4703 0.619056 0.046190
4968.5 4968.5 0.500000 3.224538 15.4729 0.615418 0.044981
4968.75 4968.75 0.500000 3.231263 15.4784 0.611525 0.044112
4969 4969 0.500000 3.236785 15.4789 0.608175 0.043027
4969.25 4969.25 0.500000 3.237078 15.4795 0.608011 0.042872
4969.5 4969.5 0.500000 3.231984 15.4751 0.610944 0.042682
4969.75 4969.75 0.500000 3.226082 15.4782 0.614656 0.042691
4970 4970 0.500000 3.221130 15.4868 0.618042 0.042469
4970.25 4970.25 0.500000 3.219304 15.4974 0.619619 0.042225
4970.5 4970.5 0.500000 3.216624 15.5104 0.621802 0.042445
4970.75 4970.75 0.500000 3.215227 15.5152 0.622876 0.042198
4971 4971 0.500000 3.213300 15.5239 0.624429 0.042094
4971.25 4971.25 0.500000 3.213306 15.5313 0.624721 0.041651
4971.5 4971.5 0.500000 3.213132 15.5388 0.625126 0.040961
4971.75 4971.75 0.500000 3.214211 15.5457 0.624730 0.040535
4972 4972 0.500000 3.215812 15.5496 0.623902 0.039599
4972.25 4972.25 0.500000 3.217526 15.5525 0.622947 0.038414
4972.5 4972.5 0.500000 3.218829 15.5749 0.623031 0.037736
4972.75 4972.75 0.500000 3.218548 15.5953 0.624019 0.037058
4973 4973 0.500000 3.218172 15.5999 0.624438 0.036163
4973.25 4973.25 0.500000 3.217550 15.6024 0.624923 0.035499
4973.5 4973.5 0.500000 3.216971 15.6073 0.625482 0.035026
4973.75 4973.75 0.500000 3.215603 15.6103 0.626451 0.034461
4974 4974 0.500000 3.214439 15.6091 0.627130 0.033737
4974.25 4974.25 0.500000 3.213482 15.6105 0.627796 0.033045
4974.5 4974.5 0.500000 3.212673 15.614 0.628443 0.032568
4974.75 4974.75 0.500000 3.212387 15.6173 0.628761 0.031864
4975 4975 0.500000 3.211873 15.6216 0.629260 0.031609
4975.25 4975.25 0.500000 3.211035 15.6184 0.629654 0.031072
4975.5 4975.5 0.500000 3.211212 15.614 0.629364 0.030278
4975.75 4975.75 0.500000 3.211644 15.614 0.629094 0.029340
4976 4976 0.500000 3.212129 15.6153 0.628842 0.029125
4976.25 4976.25 0.500000 3.211889 15.616 0.629019 0.028705
4976.5 4976.5 0.500000 3.212531 15.6159 0.628604 0.028513
4976.75 4976.75 0.500000 3.214091 15.6165 0.627655 0.027810
4977 4977 0.500000 3.215040 15.6157 0.627031 0.027641
4977.25 4977.25 0.500000 3.217000 15.6181 0.625901 0.027070
4977.5 4977.5 0.500000 3.218671 15.6226 0.625032 0.026802
4977.75 4977.75 0.500000 3.220828 15.6262 0.623842 0.026592
4978 4978 0.500000 3.223373 15.6257 0.622222 0.026255
4978.25 4978.25 0.500000 3.226117 15.6259 0.620520 0.025726
4978.5 4978.5 0.500000 3.228856 15.6271 0.618857 0.025849
4978.75 4978.75 0.500000 3.231965 15.6312 0.617112 0.025496
4979 4979 0.500000 3.236185 15.6313 0.614513 0.025109
4979.25 4979.25 0.500000 3.240296 15.629 0.611927 0.025271
4979.5 4979.5 0.500000 3.245350 15.6259 0.608699 0.024707
4979.75 4979.75 0.500000 3.250631 15.6211 0.605305 0.024772
4980 4980 0.500000 3.256584 15.6181 0.601603 0.024651
4980.25 4980.25 0.500000 3.262550 15.6162 0.597939 0.024345
4980.5 4980.5 0.500000 3.268742 15.6157 0.594195 0.024017
4980.75 4980.75 0.500000 3.275946 15.6137 0.589925 0.023712
4981 4981 0.500000 3.282584 15.6127 0.586015 0.023608
4981.25 4981.25 0.500000 3.288986 15.6131 0.582275 0.023271
4981.5 4981.5 0.500000 3.295041 15.6124 0.578700 0.023128
4981.75 4981.75 0.500000 3.300884 15.6154 0.575442 0.022996
4982 4982 0.500000 3.306271 15.6172 0.572402 0.022794
4982.25 4982.25 0.500000 3.311956 15.621 0.569296 0.022652
4982.5 4982.5 0.500000 3.317916 15.6222 0.565943 0.022400
4982.75 4982.75 0.500000 3.324002 15.6218 0.562529 0.022158
4983 4983 0.500000 3.329639 15.6222 0.559398 0.021979
4983.25 4983.25 0.500000 3.334304 15.622 0.556779 0.021946
4983.5 4983.5 0.500000 3.337317 15.6209 0.555034 0.021940
4983.75 4983.75 0.500000 3.340518 15.6175 0.553143 0.021734
4984 4984 0.500000 3.341773 15.6153 0.552380 0.021735
4984.25 4984.25 0.500000 3.340821 15.6138 0.552851 0.022056
4984.5 4984.5 0.500000 3.339459 15.6142 0.553616 0.022409
4984.75 4984.75 0.500000 3.338190 15.6182 0.554459 0.022139
4985 4985 0.500000 3.335441 15.6204 0.556052 0.022382
4985.25 4985.25 0.500000 3.332024 15.6222 0.558035 0.022733
4985.5 4985.5 0.500000 3.329041 15.6176 0.559545 0.022575
4985.75 4985.75 0.500000 3.325637 15.6183 0.561486 0.022876
4986 4986 0.500000 3.322226 15.6197 0.563449 0.022970
4986.25 4986.25 0.500000 3.319259 15.6213 0.565177 0.023255
4986.5 4986.5 0.500000 3.316092 15.6166 0.566796 0.023389
4986.75 4986.75 0.500000 3.313878 15.6127 0.567895 0.023532
4987 4987 0.500000 3.311116 15.6095 0.569360 0.023716
4987.25 4987.25 0.500000 3.309132 15.6076 0.570426 0.023630
4987.5 4987.5 0.500000 3.307229 15.609 0.571564 0.023576
4987.75 4987.75 0.500000 3.304817 15.6087 0.572932 0.024078
4988 4988 0.500000 3.303178 15.6138 0.574061 0.024083
4988.25 4988.25 0.500000 3.302059 15.6202 0.574941 0.023867
4988.5 4988.5 0.500000 3.300410 15.6309 0.576272 0.024054
4988.75 4988.75 0.500000 3.299050 15.6408 0.577423 0.023855
4989 4989 0.500000 3.297409 15.6521 0.578795 0.024215
4989.25 4989.25 0.500000 3.296135 15.6661 0.580054 0.024162
4989.5 4989.5 0.500000 3.295092 15.6777 0.581093 0.024189
4989.75 4989.75 0.500000 3.294338 15.6901 0.581989 0.024104
4990 4990 0.500000 3.293656 15.7045 0.582920 0.024265
4990.25 4990.25 0.500000 3.292370 15.7155 0.584072 0.024311
4990.5 4990.5 0.500000 3.292245 15.7262 0.584544 0.024505
4990.75 4990.75 0.500000 3.292155 15.7378 0.585034 0.024726
4991 4991 0.500000 3.292592 15.7487 0.585181 0.024473
4991.25 4991.25 0.500000 3.293144 15.76 0.585277 0.024586
4991.5 4991.5 0.500000 3.293707 15.7669 0.585202 0.024753
4991.75 4991.75 0.500000 3.294333 15.7746 0.585118 0.024576
4992 4992 0.500000 3.295636 15.7812 0.584607 0.024414
4992.25 4992.25 0.500000 3.296041 15.7914 0.584749 0.024759
4992.5 4992.5 0.500000 3.297387 15.7968 0.584161 0.024716
4992.75 4992.75 0.500000 3.298534 15.8031 0.583727 0.024636
4993 4993 0.500000 3.298990 15.8076 0.583621 0.024766
4993.25 4993.25 0.500000 3.300154 15.8121 0.583109 0.024599
4993.5 4993.5 0.500000 3.302004 15.8187 0.582273 0.024641
4993.75 4993.75 0.500000 3.302909 15.824 0.581944 0.024583
4994 4994 0.500000 3.303346 15.8387 0.582230 0.024674
4994.25 4994.25 0.500000 3.304352 15.8672 0.582693 0.024562
4994.5 4994.5 0.500000 3.304554 15.868 0.582601 0.024779
4994.75 4994.75 0.500000 3.305709 15.8704 0.582021 0.024405
4995 4995 0.500000 3.305895 15.8765 0.582131 0.024296
4995.25 4995.25 0.500000 3.306571 15.8817 0.581932 0.024055
4995.51 4995.5 0.500000 3.306798 15.8837 0.581871 0.023933
4995.75 4995.75 0.500000 3.306836 15.8828 0.581817 0.023845
4996 4996 0.700000 3.306833 22.2023 0.813312 0.033225
4997.09 4997.08 0.710000 3.305908 22.5633 0.827308 0.032835
4998.18 4998.18 0.730000 3.302885 23.2471 0.854942 0.033355
4999.3 4999.29 0.740000 3.298230 23.584 0.871397 0.033400
5000.44 5000.43 0.750000 3.291917 23.9399 0.890148 0.034163
5001.59 5001.58 0.760000 3.285378 24.3027 0.909554 0.035223
5002.77 5002.76 0.780000 3.278446 24.9949 0.941987 0.036450
5003.96 5003.95 0.790000 3.272060 25.3721 0.962319 0.037418
5005.17 5005.16 0.800000 3.266480 25.7505 0.982126 0.038672
5006.4 5006.39 0.810000 3.261366 26.14 1.002107 0.040513
5007.65 5007.64 0.830000 3.257398 26.8493 1.033387 0.042625
5008.92 5008.91 0.840000 3.252694 27.227 1.052862 0.044505
5010.21 5010.2 0.850000 3.245527 27.6084 1.075303 0.046234
5011.52 5011.51 0.860000 3.238781 27.9845 1.097321 0.047507
5012.84 5012.83 0.880000 3.232924 28.7261 1.133011 0.049416
5014.19 5014.18 0.890000 3.227897 29.1263 1.154596 0.050511
5015.55 5015.54 0.900000 3.223505 29.5004 1.174581 0.052141
5016.94 5016.93 0.910000 3.220255 29.8743 1.193325 0.053520
5018.34 5018.33 0.930000 3.217629 30.5907 1.225152 0.055363
5019.76 5019.75 0.940000 3.214626 30.9852 1.244698 0.056585
5021.2 5021.19 0.950000 3.211225 31.3768 1.264714 0.058009
5022.66 5022.65 0.960000 3.208512 31.7673 1.283930 0.058971
5024.13 5024.13 0.980000 3.205597 32.4915 1.317025 0.060663
5025.63 5025.63 0.990000 3.203156 32.8857 1.336278 0.061375
5027.15 5027.14 1.000000 3.200494 33.2794 1.355882 0.061976
5028.68 5028.68 1.010000 3.197008 33.6745 1.376743 0.062337
5030.24 5030.24 1.030000 3.193448 34.407 1.411720 0.063302
5031.82 5031.81 1.040000 3.189916 34.8038 1.433062 0.063072
5033.41 5033.4 1.050000 3.186722 35.2083 1.454370 0.062724
5035.01 5035.01 1.060000 3.184123 35.6052 1.474564 0.062349
5036.65 5036.65 1.080000 3.182147 36.3446 1.508168 0.062327
5038.29 5038.3 1.090000 3.179782 36.7527 1.528715 0.062984
5039.96 5039.97 1.100000 3.177394 37.1608 1.549378 0.063793
5041.65 5041.65 1.110000 3.174197 37.5695 1.571444 0.064994
5043.35 5043.36 1.130000 3.170789 38.3109 1.607920 0.067213
5045.09 5045.09 1.140000 3.167261 38.7321 1.631357 0.069570
5046.83 5046.83 1.150000 3.164176 39.1461 1.653890 0.071787
5048.6 5048.6 1.160000 3.160825 39.5598 1.676976 0.074159
5050.38 5050.38 1.180000 3.158024 40.3237 1.714147 0.077342
5052.18 5052.18 1.190000 3.154874 40.743 1.737430 0.080445
5054 5054 1.200000 3.151972 41.1717 1.760827 0.082718
5055.83 5055.84 1.210000 3.148782 41.6034 1.784958 0.084959
5057.69 5057.7 1.230000 3.145682 42.3666 1.823351 0.087366
5059.58 5059.58 1.240000 3.142466 42.8047 1.848135 0.088426
5061.48 5061.48 1.250000 3.139017 43.2503 1.873840 0.089984
5063.4 5063.4 1.260000 3.135494 43.6829 1.899261 0.091680
5065.33 5065.33 1.280000 3.131865 44.4811 1.940994 0.094466
5067.29 5067.29 1.290000 3.127673 44.9305 1.968853 0.096437
5069.26 5069.26 1.300000 3.123406 45.3828 1.997162 0.098256
5071.26 5071.26 1.310000 3.118791 45.8362 2.026443 0.100512
5073.27 5073.27 1.330000 3.114223 46.6469 2.071735 0.102825
5075.3 5075.3 1.340000 3.109566 47.0947 2.101387 0.103732
5077.35 5077.35 1.350000 3.104943 47.5629 2.132114 0.104323
5079.42 5079.42 1.360000 3.099887 48.0265 2.163802 0.104259
5081.51 5081.51 1.380000 3.094232 48.8493 2.213339 0.104873
5083.61 5083.61 1.390000 3.088594 49.3164 2.247152 0.105129
5085.74 5085.74 1.400000 3.082684 49.7884 2.282088 0.105002
5087.89 5087.89 1.410000 3.077118 50.2616 2.316645 0.104914
5090.05 5090.05 1.430000 3.071952 51.1081 2.367862 0.106975
5092.23 5092.23 1.440000 3.066939 51.6891 2.406818 0.108731
5094.44 5094.44 1.450000 3.062331 52.2277 2.443132 0.112328
5096.66 5096.66 1.460000 3.058158 52.7179 2.476379 0.116648
5098.9 5098.9 1.480000 3.053865 53.5754 2.527499 0.122844
5101.16 5101.16 1.490000 3.049333 54.0729 2.562557 0.128036
5103.44 5103.44 1.500000 3.044431 54.5811 2.599344 0.132911
5105.74 5105.74 1.510000 3.039908 55.0845 2.635216 0.136373
5108.05 5108.05 1.530000 3.035279 55.9485 2.688960 0.139710
5110.39 5110.39 1.540000 3.030900 56.4534 2.725125 0.141746
5112.74 5112.74 1.550000 3.026558 56.9641 2.761737 0.144079
5115.12 5115.12 1.560000 3.022155 57.4674 2.798423 0.146376
5117.51 5117.51 1.580000 3.017383 58.4446 2.859645 0.150055
5119.92 5119.92 1.590000 3.012685 59.0034 2.900581 0.152463
5122.35 5122.35 1.600000 3.007503 59.5329 2.941817 0.155173
5124.8 5124.8 1.610000 3.002512 60.0597 2.982703 0.157923
5127.27 5127.27 1.630000 2.997607 60.9691 3.042753 0.162464
5129.76 5129.76 1.640000 2.992521 61.5181 3.085781 0.165397
5132.27 5132.27 1.650000 2.987540 62.0687 3.128955 0.168359
5134.79 5134.79 1.660000 2.982571 62.614 3.172167 0.170510
5137.34 5137.34 1.680000 2.977634 63.5978 3.237972 0.173658
5139.9 5139.9 1.690000 2.972658 64.2509 3.287536 0.175343
5142.49 5142.49 1.700000 2.968039 64.8124 3.331616 0.176790
5145.09 5145.09 1.710000 2.963123 65.3701 3.376838 0.178160
5147.71 5147.71 1.730000 2.958463 66.3177 3.441811 0.180646
5150.35 5150.35 1.740000 2.953127 66.8981 3.490498 0.183294
5153.01 5153.01 1.750000 2.947833 67.4643 3.538699 0.187307
5155.69 5155.69 1.760000 2.942593 68.0414 3.587742 0.192357
5158.39 5158.39 1.780000 2.937177 69.0018 3.658155 0.198131
5161.11 5161.11 1.790000 2.931939 69.5749 3.707908 0.203152
5163.84 5163.84 1.800000 2.926450 70.1616 3.759739 0.208026
5166.6 5166.6 1.810000 2.921117 70.7457 3.811314 0.212694
5169.37 5169.37 1.830000 2.915343 71.7018 3.885204 0.218674
5172.17 5172.17 1.840000 2.909744 72.285 3.938778 0.224513
5174.98 5174.98 1.850000 2.904112 72.8514 3.992063 0.230190
5177.81 5177.81 1.860000 2.898303 73.4357 4.047537 0.235409
5180.66 5180.66 1.880000 2.892422 74.4243 4.126212 0.241893
5183.53 5183.53 1.890000 2.886760 75.0327 4.183557 0.246522
5186.42 5186.42 1.900000 2.881023 75.6281 4.241042 0.250316
5189.32 5189.32 1.910000 2.875373 76.2168 4.298240 0.254661
5192.25 5192.25 1.930000 2.869568 77.2014 4.379122 0.260335
5195.2 5195.2 1.940000 2.863753 77.7786 4.437604 0.263948
5198.16 5198.16 1.950000 2.857931 78.3197 4.494557 0.268234
5201.14 5201.14 1.960000 2.852109 78.9331 4.556197 0.271689
5204.15 5204.15 1.980000 2.846284 79.9721 4.643146 0.276934
5207.17 5207.17 1.990000 2.840662 80.5754 4.704551 0.280974
5210.21 5210.21 2.000000 2.834986 81.1735 4.766465 0.284558
5213.27 5213.27 2.010000 2.829339 81.7881 4.829737 0.289396
5216.35 5216.35 2.030000 2.823637 82.8299 4.919234 0.296004
5219.44 5219.45 2.040000 2.817853 83.4851 4.986879 0.301873
5222.56 5222.56 2.050000 2.811921 84.1501 5.056536 0.308118
5225.7 5225.7 2.060000 2.806059 84.7961 5.125314 0.313756
5228.85 5228.85 2.080000 2.800085 85.8505 5.220127 0.321060
5232.03 5232.03 2.090000 2.794314 86.5132 5.290874 0.327589
5235.22 5235.22 2.100000 2.788391 87.2884 5.369982 0.334830
5238.43 5238.43 2.110000 2.782554 88.1046 5.451940 0.342589
5241.66 5241.66 2.130000 2.776350 89.1729 5.552363 0.351586
5244.92 5244.92 2.140000 2.770563 89.8296 5.625724 0.359378
5248.18 5248.18 2.150000 2.764890 89.9608 5.665999 0.364823
5251.47 5251.47 2.160000 2.758882 90.8949 5.759333 0.373744
5254.78 5254.78 2.180000 2.752805 92.354 5.887449 0.384395
5258.11 5258.11 2.190000 2.746861 93.4337 5.991789 0.394001
5261.45 5261.45 2.200000 2.740809 94.1567 6.074802 0.401728
5264.82 5264.82 2.210000 2.734627 94.9854 6.166283 0.409277
5268.2 5268.2 2.230000 2.728577 96.1827 6.281891 0.418843
5271.6 5271.6 2.240000 2.722554 96.9673 6.371387 0.425485
5275.03 5275.03 2.250000 2.716675 97.8327 6.466168 0.432755
5278.47 5278.47 2.260000 2.710532 97.6702 6.495206 0.436223
5281.93 5281.93 2.280000 2.704443 99.731 6.672754 0.449436
5285.4 5285.4 2.290000 2.698620 100.739 6.779541 0.458038
5288.9 5288.9 2.300000 2.692562 101.528 6.874186 0.466196
5292.42 5292.42 2.310000 2.686415 102.315 6.970163 0.475464
5295.96 5295.96 2.330000 2.680197 103.61 7.102408 0.487490
5299.51 5299.51 2.340000 2.673903 104.305 7.195242 0.496795
5303.09 5303.09 2.350000 2.667014 105.088 7.299367 0.506867
5306.68 5306.68 2.360000 2.660673 105.942 7.405432 0.516135
5310.29 5310.29 2.380000 2.654597 107.196 7.538839 0.528811
5313.92 5313.92 2.390000 2.648043 108.007 7.645745 0.539149
5317.57 5317.57 2.400000 2.641832 108.8 7.749900 0.549373
5321.24 5321.24 2.410000 2.635421 109.43 7.844923 0.559313
5324.93 5324.93 2.430000 2.628927 110.487 7.972277 0.572238
5328.64 5328.64 2.440000 2.622524 111.049 8.064340 0.582314
5332.36 5332.36 2.450000 2.615746 111.755 8.170763 0.593760
5336.11 5336.11 2.460000 2.609575 112.587 8.282564 0.605667
5339.87 5339.87 2.480000 2.603287 113.843 8.427832 0.620721
5343.66 5343.66 2.490000 2.596585 114.576 8.539133 0.633088
5347.46 5347.46 2.500000 2.591025 115.151 8.629784 0.644238
5351.28 5351.28 2.510000 2.584548 115.649 8.723446 0.655038
5355.12 5355.12 2.530000 2.576277 116.225 8.839654 0.666584
5358.98 5358.98 2.540000 2.570840 117.792 9.007712 0.683000
5362.86 5362.86 2.550000 2.564509 118.473 9.117335 0.694173
5366.76 5366.76 2.560000 2.557791 119.043 9.222954 0.704471
5370.68 5370.68 2.580000 2.550833 120.014 9.363067 0.717779
5374.61 5374.61 2.590000 2.544199 120.603 9.471680 0.729426
5378.57 5378.57 2.600000 2.537410 121.287 9.590235 0.742625
5382.54 5382.54 2.610000 2.530816 121.876 9.700580 0.755270
5386.54 5386.54 2.630000 2.524161 122.853 9.843681 0.770348
5390.55 5390.55 2.640000 2.517396 123.271 9.944155 0.782685
5394.58 5394.58 2.650000 2.510907 123.835 10.0547 0.796566
5398.63 5398.63 2.660000 2.504352 124.019 10.1359 0.807359
5402.7 5402.7 2.680000 2.497673 124.999 10.2845 0.823389
5406.79 5406.79 2.690000 2.491074 125.287 10.3763 0.836123
5410.9 5410.9 2.700000 2.484332 125.846 10.4932 0.850748
5415.02 5415.02 2.710000 2.477739 126.322 10.6026 0.864787
5419.17 5419.17 2.730000 2.471124 126.697 10.7047 0.878357
5423.33 5423.33 2.740000 2.464670 127.309 10.826 0.893942
5427.52 5427.52 2.750000 2.458239 127.691 10.9285 0.907864
5431.72 5431.72 2.760000 2.451589 128.248 11.0494 0.923441
5435.94 5435.94 2.780000 2.445074 129.227 11.2065 0.942303
5440.18 5440.18 2.790000 2.438483 129.646 11.3172 0.956925
5444.44 5444.44 2.800000 2.432020 130.087 11.4293 0.972334
5448.72 5448.72 2.810000 2.425134 130.547 11.549 0.987745
5453.02 5453.02 2.830000 2.418497 131.524 11.7129 1.007329
5457.34 5457.34 2.840000 2.411832 132.146 11.8469 1.023896
5461.67 5461.67 2.850000 2.405047 132.73 11.9804 1.040913
5466.03 5466.03 2.860000 2.398463 133.414 12.1217 1.059198
5470.4 5470.4 2.880000 2.391730 134.581 12.3103 1.081530
5474.8 5474.8 2.890000 2.385231 135.328 12.4593 1.100140
5479.21 5479.21 2.900000 2.378642 136.075 12.6109 1.119625
5483.64 5483.64 2.910000 2.372218 136.772 12.7572 1.138659
5488.09 5488.09 2.930000 2.367763 137.972 12.9266 1.160020
5492.56 5492.56 2.940000 2.360319 138.767 13.0983 1.182300
5497.05 5497.05 2.950000 2.352969 139.581 13.2723 1.204693
5501.56 5501.56 2.960000 2.346415 140.356 13.4337 1.225923
5506.08 5506.08 2.980000 2.339850 141.595 13.6416 1.252247
5510.63 5510.63 2.990000 2.333329 142.436 13.8124 1.274756
5515.19 5515.19 3.000000 2.326793 143.318 13.989 1.298233
5519.78 5519.78 3.010000 2.320355 144.215 14.1675 1.322699
5524.38 5524.38 3.030000 2.313900 145.593 14.3955 1.352019
5529 5529 3.040000 2.307168 146.533 14.5863 1.377358
5533.64 5533.64 3.050000 2.300472 147.867 14.8179 1.407319
5538.3 5538.3 3.060000 2.293550 148.736 15.0086 1.434068
5542.98 5542.98 3.080000 2.286766 150.082 15.2475 1.465272
5547.68 5547.68 3.090000 2.280145 150.945 15.437 1.491760
5552.4 5552.4 3.100000 2.273319 151.832 15.6341 1.519563
5557.13 5557.13 3.110000 2.266566 152.687 15.8287 1.547129
5561.89 5561.89 3.130000 2.259915 154.204 16.0926 1.581505
5566.66 5566.66 3.140000 2.253135 155.352 16.3227 1.613293
5571.46 5571.46 3.150000 2.246218 156.262 16.5322 1.642755
5576.27 5576.27 3.160000 2.239370 157.108 16.736 1.672793
5581.1 5581.1 3.180000 2.232537 158.857 17.0384 1.712980
5585.95 5585.95 3.190000 2.225834 159.762 17.2507 1.743232
5590.82 5590.82 3.200000 2.218920 160.665 17.4686 1.775629
5595.71 5595.71 3.210000 2.212223 161.531 17.6807 1.807321
5600.62 5600.62 3.230000 2.205260 162.896 17.9547 1.845634
5605.54 5605.54 3.240000 2.198497 163.778 18.1744 1.878959
5610.49 5610.49 3.250000 2.191547 164.64 18.3974 1.912922
5615.45 5615.45 3.260000 2.184656 165.524 18.6241 1.946714
5620.44 5620.44 3.280000 2.177783 166.852 18.9031 1.988333
5625.44 5625.44 3.290000 2.170904 166.849 19.0332 2.013085
5630.46 5630.46 3.300000 2.163790 167.628 19.2585 2.049183
5635.5 5635.5 3.310000 2.157051 168.118 19.4454 2.081853
5640.56 5640.56 3.330000 2.150448 169.546 19.7405 2.125445
5645.64 5645.64 3.340000 2.142981 170.265 19.9729 2.163088
5650.74 5650.74 3.350000 2.136199 170.904 20.1842 2.198472
5655.86 5655.86 3.360000 2.128866 171.775 20.4365 2.239214
5660.99 5660.99 3.380000 2.121491 173.181 20.7563 2.287273
5666.15 5666.15 3.390000 2.114496 174.173 21.0217 2.330330
5671.32 5671.32 3.400000 2.107487 175.295 21.3059 2.374893
5676.52 5676.52 3.410000 2.100702 176.503 21.5988 2.420948
5681.73 5681.73 3.430000 2.093617 178.048 21.9429 2.474775
5686.96 5686.96 3.440000 2.086603 179 22.2154 2.519752
5692.21 5692.21 3.450000 2.079613 179.953 22.4903 2.565386
5697.48 5697.48 3.460000 2.072517 181.135 22.7992 2.616456
5702.77 5702.77 3.480000 2.065537 182.415 23.1212 2.668656
5708.08 5708.08 3.490000 2.058446 183.155 23.3802 2.714109