File: xdidata/Ti/Ti-K-Ce067TiO3.xdi
# XDI/1.0 BlueSky/1.5.0
# Beamline.name: 6BM
# Beamline.xray_source: NSLS-II three-pole wiggler
# Beamline.collimation: paraboloid mirror, 5 nm Rh on 30 nm Pt
# Beamline.focusing: not in use
# Beamline.harmonic_rejection: flat mirror, Si stripe, pitch = 7.0 mrad relative to beam
# Detector.i0: 10 cm N2
# Detector.i1: 25 cm N2
# Detector.i2: 25 cm N2
# Element.symbol: Ti
# Element.edge: K
# Facility.name: NSLS-II
# Facility.energy: 3.0
# Facility.current: 220.0
# Facility.mode: top-off
# Facility.gup: 301027
# Facility.saf: 304156
# Mono.name: Si(111)
# Mono.d_spacing: 3.13526
# Mono.encoder_resolution: 0.0000050 deg/ct
# Mono.angle_offset: 16.0571 deg
# Mono.scan_mode: pseudo channel cut
# Mono.scan_type: step
# Mono.direction: forward in energy
# Sample.name: Ce0.67TiO3
# Sample.prep: Powder in polyethylene glycol pellet
# Sample.x_position: -97.532 mm
# Sample.y_position: 117.543 mm
# Sample.wheel_position: -585.000 mm
# Scan.experimenters: Bruce Ravel, Martin Stennett
# Scan.edge_energy: 4966.0
# Scan.start_time: 2019-05-30T02:58:06
# Scan.end_time: 2019-05-30T03:41:20
# Scan.transient_id: 9785
# Scan.uid: 0c4a041b-07c3-4785-b3c7-19ed2b21f262
# Scan.plot_hint: ln(I0/It)  --  ln($5/$6)
# Scan.sequence: merge of 3 scans
# Column.1: energy eV
# Column.2: requested_energy eV
# Column.3: measurement_time seconds
# Column.4: mutrans
# Column.5: i0
# Column.6: itrans
# Column.7: irefer
# /////
#  sample disk prepared by Martin
# -----
# energy   requested_energy   measurement_time   mutrans   i0   itrans   irefer
4766 4766 0.500000 4.131623 11.0342 0.177176 0.015323
4776.01 4776 0.500000 4.104292 11.2623 0.185848 0.016036
4786.01 4786 0.500000 4.073904 11.4841 0.195355 0.017063
4796.01 4796 0.500000 4.044654 11.7095 0.205100 0.017783
4806.01 4806 0.500000 4.016825 11.9348 0.214945 0.018844
4816.01 4816 0.500000 3.987534 12.1535 0.225391 0.020147
4826.01 4826 0.500000 3.959676 12.374 0.235965 0.021060
4836 4836 0.500000 3.931513 12.6007 0.247147 0.022484
4846 4846 0.500000 3.904353 12.8322 0.258615 0.023650
4856 4856 0.500000 3.876666 13.057 0.270534 0.024897
4866.01 4866 0.500000 3.849836 13.2805 0.282655 0.026341
4876.01 4876 0.500000 3.822521 13.5026 0.295338 0.027960
4886 4886 0.500000 3.795007 13.7174 0.308405 0.029746
4896 4896 0.500000 3.768692 13.9249 0.321418 0.031327
4906.01 4906 0.500000 3.742544 14.1244 0.334664 0.032819
4916 4916 0.500000 3.716249 14.3253 0.348464 0.034462
4926 4926 0.500000 3.690492 14.5253 0.362546 0.036397
4936 4936 0.500000 3.664008 14.7197 0.377261 0.038324
4938 4938 0.500000 3.659510 14.7548 0.379867 0.038468
4940 4940 0.500000 3.654386 14.7944 0.382838 0.038749
4942 4942 0.500000 3.649098 14.8283 0.385752 0.039642
4944 4944 0.500000 3.644300 14.8624 0.388498 0.039501
4946.01 4946 0.500000 3.639761 14.8975 0.391188 0.040084
4948.01 4948 0.500000 3.634537 14.9273 0.394022 0.040239
4950.01 4950 0.500000 3.629117 14.9644 0.397151 0.040839
4952 4952 0.500000 3.624766 14.995 0.399694 0.040997
4954 4954 0.500000 3.619637 15.0234 0.402514 0.041061
4956 4956 0.500000 3.614962 15.0522 0.405173 0.041918
4956.25 4956.25 0.500000 3.613904 15.0542 0.405658 0.041950
4956.5 4956.5 0.500000 3.613731 15.0579 0.405831 0.041783
4956.75 4956.75 0.500000 3.612952 15.0586 0.406161 0.041910
4957 4957 0.500000 3.612576 15.0635 0.406447 0.041888
4957.24 4957.25 0.500000 3.611423 15.0645 0.406942 0.042111
4957.5 4957.5 0.500000 3.610939 15.068 0.407234 0.042032
4957.74 4957.75 0.500000 3.610847 15.0703 0.407335 0.041957
4957.99 4958 0.500000 3.609668 15.0773 0.408003 0.042083
4958.24 4958.25 0.500000 3.609671 15.0934 0.408440 0.042051
4958.49 4958.5 0.500000 3.608841 15.0953 0.408828 0.042168
4958.75 4958.75 0.500000 3.608753 15.1092 0.409243 0.042138
4959 4959 0.500000 3.607798 15.1117 0.409702 0.042382
4959.25 4959.25 0.500000 3.607781 15.1146 0.409792 0.042061
4959.5 4959.5 0.500000 3.606180 15.1196 0.410578 0.042428
4959.75 4959.75 0.500000 3.606517 15.1198 0.410446 0.042476
4960 4960 0.500000 3.605790 15.122 0.410802 0.042179
4960.25 4960.25 0.500000 3.604931 15.129 0.411349 0.042358
4960.49 4960.5 0.500000 3.603984 15.1318 0.411813 0.042463
4960.75 4960.75 0.500000 3.604283 15.1363 0.411813 0.042071
4961 4961 0.500000 3.603100 15.1395 0.412387 0.042443
4961.25 4961.25 0.500000 3.602809 15.143 0.412602 0.042370
4961.5 4961.5 0.500000 3.602821 15.1469 0.412706 0.042224
4961.75 4961.75 0.500000 3.601771 15.1544 0.413342 0.042250
4962 4962 0.500000 3.601162 15.1599 0.413742 0.042423
4962.24 4962.25 0.500000 3.600971 15.1632 0.413912 0.042083
4962.5 4962.5 0.500000 3.600134 15.163 0.414255 0.042032
4962.74 4962.75 0.500000 3.599710 15.176 0.414787 0.041974
4962.99 4963 0.500000 3.599607 15.2098 0.415753 0.041827
4963.25 4963.25 0.500000 3.598404 15.2147 0.416388 0.041979
4963.5 4963.5 0.500000 3.598026 15.2184 0.416643 0.041694
4963.75 4963.75 0.500000 3.598153 15.2196 0.416627 0.041056
4964 4964 0.500000 3.597566 15.2236 0.416979 0.040292
4964.24 4964.25 0.500000 3.596950 15.2283 0.417366 0.039046
4964.5 4964.5 0.500000 3.596942 15.233 0.417497 0.036878
4964.75 4964.75 0.500000 3.596690 15.2394 0.417779 0.034190
4965 4965 0.500000 3.596696 15.2409 0.417818 0.031605
4965.25 4965.25 0.500000 3.596808 15.2424 0.417811 0.029929
4965.5 4965.5 0.500000 3.597018 15.2467 0.417841 0.029190
4965.75 4965.75 0.500000 3.597971 15.251 0.417563 0.029503
4966 4966 0.500000 3.599600 15.2562 0.417028 0.030421
4966.25 4966.25 0.500000 3.600874 15.2568 0.416512 0.031329
4966.5 4966.5 0.500000 3.603578 15.2619 0.415515 0.032390
4966.75 4966.75 0.500000 3.606034 15.2591 0.414427 0.032719
4967 4967 0.500000 3.611008 15.2614 0.412424 0.032816
4967.25 4967.25 0.500000 3.613912 15.2643 0.411311 0.033100
4967.5 4967.5 0.500000 3.615911 15.2706 0.410664 0.032751
4967.75 4967.75 0.500000 3.615868 15.2764 0.410836 0.032306
4968 4968 0.500000 3.615141 15.2802 0.411239 0.032023
4968.25 4968.25 0.500000 3.617668 15.2842 0.410304 0.031379
4968.5 4968.5 0.500000 3.621982 15.2877 0.408647 0.030808
4968.75 4968.75 0.500000 3.628565 15.2882 0.405980 0.030102
4969 4969 0.500000 3.636635 15.2888 0.402727 0.029375
4969.25 4969.25 0.500000 3.641560 15.2885 0.400743 0.028689
4969.5 4969.5 0.500000 3.642329 15.2958 0.400617 0.028607
4969.75 4969.75 0.500000 3.640229 15.3174 0.402021 0.028618
4970 4970 0.500000 3.638420 15.3242 0.402934 0.028546
4970.25 4970.25 0.500000 3.636735 15.3318 0.403807 0.028438
4970.5 4970.5 0.500000 3.635393 15.3425 0.404642 0.028433
4970.75 4970.75 0.500000 3.633760 15.3547 0.405622 0.028372
4971 4971 0.500000 3.633108 15.3606 0.406043 0.028145
4971.25 4971.25 0.500000 3.632072 15.367 0.406629 0.028024
4971.5 4971.5 0.500000 3.632787 15.3745 0.406535 0.027690
4971.75 4971.75 0.500000 3.635602 15.3813 0.405574 0.027002
4972 4972 0.500000 3.639262 15.3868 0.404234 0.026591
4972.25 4972.25 0.500000 3.643327 15.3892 0.402661 0.025892
4972.5 4972.5 0.500000 3.646726 15.3915 0.401361 0.025276
4972.75 4972.75 0.500000 3.648872 15.3955 0.400599 0.024767
4973 4973 0.500000 3.649785 15.4 0.400351 0.024186
4973.25 4973.25 0.500000 3.650148 15.4022 0.400262 0.023815
4973.5 4973.5 0.500000 3.649760 15.4067 0.400531 0.023034
4973.75 4973.75 0.500000 3.647603 15.4091 0.401462 0.022771
4974 4974 0.500000 3.644348 15.4109 0.402811 0.022585
4974.25 4974.25 0.500000 3.642032 15.4135 0.403819 0.022205
4974.5 4974.5 0.500000 3.639545 15.4156 0.404887 0.021713
4974.75 4974.75 0.500000 3.636286 15.4159 0.406208 0.021480
4975 4975 0.500000 3.635055 15.4178 0.406760 0.021134
4975.25 4975.25 0.500000 3.633777 15.4173 0.407266 0.020731
4975.5 4975.5 0.500000 3.633001 15.4157 0.407541 0.020435
4975.75 4975.75 0.500000 3.633709 15.4142 0.407213 0.020121
4976 4976 0.500000 3.634803 15.4172 0.406839 0.019799
4976.25 4976.25 0.500000 3.637655 15.4112 0.405540 0.019248
4976.5 4976.5 0.500000 3.640808 15.4149 0.404344 0.019139
4976.75 4976.75 0.500000 3.644684 15.4158 0.402818 0.018833
4977 4977 0.500000 3.650269 15.4169 0.400595 0.018302
4977.25 4977.25 0.500000 3.657080 15.417 0.397896 0.017770
4977.5 4977.5 0.500000 3.664817 15.4185 0.394855 0.017647
4977.75 4977.75 0.500000 3.672685 15.4187 0.391778 0.017416
4978 4978 0.500000 3.682879 15.4211 0.387830 0.017195
4978.25 4978.25 0.500000 3.694145 15.4228 0.383526 0.016695
4978.5 4978.5 0.500000 3.705997 15.4286 0.379151 0.016475
4978.75 4978.75 0.500000 3.719272 15.4297 0.374209 0.016345
4979 4979 0.500000 3.733179 15.4255 0.368941 0.015647
4979.25 4979.25 0.500000 3.747238 15.4219 0.363711 0.015635
4979.5 4979.5 0.500000 3.761914 15.4199 0.358338 0.015258
4979.75 4979.75 0.500000 3.778181 15.4173 0.352519 0.015262
4980 4980 0.500000 3.795596 15.415 0.346348 0.014870
4980.25 4980.25 0.500000 3.816360 15.4129 0.339205 0.014298
4980.5 4980.5 0.500000 3.837145 15.4108 0.332257 0.014117
4980.75 4980.75 0.500000 3.861088 15.4056 0.324232 0.013929
4981 4981 0.500000 3.887360 15.4056 0.315805 0.013716
4981.25 4981.25 0.500000 3.914419 15.4025 0.307270 0.013170
4981.5 4981.5 0.500000 3.941554 15.4036 0.299063 0.013055
4981.75 4981.75 0.500000 3.970061 15.4054 0.290682 0.012406
4982 4982 0.500000 3.997882 15.4067 0.282817 0.012217
4982.25 4982.25 0.500000 4.023936 15.4053 0.275468 0.011911
4982.5 4982.5 0.500000 4.047719 15.4089 0.269092 0.011670
4982.75 4982.75 0.500000 4.069634 15.4068 0.263200 0.011366
4983 4983 0.500000 4.087870 15.411 0.258561 0.011325
4983.25 4983.25 0.500000 4.101400 15.4111 0.255038 0.011253
4983.5 4983.5 0.500000 4.112075 15.4087 0.252305 0.011003
4983.75 4983.75 0.500000 4.116308 15.4076 0.251217 0.011001
4984 4984 0.500000 4.115911 15.4024 0.251230 0.011006
4984.25 4984.25 0.500000 4.111677 15.4011 0.252279 0.011197
4984.5 4984.5 0.500000 4.105647 15.4004 0.253780 0.010899
4984.75 4984.75 0.500000 4.095438 15.4015 0.256410 0.011465
4985 4985 0.500000 4.086881 15.4005 0.258587 0.011433
4985.25 4985.25 0.500000 4.075766 15.4029 0.261542 0.011850
4985.5 4985.5 0.500000 4.065849 15.4059 0.264194 0.011968
4985.75 4985.75 0.500000 4.056724 15.4049 0.266591 0.011782
4986 4986 0.500000 4.046667 15.4042 0.269259 0.011981
4986.25 4986.25 0.500000 4.038317 15.4009 0.271472 0.011961
4986.5 4986.5 0.500000 4.029920 15.402 0.273767 0.012245
4986.75 4986.75 0.500000 4.023194 15.3982 0.275563 0.012317
4987 4987 0.500000 4.018293 15.3948 0.276856 0.012428
4987.26 4987.25 0.500000 4.013961 15.3968 0.278097 0.012613
4987.5 4987.5 0.500000 4.011780 15.4409 0.279497 0.012638
4987.75 4987.75 0.500000 4.010173 15.439 0.279909 0.012698
4988 4988 0.500000 4.009425 15.4427 0.280190 0.012842
4988.25 4988.25 0.500000 4.010772 15.4492 0.279931 0.012731
4988.5 4988.5 0.500000 4.012352 15.457 0.279633 0.012712
4988.75 4988.75 0.500000 4.013101 15.4632 0.279533 0.012591
4989 4989 0.500000 4.013949 15.4769 0.279535 0.012897
4989.25 4989.25 0.500000 4.017568 15.4845 0.278664 0.012503
4989.5 4989.5 0.500000 4.020966 15.5005 0.278013 0.012351
4989.75 4989.75 0.500000 4.022470 15.5099 0.277763 0.012647
4990 4990 0.500000 4.025470 15.5236 0.277173 0.012696
4990.25 4990.25 0.500000 4.030045 15.533 0.276083 0.012356
4990.5 4990.5 0.500000 4.033287 15.5424 0.275352 0.012545
4990.75 4990.75 0.500000 4.036052 15.556 0.274822 0.012712
4991.01 4991 0.500000 4.041397 15.5663 0.273540 0.012415
4991.25 4991.25 0.500000 4.043212 15.5764 0.273230 0.012534
4991.5 4991.5 0.500000 4.045601 15.5869 0.272759 0.012383
4991.75 4991.75 0.500000 4.047441 15.5962 0.272421 0.012584
4992 4992 0.500000 4.050391 15.6322 0.272249 0.012639
4992.25 4992.25 0.500000 4.052194 15.6384 0.271865 0.012377
4992.5 4992.5 0.500000 4.053428 15.6502 0.271731 0.012816
4992.75 4992.75 0.500000 4.055719 15.6559 0.271203 0.012515
4993 4993 0.500000 4.057171 15.6618 0.270917 0.012609
4993.26 4993.25 0.500000 4.057860 15.665 0.270782 0.012597
4993.5 4993.5 0.500000 4.059564 15.6678 0.270372 0.012323
4993.75 4993.75 0.500000 4.059337 15.6712 0.270493 0.012456
4994 4994 0.500000 4.061338 15.6771 0.270060 0.012410
4994.25 4994.25 0.500000 4.061371 15.6809 0.270110 0.012261
4994.5 4994.5 0.500000 4.062137 15.6868 0.270005 0.012520
4994.75 4994.75 0.500000 4.061959 15.6875 0.270064 0.012297
4995 4995 0.500000 4.062449 15.6923 0.270016 0.012251
4995.25 4995.25 0.500000 4.062288 15.6946 0.270097 0.012486
4995.5 4995.5 0.500000 4.062964 15.697 0.269958 0.012028
4995.75 4995.75 0.500000 4.062162 15.7011 0.270242 0.012122
4996 4996 0.700000 4.061287 21.9601 0.378301 0.016959
4997.09 4997.08 0.710000 4.057710 22.3085 0.385681 0.016907
4998.19 4998.18 0.730000 4.050171 22.9345 0.399507 0.017217
4999.3 4999.29 0.740000 4.041722 23.2593 0.408599 0.017415
5000.44 5000.43 0.750000 4.033623 23.607 0.418083 0.017654
5001.59 5001.58 0.760000 4.024688 23.9686 0.428291 0.018033
5002.77 5002.76 0.780000 4.012644 24.652 0.445838 0.019086
5003.96 5003.95 0.790000 3.999234 25.068 0.459505 0.019447
5005.16 5005.16 0.800000 3.980163 25.4427 0.475331 0.020551
5006.4 5006.39 0.810000 3.961255 25.8293 0.491775 0.021247
5007.65 5007.64 0.830000 3.944919 26.5267 0.513373 0.022827
5008.91 5008.91 0.840000 3.930431 26.9065 0.528309 0.024074
5010.21 5010.2 0.850000 3.911334 27.2841 0.546055 0.025068
5011.52 5011.51 0.860000 3.894194 27.6603 0.563162 0.026019
5012.84 5012.83 0.880000 3.881006 28.35 0.584860 0.027308
5014.19 5014.18 0.890000 3.871390 28.7217 0.598253 0.028433
5015.55 5015.54 0.900000 3.865160 29.0947 0.609823 0.028729
5016.94 5016.93 0.910000 3.862577 29.4707 0.619290 0.029165
5018.34 5018.33 0.930000 3.860690 30.1699 0.635181 0.030395
5019.76 5019.75 0.940000 3.857165 30.5588 0.645649 0.031145
5021.2 5021.19 0.950000 3.850752 30.9464 0.658045 0.031849
5022.65 5022.65 0.960000 3.844510 31.3283 0.670319 0.032808
5024.14 5024.13 0.980000 3.840337 32.0526 0.688692 0.033684
5025.63 5025.63 0.990000 3.838203 32.4401 0.698509 0.034052
5027.15 5027.14 1.000000 3.836083 32.8331 0.708471 0.034477
5028.69 5028.68 1.010000 3.834907 33.2313 0.717915 0.034345
5030.23 5030.24 1.030000 3.832109 33.9512 0.735505 0.034903
5031.82 5031.81 1.040000 3.829937 34.3499 0.745769 0.034829
5033.4 5033.4 1.050000 3.828831 34.7514 0.755321 0.034341
5035.01 5035.01 1.060000 3.829624 35.1418 0.763203 0.034247
5036.65 5036.65 1.080000 3.832255 35.8787 0.777155 0.034257
5038.3 5038.3 1.090000 3.835215 36.2916 0.783778 0.034269
5039.97 5039.97 1.100000 3.836916 36.6932 0.791107 0.034482
5041.65 5041.65 1.110000 3.835799 37.1042 0.800862 0.035357
5043.35 5043.36 1.130000 3.831088 37.8427 0.820651 0.036449
5045.09 5045.09 1.140000 3.823095 38.2634 0.836443 0.037784
5046.83 5046.83 1.150000 3.817030 38.6731 0.850539 0.038978
5048.6 5048.6 1.160000 3.812760 39.0928 0.863447 0.040304
5050.38 5050.38 1.180000 3.812968 39.8537 0.880068 0.041875
5052.18 5052.18 1.190000 3.814901 40.2834 0.887842 0.043433
5053.99 5054 1.200000 3.819743 40.7155 0.893035 0.044412
5055.84 5055.84 1.210000 3.822879 41.1478 0.899690 0.045021
5057.7 5057.7 1.230000 3.823130 41.9263 0.916479 0.046151
5059.57 5059.58 1.240000 3.821065 42.3702 0.928094 0.046501
5061.48 5061.48 1.250000 3.816259 42.8105 0.942258 0.047440
5063.39 5063.4 1.260000 3.809630 43.2508 0.958274 0.048259
5065.33 5065.33 1.280000 3.800711 44.0484 0.984685 0.050533
5067.29 5067.29 1.290000 3.790863 44.5018 1.004695 0.051322
5069.26 5069.26 1.300000 3.781024 44.9579 1.025011 0.052938
5071.26 5071.26 1.310000 3.772612 45.413 1.044139 0.054444
5073.27 5073.27 1.330000 3.766827 46.2291 1.069068 0.055645
5075.3 5075.3 1.340000 3.762100 46.6838 1.084703 0.056019
5077.35 5077.35 1.350000 3.756753 47.2004 1.102594 0.056511
5079.42 5079.42 1.360000 3.748930 47.7151 1.123344 0.056970
5081.51 5081.51 1.380000 3.739245 48.5412 1.153933 0.057509
5083.61 5083.61 1.390000 3.727590 49.0109 1.178744 0.057443
5085.74 5085.74 1.400000 3.716262 49.4919 1.203862 0.057766
5087.89 5087.89 1.410000 3.707613 49.9729 1.226142 0.058165
5090.05 5090.05 1.430000 3.701517 50.815 1.254421 0.059043
5092.23 5092.23 1.440000 3.696120 51.3198 1.273740 0.060175
5094.44 5094.44 1.450000 3.691709 51.9396 1.294822 0.061831
5096.66 5096.66 1.460000 3.685519 52.4418 1.315463 0.064556
5098.9 5098.9 1.480000 3.680136 53.3007 1.344230 0.067739
5101.16 5101.16 1.490000 3.675105 53.8028 1.363731 0.070596
5103.44 5103.44 1.500000 3.670307 54.3142 1.383305 0.073475
5105.74 5105.74 1.510000 3.664953 54.8324 1.404017 0.075299
5108.05 5108.05 1.530000 3.659700 55.7347 1.434622 0.077198
5110.39 5110.39 1.540000 3.654180 56.3461 1.458382 0.078544
5112.74 5112.74 1.550000 3.649814 56.8684 1.478345 0.079741
5115.12 5115.12 1.560000 3.645523 57.3801 1.498064 0.081062
5117.51 5117.51 1.580000 3.641467 58.2717 1.527527 0.082954
5119.92 5119.92 1.590000 3.636785 58.8086 1.548840 0.084005
5122.35 5122.35 1.600000 3.631486 59.3347 1.570999 0.085578
5124.8 5124.8 1.610000 3.625291 59.869 1.594988 0.087619
5127.27 5127.27 1.630000 3.619948 60.7844 1.628048 0.089429
5129.76 5129.76 1.640000 3.614671 61.3315 1.651395 0.091133
5132.27 5132.27 1.650000 3.609656 61.8872 1.674733 0.092557
5134.79 5134.79 1.660000 3.605012 62.4463 1.697745 0.094061
5137.34 5137.34 1.680000 3.600401 63.3788 1.731051 0.095764
5139.9 5139.9 1.690000 3.595734 63.9618 1.755144 0.096421
5142.49 5142.49 1.700000 3.589866 64.5397 1.781425 0.097636
5145.09 5145.09 1.710000 3.584427 65.1128 1.807049 0.098117
5147.71 5147.71 1.730000 3.578397 66.0677 1.844637 0.099775
5150.35 5150.35 1.740000 3.572368 66.6508 1.872165 0.101336
5153.01 5153.01 1.750000 3.565432 67.2339 1.901695 0.103453
5155.69 5155.69 1.760000 3.558658 67.8147 1.931160 0.106245
5158.39 5158.39 1.780000 3.551735 68.7867 1.972450 0.109713
5161.11 5161.11 1.790000 3.544420 69.3721 2.003829 0.113071
5163.84 5163.84 1.800000 3.537523 69.9753 2.035256 0.115659
5166.6 5166.6 1.810000 3.530913 70.5689 2.066138 0.118664
5169.37 5169.37 1.830000 3.524028 71.5471 2.109241 0.121774
5172.17 5172.17 1.840000 3.516823 72.1388 2.142054 0.124687
5174.98 5174.98 1.850000 3.509119 72.7212 2.176068 0.128260
5177.81 5177.81 1.860000 3.501138 73.3024 2.211032 0.131839
5180.66 5180.66 1.880000 3.493239 74.3167 2.259402 0.135501
5183.53 5183.53 1.890000 3.485294 74.9367 2.296416 0.138556
5186.42 5186.42 1.900000 3.478424 75.5481 2.331121 0.140438
5189.32 5189.32 1.910000 3.471487 76.1568 2.366234 0.143289
5192.25 5192.25 1.930000 3.464678 77.1599 2.413795 0.146481
5195.2 5195.2 1.940000 3.458004 77.7537 2.448668 0.148802
5198.16 5198.16 1.950000 3.451437 78.3154 2.482604 0.150898
5201.14 5201.14 1.960000 3.445171 78.9449 2.518292 0.153396
5204.15 5204.15 1.980000 3.438616 79.9933 2.568508 0.156458
5207.17 5207.17 1.990000 3.431670 80.6199 2.606675 0.158823
5210.21 5210.21 2.000000 3.424725 81.2419 2.645087 0.161336
5213.27 5213.27 2.010000 3.417910 82.0128 2.688454 0.163968
5216.35 5216.35 2.030000 3.410992 83.0862 2.742556 0.168110
5219.45 5219.45 2.040000 3.404018 83.7508 2.783818 0.171432
5222.56 5222.56 2.050000 3.397008 84.4231 2.825921 0.175523
5225.7 5225.7 2.060000 3.390316 85.0814 2.867071 0.178805
5228.85 5228.85 2.080000 3.383515 86.142 2.922628 0.183293
5232.03 5232.03 2.090000 3.376855 86.8128 2.965066 0.186541
5235.22 5235.22 2.100000 3.370191 87.6372 3.013236 0.190999
5238.43 5238.43 2.110000 3.362859 88.6046 3.068915 0.195956
5241.66 5241.66 2.130000 3.355378 89.6857 3.129681 0.201356
5244.92 5244.92 2.140000 3.347938 90.324 3.175507 0.205811
5248.18 5248.18 2.150000 3.340967 90.4919 3.203644 0.209354
5251.47 5251.47 2.160000 3.334253 91.3135 3.254534 0.214015
5254.78 5254.78 2.180000 3.327380 92.7896 3.329939 0.220627
5258.11 5258.11 2.190000 3.320572 93.6321 3.383142 0.225608
5261.45 5261.45 2.200000 3.313853 94.3492 3.432003 0.230149
5264.82 5264.82 2.210000 3.307130 95.1544 3.484661 0.234566
5268.2 5268.2 2.230000 3.300552 96.3724 3.552554 0.239805
5271.6 5271.6 2.240000 3.293169 97.1294 3.606998 0.244015
5275.03 5275.03 2.250000 3.285870 97.9868 3.665490 0.248975
5278.47 5278.47 2.260000 3.277940 97.6251 3.681011 0.250668
5281.93 5281.93 2.280000 3.270520 99.7579 3.789468 0.258687
5285.4 5285.4 2.290000 3.262897 100.622 3.851542 0.263654
5288.9 5288.9 2.300000 3.255205 101.379 3.910483 0.268733
5292.42 5292.42 2.310000 3.247582 102.14 3.969972 0.274291
5295.96 5295.96 2.330000 3.240000 103.411 4.049979 0.281312
5299.51 5299.51 2.340000 3.231557 104.116 4.112158 0.287505
5303.09 5303.09 2.350000 3.223646 104.882 4.175307 0.293118
5306.68 5306.68 2.360000 3.215475 105.72 4.243221 0.299208
5310.29 5310.29 2.380000 3.207574 107.009 4.329034 0.306617
5313.92 5313.92 2.390000 3.199895 107.791 4.394281 0.313054
5317.57 5317.57 2.400000 3.192542 108.575 4.458899 0.319164
5321.24 5321.24 2.410000 3.185076 109.172 4.517034 0.325559
5324.93 5324.93 2.430000 3.177524 110.252 4.596274 0.333144
5328.64 5328.64 2.440000 3.169980 110.797 4.653970 0.339404
5332.36 5332.36 2.450000 3.162497 111.443 4.716279 0.345804
5336.11 5336.11 2.460000 3.155371 112.272 4.785313 0.353439
5339.87 5339.87 2.480000 3.148188 113.511 4.873006 0.362399
5343.66 5343.66 2.490000 3.140223 114.25 4.943950 0.369906
5347.46 5347.46 2.500000 3.132685 114.851 5.007580 0.377263
5351.28 5351.28 2.510000 3.124993 115.373 5.069196 0.383596
5355.12 5355.12 2.530000 3.117205 116.032 5.137979 0.391080
5358.98 5358.98 2.540000 3.109960 117.686 5.249124 0.401453
5362.86 5362.86 2.550000 3.102327 118.349 5.319151 0.408097
5366.76 5366.76 2.560000 3.094640 118.91 5.385601 0.414629
5370.68 5370.68 2.580000 3.086885 119.921 5.473681 0.422978
5374.61 5374.61 2.590000 3.078749 120.51 5.545477 0.430561
5378.57 5378.57 2.600000 3.070843 121.077 5.615792 0.438342
5382.54 5382.54 2.610000 3.063153 121.661 5.686440 0.446136
5386.54 5386.54 2.630000 3.055351 122.767 5.783112 0.456099
5390.55 5390.55 2.640000 3.047998 123.519 5.861447 0.465080
5394.58 5394.58 2.650000 3.040225 124.141 5.936936 0.473639
5398.63 5398.63 2.660000 3.032737 124.334 5.990861 0.480927
5402.7 5402.7 2.680000 3.025459 125.416 6.087131 0.491143
5406.79 5406.79 2.690000 3.017816 125.774 6.151362 0.499497
5410.9 5410.9 2.700000 3.010318 126.203 6.218789 0.507419
5415.02 5415.02 2.710000 3.002768 126.718 6.291505 0.516869
5419.17 5419.17 2.730000 2.995148 127.086 6.358018 0.525204
5423.33 5423.33 2.740000 2.987380 127.837 6.445447 0.535427
5427.52 5427.52 2.750000 2.979523 128.303 6.519959 0.545091
5431.72 5431.72 2.760000 2.971598 128.743 6.594381 0.554456
5435.94 5435.94 2.780000 2.963902 129.724 6.695997 0.566138
5440.19 5440.18 2.790000 2.955985 130.227 6.775395 0.576296
5444.44 5444.44 2.800000 2.947900 130.789 6.859857 0.586589
5448.72 5448.72 2.810000 2.939872 131.337 6.944120 0.597328
5453.02 5453.02 2.830000 2.931567 132.373 7.057284 0.610484
5457.34 5457.34 2.840000 2.923353 133.02 7.150271 0.621707
5461.67 5461.67 2.850000 2.915515 133.71 7.243902 0.632968
5466.03 5466.03 2.860000 2.907390 134.399 7.340633 0.644560
5470.4 5470.4 2.880000 2.899370 135.596 7.465646 0.659016
5474.8 5474.8 2.890000 2.891207 136.335 7.567867 0.671971
5479.21 5479.21 2.900000 2.883103 137.1 7.672228 0.684692
5483.64 5483.64 2.910000 2.875086 137.836 7.775534 0.697314
5488.09 5488.09 2.930000 2.867291 139.032 7.904333 0.712761
5492.56 5492.56 2.940000 2.859389 139.797 8.010866 0.726264
5497.05 5497.05 2.950000 2.851208 140.645 8.125663 0.741471
5501.56 5501.56 2.960000 2.843327 141.424 8.235321 0.755330
5506.08 5506.08 2.980000 2.835372 142.691 8.375489 0.772452
5510.63 5510.63 2.990000 2.827330 143.733 8.504780 0.788560
5515.19 5515.19 3.000000 2.819289 144.715 8.632035 0.804746
5519.78 5519.78 3.010000 2.811194 145.627 8.756996 0.820775
5524.38 5524.38 3.030000 2.803118 146.981 8.910111 0.839470
5529 5529 3.040000 2.795156 147.922 9.038816 0.857181
5533.64 5533.64 3.050000 2.787097 148.88 9.170994 0.874730
5538.3 5538.3 3.060000 2.778994 149.768 9.300802 0.891797
5542.98 5542.98 3.080000 2.770704 151.158 9.465233 0.912965
5547.68 5547.68 3.090000 2.762691 152.905 9.651645 0.936361
5552.4 5552.4 3.100000 2.754404 153.894 9.794873 0.955054
5557.13 5557.13 3.110000 2.746196 154.856 9.937297 0.974620
5561.89 5561.89 3.130000 2.737802 156.257 10.1118 0.996702
5566.66 5566.66 3.140000 2.729564 157.231 10.259 1.016982
5571.46 5571.46 3.150000 2.721592 158.193 10.4043 1.037174
5576.27 5576.27 3.160000 2.713258 159.137 10.554 1.058125
5581.1 5581.1 3.180000 2.705184 160.607 10.7379 1.082527
5585.95 5585.95 3.190000 2.696952 161.589 10.8928 1.104077
5590.82 5590.82 3.200000 2.688830 162.586 11.0494 1.126506
5595.71 5595.71 3.210000 2.680676 163.52 11.2038 1.148726
5600.62 5600.62 3.230000 2.672441 165.025 11.4005 1.175174
5605.54 5605.54 3.240000 2.664223 165.9 11.5555 1.197447
5610.49 5610.49 3.250000 2.656009 166.85 11.7175 1.221143
5615.45 5615.45 3.260000 2.647715 167.838 11.8851 1.245777
5620.44 5620.44 3.280000 2.639477 169.255 12.0846 1.273928
5625.44 5625.44 3.290000 2.631377 169.354 12.19 1.292229
5630.46 5630.46 3.300000 2.623122 170.212 12.3533 1.317734
5635.5 5635.5 3.310000 2.614760 170.77 12.4978 1.341167
5640.56 5640.56 3.330000 2.606351 172.272 12.7142 1.371903
5645.64 5645.64 3.340000 2.598083 173.036 12.8767 1.397765
5650.74 5650.74 3.350000 2.590074 173.815 13.0386 1.423554
5655.86 5655.86 3.360000 2.581667 174.673 13.2136 1.451617
5660.99 5660.99 3.380000 2.573469 176.285 13.4454 1.485113
5666.15 5666.15 3.390000 2.565040 177.447 13.6485 1.516487
5671.32 5671.32 3.400000 2.556734 178.903 13.8753 1.550162
5676.52 5676.52 3.410000 2.548927 180.144 14.0811 1.581721
5681.73 5681.73 3.430000 2.541273 181.871 14.3253 1.618440
5686.96 5686.96 3.440000 2.533570 182.809 14.5105 1.649221
5692.21 5692.21 3.450000 2.526309 183.666 14.6848 1.678298
5697.48 5697.48 3.460000 2.519904 184.639 14.8574 1.707807
5702.77 5702.77 3.480000 2.514840 186.437 15.0782 1.743491
5708.08 5708.08 3.490000 2.513182 187.759 15.2103 1.768708