File: xdidata/Ti/Ti-K-EuTiO3.xdi
# XDI/1.0 BlueSky/1.5.0
# Beamline.name: 6BM
# Beamline.xray_source: NSLS-II three-pole wiggler
# Beamline.collimation: paraboloid mirror, 5 nm Rh on 30 nm Pt
# Beamline.focusing: not in use
# Beamline.harmonic_rejection: flat mirror, Si stripe, pitch = 7.0 mrad relative to beam
# Detector.i0: 10 cm N2
# Detector.i1: 25 cm N2
# Detector.i2: 25 cm N2
# Element.symbol: Ti
# Element.edge: K
# Facility.name: NSLS-II
# Facility.energy: 3.0
# Facility.current: 219.7
# Facility.mode: top-off
# Facility.gup: 301027
# Facility.saf: 304156
# Mono.name: Si(111)
# Mono.d_spacing: 3.13532
# Mono.encoder_resolution: 0.0000050 deg/ct
# Mono.angle_offset: 16.0577 deg
# Mono.scan_mode: pseudo channel cut
# Mono.scan_type: step
# Mono.direction: forward in energy
# Sample.name: EuTiO3 perovskite
# Sample.prep: powder on tape
# Sample.x_position: -97.500 mm
# Sample.y_position: 115.250 mm
# Sample.wheel_position: 15.000 mm
# Scan.experimenters: Bruce Ravel
# Scan.edge_energy: 4966.0
# Scan.start_time: 2019-06-16T18:11:49
# Scan.end_time: 2019-06-16T20:38:50
# Scan.transient_id: 10630
# Scan.uid: 4e553338-dff6-46a6-ad8a-cdfee4f3e69d
# Scan.plot_hint: ln(I0/It)  --  ln($5/$6)
# Scan.sequence: merge of 9 scans
# Column.1: energy eV
# Column.2: requested_energy eV
# Column.3: measurement_time seconds
# Column.4: mutrans
# Column.5: i0
# Column.6: itrans
# Column.7: irefer
# /////
#  from Fatih Dogan, 1993
# -----
# energy   requested_energy   measurement_time   mutrans   i0   itrans   irefer
4765.99 4766 0.500000 2.835704 8.449051 0.495768 0.033460
4776.01 4776 0.500000 2.813994 8.651814 0.518802 0.035737
4786.01 4786 0.500000 2.792821 8.866882 0.543080 0.037946
4796.01 4796 0.500000 2.771439 9.081480 0.568244 0.040428
4806.01 4806 0.500000 2.750357 9.299916 0.594309 0.043088
4816.01 4816 0.500000 2.729166 9.513277 0.620967 0.045674
4826.01 4826 0.500000 2.708426 9.728670 0.648331 0.048500
4836 4836 0.500000 2.687651 9.935626 0.675935 0.051519
4846.11 4846 0.500000 2.667678 10.1539 0.704956 0.054512
4855.99 4856 0.500000 2.647162 10.3786 0.735327 0.057869
4866 4866 0.500000 2.626791 10.6008 0.766537 0.061327
4876.01 4876 0.500000 2.607098 10.8258 0.798390 0.064906
4886 4886 0.500000 2.587120 11.0535 0.831625 0.068754
4896 4896 0.500000 2.567660 11.2924 0.866291 0.072768
4906.01 4906 0.500000 2.548098 11.5223 0.901396 0.076826
4916 4916 0.500000 2.529040 11.7522 0.937070 0.081131
4926 4926 0.500000 2.509974 11.9884 0.974302 0.085701
4936 4936 0.500000 2.490881 12.2151 1.011859 0.090264
4938 4938 0.500000 2.487120 12.2592 1.019344 0.091203
4939.99 4940 0.500000 2.483457 12.3054 1.026922 0.092136
4942.01 4942 0.500000 2.479667 12.3537 1.034887 0.093115
4944 4944 0.500000 2.475838 12.4034 1.043026 0.094253
4946 4946 0.500000 2.472068 12.4427 1.050293 0.094948
4948 4948 0.500000 2.468334 12.4768 1.057105 0.095878
4950 4950 0.500000 2.464703 12.5235 1.064918 0.096718
4952 4952 0.500000 2.461213 12.5618 1.071917 0.097728
4953.99 4954 0.500000 2.457466 12.6024 1.079415 0.098412
4956 4956 0.500000 2.453638 12.6405 1.086831 0.099469
4956.25 4956.25 0.500000 2.453194 12.6434 1.087569 0.099307
4956.49 4956.5 0.500000 2.452789 12.6503 1.088596 0.099658
4956.74 4956.75 0.500000 2.452202 12.6532 1.089486 0.099721
4956.99 4957 0.500000 2.451801 12.656 1.090168 0.099780
4957.24 4957.25 0.500000 2.451455 12.6734 1.092043 0.099637
4957.49 4957.5 0.500000 2.451121 12.6788 1.092871 0.099924
4957.74 4957.75 0.500000 2.450543 12.6829 1.093855 0.100035
4957.99 4958 0.500000 2.450125 12.6881 1.094764 0.100182
4958.24 4958.25 0.500000 2.449699 12.6914 1.095516 0.100187
4958.5 4958.5 0.500000 2.449115 12.6956 1.096522 0.100354
4958.75 4958.75 0.500000 2.448790 12.7021 1.097437 0.100356
4959 4959 0.500000 2.448238 12.7038 1.098187 0.100322
4959.25 4959.25 0.500000 2.447840 12.7072 1.098924 0.100574
4959.5 4959.5 0.500000 2.447416 12.7249 1.100919 0.100732
4959.75 4959.75 0.500000 2.446956 12.73 1.101864 0.100746
4959.99 4960 0.500000 2.446453 12.7341 1.102773 0.100675
4960.24 4960.25 0.500000 2.446057 12.7396 1.103683 0.100825
4960.49 4960.5 0.500000 2.445615 12.7436 1.104520 0.100836
4960.74 4960.75 0.500000 2.445202 12.7504 1.105567 0.100917
4961 4961 0.500000 2.444713 12.7542 1.106438 0.100876
4961.25 4961.25 0.500000 2.444138 12.759 1.107494 0.100923
4961.49 4961.5 0.500000 2.443722 12.7617 1.108187 0.100899
4961.75 4961.75 0.500000 2.443415 12.7683 1.109110 0.100813
4961.99 4962 0.500000 2.442937 12.7732 1.110059 0.100790
4962.24 4962.25 0.500000 2.442604 12.7796 1.110986 0.100628
4962.5 4962.5 0.500000 2.442120 12.7849 1.111981 0.100495
4962.75 4962.75 0.500000 2.441491 12.7901 1.113134 0.100194
4963 4963 0.500000 2.441262 12.7944 1.113763 0.099811
4963.25 4963.25 0.500000 2.440876 12.799 1.114594 0.099395
4963.5 4963.5 0.500000 2.440364 12.8057 1.115745 0.098645
4963.75 4963.75 0.500000 2.439929 12.8217 1.117629 0.097296
4963.99 4964 0.500000 2.439666 12.829 1.118554 0.095592
4964.25 4964.25 0.500000 2.439160 12.8306 1.119266 0.092625
4964.5 4964.5 0.500000 2.438804 12.8448 1.120900 0.087888
4964.75 4964.75 0.500000 2.438469 12.8495 1.121686 0.081283
4965 4965 0.500000 2.438030 12.855 1.122662 0.074832
4965.25 4965.25 0.500000 2.437533 12.8591 1.123583 0.070502
4965.5 4965.5 0.500000 2.437200 12.8634 1.124329 0.068731
4965.74 4965.75 0.500000 2.437231 12.87 1.124868 0.069367
4966 4966 0.500000 2.436899 12.8736 1.125556 0.071587
4966.25 4966.25 0.500000 2.436812 12.8777 1.126013 0.074458
4966.5 4966.5 0.500000 2.436908 12.8821 1.126288 0.076990
4966.75 4966.75 0.500000 2.437473 12.8829 1.125727 0.078574
4967 4967 0.500000 2.437999 12.8862 1.125422 0.079259
4967.25 4967.25 0.500000 2.438365 12.8897 1.125319 0.079454
4967.5 4967.5 0.500000 2.437601 12.8942 1.126575 0.079140
4967.75 4967.75 0.500000 2.436994 12.8991 1.127683 0.078209
4968 4968 0.500000 2.436309 12.904 1.128886 0.077139
4968.25 4968.25 0.500000 2.436328 12.9084 1.129245 0.075840
4968.5 4968.5 0.500000 2.437115 12.9124 1.128717 0.074408
4968.75 4968.75 0.500000 2.438627 12.9139 1.127133 0.072917
4969 4969 0.500000 2.440520 12.9169 1.125280 0.071920
4969.25 4969.25 0.500000 2.441724 12.9198 1.124158 0.070911
4969.5 4969.5 0.500000 2.441983 12.931 1.124847 0.070388
4969.75 4969.75 0.500000 2.440874 12.9321 1.126187 0.069827
4970 4970 0.500000 2.439404 12.9376 1.128322 0.069570
4970.25 4970.25 0.500000 2.438471 12.947 1.130201 0.069391
4970.5 4970.5 0.500000 2.438050 12.9588 1.131707 0.069250
4970.75 4970.75 0.500000 2.437831 12.9761 1.133459 0.069132
4971 4971 0.500000 2.438132 12.9825 1.133685 0.068620
4971.25 4971.25 0.500000 2.438612 12.9893 1.133715 0.067930
4971.5 4971.5 0.500000 2.439742 12.9973 1.133152 0.066990
4971.75 4971.75 0.500000 2.441228 13.0032 1.131967 0.065852
4972 4972 0.500000 2.442820 13.0082 1.130607 0.064342
4972.25 4972.25 0.500000 2.444302 13.0104 1.129138 0.062970
4972.5 4972.5 0.500000 2.445836 13.015 1.127806 0.061621
4972.75 4972.75 0.500000 2.446715 13.0178 1.127046 0.060069
4973 4973 0.500000 2.447319 13.0228 1.126798 0.058816
4973.25 4973.25 0.500000 2.447653 13.0269 1.126778 0.057544
4973.5 4973.5 0.500000 2.447564 13.0292 1.127081 0.056379
4973.75 4973.75 0.500000 2.447459 13.0441 1.128483 0.055147
4974 4974 0.500000 2.447084 13.0482 1.129265 0.054166
4974.25 4974.25 0.500000 2.446569 13.0505 1.130038 0.053227
4974.5 4974.5 0.500000 2.445685 13.0543 1.131381 0.052372
4974.75 4974.75 0.500000 2.444643 13.0561 1.132713 0.051276
4975 4975 0.500000 2.443575 13.0574 1.134040 0.050392
4975.25 4975.25 0.500000 2.442458 13.0576 1.135304 0.049458
4975.5 4975.5 0.500000 2.441401 13.0583 1.136577 0.048520
4975.75 4975.75 0.500000 2.440726 13.0601 1.137500 0.047562
4976 4976 0.500000 2.440108 13.0619 1.138359 0.046785
4976.25 4976.25 0.500000 2.439992 13.0626 1.138556 0.045945
4976.5 4976.5 0.500000 2.439922 13.0614 1.138530 0.045314
4976.75 4976.75 0.500000 2.440038 13.0625 1.138493 0.044480
4977 4977 0.500000 2.440419 13.0648 1.138259 0.043881
4977.25 4977.25 0.500000 2.440894 13.068 1.137998 0.043372
4977.5 4977.5 0.500000 2.441403 13.0694 1.137547 0.042781
4977.75 4977.75 0.500000 2.442511 13.0724 1.136526 0.042349
4978 4978 0.500000 2.444022 13.0884 1.136216 0.041900
4978.25 4978.25 0.500000 2.445530 13.0928 1.134878 0.041694
4978.5 4978.5 0.500000 2.447772 13.095 1.132549 0.041108
4978.75 4978.75 0.500000 2.450622 13.0962 1.129424 0.040816
4979 4979 0.500000 2.453760 13.0964 1.125901 0.040370
4979.25 4979.25 0.500000 2.457346 13.0974 1.121937 0.040130
4979.5 4979.5 0.500000 2.461435 13.0975 1.117359 0.039735
4979.75 4979.75 0.500000 2.466100 13.0961 1.112082 0.039371
4980 4980 0.500000 2.470865 13.0932 1.106555 0.039063
4980.25 4980.25 0.500000 2.476227 13.0915 1.100440 0.038661
4980.5 4980.5 0.500000 2.481873 13.0908 1.094212 0.038387
4980.75 4980.75 0.500000 2.488174 13.0925 1.087502 0.038099
4981 4981 0.500000 2.495292 13.1041 1.080670 0.037573
4981.25 4981.25 0.500000 2.502844 13.1091 1.072952 0.037121
4981.5 4981.5 0.500000 2.511563 13.1088 1.063634 0.036833
4981.75 4981.75 0.500000 2.521549 13.1107 1.053250 0.036322
4982 4982 0.500000 2.532129 13.1141 1.042395 0.035597
4982.25 4982.25 0.500000 2.543362 13.119 1.031079 0.035302
4982.5 4982.5 0.500000 2.555265 13.1234 1.019259 0.034736
4982.75 4982.75 0.500000 2.567498 13.1267 1.007269 0.034253
4983 4983 0.500000 2.578748 13.1265 0.995828 0.033753
4983.25 4983.25 0.500000 2.588386 13.1271 0.986400 0.033310
4983.5 4983.5 0.500000 2.596567 13.1272 0.978344 0.033092
4983.75 4983.75 0.500000 2.601913 13.1301 0.973362 0.033032
4984 4984 0.500000 2.605108 13.1306 0.970286 0.032872
4984.25 4984.25 0.500000 2.606068 13.1424 0.970231 0.032961
4984.5 4984.5 0.500000 2.606023 13.1432 0.970338 0.033079
4984.75 4984.75 0.500000 2.604174 13.1454 0.972278 0.033256
4985 4985 0.500000 2.601976 13.1478 0.974614 0.033500
4985.25 4985.25 0.500000 2.599105 13.1522 0.977751 0.033716
4985.5 4985.5 0.500000 2.595497 13.1544 0.981466 0.034253
4985.75 4985.75 0.500000 2.591369 13.1574 0.985700 0.034508
4986 4986 0.500000 2.586829 13.1594 0.990383 0.034832
4986.25 4986.25 0.500000 2.582054 13.1608 0.995201 0.035142
4986.5 4986.5 0.500000 2.577398 13.1586 0.999673 0.035566
4986.75 4986.75 0.500000 2.572891 13.1564 1.004003 0.035882
4987 4987 0.500000 2.569120 13.1571 1.007880 0.036039
4987.25 4987.25 0.500000 2.566310 13.1565 1.010649 0.036273
4987.5 4987.5 0.500000 2.564135 13.1681 1.013760 0.036401
4987.75 4987.75 0.500000 2.562400 13.171 1.015724 0.036595
4988 4988 0.500000 2.561240 13.1732 1.017091 0.036666
4988.25 4988.25 0.500000 2.560432 13.1813 1.018534 0.036745
4988.5 4988.5 0.500000 2.559694 13.1896 1.019929 0.036738
4988.75 4988.75 0.500000 2.558983 13.2003 1.021483 0.037004
4989 4989 0.500000 2.558402 13.21 1.022826 0.036869
4989.25 4989.25 0.500000 2.557156 13.2223 1.025062 0.036955
4989.5 4989.5 0.500000 2.556430 13.234 1.026704 0.037061
4989.75 4989.75 0.500000 2.555613 13.2455 1.028437 0.037197
4990 4990 0.500000 2.554881 13.2581 1.030175 0.037385
4990.25 4990.25 0.500000 2.554804 13.2714 1.031288 0.037443
4990.5 4990.5 0.500000 2.555038 13.2829 1.031934 0.037444
4990.75 4990.75 0.500000 2.555904 13.2931 1.031843 0.037398
4991 4991 0.500000 2.557440 13.3051 1.031189 0.037583
4991.25 4991.25 0.500000 2.558928 13.3145 1.030376 0.037603
4991.5 4991.5 0.500000 2.561014 13.3234 1.028932 0.037686
4991.75 4991.75 0.500000 2.563128 13.3336 1.027546 0.037719
4992 4992 0.500000 2.565205 13.3519 1.026812 0.037510
4992.25 4992.25 0.500000 2.566925 13.374 1.026736 0.037553
4992.5 4992.5 0.500000 2.568384 13.378 1.025546 0.037605
4992.75 4992.75 0.500000 2.569275 13.3866 1.025292 0.037616
4993 4993 0.500000 2.569671 13.3926 1.025345 0.037729
4993.25 4993.25 0.500000 2.569967 13.4 1.025613 0.037614
4993.5 4993.5 0.500000 2.569749 13.4044 1.026169 0.037572
4993.75 4993.75 0.500000 2.569463 13.4083 1.026769 0.037509
4994 4994 0.500000 2.568443 13.4149 1.028320 0.037737
4994.25 4994.25 0.500000 2.567649 13.4183 1.029402 0.037650
4994.5 4994.5 0.500000 2.566352 13.4238 1.031147 0.037663
4994.75 4994.75 0.500000 2.565244 13.4268 1.032527 0.037416
4995 4995 0.500000 2.563849 13.4305 1.034263 0.037513
4995.25 4995.25 0.500000 2.562716 13.4342 1.035699 0.037208
4995.5 4995.5 0.500000 2.561605 13.4396 1.037279 0.037130
4995.75 4995.75 0.500000 2.560446 13.459 1.039980 0.037086
4996 4996 0.700000 2.559566 18.8171 1.455283 0.051662
4997.09 4997.08 0.710000 2.558372 19.1086 1.479592 0.050884
4998.19 4998.18 0.730000 2.558962 19.6811 1.523034 0.051095
4999.3 4999.29 0.740000 2.556653 19.9786 1.549619 0.051376
5000.44 5000.43 0.750000 2.552066 20.2884 1.580879 0.052246
5001.59 5001.58 0.760000 2.547771 20.6085 1.612749 0.053630
5002.77 5002.76 0.780000 2.544390 21.1998 1.664623 0.055810
5003.96 5003.95 0.790000 2.540341 21.5273 1.697207 0.057068
5005.17 5005.16 0.800000 2.533843 21.8613 1.734774 0.059027
5006.4 5006.39 0.810000 2.523869 22.1963 1.779041 0.062129
5007.65 5007.64 0.830000 2.513198 22.8047 1.847370 0.066386
5008.92 5008.91 0.840000 2.504011 23.1339 1.891373 0.069766
5010.21 5010.2 0.850000 2.495700 23.4659 1.934514 0.072728
5011.51 5011.51 0.860000 2.490625 23.7969 1.971760 0.074988
5012.84 5012.83 0.880000 2.486514 24.4109 2.031005 0.077939
5014.19 5014.18 0.890000 2.480225 24.7343 2.070874 0.080190
5015.55 5015.54 0.900000 2.473957 25.0732 2.112449 0.082422
5016.93 5016.93 0.910000 2.469676 25.4065 2.149698 0.084829
5018.33 5018.33 0.930000 2.466224 26.025 2.209647 0.088203
5019.76 5019.75 0.940000 2.461997 26.3698 2.248422 0.090345
5021.19 5021.19 0.950000 2.456932 26.7125 2.289202 0.092806
5022.65 5022.65 0.960000 2.453045 27.0542 2.327494 0.094696
5024.14 5024.13 0.980000 2.451276 27.6833 2.385841 0.097373
5025.64 5025.63 0.990000 2.451621 28.0536 2.416924 0.098226
5027.15 5027.14 1.000000 2.452307 28.4081 2.445786 0.099011
5028.68 5028.68 1.010000 2.452020 28.7592 2.476721 0.099743
5030.24 5030.24 1.030000 2.450367 29.3912 2.535333 0.100772
5031.81 5031.81 1.040000 2.447305 29.7466 2.573858 0.100271
5033.4 5033.4 1.050000 2.444006 30.1034 2.613340 0.099732
5035.01 5035.01 1.060000 2.441047 30.4653 2.652602 0.099226
5036.66 5036.65 1.080000 2.439134 31.1145 2.714312 0.099879
5038.3 5038.3 1.090000 2.439322 31.4854 2.746152 0.100244
5039.97 5039.97 1.100000 2.440825 31.8557 2.774283 0.101201
5041.66 5041.65 1.110000 2.440742 32.2537 2.809174 0.102883
5043.37 5043.36 1.130000 2.438172 32.9159 2.874254 0.106578
5045.09 5045.09 1.140000 2.433803 33.2933 2.919896 0.109774
5046.83 5046.83 1.150000 2.428363 33.6678 2.968888 0.113788
5048.61 5048.6 1.160000 2.423532 34.0513 3.017264 0.118535
5050.38 5050.38 1.180000 2.421432 34.7271 3.083569 0.124097
5052.18 5052.18 1.190000 2.420931 35.1128 3.119375 0.128502
5053.99 5054 1.200000 2.421578 35.5062 3.152288 0.132375
5055.83 5055.84 1.210000 2.422954 35.9016 3.183019 0.135319
5057.69 5057.7 1.230000 2.423861 36.6379 3.245347 0.138795
5059.57 5059.58 1.240000 2.422755 37.0425 3.284804 0.140839
5061.47 5061.48 1.250000 2.418063 37.4463 3.336224 0.143442
5063.39 5063.4 1.260000 2.410629 37.852 3.397515 0.147068
5065.32 5065.33 1.280000 2.402442 38.573 3.490714 0.152591
5067.28 5067.29 1.290000 2.395070 38.9905 3.554576 0.156635
5069.25 5069.26 1.300000 2.389669 39.4109 3.612371 0.160422
5071.25 5071.26 1.310000 2.386586 39.8324 3.662277 0.163535
5073.26 5073.27 1.330000 2.385287 40.6005 3.737780 0.167083
5075.3 5075.3 1.340000 2.384493 41.0237 3.779754 0.168257
5077.34 5077.35 1.350000 2.382141 41.4485 3.827868 0.169023
5079.41 5079.42 1.360000 2.377355 41.8741 3.885728 0.169237
5081.51 5081.51 1.380000 2.371466 42.6132 3.977681 0.170813
5083.6 5083.61 1.390000 2.365253 43.0369 4.042268 0.170532
5085.73 5085.74 1.400000 2.358338 43.4684 4.111118 0.170523
5087.89 5087.89 1.410000 2.351727 43.8983 4.179330 0.170806
5090.05 5090.05 1.430000 2.346079 44.6932 4.279122 0.173945
5092.23 5092.23 1.440000 2.341721 45.1511 4.341840 0.177013
5094.44 5094.44 1.450000 2.337816 45.6063 4.402819 0.182598
5096.66 5096.66 1.460000 2.333709 46.051 4.464010 0.190147
5098.9 5098.9 1.480000 2.329419 46.8083 4.556910 0.200240
5101.16 5101.16 1.490000 2.325093 47.2559 4.620394 0.209049
5103.44 5103.44 1.500000 2.320690 47.7146 4.685820 0.217380
5105.74 5105.74 1.510000 2.316388 48.1676 4.750720 0.223493
5108.05 5108.05 1.530000 2.312879 48.9766 4.847487 0.229133
5110.39 5110.39 1.540000 2.309222 49.4455 4.911845 0.232879
5112.74 5112.74 1.550000 2.305438 49.9087 4.976663 0.236657
5115.12 5115.12 1.560000 2.301714 50.3963 5.044050 0.240377
5117.51 5117.51 1.580000 2.298582 51.2055 5.141080 0.245701
5119.92 5119.92 1.590000 2.295692 51.6701 5.202734 0.249408
5122.35 5122.35 1.600000 2.292906 52.1329 5.263978 0.253741
5124.8 5124.8 1.610000 2.290640 52.6036 5.323582 0.258272
5127.27 5127.27 1.630000 2.288769 53.4104 5.415364 0.264330
5129.76 5129.76 1.640000 2.285990 53.8799 5.478157 0.269128
5132.27 5132.27 1.650000 2.282189 54.3558 5.547592 0.273462
5134.79 5134.79 1.660000 2.277348 54.8288 5.623008 0.277291
5137.34 5137.34 1.680000 2.271396 55.6322 5.739480 0.282163
5139.9 5139.9 1.690000 2.264779 56.1122 5.827454 0.285260
5142.49 5142.49 1.700000 2.258145 56.6605 5.923494 0.288389
5145.09 5145.09 1.710000 2.252468 57.1413 6.007812 0.290976
5147.71 5147.71 1.730000 2.248103 57.9458 6.119044 0.295215
5150.35 5150.35 1.740000 2.244922 58.423 6.189093 0.298590
5153.01 5153.01 1.750000 2.241602 58.9162 6.262088 0.304351
5155.69 5155.69 1.760000 2.237309 59.4244 6.343263 0.312178
5158.39 5158.39 1.780000 2.232075 60.2282 6.462858 0.322194
5161.11 5161.11 1.790000 2.227377 60.6864 6.542672 0.330166
5163.84 5163.84 1.800000 2.223718 61.1555 6.617363 0.337461
5166.6 5166.6 1.810000 2.220318 61.6154 6.689862 0.344111
5169.37 5169.37 1.830000 2.216075 62.4164 6.805688 0.353633
5172.17 5172.17 1.840000 2.211201 62.8666 6.888211 0.362336
5174.98 5174.98 1.850000 2.205991 63.3349 6.975777 0.371490
5177.81 5177.81 1.860000 2.200798 63.8085 7.064571 0.380261
5180.66 5180.66 1.880000 2.195169 64.6012 7.192671 0.390171
5183.53 5183.53 1.890000 2.189337 65.0615 7.286308 0.397256
5186.42 5186.42 1.900000 2.183678 65.4963 7.376626 0.403692
5189.32 5189.32 1.910000 2.178268 65.9394 7.466791 0.410192
5192.25 5192.25 1.930000 2.173174 66.764 7.598793 0.418484
5195.2 5195.2 1.940000 2.168162 67.2449 7.692010 0.424909
5198.16 5198.16 1.950000 2.162638 67.7105 7.788106 0.431075
5201.14 5201.14 1.960000 2.156766 68.1555 7.885538 0.437267
5204.15 5204.15 1.980000 2.151420 68.96 8.021358 0.445146
5207.17 5207.17 1.990000 2.146760 69.4295 8.113656 0.450526
5210.21 5210.21 2.000000 2.142303 69.8938 8.204435 0.456044
5213.27 5213.27 2.010000 2.137970 70.344 8.293072 0.462242
5216.35 5216.35 2.030000 2.133421 71.1408 8.425325 0.472130
5219.45 5219.45 2.040000 2.128870 71.6004 8.518412 0.480641
5222.56 5222.56 2.050000 2.124404 72.0693 8.612592 0.488814
5225.7 5225.7 2.060000 2.120441 72.5129 8.699986 0.497002
5228.85 5228.85 2.080000 2.116970 73.3278 8.828351 0.507041
5232.03 5232.03 2.090000 2.113099 73.9091 8.932880 0.516224
5235.22 5235.22 2.100000 2.108084 74.4048 9.037969 0.526072
5238.43 5238.43 2.110000 2.101889 74.8781 9.152040 0.537294
5241.66 5241.66 2.130000 2.095123 75.697 9.314864 0.551653
5244.92 5244.92 2.140000 2.088511 76.1236 9.429571 0.563546
5248.18 5248.18 2.150000 2.082632 76.1858 9.492839 0.571793
5251.47 5251.47 2.160000 2.077344 76.7835 9.618129 0.584122
5254.78 5254.78 2.180000 2.072223 77.8892 9.806655 0.600284
5258.11 5258.11 2.190000 2.067279 78.5552 9.939566 0.612521
5261.45 5261.45 2.200000 2.062386 79.0323 10.049 0.623404
5264.82 5264.82 2.210000 2.057626 79.5792 10.1668 0.633432
5268.2 5268.2 2.230000 2.053011 80.4896 10.3307 0.646263
5271.6 5271.6 2.240000 2.048391 81.0324 10.4485 0.655663
5275.03 5275.03 2.250000 2.043740 81.6621 10.5788 0.665884
5278.47 5278.47 2.260000 2.038948 81.2699 10.5785 0.667813
5281.93 5281.93 2.280000 2.034127 82.9335 10.8472 0.687192
5285.4 5285.4 2.290000 2.029147 83.5637 10.9842 0.698335
5288.9 5288.9 2.300000 2.023800 84.2001 11.1272 0.710912
5292.42 5292.42 2.310000 2.017978 84.7991 11.2718 0.724229
5295.96 5295.96 2.330000 2.012067 85.7561 11.4666 0.741392
5299.51 5299.51 2.340000 2.006124 86.2872 11.6064 0.755354
5303.09 5303.09 2.350000 2.000077 86.8077 11.7472 0.769078
5306.68 5306.68 2.360000 1.994241 87.2237 11.8726 0.781666
5310.29 5310.29 2.380000 1.988463 88.063 12.0563 0.797871
5313.92 5313.92 2.390000 1.982852 88.5315 12.1886 0.811574
5317.57 5317.57 2.400000 1.977308 89.1051 12.3358 0.826188
5321.24 5321.24 2.410000 1.971582 89.7204 12.4923 0.841905
5324.93 5324.93 2.430000 1.966016 90.6281 12.6891 0.860943
5328.64 5328.64 2.440000 1.960644 91.1746 12.8344 0.876386
5332.36 5332.36 2.450000 1.955328 91.6428 12.9691 0.891604
5336.11 5336.11 2.460000 1.950110 92.2326 13.1208 0.908607
5339.87 5339.87 2.480000 1.945069 93.2485 13.3324 0.929689
5343.66 5343.66 2.490000 1.940217 93.7943 13.4756 0.946873
5347.46 5347.46 2.500000 1.935300 94.3128 13.617 0.963324
5351.28 5351.28 2.510000 1.930247 94.742 13.7482 0.977997
5355.12 5355.12 2.530000 1.924908 95.4501 13.9251 0.996339
5358.98 5358.98 2.540000 1.919154 95.9449 14.0781 1.012130
5362.86 5362.86 2.550000 1.913149 97.2433 14.3545 1.036578
5366.76 5366.76 2.560000 1.907410 97.8871 14.5328 1.053427
5370.68 5370.68 2.580000 1.901677 98.9802 14.7795 1.075954
5374.61 5374.61 2.590000 1.895760 99.6319 14.9652 1.094699
5378.57 5378.57 2.600000 1.889557 100.334 15.1644 1.115311
5382.54 5382.54 2.610000 1.883577 101.098 15.3714 1.136829
5386.54 5386.54 2.630000 1.877746 102.244 15.6366 1.163550
5390.55 5390.55 2.640000 1.871953 102.983 15.8412 1.186089
5394.58 5394.58 2.650000 1.866363 103.782 16.0535 1.209141
5398.63 5398.63 2.660000 1.861005 104.297 16.2198 1.228958
5402.7 5402.7 2.680000 1.855780 105.504 16.4935 1.257200
5406.79 5406.79 2.690000 1.850501 106.21 16.6918 1.280267
5410.9 5410.9 2.700000 1.845247 106.905 16.8894 1.303239
5415.02 5415.02 2.710000 1.839773 107.763 17.1184 1.329082
5419.17 5419.17 2.730000 1.834204 108.589 17.346 1.355326
5423.33 5423.33 2.740000 1.828608 109.491 17.5883 1.382620
5427.52 5427.52 2.750000 1.822947 110.205 17.8034 1.408774
5431.72 5431.72 2.760000 1.817273 110.923 18.0215 1.434815
5435.94 5435.94 2.780000 1.811516 112.057 18.3108 1.467296
5440.18 5440.18 2.790000 1.805582 112.96 18.5681 1.497397
5444.44 5444.44 2.800000 1.799607 113.787 18.8162 1.525758
5448.72 5448.72 2.810000 1.793599 114.489 19.0464 1.553842
5453.02 5453.02 2.830000 1.787632 115.593 19.3453 1.586895
5457.34 5457.34 2.840000 1.781708 116.279 19.5755 1.615223
5461.67 5461.67 2.850000 1.775767 116.942 19.8044 1.642726
5466.03 5466.03 2.860000 1.769857 117.571 20.0291 1.670382
5470.4 5470.4 2.880000 1.763968 118.62 20.3272 1.705266
5474.8 5474.8 2.890000 1.758103 119.25 20.5553 1.734123
5479.21 5479.21 2.900000 1.752405 119.793 20.7668 1.762005
5483.64 5483.64 2.910000 1.746863 120.264 20.9643 1.788778
5488.09 5488.09 2.930000 1.741452 121.161 21.2353 1.821897
5492.56 5492.56 2.940000 1.735961 121.703 21.4478 1.851536
5497.05 5497.05 2.950000 1.730283 122.085 21.6375 1.878674
5501.56 5501.56 2.960000 1.724664 122.435 21.822 1.906349
5506.08 5506.08 2.980000 1.718849 123.143 22.0761 1.939851
5510.63 5510.63 2.990000 1.713000 123.438 22.2589 1.967217
5515.19 5515.19 3.000000 1.707160 123.688 22.4345 1.994332
5519.78 5519.78 3.010000 1.701321 123.884 22.6017 2.021561
5524.38 5524.38 3.030000 1.695485 124.493 22.8457 2.055522
5529 5529 3.040000 1.689572 124.695 23.0186 2.083678
5533.64 5533.64 3.050000 1.683615 124.787 23.173 2.110584
5538.3 5538.3 3.060000 1.677579 124.902 23.3348 2.138298
5542.98 5542.98 3.080000 1.671430 125.357 23.5644 2.172781
5547.68 5547.68 3.090000 1.665408 125.291 23.6941 2.197291
5552.4 5552.4 3.100000 1.659468 125.301 23.8372 2.223906
5557.13 5557.13 3.110000 1.653674 125.238 23.9638 2.248538
5561.89 5561.89 3.130000 1.647936 125.699 24.1903 2.282960
5566.66 5566.66 3.140000 1.642092 125.699 24.3321 2.310002
5571.46 5571.46 3.150000 1.636243 125.67 24.4691 2.337017
5576.27 5576.27 3.160000 1.630373 125.638 24.6071 2.363708
5581.1 5581.1 3.180000 1.624466 125.996 24.8233 2.398545
5585.95 5585.95 3.190000 1.618550 126.022 24.9758 2.427819
5590.82 5590.82 3.200000 1.612625 126.034 25.1265 2.456500
5595.71 5595.71 3.210000 1.606651 126.202 25.3109 2.488789
5600.62 5600.62 3.230000 1.600661 126.685 25.5604 2.528068
5605.54 5605.54 3.240000 1.594678 126.873 25.7518 2.561979
5610.49 5610.49 3.250000 1.588759 126.964 25.9234 2.594478
5615.45 5615.45 3.260000 1.582779 127.103 26.1074 2.628342
5620.44 5620.44 3.280000 1.576673 127.62 26.374 2.671294
5625.44 5625.44 3.290000 1.570613 127.26 26.4595 2.696218
5630.46 5630.46 3.300000 1.564517 127.497 26.671 2.734378
5635.5 5635.5 3.310000 1.558477 127.617 26.8578 2.770797
5640.56 5640.56 3.330000 1.552453 128.448 27.1961 2.822570
5645.64 5645.64 3.340000 1.546498 128.708 27.4139 2.862254
5650.74 5650.74 3.350000 1.540659 129.186 27.6768 2.907448
5655.86 5655.86 3.360000 1.534714 129.776 27.9689 2.955840
5660.99 5660.99 3.380000 1.528791 130.762 28.3488 3.014185
5666.15 5666.15 3.390000 1.522902 131.515 28.6805 3.067178
5671.32 5671.32 3.400000 1.517067 132.15 28.9877 3.118385
5676.52 5676.52 3.410000 1.511162 133.099 29.3686 3.178354
5681.73 5681.73 3.430000 1.505170 134.317 29.8155 3.245684
5686.96 5686.96 3.440000 1.499212 135.166 30.1834 3.305388
5692.21 5692.21 3.450000 1.493182 135.858 30.5214 3.362688
5697.48 5697.48 3.460000 1.487242 136.524 30.8538 3.419068
5702.77 5702.77 3.480000 1.481284 137.597 31.2821 3.487449
5708.08 5708.08 3.490000 1.475271 138.266 31.6237 3.546715
5713.4 5713.4 3.500000 1.469316 139.047 31.9923 3.609310
5718.75 5718.75 3.510000 1.463337 139.83 32.3653 3.672946
5724.12 5724.12 3.530000 1.457447 140.867 32.7981 3.743926
5729.5 5729.5 3.540000 1.451627 141.448 33.1257 3.804258
5734.9 5734.9 3.550000 1.445730 142.138 33.484 3.867911
5740.32 5740.32 3.560000 1.439804 142.739 33.8254 3.931119
5745.77 5745.77 3.580000 1.433786 143.806 34.2839 4.008345
5751.23 5751.23 3.590000 1.427845 144.615 34.6823 4.079176
5756.7 5756.7 3.600000 1.421916 145.375 35.0717 4.149984
5762.2 5762.2 3.610000 1.415985 146.088 35.4537 4.220210
5767.72 5767.72 3.630000 1.410069 147.153 35.9241 4.302313
5773.26 5773.26 3.640000 1.404130 147.754 36.2855 4.371323
5778.81 5778.81 3.650000 1.398194 148.401 36.6615 4.442969
5784.39 5784.39 3.660000 1.392316 148.959 37.0162 4.512727
5789.98 5789.98 3.680000 1.386393 149.919 37.4761 4.596496
5795.59 5795.59 3.690000 1.380502 150.697 37.8931 4.674967
5801.22 5801.22 3.700000 1.374500 151.15 38.2359 4.745503
5806.87 5806.87 3.710000 1.368594 151.638 38.5865 4.817701
5812.54 5812.54 3.730000 1.362726 152.594 39.0583 4.905492
5818.23 5818.23 3.740000 1.356805 153.088 39.4173 4.980231