File: xdidata/Ti/Ti-K-Dy2TiO5.xdi
# XDI/1.0 BlueSky/1.5.0
# Beamline.name: 6BM
# Beamline.xray_source: NSLS-II three-pole wiggler
# Beamline.collimation: paraboloid mirror, 5 nm Rh on 30 nm Pt
# Beamline.focusing: not in use
# Beamline.harmonic_rejection: flat mirror, Si stripe, pitch = 7.0 mrad relative to beam
# Detector.i0: 10 cm N2
# Detector.i1: 25 cm N2
# Detector.i2: 25 cm N2
# Element.symbol: Ti
# Element.edge: K
# Facility.name: NSLS-II
# Facility.energy: 3.0
# Facility.current: 220.9
# Facility.mode: top-off
# Facility.gup: 301027
# Facility.saf: 304156
# Mono.name: Si(111)
# Mono.d_spacing: 3.13526
# Mono.encoder_resolution: 0.0000050 deg/ct
# Mono.angle_offset: 16.0571 deg
# Mono.scan_mode: pseudo channel cut
# Mono.scan_type: step
# Mono.direction: forward in energy
# Sample.name: Dy2TiO5
# Sample.prep: Powder in polyethylene glycol pellet
# Sample.x_position: -97.532 mm
# Sample.y_position: 117.543 mm
# Sample.wheel_position: -645.000 mm
# Scan.experimenters: Bruce Ravel, Martin Stennett
# Scan.edge_energy: 4966.0
# Scan.start_time: 2019-05-30T05:51:49
# Scan.end_time: 2019-05-30T06:34:29
# Scan.transient_id: 9797
# Scan.uid: 36538793-e70c-4f34-a315-29e40954a34b
# Scan.plot_hint: ln(I0/It)  --  ln($5/$6)
# Scan.sequence: merge of 3 scans
# Column.1: energy eV
# Column.2: requested_energy eV
# Column.3: measurement_time seconds
# Column.4: mutrans
# Column.5: i0
# Column.6: itrans
# Column.7: irefer
# /////
#  sample disk prepared by Martin
# -----
# energy   requested_energy   measurement_time   mutrans   i0   itrans   irefer
4765.99 4766 0.500000 3.814353 11.0193 0.243065 0.020090
4775.97 4776 0.500000 3.805574 11.209 0.249359 0.020764
4786.01 4786 0.500000 3.780141 11.427 0.260758 0.021903
4796.01 4796 0.500000 3.755212 11.6439 0.272414 0.022852
4806.01 4806 0.500000 3.729459 11.8899 0.285427 0.024479
4816.01 4816 0.500000 3.703589 12.1042 0.298186 0.025683
4826.01 4826 0.500000 3.679788 12.3161 0.310718 0.027077
4836 4836 0.500000 3.654151 12.5444 0.324693 0.028859
4846 4846 0.500000 3.629598 12.7757 0.338899 0.030571
4856 4856 0.500000 3.605855 12.9931 0.352944 0.032189
4866.01 4866 0.500000 3.582092 13.2121 0.367527 0.033778
4876.01 4876 0.500000 3.559101 13.4306 0.382296 0.035574
4886 4886 0.500000 3.535834 13.642 0.397451 0.037174
4896.01 4896 0.500000 3.511954 13.8433 0.413068 0.039340
4906 4906 0.500000 3.488825 14.0416 0.428784 0.041220
4916 4916 0.500000 3.465731 14.2373 0.444918 0.043413
4926 4926 0.500000 3.443569 14.4358 0.461230 0.045436
4936 4936 0.500000 3.421148 14.6257 0.477894 0.047768
4938 4938 0.500000 3.416946 14.6639 0.481159 0.048162
4940 4940 0.500000 3.412023 14.6994 0.484705 0.048807
4942 4942 0.500000 3.407602 14.7332 0.487972 0.049224
4943.99 4944 0.500000 3.402978 14.7695 0.491437 0.049563
4946.01 4946 0.500000 3.398076 14.8018 0.494939 0.049960
4947.99 4948 0.500000 3.393964 14.83 0.497916 0.050513
4950.01 4950 0.500000 3.390071 14.8691 0.501183 0.050725
4952 4952 0.500000 3.385881 14.902 0.504399 0.050867
4954.01 4954 0.500000 3.381433 14.9323 0.507683 0.051447
4956 4956 0.500000 3.376854 14.9611 0.510993 0.051969
4956.25 4956.25 0.500000 3.376517 14.9612 0.511168 0.052269
4956.49 4956.5 0.500000 3.376417 14.9655 0.511367 0.052003
4956.74 4956.75 0.500000 3.375645 14.968 0.511848 0.052147
4956.99 4957 0.500000 3.374835 14.9715 0.512381 0.051958
4957.25 4957.25 0.500000 3.374781 14.9728 0.512457 0.052161
4957.5 4957.5 0.500000 3.374096 14.976 0.512914 0.052079
4957.74 4957.75 0.500000 3.373631 14.9806 0.513309 0.052289
4958 4958 0.500000 3.372525 14.9846 0.514016 0.052221
4958.24 4958.25 0.500000 3.372247 15.0175 0.515289 0.052481
4958.49 4958.5 0.500000 3.371545 15.0227 0.515827 0.052564
4958.74 4958.75 0.500000 3.371265 15.0251 0.516052 0.052521
4959 4959 0.500000 3.370707 15.0294 0.516492 0.052410
4959.25 4959.25 0.500000 3.370066 15.0326 0.516933 0.052513
4959.5 4959.5 0.500000 3.369855 15.0332 0.517061 0.052522
4959.75 4959.75 0.500000 3.368827 15.036 0.517695 0.052579
4960 4960 0.500000 3.368062 15.0396 0.518211 0.052551
4960.24 4960.25 0.500000 3.367589 15.042 0.518538 0.052875
4960.49 4960.5 0.500000 3.366833 15.0455 0.519049 0.052847
4960.75 4960.75 0.500000 3.366830 15.0509 0.519241 0.052748
4960.99 4961 0.500000 3.366292 15.0561 0.519697 0.052620
4961.25 4961.25 0.500000 3.365098 15.056 0.520318 0.052762
4961.5 4961.5 0.500000 3.364344 15.0611 0.520883 0.052929
4961.75 4961.75 0.500000 3.364738 15.0649 0.520811 0.052443
4962 4962 0.500000 3.363719 15.0709 0.521549 0.052674
4962.25 4962.25 0.500000 3.363405 15.0741 0.521825 0.052594
4962.49 4962.5 0.500000 3.362837 15.0804 0.522338 0.052545
4962.74 4962.75 0.500000 3.362337 15.0852 0.522763 0.052220
4962.99 4963 0.500000 3.362121 15.0879 0.522970 0.052038
4963.25 4963.25 0.500000 3.361086 15.092 0.523654 0.052073
4963.5 4963.5 0.500000 3.361039 15.0969 0.523850 0.051419
4963.75 4963.75 0.500000 3.360256 15.1009 0.524401 0.050846
4964 4964 0.500000 3.359981 15.1061 0.524725 0.049961
4964.25 4964.25 0.500000 3.358715 15.1083 0.525459 0.048567
4964.5 4964.5 0.500000 3.358413 15.1129 0.525785 0.046089
4964.75 4964.75 0.500000 3.358312 15.1133 0.525853 0.042833
4965 4965 0.500000 3.358075 15.1183 0.526152 0.039587
4965.25 4965.25 0.500000 3.357602 15.1224 0.526541 0.037088
4965.5 4965.5 0.500000 3.357355 15.1268 0.526823 0.036385
4965.75 4965.75 0.500000 3.357503 15.1308 0.526887 0.036305
4966 4966 0.500000 3.356490 15.1332 0.527503 0.037877
4966.25 4966.25 0.500000 3.356352 15.1334 0.527582 0.039343
4966.5 4966.5 0.500000 3.356940 15.1369 0.527396 0.040186
4966.75 4966.75 0.500000 3.357332 15.1371 0.527198 0.041140
4967 4967 0.500000 3.358972 15.1407 0.526452 0.041450
4967.25 4967.25 0.500000 3.360398 15.1443 0.525831 0.041394
4967.5 4967.5 0.500000 3.361539 15.1424 0.525168 0.041293
4967.75 4967.75 0.500000 3.363453 15.1466 0.524302 0.040729
4968 4968 0.500000 3.365161 15.1554 0.523722 0.040061
4968.25 4968.25 0.500000 3.365956 15.1574 0.523373 0.039291
4968.5 4968.5 0.500000 3.365225 15.1621 0.523913 0.038830
4968.75 4968.75 0.500000 3.363805 15.162 0.524653 0.038066
4969 4969 0.500000 3.363467 15.1599 0.524760 0.037739
4969.25 4969.25 0.500000 3.362957 15.1587 0.524983 0.037204
4969.5 4969.5 0.500000 3.361313 15.1586 0.525849 0.036922
4969.75 4969.75 0.500000 3.360115 15.1596 0.526507 0.036761
4970 4970 0.500000 3.357854 15.1642 0.527869 0.036568
4970.25 4970.25 0.500000 3.356280 15.1715 0.528946 0.036482
4970.5 4970.5 0.500000 3.354427 15.1806 0.530251 0.036711
4970.75 4970.75 0.500000 3.353836 15.1895 0.530870 0.036497
4971 4971 0.500000 3.352801 15.2007 0.531817 0.036208
4971.25 4971.25 0.500000 3.351900 15.2081 0.532553 0.036149
4971.5 4971.5 0.500000 3.351816 15.2128 0.532766 0.035488
4971.75 4971.75 0.500000 3.351449 15.2167 0.533095 0.034925
4972 4972 0.500000 3.351337 15.2472 0.534224 0.034365
4972.25 4972.25 0.500000 3.351491 15.2571 0.534487 0.033715
4972.5 4972.5 0.500000 3.351798 15.2624 0.534510 0.033108
4972.75 4972.75 0.500000 3.351755 15.2656 0.534644 0.032195
4973 4973 0.500000 3.352195 15.2681 0.534496 0.031635
4973.25 4973.25 0.500000 3.352301 15.272 0.534576 0.030986
4973.5 4973.5 0.500000 3.352479 15.2715 0.534463 0.030318
4973.75 4973.75 0.500000 3.351995 15.2763 0.534888 0.029939
4974 4974 0.500000 3.351313 15.2794 0.535364 0.029426
4974.25 4974.25 0.500000 3.352132 15.281 0.534986 0.028913
4974.5 4974.5 0.500000 3.351969 15.2816 0.535091 0.028178
4974.75 4974.75 0.500000 3.351827 15.2853 0.535295 0.027631
4975 4975 0.500000 3.351894 15.2852 0.535256 0.027172
4975.25 4975.25 0.500000 3.352140 15.2853 0.535129 0.026491
4975.5 4975.5 0.500000 3.352089 15.2854 0.535159 0.026107
4975.75 4975.75 0.500000 3.351918 15.2849 0.535231 0.025671
4976 4976 0.500000 3.352331 15.2823 0.534921 0.025455
4976.25 4976.25 0.500000 3.352700 15.281 0.534677 0.024786
4976.5 4976.5 0.500000 3.352887 15.2836 0.534669 0.024374
4976.75 4976.75 0.500000 3.352481 15.2855 0.534953 0.024128
4977 4977 0.500000 3.353051 15.2832 0.534569 0.023638
4977.25 4977.25 0.500000 3.353770 15.2849 0.534246 0.023329
4977.5 4977.5 0.500000 3.354226 15.2877 0.534096 0.023249
4977.75 4977.75 0.500000 3.354691 15.3268 0.535216 0.023021
4978 4978 0.500000 3.355591 15.3276 0.534756 0.022722
4978.25 4978.25 0.500000 3.356601 15.3329 0.534405 0.022556
4978.5 4978.5 0.500000 3.357233 15.3348 0.534136 0.022505
4978.75 4978.75 0.500000 3.357702 15.3325 0.533800 0.022077
4979 4979 0.500000 3.359551 15.3339 0.532868 0.021921
4979.25 4979.25 0.500000 3.360070 15.3335 0.532577 0.021847
4979.5 4979.5 0.500000 3.361306 15.332 0.531862 0.022179
4979.75 4979.75 0.500000 3.363163 15.3279 0.530745 0.021852
4980 4980 0.500000 3.364872 15.3276 0.529818 0.021633
4980.25 4980.25 0.500000 3.367007 15.3248 0.528605 0.021562
4980.5 4980.5 0.500000 3.369470 15.3243 0.527269 0.021427
4980.75 4980.75 0.500000 3.372254 15.3216 0.525734 0.021363
4981 4981 0.500000 3.375409 15.3203 0.524017 0.021285
4981.25 4981.25 0.500000 3.379294 15.3196 0.521965 0.021069
4981.5 4981.5 0.500000 3.382315 15.3206 0.520404 0.021066
4981.75 4981.75 0.500000 3.386939 15.3208 0.518025 0.020731
4982 4982 0.500000 3.391477 15.3236 0.515765 0.020575
4982.25 4982.25 0.500000 3.395888 15.3267 0.513611 0.020517
4982.5 4982.5 0.500000 3.400895 15.3301 0.511149 0.020247
4982.75 4982.75 0.500000 3.405592 15.3322 0.508856 0.020286
4983 4983 0.500000 3.410275 15.334 0.506497 0.020187
4983.25 4983.25 0.500000 3.414021 15.3343 0.504645 0.020131
4983.5 4983.5 0.500000 3.417590 15.3297 0.502669 0.019770
4983.75 4983.75 0.500000 3.420343 15.3278 0.501246 0.019949
4984 4984 0.500000 3.422261 15.3266 0.500235 0.020064
4984.25 4984.25 0.500000 3.423652 15.3284 0.499603 0.020022
4984.5 4984.5 0.500000 3.423910 15.3262 0.499403 0.020020
4984.75 4984.75 0.500000 3.423540 15.3263 0.499589 0.019938
4985 4985 0.500000 3.421857 15.3288 0.500511 0.020312
4985.25 4985.25 0.500000 3.420807 15.3317 0.501128 0.020157
4985.51 4985.5 0.500000 3.418065 15.3358 0.502649 0.020435
4985.75 4985.75 0.500000 3.416160 15.336 0.503605 0.020498
4986 4986 0.500000 3.413626 15.3343 0.504833 0.020676
4986.25 4986.25 0.500000 3.410137 15.3345 0.506592 0.020776
4986.5 4986.5 0.500000 3.407298 15.3318 0.507956 0.021079
4986.75 4986.75 0.500000 3.405687 15.3302 0.508712 0.021065
4987 4987 0.500000 3.403595 15.3585 0.510727 0.021214
4987.25 4987.25 0.500000 3.401029 15.3642 0.512219 0.021408
4987.5 4987.5 0.500000 3.399382 15.3627 0.513020 0.021496
4987.75 4987.75 0.500000 3.397321 15.362 0.514057 0.021602
4988 4988 0.500000 3.397039 15.368 0.514404 0.021342
4988.25 4988.25 0.500000 3.395469 15.3735 0.515394 0.021667
4988.5 4988.5 0.500000 3.394771 15.3807 0.515993 0.021589
4988.75 4988.75 0.500000 3.394632 15.3898 0.516372 0.021797
4989 4989 0.500000 3.393857 15.4034 0.517231 0.021651
4989.25 4989.25 0.500000 3.393655 15.4156 0.517743 0.021711
4989.51 4989.5 0.500000 3.393495 15.4269 0.518204 0.021870
4989.75 4989.75 0.500000 3.393594 15.4356 0.518446 0.021692
4990 4990 0.500000 3.393531 15.4505 0.518981 0.021606
4990.25 4990.25 0.500000 3.393431 15.4613 0.519397 0.021925
4990.5 4990.5 0.500000 3.394101 15.4745 0.519492 0.021546
4990.75 4990.75 0.500000 3.393803 15.4852 0.520003 0.021907
4991 4991 0.500000 3.393645 15.4971 0.520488 0.021989
4991.25 4991.25 0.500000 3.394218 15.506 0.520487 0.022150
4991.5 4991.5 0.500000 3.394103 15.5183 0.520959 0.022057
4991.75 4991.75 0.500000 3.395062 15.5268 0.520750 0.021923
4992 4992 0.500000 3.395152 15.5384 0.521087 0.021966
4992.25 4992.25 0.500000 3.395941 15.544 0.520866 0.022281
4992.5 4992.5 0.500000 3.396277 15.5491 0.520860 0.022129
4992.75 4992.75 0.500000 3.396752 15.5581 0.520911 0.022156
4993 4993 0.500000 3.397407 15.5629 0.520736 0.022137
4993.25 4993.25 0.500000 3.397859 15.5666 0.520622 0.022192
4993.5 4993.5 0.500000 3.398115 15.5703 0.520611 0.022053
4993.75 4993.75 0.500000 3.398503 15.5782 0.520675 0.022158
4994 4994 0.500000 3.399212 15.5829 0.520461 0.022224
4994.25 4994.25 0.500000 3.399185 15.5864 0.520591 0.022108
4994.5 4994.5 0.500000 3.400079 15.5883 0.520191 0.022075
4994.75 4994.75 0.500000 3.400675 15.5974 0.520190 0.021872
4995 4995 0.500000 3.400299 15.5978 0.520394 0.021810
4995.25 4995.25 0.500000 3.400414 15.6008 0.520436 0.021866
4995.5 4995.5 0.500000 3.400287 15.6023 0.520548 0.021636
4995.75 4995.75 0.500000 3.399893 15.6074 0.520924 0.021423
4996 4996 0.700000 3.399389 21.8386 0.729271 0.029941
4997.09 4997.08 0.710000 3.395608 22.1778 0.743404 0.030010
4998.18 4998.18 0.730000 3.390303 22.8031 0.768420 0.030334
4999.3 4999.29 0.740000 3.384528 23.1354 0.784142 0.030522
5000.44 5000.43 0.750000 3.379767 23.4753 0.799455 0.030907
5001.58 5001.58 0.760000 3.376416 23.834 0.814393 0.031684
5002.77 5002.76 0.780000 3.373395 24.5138 0.840161 0.032723
5003.96 5003.95 0.790000 3.370360 24.8868 0.855539 0.033397
5005.17 5005.16 0.800000 3.366148 25.263 0.872134 0.034413
5006.4 5006.39 0.810000 3.360984 25.6407 0.889754 0.035828
5007.65 5007.64 0.830000 3.356028 26.3356 0.918414 0.037865
5008.91 5008.91 0.840000 3.351675 26.7059 0.935384 0.039704
5010.21 5010.2 0.850000 3.344906 27.0822 0.955011 0.041088
5011.52 5011.51 0.860000 3.338784 27.4603 0.974292 0.042730
5012.84 5012.83 0.880000 3.334053 28.2114 1.005688 0.044096
5014.19 5014.18 0.890000 3.330268 28.581 1.022720 0.045170
5015.55 5015.54 0.900000 3.327382 28.9566 1.039169 0.046306
5016.94 5016.93 0.910000 3.324293 29.3349 1.055995 0.047570
5018.34 5018.33 0.930000 3.321727 30.0381 1.084085 0.049185
5019.76 5019.75 0.940000 3.317712 30.4254 1.102482 0.050391
5021.19 5021.19 0.950000 3.313211 30.8139 1.121604 0.051565
5022.65 5022.65 0.960000 3.308979 31.2027 1.140549 0.052582
5024.13 5024.13 0.980000 3.305084 31.921 1.171371 0.054127
5025.64 5025.63 0.990000 3.301688 32.3094 1.189666 0.054837
5027.14 5027.14 1.000000 3.298797 32.6971 1.207420 0.055532
5028.69 5028.68 1.010000 3.295923 33.1051 1.226025 0.055998
5030.24 5030.24 1.030000 3.293547 33.8173 1.255363 0.056642
5031.81 5031.81 1.040000 3.290789 34.2131 1.273562 0.056504
5033.4 5033.4 1.050000 3.288058 34.6148 1.292036 0.055836
5035.01 5035.01 1.060000 3.284892 35.0137 1.311086 0.055865
5036.65 5036.65 1.080000 3.281503 35.7405 1.342834 0.056371
5038.29 5038.3 1.090000 3.278392 36.1689 1.363153 0.056467
5039.96 5039.97 1.100000 3.275560 36.5725 1.382277 0.057422
5041.65 5041.65 1.110000 3.273034 37.0359 1.403339 0.058247
5043.35 5043.36 1.130000 3.270588 37.7769 1.434915 0.060097
5045.09 5045.09 1.140000 3.268423 38.1913 1.453812 0.061876
5046.82 5046.83 1.150000 3.265412 38.6058 1.474015 0.063720
5048.6 5048.6 1.160000 3.262267 39.0257 1.494745 0.066114
5050.38 5050.38 1.180000 3.258862 39.7901 1.529220 0.069226
5052.18 5052.18 1.190000 3.255649 40.2114 1.550380 0.071777
5054 5054 1.200000 3.252254 40.6454 1.572440 0.073993
5055.84 5055.84 1.210000 3.248966 41.0747 1.594276 0.075787
5057.7 5057.7 1.230000 3.245655 41.8546 1.629944 0.078141
5059.57 5059.58 1.240000 3.241961 42.2929 1.653108 0.079228
5061.48 5061.48 1.250000 3.238160 42.7335 1.676697 0.080353
5063.4 5063.4 1.260000 3.234257 43.1714 1.700496 0.082516
5065.33 5065.33 1.280000 3.230673 43.9668 1.738045 0.084781
5067.29 5067.29 1.290000 3.226356 44.4175 1.763459 0.086549
5069.26 5069.26 1.300000 3.222053 44.8716 1.789172 0.088448
5071.26 5071.26 1.310000 3.217757 45.3629 1.816551 0.089964
5073.27 5073.27 1.330000 3.213098 46.2319 1.859987 0.092340
5075.3 5075.3 1.340000 3.208393 46.684 1.887039 0.093416
5077.35 5077.35 1.350000 3.203990 47.1495 1.914262 0.094131
5079.42 5079.42 1.360000 3.198778 47.6177 1.943379 0.094297
5081.51 5081.51 1.380000 3.193742 48.4383 1.986848 0.094735
5083.61 5083.61 1.390000 3.188760 48.9078 2.016118 0.094472
5085.74 5085.74 1.400000 3.183420 49.3897 2.046884 0.094457
5087.89 5087.89 1.410000 3.178090 49.8655 2.077652 0.094674
5090.05 5090.05 1.430000 3.173120 50.7051 2.123172 0.095776
5092.23 5092.23 1.440000 3.168195 51.1992 2.154434 0.097774
5094.44 5094.44 1.450000 3.163614 51.7145 2.186115 0.100541
5096.66 5096.66 1.460000 3.158951 52.2133 2.217519 0.104391
5098.9 5098.9 1.480000 3.154084 53.0726 2.265021 0.110191
5101.16 5101.16 1.490000 3.149309 53.5717 2.297250 0.114916
5103.44 5103.44 1.500000 3.144893 54.0923 2.329841 0.119020
5105.74 5105.74 1.510000 3.140256 54.6011 2.362686 0.122436
5108.05 5108.05 1.530000 3.135915 55.4766 2.411005 0.125401
5110.39 5110.39 1.540000 3.131045 55.9923 2.445290 0.127460
5112.74 5112.74 1.550000 3.126551 56.5149 2.479240 0.129500
5115.12 5115.12 1.560000 3.121723 57.0382 2.514315 0.131480
5117.52 5117.51 1.580000 3.117079 57.9303 2.565539 0.134669
5119.92 5119.92 1.590000 3.112349 58.4627 2.601385 0.136860
5122.35 5122.35 1.600000 3.107664 58.9965 2.637460 0.139321
5124.8 5124.8 1.610000 3.102832 59.5264 2.674023 0.142053
5127.27 5127.27 1.630000 3.097773 60.4378 2.728741 0.145664
5129.76 5129.76 1.640000 3.092895 60.9857 2.766948 0.148511
5132.27 5132.27 1.650000 3.088008 61.5379 2.805691 0.151049
5134.79 5134.79 1.660000 3.082812 62.091 2.845654 0.153482
5137.34 5137.34 1.680000 3.078006 63.1447 2.907867 0.156241
5139.9 5139.9 1.690000 3.073138 63.7466 2.949914 0.157439
5142.49 5142.49 1.700000 3.068102 64.3227 2.991613 0.159082
5145.09 5145.09 1.710000 3.063300 64.8986 3.032935 0.159865
5147.71 5147.71 1.730000 3.058238 65.8548 3.093233 0.162640
5150.35 5150.35 1.740000 3.053409 66.4458 3.136094 0.164559
5153.01 5153.01 1.750000 3.048123 67.0332 3.180600 0.168124
5155.69 5155.69 1.760000 3.042770 67.6224 3.225778 0.172589
5158.39 5158.39 1.780000 3.037385 68.5957 3.289856 0.178164
5161.11 5161.11 1.790000 3.032106 69.1777 3.335328 0.182346
5163.84 5163.84 1.800000 3.026767 69.778 3.382305 0.187419
5166.6 5166.6 1.810000 3.021358 70.3706 3.429524 0.190880
5169.37 5169.37 1.830000 3.015685 71.357 3.497364 0.196364
5172.17 5172.17 1.840000 3.010204 72.0538 3.550932 0.202433
5174.98 5174.98 1.850000 3.004550 72.6846 3.602341 0.207348
5177.81 5177.81 1.860000 2.999042 73.2803 3.651892 0.212177
5180.66 5180.66 1.880000 2.993211 74.2902 3.723877 0.217796
5183.53 5183.53 1.890000 2.987486 74.9264 3.777352 0.221961
5186.42 5186.42 1.900000 2.981552 75.5347 3.830666 0.225981
5189.32 5189.32 1.910000 2.976057 76.1501 3.883167 0.229684
5192.25 5192.25 1.930000 2.970295 77.152 3.956983 0.234811
5195.2 5195.2 1.940000 2.964645 77.752 4.010353 0.238265
5198.16 5198.16 1.950000 2.958916 78.3124 4.062479 0.241663
5201.14 5201.14 1.960000 2.953276 78.9352 4.117928 0.245493
5204.15 5204.15 1.980000 2.947420 79.9948 4.197735 0.250565
5207.17 5207.17 1.990000 2.941881 80.7797 4.262466 0.254259
5210.21 5210.21 2.000000 2.936125 81.437 4.321930 0.257780
5213.27 5213.27 2.010000 2.930392 82.0616 4.380128 0.261735
5216.35 5216.35 2.030000 2.924689 83.108 4.461348 0.268110
5219.45 5219.45 2.040000 2.918757 83.7774 4.524047 0.273807
5222.56 5222.56 2.050000 2.913161 84.4545 4.586218 0.278958
5225.7 5225.7 2.060000 2.907433 85.1288 4.649384 0.284523
5228.85 5228.85 2.080000 2.901644 86.1998 4.735200 0.290910
5232.03 5232.03 2.090000 2.895708 86.8797 4.800953 0.296669
5235.22 5235.22 2.100000 2.889909 87.5875 4.868227 0.302869
5238.43 5238.43 2.110000 2.883901 88.2943 4.937082 0.309614
5241.66 5241.66 2.130000 2.878067 89.3945 5.027849 0.318068
5244.92 5244.92 2.140000 2.872252 90.0413 5.093764 0.324247
5248.18 5248.18 2.150000 2.866428 90.2105 5.133137 0.329984
5251.47 5251.47 2.160000 2.860271 91.0085 5.210517 0.337487
5254.78 5254.78 2.180000 2.854252 92.49 5.327342 0.347146
5258.11 5258.11 2.190000 2.848252 93.323 5.407651 0.354909
5261.45 5261.45 2.200000 2.842331 94.0375 5.481436 0.361663
5264.82 5264.82 2.210000 2.836344 94.8357 5.561146 0.368733
5268.2 5268.2 2.230000 2.830223 96.0473 5.666764 0.376632
5271.6 5271.6 2.240000 2.824144 96.7999 5.745976 0.383597
5275.03 5275.03 2.250000 2.818029 97.6471 5.831826 0.390494
5278.47 5278.47 2.260000 2.811860 97.2345 5.843128 0.391454
5281.93 5281.93 2.280000 2.805590 99.4259 6.012403 0.404228
5285.4 5285.4 2.290000 2.799563 100.451 6.111102 0.412481
5288.9 5288.9 2.300000 2.793311 101.248 6.198235 0.419847
5292.42 5292.42 2.310000 2.787056 102.003 6.283622 0.427933
5295.96 5295.96 2.330000 2.780949 103.249 6.399382 0.438519
5299.51 5299.51 2.340000 2.774075 103.926 6.485749 0.446967
5303.09 5303.09 2.350000 2.768211 104.678 6.571081 0.455365
5306.68 5306.68 2.360000 2.761865 105.479 6.663554 0.464046
5310.29 5310.29 2.380000 2.755445 106.743 6.786829 0.475302
5313.92 5313.92 2.390000 2.748932 107.513 6.880422 0.483772
5317.57 5317.57 2.400000 2.742726 108.287 6.973132 0.493250
5321.24 5321.24 2.410000 2.736722 108.983 7.060169 0.502615
5324.93 5324.93 2.430000 2.730299 110.172 7.183239 0.514658
5328.64 5328.64 2.440000 2.723716 110.717 7.266425 0.523552
5332.36 5332.36 2.450000 2.717682 111.332 7.350998 0.533113
5336.11 5336.11 2.460000 2.710957 112.145 7.454657 0.543859
5339.87 5339.87 2.480000 2.704250 113.379 7.587400 0.557592
5343.66 5343.66 2.490000 2.697850 114.119 7.685961 0.569002
5347.46 5347.46 2.500000 2.690978 114.718 7.779568 0.579768
5351.28 5351.28 2.510000 2.684837 115.206 7.860763 0.589234
5355.12 5355.12 2.530000 2.678398 115.587 7.937699 0.597749
5358.98 5358.98 2.540000 2.671947 117.546 8.124491 0.614480
5362.86 5362.86 2.550000 2.665541 118.212 8.223030 0.624477
5366.76 5366.76 2.560000 2.659064 118.774 8.315819 0.634105
5370.68 5370.68 2.580000 2.652464 119.782 8.441914 0.645934
5374.61 5374.61 2.590000 2.645928 120.397 8.540896 0.656832
5378.57 5378.57 2.600000 2.639306 120.973 8.638778 0.667564
5382.54 5382.54 2.610000 2.632706 121.571 8.738980 0.679181
5386.54 5386.54 2.630000 2.626121 122.565 8.868616 0.693406
5390.55 5390.55 2.640000 2.619634 123.019 8.959414 0.704725
5394.58 5394.58 2.650000 2.613147 123.591 9.059617 0.716435
5398.63 5398.63 2.660000 2.606600 123.813 9.135535 0.726859
5402.7 5402.7 2.680000 2.600118 124.923 9.277398 0.741839
5406.79 5406.79 2.690000 2.593545 125.317 9.368004 0.753741
5410.9 5410.9 2.700000 2.586824 125.776 9.465755 0.766439
5415.02 5415.02 2.710000 2.580216 126.334 9.570713 0.778723
5419.17 5419.17 2.730000 2.573594 126.7 9.662260 0.791722
5423.33 5423.33 2.740000 2.567103 127.52 9.788086 0.806585
5427.52 5427.52 2.750000 2.560409 128.01 9.891722 0.820182
5431.72 5431.72 2.760000 2.553679 128.495 9.996209 0.834010
5435.94 5435.94 2.780000 2.547014 129.51 10.1426 0.851321
5440.18 5440.18 2.790000 2.540292 130.219 10.2669 0.866771
5444.44 5444.44 2.800000 2.533692 130.942 10.3923 0.882299
5448.72 5448.72 2.810000 2.526913 131.531 10.51 0.897377
5453.02 5453.02 2.830000 2.520432 132.622 10.666 0.915586
5457.34 5457.34 2.840000 2.513608 133.258 10.7906 0.931638
5461.67 5461.67 2.850000 2.506811 133.944 10.9202 0.947109
5466.03 5466.03 2.860000 2.500269 134.698 11.0538 0.963476
5470.4 5470.4 2.880000 2.493444 135.919 11.2303 0.983731
5474.8 5474.8 2.890000 2.486616 136.684 11.3709 1.002070
5479.21 5479.21 2.900000 2.479943 137.789 11.5396 1.022282
5483.64 5483.64 2.910000 2.473422 138.568 11.6807 1.040712
5488.09 5488.09 2.930000 2.466681 139.826 11.8664 1.063147
5492.56 5492.56 2.940000 2.459895 140.647 12.0174 1.082883
5497.05 5497.05 2.950000 2.453037 141.504 12.1739 1.103095
5501.56 5501.56 2.960000 2.446256 142.294 12.3251 1.123073
5506.08 5506.08 2.980000 2.439500 143.62 12.5243 1.147718
5510.63 5510.63 2.990000 2.432704 144.804 12.7137 1.171473
5515.19 5515.19 3.000000 2.425923 145.727 12.8817 1.193130
5519.78 5519.78 3.010000 2.419242 146.672 13.0522 1.216519
5524.38 5524.38 3.030000 2.412237 148.113 13.2731 1.243901
5529 5529 3.040000 2.405352 149.138 13.4573 1.268700
5533.64 5533.64 3.050000 2.398591 150.122 13.6379 1.293150
5538.3 5538.3 3.060000 2.391823 151.098 13.8198 1.318199
5542.98 5542.98 3.080000 2.384891 152.593 14.0536 1.348099
5547.68 5547.68 3.090000 2.378005 153.588 14.2431 1.373894
5552.4 5552.4 3.100000 2.371170 154.622 14.4372 1.400318
5557.13 5557.13 3.110000 2.364360 155.613 14.6291 1.427268
5561.89 5561.89 3.130000 2.357489 157.118 14.8724 1.458776
5566.66 5566.66 3.140000 2.350695 158.071 15.0646 1.486135
5571.46 5571.46 3.150000 2.343868 159.063 15.263 1.514465
5576.27 5576.27 3.160000 2.336751 160.018 15.4643 1.542855
5581.1 5581.1 3.180000 2.329890 161.495 15.7145 1.576322
5585.95 5585.95 3.190000 2.323006 162.468 15.9184 1.605700
5590.82 5590.82 3.200000 2.316066 163.387 16.1199 1.635484
5595.71 5595.71 3.210000 2.309078 164.664 16.3599 1.668658
5600.62 5600.62 3.230000 2.302190 166.157 16.6222 1.705230
5605.54 5605.54 3.240000 2.295059 167.043 16.8305 1.736513
5610.49 5610.49 3.250000 2.288139 167.978 17.0422 1.768069
5615.45 5615.45 3.260000 2.281370 168.926 17.2548 1.800554
5620.44 5620.44 3.280000 2.274263 170.315 17.5208 1.839145
5625.44 5625.44 3.290000 2.267195 170.418 17.6558 1.864014
5630.46 5630.46 3.300000 2.260044 171.127 17.8564 1.896551
5635.5 5635.5 3.310000 2.253340 171.84 18.0515 1.929070
5640.56 5640.56 3.330000 2.246186 173.69 18.3768 1.974910
5645.64 5645.64 3.340000 2.239552 174.48 18.5832 2.008643
5650.74 5650.74 3.350000 2.232508 175.232 18.7952 2.043855
5655.86 5655.86 3.360000 2.225690 176.066 19.0139 2.079698
5660.99 5660.99 3.380000 2.218611 177.703 19.3271 2.126415
5666.15 5666.15 3.390000 2.211310 178.933 19.6034 2.168789
5671.32 5671.32 3.400000 2.204126 180.366 19.9028 2.214602
5676.52 5676.52 3.410000 2.197079 181.613 20.1822 2.258898
5681.73 5681.73 3.430000 2.190019 183.374 20.5223 2.310165
5686.96 5686.96 3.440000 2.183155 184.41 20.7804 2.353163
5692.21 5692.21 3.450000 2.176003 185.324 21.0332 2.395101
5697.48 5697.48 3.460000 2.168956 186.253 21.2882 2.437945
5702.77 5702.77 3.480000 2.161825 187.755 21.6134 2.489881
5708.08 5708.08 3.490000 2.154677 188.65 21.8722 2.534504