File: xdidata/Ti/Ti-K-Fresnoite.xdi
# XDI/1.0 BlueSky/1.5.0
# Beamline.name: 6BM
# Beamline.xray_source: NSLS-II three-pole wiggler
# Beamline.collimation: paraboloid mirror, 5 nm Rh on 30 nm Pt
# Beamline.focusing: not in use
# Beamline.harmonic_rejection: flat mirror, Si stripe, pitch = 7.0 mrad relative to beam
# Detector.i0: 10 cm N2
# Detector.i1: 25 cm N2
# Detector.i2: 25 cm N2
# Element.symbol: Ti
# Element.edge: K
# Facility.name: NSLS-II
# Facility.energy: 3.0
# Facility.current: 219.5
# Facility.mode: top-off
# Facility.gup: 301027
# Facility.saf: 304156
# Mono.name: Si(111)
# Mono.d_spacing: 3.13526
# Mono.encoder_resolution: 0.0000050 deg/ct
# Mono.angle_offset: 16.0571 deg
# Mono.scan_mode: pseudo channel cut
# Mono.scan_type: step
# Mono.direction: forward in energy
# Sample.name: Ba2(TiO)Si2O7 fresnoite
# Sample.prep: Powder in polyethylene glycol pellet
# Sample.x_position: -97.532 mm
# Sample.y_position: 117.543 mm
# Sample.wheel_position: -690.000 mm
# Scan.experimenters: Bruce Ravel, Martin Stennett
# Scan.edge_energy: 4966.0
# Scan.start_time: 2019-05-30T08:01:51
# Scan.end_time: 2019-05-30T08:44:49
# Scan.transient_id: 9806
# Scan.uid: 34954009-84be-4eee-97a8-3ec73f49befe
# Scan.plot_hint: ln(I0/It)  --  ln($5/$6)
# Scan.sequence: merge of 3 scans
# Column.1: energy eV
# Column.2: requested_energy eV
# Column.3: measurement_time seconds
# Column.4: mutrans
# Column.5: i0
# Column.6: itrans
# Column.7: irefer
# /////
#  sample disk prepared by Martin
# -----
# energy   requested_energy   measurement_time   mutrans   i0   itrans   irefer
4765.99 4766 0.500000 4.363154 10.9977 0.140092 0.012081
4776.01 4776 0.500000 4.337491 11.1839 0.146166 0.012792
4786.01 4786 0.500000 4.309432 11.3992 0.153219 0.013439
4796.01 4796 0.500000 4.278305 11.6113 0.161004 0.014493
4806.01 4806 0.500000 4.249473 11.8326 0.168872 0.015254
4816.01 4816 0.500000 4.219309 12.0463 0.177187 0.016146
4826.01 4826 0.500000 4.189031 12.2538 0.185781 0.016949
4836 4836 0.500000 4.160228 12.4811 0.194755 0.017912
4846 4846 0.500000 4.134128 12.6985 0.203389 0.018848
4856 4856 0.500000 4.104034 12.9165 0.213196 0.020118
4866.01 4866 0.500000 4.076839 13.1354 0.222789 0.021092
4876.01 4876 0.500000 4.049407 13.3831 0.233307 0.022323
4886.01 4886 0.500000 4.021226 13.5966 0.243804 0.023506
4896.01 4896 0.500000 3.992853 13.7959 0.254494 0.025019
4906.01 4906 0.500000 3.965839 13.9912 0.265164 0.026442
4916 4916 0.500000 3.939847 14.1853 0.275923 0.027609
4926.01 4926 0.500000 3.913039 14.3783 0.287276 0.029152
4936 4936 0.500000 3.885716 14.5721 0.299214 0.030505
4938 4938 0.500000 3.881076 14.6105 0.301396 0.031097
4940 4940 0.500000 3.876373 14.6478 0.303590 0.031163
4942 4942 0.500000 3.871236 14.6823 0.305872 0.031340
4944 4944 0.500000 3.865325 14.7154 0.308376 0.031649
4946 4946 0.500000 3.860523 14.7491 0.310571 0.032076
4948.01 4948 0.500000 3.854703 14.7782 0.313002 0.032520
4950.01 4950 0.500000 3.850402 14.816 0.315154 0.032656
4952 4952 0.500000 3.845594 14.8514 0.317429 0.032719
4954.01 4954 0.500000 3.839718 14.8851 0.320030 0.033138
4956 4956 0.500000 3.834896 14.911 0.322129 0.033632
4956.25 4956.25 0.500000 3.834975 14.9136 0.322166 0.033375
4956.49 4956.5 0.500000 3.833373 14.913 0.322667 0.033471
4956.74 4956.75 0.500000 3.833292 14.9175 0.322788 0.033529
4956.99 4957 0.500000 3.832496 14.9208 0.323116 0.033708
4957.25 4957.25 0.500000 3.832030 14.9228 0.323313 0.033455
4957.5 4957.5 0.500000 3.830615 14.9273 0.323870 0.033833
4957.74 4957.75 0.500000 3.830698 14.9293 0.323882 0.033496
4957.99 4958 0.500000 3.830084 14.9462 0.324449 0.033557
4958.24 4958.25 0.500000 3.829152 14.9677 0.325217 0.033775
4958.49 4958.5 0.500000 3.828472 14.9722 0.325538 0.033849
4958.75 4958.75 0.500000 3.827528 14.972 0.325841 0.034033
4958.99 4959 0.500000 3.828898 14.9732 0.325422 0.033695
4959.25 4959.25 0.500000 3.827037 14.9801 0.326175 0.034039
4959.5 4959.5 0.500000 3.827209 14.9848 0.326224 0.033646
4959.75 4959.75 0.500000 3.825742 14.9886 0.326786 0.033855
4960 4960 0.500000 3.825210 14.9942 0.327081 0.033924
4960.25 4960.25 0.500000 3.823741 14.9978 0.327641 0.033860
4960.5 4960.5 0.500000 3.824189 15.0009 0.327562 0.033858
4960.75 4960.75 0.500000 3.823334 15.0038 0.327905 0.033719
4960.99 4961 0.500000 3.823039 15.0083 0.328101 0.033982
4961.25 4961.25 0.500000 3.822015 15.013 0.328539 0.033937
4961.5 4961.5 0.500000 3.822029 15.0173 0.328632 0.033650
4961.75 4961.75 0.500000 3.820788 15.0206 0.329111 0.033998
4962 4962 0.500000 3.820848 15.0225 0.329133 0.033865
4962.25 4962.25 0.500000 3.820061 15.0241 0.329425 0.033803
4962.5 4962.5 0.500000 3.819481 15.0323 0.329797 0.033666
4962.74 4962.75 0.500000 3.818533 15.0348 0.330164 0.033818
4963 4963 0.500000 3.818850 15.0658 0.330739 0.033590
4963.25 4963.25 0.500000 3.818688 15.0757 0.331011 0.033478
4963.5 4963.5 0.500000 3.818697 15.0808 0.331121 0.033113
4963.75 4963.75 0.500000 3.818020 15.084 0.331416 0.032734
4964 4964 0.500000 3.816756 15.0888 0.331937 0.032322
4964.25 4964.25 0.500000 3.817195 15.0933 0.331894 0.031372
4964.5 4964.5 0.500000 3.816131 15.0953 0.332288 0.030101
4964.75 4964.75 0.500000 3.816603 15.0954 0.332136 0.027599
4965 4965 0.500000 3.815719 15.1023 0.332582 0.025750
4965.25 4965.25 0.500000 3.816045 15.1073 0.332586 0.024192
4965.5 4965.5 0.500000 3.815980 15.1118 0.332704 0.023791
4965.75 4965.75 0.500000 3.816276 15.1144 0.332663 0.023873
4966 4966 0.500000 3.816535 15.1165 0.332622 0.024293
4966.25 4966.25 0.500000 3.818133 15.1215 0.332201 0.024922
4966.5 4966.5 0.500000 3.819348 15.1222 0.331812 0.025915
4966.75 4966.75 0.500000 3.820898 15.1252 0.331364 0.026600
4967 4967 0.500000 3.824554 15.1273 0.330202 0.026721
4967.25 4967.25 0.500000 3.828010 15.129 0.329082 0.026554
4967.5 4967.5 0.500000 3.834093 15.1314 0.327135 0.026330
4967.75 4967.75 0.500000 3.842056 15.138 0.324702 0.026155
4968 4968 0.500000 3.853441 15.1423 0.321123 0.025280
4968.25 4968.25 0.500000 3.869154 15.1497 0.316280 0.024680
4968.5 4968.5 0.500000 3.894838 15.1529 0.308333 0.023538
4968.75 4968.75 0.500000 3.934802 15.1535 0.296276 0.022390
4969 4969 0.500000 3.976902 15.1573 0.284119 0.021172
4969.25 4969.25 0.500000 3.989527 15.1551 0.280518 0.020952
4969.5 4969.5 0.500000 3.962392 15.157 0.288228 0.021025
4969.75 4969.75 0.500000 3.914860 15.1557 0.302236 0.021713
4970 4970 0.500000 3.873619 15.1578 0.314939 0.022471
4970.25 4970.25 0.500000 3.849267 15.1649 0.322950 0.022930
4970.5 4970.5 0.500000 3.834914 15.1785 0.327892 0.023421
4970.75 4970.75 0.500000 3.826412 15.1891 0.330943 0.023434
4971 4971 0.500000 3.821941 15.1972 0.332598 0.023339
4971.25 4971.25 0.500000 3.818862 15.2024 0.333736 0.023080
4971.5 4971.5 0.500000 3.817776 15.2106 0.334277 0.022915
4971.75 4971.75 0.500000 3.817923 15.2149 0.334322 0.022444
4972 4972 0.500000 3.819717 15.2191 0.333812 0.022041
4972.25 4972.25 0.500000 3.822263 15.2214 0.333018 0.021777
4972.5 4972.5 0.500000 3.825312 15.2248 0.332075 0.021165
4972.75 4972.75 0.500000 3.828045 15.2281 0.331242 0.020907
4973 4973 0.500000 3.830024 15.2339 0.330717 0.020263
4973.25 4973.25 0.500000 3.829703 15.2363 0.330871 0.019900
4973.5 4973.5 0.500000 3.830367 15.2383 0.330698 0.019649
4973.75 4973.75 0.500000 3.830868 15.2389 0.330545 0.019171
4974 4974 0.500000 3.832485 15.2415 0.330064 0.018891
4974.25 4974.25 0.500000 3.834372 15.2466 0.329559 0.018615
4974.5 4974.5 0.500000 3.836046 15.2484 0.329040 0.018190
4974.75 4974.75 0.500000 3.838037 15.2498 0.328417 0.017646
4975 4975 0.500000 3.840381 15.2512 0.327675 0.017450
4975.25 4975.25 0.500000 3.842361 15.2483 0.326966 0.017067
4975.5 4975.5 0.500000 3.845355 15.2479 0.325983 0.016656
4975.75 4975.75 0.500000 3.848546 15.251 0.325010 0.016307
4976 4976 0.500000 3.853318 15.2509 0.323460 0.016017
4976.25 4976.25 0.500000 3.858284 15.252 0.321875 0.015762
4976.5 4976.5 0.500000 3.864117 15.249 0.319947 0.015334
4976.75 4976.75 0.500000 3.871137 15.2493 0.317715 0.015138
4977 4977 0.500000 3.878824 15.2519 0.315328 0.014624
4977.25 4977.25 0.500000 3.886621 15.253 0.312890 0.014559
4977.5 4977.5 0.500000 3.897795 15.2546 0.309487 0.014105
4977.75 4977.75 0.500000 3.908806 15.2573 0.306139 0.013980
4978 4978 0.500000 3.919270 15.2604 0.303001 0.013635
4978.25 4978.25 0.500000 3.928466 15.2634 0.300272 0.013517
4978.5 4978.5 0.500000 3.936838 15.2697 0.297919 0.013314
4978.75 4978.75 0.500000 3.943300 15.2709 0.296014 0.013156
4979 4979 0.500000 3.950990 15.2693 0.293719 0.013017
4979.25 4979.25 0.500000 3.958292 15.2693 0.291581 0.012930
4979.5 4979.5 0.500000 3.965242 15.2655 0.289498 0.012687
4979.75 4979.75 0.500000 3.969260 15.2668 0.288352 0.012681
4980 4980 0.500000 3.973311 15.2982 0.287774 0.012647
4980.25 4980.25 0.500000 3.975815 15.2925 0.286947 0.012718
4980.5 4980.5 0.500000 3.978641 15.2888 0.286074 0.012334
4980.75 4980.75 0.500000 3.982453 15.2857 0.284924 0.012574
4981 4981 0.500000 3.987650 15.2842 0.283428 0.012344
4981.25 4981.25 0.500000 3.996466 15.2853 0.280937 0.012107
4981.5 4981.5 0.500000 4.008976 15.2851 0.277460 0.011710
4981.75 4981.75 0.500000 4.023726 15.2881 0.273453 0.011957
4982 4982 0.500000 4.042126 15.291 0.268486 0.011673
4982.25 4982.25 0.500000 4.058411 15.2942 0.264216 0.011346
4982.5 4982.5 0.500000 4.069064 15.2964 0.261473 0.011493
4982.75 4982.75 0.500000 4.074148 15.2981 0.260169 0.011104
4983 4983 0.500000 4.073634 15.2995 0.260328 0.011352
4983.25 4983.25 0.500000 4.071026 15.2992 0.261004 0.011297
4983.5 4983.5 0.500000 4.067521 15.2971 0.261886 0.011156
4983.75 4983.75 0.500000 4.065031 15.2965 0.262519 0.011335
4984 4984 0.500000 4.060943 15.2931 0.263537 0.011232
4984.25 4984.25 0.500000 4.058722 15.2943 0.264148 0.011379
4984.5 4984.5 0.500000 4.056297 15.2954 0.264804 0.011355
4984.75 4984.75 0.500000 4.053620 15.2958 0.265522 0.011550
4985 4985 0.500000 4.051862 15.2977 0.266026 0.011719
4985.25 4985.25 0.500000 4.050288 15.2984 0.266458 0.011609
4985.5 4985.5 0.500000 4.052291 15.2987 0.265927 0.011760
4985.75 4985.75 0.500000 4.055936 15.2956 0.264895 0.011869
4986 4986 0.500000 4.061781 15.2994 0.263417 0.011764
4986.25 4986.25 0.500000 4.069998 15.3005 0.261305 0.011545
4986.5 4986.5 0.500000 4.077442 15.2974 0.259314 0.011834
4986.75 4986.75 0.500000 4.084574 15.2972 0.257461 0.011726
4987 4987 0.500000 4.093170 15.2944 0.255215 0.011460
4987.25 4987.25 0.500000 4.101735 15.2922 0.252979 0.011569
4987.5 4987.5 0.500000 4.110156 15.3002 0.251009 0.011395
4987.75 4987.75 0.500000 4.117312 15.3257 0.249635 0.011267
4988 4988 0.500000 4.123492 15.3297 0.248163 0.011427
4988.26 4988.25 0.500000 4.128534 15.3358 0.247005 0.011223
4988.5 4988.5 0.500000 4.129685 15.3438 0.246852 0.011439
4988.75 4988.75 0.500000 4.129348 15.3531 0.247081 0.011173
4989 4989 0.500000 4.127431 15.3646 0.247745 0.011426
4989.25 4989.25 0.500000 4.124891 15.3794 0.248617 0.011209
4989.5 4989.5 0.500000 4.119755 15.3924 0.250108 0.011740
4989.75 4989.75 0.500000 4.116314 15.4037 0.251155 0.011592
4990 4990 0.500000 4.112204 15.416 0.252383 0.011562
4990.25 4990.25 0.500000 4.108478 15.4279 0.253525 0.011704
4990.5 4990.5 0.500000 4.104240 15.4374 0.254748 0.011896
4990.75 4990.75 0.500000 4.101610 15.4494 0.255631 0.011734
4991 4991 0.500000 4.098554 15.462 0.256616 0.011770
4991.25 4991.25 0.500000 4.097655 15.472 0.257015 0.011903
4991.5 4991.5 0.500000 4.096916 15.4816 0.257366 0.011517
4991.75 4991.75 0.500000 4.094171 15.4905 0.258217 0.011766
4992 4992 0.500000 4.092435 15.4995 0.258811 0.011904
4992.25 4992.25 0.500000 4.089876 15.5066 0.259597 0.012166
4992.5 4992.5 0.500000 4.088329 15.5299 0.260388 0.011994
4992.75 4992.75 0.500000 4.086086 15.554 0.261383 0.012074
4993 4993 0.500000 4.084047 15.5599 0.262019 0.012134
4993.25 4993.25 0.500000 4.082713 15.5628 0.262414 0.012063
4993.5 4993.5 0.500000 4.081500 15.5692 0.262845 0.012072
4993.75 4993.75 0.500000 4.080097 15.575 0.263307 0.012227
4994 4994 0.500000 4.080691 15.5781 0.263205 0.011834
4994.25 4994.25 0.500000 4.079732 15.5822 0.263526 0.012127
4994.5 4994.5 0.500000 4.080277 15.5835 0.263404 0.011762
4994.75 4994.75 0.500000 4.080194 15.5907 0.263548 0.011967
4995 4995 0.500000 4.080024 15.5948 0.263662 0.012060
4995.25 4995.25 0.500000 4.080592 15.5974 0.263559 0.011899
4995.5 4995.5 0.500000 4.079287 15.5996 0.263933 0.012150
4995.75 4995.75 0.500000 4.079582 15.6168 0.264150 0.011795
4996 4996 0.700000 4.080252 21.7599 0.367819 0.016293
4997.09 4997.08 0.710000 4.078963 22.162 0.375095 0.016252
4998.18 4998.18 0.730000 4.073304 22.785 0.387818 0.016518
4999.3 4999.29 0.740000 4.065773 23.1152 0.396419 0.016766
5000.43 5000.43 0.750000 4.060169 23.4604 0.404597 0.017075
5001.58 5001.58 0.760000 4.058814 23.8166 0.411300 0.017298
5002.77 5002.76 0.780000 4.059025 24.496 0.422945 0.017799
5003.96 5003.95 0.790000 4.055464 24.8705 0.430943 0.018315
5005.16 5005.16 0.800000 4.046601 25.2427 0.441277 0.018937
5006.4 5006.39 0.810000 4.034236 25.6224 0.453506 0.019737
5007.65 5007.64 0.830000 4.020704 26.3188 0.472183 0.021265
5008.91 5008.91 0.840000 4.007482 26.689 0.485179 0.022066
5010.21 5010.2 0.850000 3.991797 27.0636 0.499778 0.023011
5011.52 5011.51 0.860000 3.977153 27.4375 0.514155 0.023866
5012.83 5012.83 0.880000 3.967146 28.1239 0.532310 0.024937
5014.18 5014.18 0.890000 3.962461 28.4913 0.541797 0.025380
5015.55 5015.54 0.900000 3.957659 28.8646 0.551540 0.026082
5016.94 5016.93 0.910000 3.953452 29.241 0.561087 0.026731
5018.33 5018.33 0.930000 3.950376 29.9399 0.576266 0.027935
5019.76 5019.75 0.940000 3.946512 30.3254 0.585947 0.028408
5021.19 5021.19 0.950000 3.941927 30.7095 0.596097 0.028995
5022.65 5022.65 0.960000 3.936142 31.1012 0.607207 0.029541
5024.13 5024.13 0.980000 3.929971 31.8183 0.625042 0.030557
5025.63 5025.63 0.990000 3.924071 32.2108 0.636497 0.031143
5027.15 5027.14 1.000000 3.920593 32.5986 0.646411 0.031385
5028.69 5028.68 1.010000 3.917627 33.0004 0.656321 0.031559
5030.24 5030.24 1.030000 3.914216 33.7195 0.672913 0.032008
5031.81 5031.81 1.040000 3.912898 34.1137 0.681676 0.031869
5033.4 5033.4 1.050000 3.912289 34.5095 0.690005 0.031738
5035.01 5035.01 1.060000 3.912221 34.9087 0.698035 0.031233
5036.65 5036.65 1.080000 3.910138 35.6392 0.714133 0.031905
5038.3 5038.3 1.090000 3.907296 36.0478 0.724366 0.032132
5039.97 5039.97 1.100000 3.903470 36.4482 0.735223 0.032215
5041.65 5041.65 1.110000 3.899602 36.8601 0.746409 0.032883
5043.36 5043.36 1.130000 3.896636 37.6572 0.764823 0.034091
5045.09 5045.09 1.140000 3.892654 38.1017 0.776939 0.035122
5046.83 5046.83 1.150000 3.889655 38.514 0.787705 0.036039
5048.6 5048.6 1.160000 3.887267 38.939 0.798304 0.037175
5050.38 5050.38 1.180000 3.885166 39.6996 0.815607 0.039050
5052.18 5052.18 1.190000 3.880766 40.1213 0.827902 0.040324
5053.99 5054 1.200000 3.876201 40.5523 0.840624 0.041637
5055.84 5055.84 1.210000 3.872376 40.9852 0.852855 0.042602
5057.7 5057.7 1.230000 3.869873 41.7609 0.871175 0.043582
5059.57 5059.58 1.240000 3.867120 42.2021 0.882804 0.044625
5061.48 5061.48 1.250000 3.863265 42.6375 0.895357 0.045119
5063.4 5063.4 1.260000 3.857772 43.0863 0.909764 0.046072
5065.33 5065.33 1.280000 3.853843 43.8786 0.930145 0.047305
5067.28 5067.29 1.290000 3.848190 44.33 0.945035 0.048726
5069.26 5069.26 1.300000 3.843053 44.7858 0.959674 0.049414
5071.26 5071.26 1.310000 3.836340 45.2475 0.976102 0.050623
5073.27 5073.27 1.330000 3.828772 46.1529 1.003190 0.051706
5075.3 5075.3 1.340000 3.820423 46.6104 1.021627 0.052611
5077.35 5077.35 1.350000 3.812627 47.0791 1.039975 0.053364
5079.42 5079.42 1.360000 3.805130 47.5525 1.058338 0.053958
5081.51 5081.51 1.380000 3.798385 48.3708 1.083841 0.053902
5083.61 5083.61 1.390000 3.791592 48.848 1.101991 0.053795
5085.73 5085.74 1.400000 3.784469 49.3283 1.120777 0.053937
5087.89 5087.89 1.410000 3.776452 49.8091 1.140824 0.054094
5090.05 5090.05 1.430000 3.768712 50.6453 1.168980 0.055067
5092.23 5092.23 1.440000 3.761874 51.1439 1.188588 0.056204
5094.44 5094.44 1.450000 3.756144 51.6527 1.207316 0.057751
5096.66 5096.66 1.460000 3.751149 52.1513 1.225075 0.060228
5098.9 5098.9 1.480000 3.746393 53.0146 1.251288 0.063295
5101.16 5101.16 1.490000 3.742533 53.5551 1.268934 0.065995
5103.44 5103.44 1.500000 3.737788 54.091 1.287733 0.068347
5105.74 5105.74 1.510000 3.733135 54.6205 1.306399 0.069976
5108.05 5108.05 1.530000 3.727493 55.4995 1.334932 0.071955
5110.39 5110.39 1.540000 3.722072 56.0243 1.354878 0.072993
5112.74 5112.74 1.550000 3.716728 56.5474 1.374859 0.074472
5115.12 5115.12 1.560000 3.710919 57.0716 1.395696 0.075688
5117.51 5117.51 1.580000 3.705707 57.9692 1.425054 0.077717
5119.92 5119.92 1.590000 3.700904 58.5062 1.445173 0.078250
5122.35 5122.35 1.600000 3.695427 59.0424 1.466423 0.080151
5124.8 5124.8 1.610000 3.690508 59.5822 1.487132 0.081505
5127.27 5127.27 1.630000 3.684530 60.4916 1.518883 0.083846
5129.76 5129.76 1.640000 3.678427 61.044 1.542141 0.085292
5132.27 5132.27 1.650000 3.671714 61.6028 1.566744 0.086930
5134.79 5134.79 1.660000 3.665098 62.1549 1.591269 0.088268
5137.34 5137.34 1.680000 3.659226 63.0962 1.624875 0.089757
5139.9 5139.9 1.690000 3.652959 63.6844 1.650336 0.090927
5142.49 5142.49 1.700000 3.646629 64.2601 1.675833 0.091724
5145.09 5145.09 1.710000 3.640053 64.8334 1.701942 0.092349
5147.71 5147.71 1.730000 3.633466 65.7866 1.738372 0.093890
5150.35 5150.35 1.740000 3.627112 66.3738 1.765067 0.095329
5153.01 5153.01 1.750000 3.620049 66.9562 1.793179 0.097566
5155.69 5155.69 1.760000 3.612944 67.5469 1.821895 0.100394
5158.39 5158.39 1.780000 3.605847 68.5213 1.861333 0.103432
5161.11 5161.11 1.790000 3.598467 69.1065 1.891142 0.106689
5163.84 5163.84 1.800000 3.591331 69.7053 1.921202 0.108841
5166.6 5166.6 1.810000 3.583911 70.2939 1.951841 0.111751
5169.37 5169.37 1.830000 3.576531 71.2739 1.993706 0.115223
5172.17 5172.17 1.840000 3.569348 71.8758 2.025049 0.118215
5174.98 5174.98 1.850000 3.562480 72.5357 2.057733 0.121378
5177.81 5177.81 1.860000 3.555348 73.2093 2.091693 0.124394
5180.66 5180.66 1.880000 3.548306 74.2075 2.135202 0.127749
5183.53 5183.53 1.890000 3.541365 74.8294 2.168092 0.130282
5186.42 5186.42 1.900000 3.534969 75.4265 2.199411 0.132411
5189.32 5189.32 1.910000 3.527708 76.0424 2.233530 0.135223
5192.25 5192.25 1.930000 3.520574 77.0425 2.279111 0.138552
5195.2 5195.2 1.940000 3.513869 77.651 2.312556 0.140451
5198.16 5198.16 1.950000 3.507164 78.2171 2.345097 0.142603
5201.14 5201.14 1.960000 3.500523 78.8464 2.379710 0.144695
5204.15 5204.15 1.980000 3.494128 79.893 2.426772 0.147913
5207.17 5207.17 1.990000 3.487929 80.679 2.465883 0.150233
5210.21 5210.21 2.000000 3.482039 81.3174 2.500081 0.152215
5213.27 5213.27 2.010000 3.476334 81.9313 2.533364 0.154246
5216.35 5216.35 2.030000 3.470734 82.9834 2.580301 0.157991
5219.45 5219.45 2.040000 3.465627 83.6427 2.614126 0.161001
5222.56 5222.56 2.050000 3.461502 84.3199 2.646177 0.164016
5225.7 5225.7 2.060000 3.458562 84.9884 2.675010 0.166816
5228.85 5228.85 2.080000 3.457454 86.0598 2.711733 0.169352
5232.03 5232.03 2.090000 3.459438 86.7449 2.727902 0.171495
5235.22 5235.22 2.100000 3.468379 87.4392 2.725259 0.172401
5238.43 5238.43 2.110000 3.491566 88.1423 2.684227 0.171893
5241.66 5241.66 2.130000 3.556377 89.2859 2.548232 0.164974
5244.92 5244.92 2.140000 3.802564 90.1061 2.010755 0.132854
5248.18 5248.18 2.150000 5.133749 90.2939 0.532249 0.041227
5251.47 5251.47 2.160000 4.986155 91.0712 0.622162 0.047638
5254.78 5254.78 2.180000 4.301051 92.5427 1.254507 0.087962
5258.11 5258.11 2.190000 4.113838 93.3725 1.526036 0.106306
5261.45 5261.45 2.200000 4.094968 94.0804 1.567029 0.109277
5264.82 5264.82 2.210000 4.192884 94.869 1.432790 0.101176
5268.2 5268.2 2.230000 4.213686 96.0795 1.421190 0.100796
5271.6 5271.6 2.240000 4.260227 96.8272 1.367119 0.097865
5275.03 5275.03 2.250000 4.268544 97.6741 1.367649 0.097623
5278.47 5278.47 2.260000 4.227269 97.2174 1.418638 0.101778
5281.93 5281.93 2.280000 4.144479 99.4293 1.576088 0.112168
5285.4 5285.4 2.290000 4.094168 100.277 1.671581 0.118881
5288.9 5288.9 2.300000 4.092470 101.029 1.686958 0.120265
5292.42 5292.42 2.310000 4.109270 101.772 1.671060 0.120213
5295.96 5295.96 2.330000 4.128575 103.005 1.658975 0.120162
5299.51 5299.51 2.340000 4.129302 103.684 1.668696 0.121367
5303.09 5303.09 2.350000 4.108816 104.425 1.715412 0.125313
5306.68 5306.68 2.360000 4.096234 105.21 1.750184 0.128418
5310.29 5310.29 2.380000 4.104261 106.464 1.756890 0.129592
5313.92 5313.92 2.390000 4.102694 107.236 1.772406 0.131378
5317.57 5317.57 2.400000 4.088270 107.996 1.810890 0.134694
5321.24 5321.24 2.410000 4.083256 108.541 1.829191 0.136881
5324.93 5324.93 2.430000 4.081306 109.743 1.853047 0.139646
5328.64 5328.64 2.440000 4.069514 110.423 1.886649 0.143212
5332.36 5332.36 2.450000 4.049948 111.01 1.934164 0.147246
5336.11 5336.11 2.460000 4.032423 111.808 1.982513 0.151489
5339.87 5339.87 2.480000 4.019282 113.026 2.030605 0.155933
5343.66 5343.66 2.490000 4.013580 113.754 2.055372 0.158988
5347.46 5347.46 2.500000 4.013833 114.349 2.065600 0.160496
5351.28 5351.28 2.510000 4.013624 114.815 2.074458 0.162415
5355.12 5355.12 2.530000 4.019115 115.185 2.069742 0.162998
5358.98 5358.98 2.540000 4.021450 117.138 2.099922 0.166496
5362.86 5362.86 2.550000 4.010428 117.817 2.135503 0.169110
5366.76 5366.76 2.560000 4.001212 118.368 2.165347 0.171883
5370.68 5370.68 2.580000 3.991907 119.385 2.204384 0.175626
5374.61 5374.61 2.590000 3.979870 119.987 2.242321 0.179893
5378.57 5378.57 2.600000 3.964363 120.573 2.288488 0.184018
5382.54 5382.54 2.610000 3.950428 121.222 2.333093 0.188224
5386.54 5386.54 2.630000 3.938671 122.461 2.384811 0.193651
5390.55 5390.55 2.640000 3.930281 122.923 2.413979 0.196923
5394.58 5394.58 2.650000 3.923717 123.515 2.441569 0.200296
5398.63 5398.63 2.660000 3.917309 123.73 2.461564 0.203348
5402.7 5402.7 2.680000 3.912061 124.858 2.497055 0.206726
5406.79 5406.79 2.690000 3.905174 125.275 2.522721 0.210466
5410.9 5410.9 2.700000 3.897635 125.759 2.551626 0.213537
5415.02 5415.02 2.710000 3.889825 126.351 2.583742 0.217912
5419.17 5419.17 2.730000 3.881529 126.72 2.612869 0.221434
5423.33 5423.33 2.740000 3.872426 127.554 2.654134 0.226163
5427.52 5427.52 2.750000 3.863417 128.067 2.688928 0.230626
5431.72 5431.72 2.760000 3.854330 128.556 2.723821 0.234653
5435.94 5435.94 2.780000 3.844097 129.585 2.773865 0.240424
5440.18 5440.18 2.790000 3.834577 130.152 2.812649 0.244745
5444.44 5444.44 2.800000 3.826447 130.754 2.848712 0.249847
5448.72 5448.72 2.810000 3.817641 131.345 2.886898 0.253875
5453.02 5453.02 2.830000 3.809246 132.441 2.935548 0.259642
5457.34 5457.34 2.840000 3.800961 133.102 2.974742 0.264271
5461.67 5461.67 2.850000 3.791914 133.778 3.016996 0.269348
5466.03 5466.03 2.860000 3.782814 134.554 3.062241 0.274742
5470.4 5470.4 2.880000 3.773678 135.751 3.117854 0.281139
5474.8 5474.8 2.890000 3.764187 136.719 3.170015 0.287452
5479.21 5479.21 2.900000 3.755283 137.594 3.218838 0.292983
5483.64 5483.64 2.910000 3.746648 138.366 3.264997 0.298412
5488.09 5488.09 2.930000 3.738040 139.648 3.323711 0.305665
5492.56 5492.56 2.940000 3.729709 140.45 3.370770 0.311436
5497.05 5497.05 2.950000 3.720130 141.279 3.423317 0.318476
5501.56 5501.56 2.960000 3.710938 142.077 3.474442 0.325022
5506.08 5506.08 2.980000 3.701564 143.365 3.538940 0.332466
5510.63 5510.63 2.990000 3.692189 144.188 3.592786 0.339181
5515.19 5515.19 3.000000 3.683156 145.282 3.652893 0.346819
5519.78 5519.78 3.010000 3.673831 146.301 3.712988 0.354083
5524.38 5524.38 3.030000 3.664474 147.721 3.784270 0.362833
5529 5529 3.040000 3.655481 148.857 3.847811 0.370771
5533.64 5533.64 3.050000 3.645753 149.94 3.913702 0.379185
5538.3 5538.3 3.060000 3.635741 150.847 3.976985 0.387700
5542.98 5542.98 3.080000 3.625810 152.283 4.054910 0.397444
5547.68 5547.68 3.090000 3.616038 153.237 4.120374 0.405804
5552.4 5552.4 3.100000 3.606219 154.231 4.188042 0.414273
5557.13 5557.13 3.110000 3.596295 155.184 4.255942 0.423645
5561.89 5561.89 3.130000 3.586617 156.649 4.337886 0.434018
5566.66 5566.66 3.140000 3.576704 157.617 4.408190 0.442947
5571.46 5571.46 3.150000 3.566930 158.572 4.478441 0.452297
5576.27 5576.27 3.160000 3.557564 159.542 4.548250 0.462239
5581.1 5581.1 3.180000 3.547782 160.997 4.634835 0.473859
5585.95 5585.95 3.190000 3.537986 162.007 4.709841 0.483589
5590.82 5590.82 3.200000 3.528096 162.938 4.783992 0.494169
5595.71 5595.71 3.210000 3.518516 163.851 4.857107 0.504220
5600.62 5600.62 3.230000 3.508995 165.32 4.947519 0.516273
5605.54 5605.54 3.240000 3.500331 166.241 5.018358 0.526126
5610.49 5610.49 3.250000 3.494538 167.211 5.076999 0.535576
5615.45 5615.45 3.260000 3.498432 168.196 5.087043 0.539873
5620.44 5620.44 3.280000 3.563431 169.606 4.806971 0.513485
5625.44 5625.44 3.290000 4.482457 169.778 1.919448 0.214165
5630.46 5630.46 3.300000 3.891259 170.452 3.480562 0.379990
5635.5 5635.5 3.310000 3.745083 171.408 4.051010 0.442575
5640.56 5640.56 3.330000 3.774871 173.089 3.970657 0.437398
5645.64 5645.64 3.340000 3.797737 173.855 3.898070 0.431603
5650.74 5650.74 3.350000 3.814216 174.665 3.852253 0.429690
5655.86 5655.86 3.360000 3.781357 175.596 4.002092 0.448403
5660.99 5660.99 3.380000 3.727286 177.23 4.263755 0.478872
5666.15 5666.15 3.390000 3.719485 178.344 4.324205 0.488335
5671.32 5671.32 3.400000 3.728235 179.926 4.324557 0.491592
5676.52 5676.52 3.410000 3.727144 181.318 4.362786 0.498460
5681.73 5681.73 3.430000 3.709680 183.092 4.483069 0.515072
5686.96 5686.96 3.440000 3.708163 184.238 4.517975 0.521872
5692.21 5692.21 3.450000 3.700458 185.618 4.587022 0.533002
5697.48 5697.48 3.460000 3.691052 186.634 4.655732 0.543732
5702.77 5702.77 3.480000 3.684751 188.141 4.722992 0.554243
5708.08 5708.08 3.490000 3.669967 189.071 4.817029 0.568564