File: xdidata/Ti/Ti-K-Brookite.xdi
# XDI/1.0 BlueSky/1.5.0
# Beamline.name: 6BM
# Beamline.xray_source: NSLS-II three-pole wiggler
# Beamline.collimation: paraboloid mirror, 5 nm Rh on 30 nm Pt
# Beamline.focusing: not in use
# Beamline.harmonic_rejection: flat mirror, Si stripe, pitch = 7.0 mrad relative to beam
# Detector.i0: 10 cm N2
# Detector.i1: 25 cm N2
# Detector.i2: 25 cm N2
# Element.symbol: Ti
# Element.edge: K
# Facility.name: NSLS-II
# Facility.energy: 3.0
# Facility.current: 220.5
# Facility.mode: top-off
# Facility.gup: 301027
# Facility.saf: 304156
# Mono.name: Si(111)
# Mono.d_spacing: 3.13526
# Mono.encoder_resolution: 0.0000050 deg/ct
# Mono.angle_offset: 16.0571 deg
# Mono.scan_mode: pseudo channel cut
# Mono.scan_type: step
# Mono.direction: forward in energy
# Sample.name: TiO2 brookite
# Sample.prep: Powder in polyethylene glycol pellet
# Sample.x_position: -97.532 mm
# Sample.y_position: 117.543 mm
# Sample.wheel_position: -735.000 mm
# Scan.experimenters: Bruce Ravel, Martin Stennett
# Scan.edge_energy: 4966.0
# Scan.start_time: 2019-05-30T10:11:30
# Scan.end_time: 2019-05-30T10:54:23
# Scan.transient_id: 9815
# Scan.uid: a3135005-adc6-44da-9579-25aac24b68b7
# Scan.plot_hint: ln(I0/It)  --  ln($5/$6)
# Scan.sequence: merge of 3 scans
# Column.1: energy eV
# Column.2: requested_energy eV
# Column.3: measurement_time seconds
# Column.4: mutrans
# Column.5: i0
# Column.6: itrans
# Column.7: irefer
# /////
#  sample disk prepared by Martin
# -----
# energy   requested_energy   measurement_time   mutrans   i0   itrans   irefer
4765.99 4766 0.500000 2.998803 10.9535 0.546000 0.042225
4776.01 4776 0.500000 2.977460 11.1606 0.568318 0.044508
4786.01 4786 0.500000 2.955091 11.3744 0.592311 0.047121
4796.01 4796 0.500000 2.932878 11.593 0.617257 0.049592
4806.01 4806 0.500000 2.911024 11.8106 0.642729 0.052543
4816.01 4816 0.500000 2.889020 12.0365 0.669598 0.055321
4826.01 4826 0.500000 2.867323 12.2685 0.697471 0.058477
4836 4836 0.500000 2.845762 12.4764 0.724752 0.061587
4846.01 4846 0.500000 2.824396 12.6934 0.753287 0.064861
4856 4856 0.500000 2.802668 12.9079 0.782829 0.068416
4866.01 4866 0.500000 2.781215 13.1226 0.813115 0.071736
4876.01 4876 0.500000 2.759765 13.34 0.844519 0.075852
4886.01 4886 0.500000 2.738631 13.5532 0.876333 0.079492
4896.01 4896 0.500000 2.716914 13.7555 0.908943 0.083984
4906.01 4906 0.500000 2.695917 13.9461 0.941090 0.087979
4916.01 4916 0.500000 2.674750 14.1408 0.974643 0.092545
4926 4926 0.500000 2.653895 14.3347 1.008825 0.097062
4936 4936 0.500000 2.634109 14.5236 1.042549 0.101380
4938 4938 0.500000 2.630482 14.5612 1.049051 0.102463
4940 4940 0.500000 2.626180 14.5976 1.056202 0.103303
4942 4942 0.500000 2.622539 14.6329 1.062618 0.104167
4943.99 4944 0.500000 2.618317 14.6632 1.069308 0.105242
4946.01 4946 0.500000 2.614890 14.6944 1.075275 0.105895
4948.01 4948 0.500000 2.611071 14.7243 1.081588 0.106853
4950.01 4950 0.500000 2.607360 14.7629 1.088454 0.107787
4952 4952 0.500000 2.604046 14.7986 1.094708 0.108486
4954 4954 0.500000 2.600740 14.8272 1.100457 0.109233
4956.01 4956 0.500000 2.597946 14.8562 1.105698 0.109928
4956.24 4956.25 0.500000 2.597429 14.8561 1.106259 0.110043
4956.49 4956.5 0.500000 2.596926 14.8594 1.107060 0.110267
4956.74 4956.75 0.500000 2.596955 14.8639 1.107364 0.110174
4956.99 4957 0.500000 2.596475 14.8659 1.108047 0.110252
4957.25 4957.25 0.500000 2.596235 14.8688 1.108524 0.110217
4957.5 4957.5 0.500000 2.596093 14.8712 1.108866 0.110228
4957.75 4957.75 0.500000 2.595858 14.8739 1.109327 0.110428
4957.99 4958 0.500000 2.595145 14.8785 1.110457 0.110607
4958.24 4958.25 0.500000 2.594805 14.8782 1.110813 0.110658
4958.49 4958.5 0.500000 2.594756 14.8837 1.111282 0.110444
4958.74 4958.75 0.500000 2.594240 14.8871 1.112108 0.110649
4958.99 4959 0.500000 2.594128 14.8898 1.112433 0.110593
4959.25 4959.25 0.500000 2.593549 14.8946 1.113440 0.111026
4959.5 4959.5 0.500000 2.593538 14.8986 1.113749 0.110805
4959.75 4959.75 0.500000 2.593325 14.9021 1.114249 0.110504
4960 4960 0.500000 2.593116 14.9047 1.114674 0.110980
4960.25 4960.25 0.500000 2.592823 14.9101 1.115401 0.110921
4960.5 4960.5 0.500000 2.592584 14.9183 1.116290 0.110804
4960.74 4960.75 0.500000 2.592317 14.921 1.116784 0.110626
4960.99 4961 0.500000 2.592093 14.9214 1.117063 0.110802
4961.25 4961.25 0.500000 2.591749 14.9233 1.117589 0.110550
4961.5 4961.5 0.500000 2.591746 14.9303 1.118119 0.110480
4961.75 4961.75 0.500000 2.591494 14.9333 1.118625 0.110403
4962 4962 0.500000 2.591409 14.9386 1.119112 0.110465
4962.25 4962.25 0.500000 2.591706 14.943 1.119113 0.110235
4962.5 4962.5 0.500000 2.591401 14.9461 1.119690 0.109944
4962.75 4962.75 0.500000 2.591185 14.9516 1.120338 0.109751
4962.99 4963 0.500000 2.591224 14.9581 1.120789 0.109402
4963.25 4963.25 0.500000 2.590900 14.962 1.121442 0.108552
4963.5 4963.5 0.500000 2.590974 14.9632 1.121449 0.107693
4963.75 4963.75 0.500000 2.590981 14.9706 1.121995 0.106715
4964 4964 0.500000 2.590821 15.0048 1.124735 0.105410
4964.25 4964.25 0.500000 2.591223 15.0052 1.124315 0.102102
4964.5 4964.5 0.500000 2.591240 15.0075 1.124470 0.097318
4964.75 4964.75 0.500000 2.591744 15.0101 1.124101 0.090610
4965 4965 0.500000 2.592292 15.017 1.123995 0.083214
4965.25 4965.25 0.500000 2.593222 15.0246 1.123512 0.077806
4965.5 4965.5 0.500000 2.594687 15.0262 1.121998 0.075074
4965.75 4965.75 0.500000 2.596469 15.0312 1.120374 0.074967
4966 4966 0.500000 2.599902 15.0349 1.116803 0.076865
4966.25 4966.25 0.500000 2.604668 15.0412 1.111993 0.079162
4966.5 4966.5 0.500000 2.612511 15.0411 1.103282 0.081265
4966.75 4966.75 0.500000 2.625716 15.0467 1.089201 0.082154
4967 4967 0.500000 2.645230 15.0473 1.068276 0.081905
4967.25 4967.25 0.500000 2.664406 15.0505 1.048102 0.080513
4967.5 4967.5 0.500000 2.673035 15.0516 1.039253 0.079532
4967.75 4967.75 0.500000 2.666853 15.059 1.046252 0.079422
4968 4968 0.500000 2.656602 15.065 1.057355 0.079218
4968.25 4968.25 0.500000 2.656245 15.0752 1.058452 0.077866
4968.5 4968.5 0.500000 2.668998 15.0764 1.045118 0.075372
4968.75 4968.75 0.500000 2.695933 15.0772 1.017516 0.072412
4969 4969 0.500000 2.729900 15.0757 0.983509 0.068904
4969.25 4969.25 0.500000 2.759355 15.0796 0.954981 0.066175
4969.5 4969.5 0.500000 2.777324 15.0833 0.938256 0.064401
4969.75 4969.75 0.500000 2.787287 15.0826 0.928942 0.063160
4970 4970 0.500000 2.793133 15.0877 0.923854 0.062370
4970.25 4970.25 0.500000 2.792639 15.0956 0.924754 0.062411
4970.5 4970.5 0.500000 2.785069 15.1033 0.932210 0.062542
4970.75 4970.75 0.500000 2.770858 15.1167 0.946309 0.063125
4971 4971 0.500000 2.753559 15.1558 0.965457 0.064054
4971.25 4971.25 0.500000 2.738242 15.164 0.980939 0.064558
4971.5 4971.5 0.500000 2.728042 15.1691 0.991255 0.064306
4971.75 4971.75 0.500000 2.725507 15.1769 0.994280 0.063332
4972 4972 0.500000 2.731670 15.1851 0.988660 0.061805
4972.25 4972.25 0.500000 2.744237 15.1873 0.976519 0.060025
4972.5 4972.5 0.500000 2.756878 15.1907 0.964458 0.058289
4972.75 4972.75 0.500000 2.765787 15.1919 0.955983 0.056329
4973 4973 0.500000 2.768481 15.1976 0.953792 0.054739
4973.25 4973.25 0.500000 2.764262 15.2018 0.958082 0.053760
4973.5 4973.5 0.500000 2.755745 15.2046 0.966421 0.053368
4973.75 4973.75 0.500000 2.744907 15.2062 0.976927 0.053038
4974 4974 0.500000 2.734594 15.2133 0.987625 0.052156
4974.25 4974.25 0.500000 2.724921 15.2141 0.997282 0.051750
4974.5 4974.5 0.500000 2.717960 15.2167 1.004455 0.051227
4974.75 4974.75 0.500000 2.714499 15.2178 1.007998 0.050386
4975 4975 0.500000 2.715049 15.2219 1.007705 0.049375
4975.25 4975.25 0.500000 2.720202 15.2237 1.002641 0.048357
4975.5 4975.5 0.500000 2.728652 15.2226 0.994059 0.046933
4975.75 4975.75 0.500000 2.741754 15.222 0.981253 0.045641
4976 4976 0.500000 2.758505 15.2256 0.965092 0.044092
4976.25 4976.25 0.500000 2.777512 15.2235 0.946866 0.042264
4976.5 4976.5 0.500000 2.799150 15.2239 0.926493 0.040806
4976.75 4976.75 0.500000 2.824872 15.2241 0.902870 0.039204
4977 4977 0.500000 2.853337 15.2248 0.877902 0.037628
4977.25 4977.25 0.500000 2.883611 15.2298 0.851838 0.036116
4977.5 4977.5 0.500000 2.915790 15.2345 0.825299 0.034572
4977.75 4977.75 0.500000 2.950165 15.2548 0.798414 0.033262
4978 4978 0.500000 2.986707 15.2581 0.769977 0.031796
4978.25 4978.25 0.500000 3.023695 15.2597 0.741771 0.030587
4978.5 4978.5 0.500000 3.059489 15.264 0.715964 0.029283
4978.76 4978.75 0.500000 3.093194 15.266 0.692161 0.028333
4979 4979 0.500000 3.121624 15.2666 0.673137 0.027489
4979.25 4979.25 0.500000 3.143861 15.2659 0.658203 0.026555
4979.5 4979.5 0.500000 3.159837 15.264 0.647818 0.026393
4979.75 4979.75 0.500000 3.174414 15.2655 0.638356 0.025527
4980 4980 0.500000 3.189121 15.2614 0.628968 0.025547
4980.25 4980.25 0.500000 3.207358 15.2597 0.617459 0.024689
4980.5 4980.5 0.500000 3.227472 15.26 0.605121 0.024274
4980.75 4980.75 0.500000 3.251212 15.256 0.590736 0.023771
4981 4981 0.500000 3.279069 15.254 0.574582 0.022897
4981.25 4981.25 0.500000 3.308928 15.2518 0.557668 0.022318
4981.5 4981.5 0.500000 3.340351 15.2524 0.540424 0.021814
4981.75 4981.75 0.500000 3.374425 15.2562 0.522262 0.021043
4982 4982 0.500000 3.411887 15.2566 0.502945 0.019837
4982.25 4982.25 0.500000 3.450295 15.2639 0.484372 0.019319
4982.5 4982.5 0.500000 3.488965 15.2662 0.466020 0.018658
4982.75 4982.75 0.500000 3.527622 15.2686 0.448465 0.018025
4983 4983 0.500000 3.565734 15.2681 0.431684 0.017124
4983.25 4983.25 0.500000 3.601192 15.2693 0.416757 0.016764
4983.5 4983.5 0.500000 3.635302 15.268 0.402745 0.016247
4983.75 4983.75 0.500000 3.668571 15.2659 0.389394 0.015917
4984 4984 0.500000 3.702186 15.2665 0.376544 0.015233
4984.25 4984.25 0.500000 3.731916 15.2649 0.365577 0.014949
4984.5 4984.5 0.500000 3.757254 15.2645 0.356405 0.014856
4984.75 4984.75 0.500000 3.779526 15.2661 0.348590 0.014426
4985 4985 0.500000 3.797529 15.2679 0.342498 0.014363
4985.25 4985.25 0.500000 3.812610 15.2706 0.337356 0.014273
4985.5 4985.5 0.500000 3.824345 15.2756 0.333513 0.014013
4985.75 4985.75 0.500000 3.832335 15.2729 0.330781 0.013967
4986 4986 0.500000 3.839846 15.2758 0.328369 0.014094
4986.25 4986.25 0.500000 3.844947 15.2761 0.326711 0.013954
4986.5 4986.5 0.500000 3.849839 15.2753 0.325105 0.013987
4986.75 4986.75 0.500000 3.854080 15.2743 0.323711 0.013969
4987 4987 0.500000 3.859743 15.2739 0.321880 0.014296
4987.25 4987.25 0.500000 3.868617 15.2694 0.318951 0.013860
4987.5 4987.5 0.500000 3.878347 15.2677 0.315785 0.013816
4987.75 4987.75 0.500000 3.891101 15.2682 0.311798 0.013588
4988 4988 0.500000 3.905032 15.2749 0.307652 0.013524
4988.25 4988.25 0.500000 3.920052 15.2819 0.303200 0.013436
4988.5 4988.5 0.500000 3.933089 15.2922 0.299478 0.013183
4988.75 4988.75 0.500000 3.944311 15.2999 0.296275 0.013048
4989 4989 0.500000 3.951833 15.3097 0.294248 0.013094
4989.25 4989.25 0.500000 3.955068 15.3188 0.293473 0.013024
4989.5 4989.5 0.500000 3.952478 15.3347 0.294542 0.013093
4989.75 4989.75 0.500000 3.948326 15.3502 0.296098 0.012941
4990.01 4990 0.500000 3.937681 15.3617 0.299463 0.012971
4990.25 4990.25 0.500000 3.923255 15.3737 0.304023 0.013278
4990.5 4990.5 0.500000 3.906968 15.3861 0.309282 0.013411
4990.75 4990.75 0.500000 3.889307 15.4004 0.315055 0.013844
4991 4991 0.500000 3.872914 15.4099 0.320483 0.014208
4991.25 4991.25 0.500000 3.857382 15.425 0.325820 0.014492
4991.5 4991.5 0.500000 3.843477 15.432 0.330553 0.014753
4991.75 4991.75 0.500000 3.832017 15.4412 0.334552 0.014908
4992 4992 0.500000 3.822573 15.451 0.337927 0.014857
4992.25 4992.25 0.500000 3.814871 15.458 0.340691 0.014858
4992.5 4992.5 0.500000 3.807418 15.4659 0.343409 0.015209
4992.75 4992.75 0.500000 3.799549 15.4796 0.346439 0.015236
4993 4993 0.500000 3.791689 15.4859 0.349322 0.015354
4993.25 4993.25 0.500000 3.783418 15.4895 0.352324 0.015551
4993.5 4993.5 0.500000 3.775233 15.5183 0.355866 0.015491
4993.75 4993.75 0.500000 3.765845 15.5242 0.359365 0.015749
4994 4994 0.500000 3.756725 15.5305 0.362807 0.015869
4994.25 4994.25 0.500000 3.748225 15.5376 0.366059 0.015890
4994.5 4994.5 0.500000 3.740710 15.5422 0.368925 0.015933
4994.75 4994.75 0.500000 3.734935 15.5462 0.371145 0.015926
4995 4995 0.500000 3.729331 15.5506 0.373361 0.016221
4995.25 4995.25 0.500000 3.725308 15.5562 0.375003 0.016204
4995.5 4995.5 0.500000 3.721933 15.5603 0.376363 0.016237
4995.75 4995.75 0.500000 3.720194 15.5625 0.377069 0.016054
4996 4996 0.700000 3.719761 21.7223 0.526539 0.022235
4997.09 4997.08 0.710000 3.726784 22.1172 0.532355 0.021812
4998.19 4998.18 0.730000 3.747400 22.7434 0.536288 0.021496
4999.3 4999.29 0.740000 3.775950 23.0691 0.528633 0.021060
5000.44 5000.43 0.750000 3.802240 23.4197 0.522726 0.020951
5001.58 5001.58 0.760000 3.821975 23.7765 0.520363 0.020995
5002.77 5002.76 0.780000 3.825974 24.4576 0.533115 0.021737
5003.96 5003.95 0.790000 3.810211 24.8309 0.549876 0.022531
5005.17 5005.16 0.800000 3.775058 25.2067 0.578130 0.023837
5006.4 5006.39 0.810000 3.727456 25.5939 0.615686 0.025708
5007.65 5007.64 0.830000 3.677524 26.2916 0.664870 0.028458
5008.91 5008.91 0.840000 3.632079 26.6584 0.705372 0.030564
5010.21 5010.2 0.850000 3.583832 27.0326 0.750720 0.032834
5011.52 5011.51 0.860000 3.543312 27.4399 0.793501 0.035026
5012.83 5012.83 0.880000 3.519786 28.1611 0.833724 0.036764
5014.19 5014.18 0.890000 3.507992 28.5305 0.854690 0.038114
5015.55 5015.54 0.900000 3.505738 28.9067 0.867910 0.039032
5016.94 5016.93 0.910000 3.508376 29.2847 0.876943 0.039805
5018.33 5018.33 0.930000 3.508747 29.9887 0.897694 0.040679
5019.76 5019.75 0.940000 3.498785 30.3746 0.918353 0.042329
5021.2 5021.19 0.950000 3.480570 30.7654 0.947311 0.043898
5022.66 5022.65 0.960000 3.460481 31.1582 0.978852 0.045312
5024.14 5024.13 0.980000 3.445217 31.8793 1.016882 0.047060
5025.64 5025.63 0.990000 3.438311 32.27 1.036474 0.048040
5027.15 5027.14 1.000000 3.438277 32.6665 1.049240 0.048296
5028.69 5028.68 1.010000 3.444100 33.063 1.055790 0.048295
5030.25 5030.24 1.030000 3.454883 33.7866 1.067347 0.048560
5031.82 5031.81 1.040000 3.469707 34.2619 1.066441 0.047460
5033.4 5033.4 1.050000 3.484572 34.6635 1.063022 0.046491
5035.02 5035.01 1.060000 3.497641 35.0625 1.061287 0.045677
5036.66 5036.65 1.080000 3.506567 35.7994 1.073962 0.045388
5038.3 5038.3 1.090000 3.513597 36.2119 1.078757 0.045323
5039.97 5039.97 1.100000 3.519067 36.6183 1.084909 0.045464
5041.65 5041.65 1.110000 3.522124 37.0364 1.093933 0.046003
5043.36 5043.36 1.130000 3.522824 37.7804 1.115126 0.047654
5045.09 5045.09 1.140000 3.522671 38.2017 1.127733 0.048420
5046.83 5046.83 1.150000 3.522625 38.6171 1.140048 0.050118
5048.6 5048.6 1.160000 3.521760 39.0428 1.153617 0.051908
5050.38 5050.38 1.180000 3.519732 39.8087 1.178633 0.054196
5052.18 5052.18 1.190000 3.518076 40.2364 1.193265 0.056092
5054 5054 1.200000 3.518285 40.6727 1.205955 0.057771
5055.84 5055.84 1.210000 3.520732 41.1095 1.215927 0.058774
5057.7 5057.7 1.230000 3.524475 41.8906 1.234402 0.059773
5059.58 5059.58 1.240000 3.527083 42.3373 1.244317 0.060214
5061.47 5061.48 1.250000 3.527675 42.7799 1.256578 0.061074
5063.4 5063.4 1.260000 3.523559 43.2227 1.274820 0.062643
5065.33 5065.33 1.280000 3.514894 44.0243 1.309767 0.064619
5067.28 5067.29 1.290000 3.502793 44.4791 1.339397 0.066804
5069.25 5069.26 1.300000 3.489760 44.9358 1.370891 0.068377
5071.26 5071.26 1.310000 3.477353 45.3969 1.402262 0.070188
5073.27 5073.27 1.330000 3.466977 46.2084 1.442222 0.072350
5075.3 5075.3 1.340000 3.460168 46.6688 1.466545 0.073053
5077.35 5077.35 1.350000 3.457265 47.1377 1.485585 0.073418
5079.42 5079.42 1.360000 3.455552 47.6131 1.503139 0.073458
5081.51 5081.51 1.380000 3.453577 48.4386 1.532223 0.073906
5083.61 5083.61 1.390000 3.450112 48.9091 1.552482 0.073774
5085.74 5085.74 1.400000 3.443748 49.3852 1.577605 0.073634
5087.89 5087.89 1.410000 3.435146 49.8643 1.606669 0.073810
5090.05 5090.05 1.430000 3.424136 50.7012 1.651703 0.075256
5092.23 5092.23 1.440000 3.411221 51.1979 1.689570 0.077479
5094.44 5094.44 1.450000 3.397344 51.7078 1.730241 0.080311
5096.66 5096.66 1.460000 3.384635 52.206 1.769267 0.084170
5098.9 5098.9 1.480000 3.371605 53.0681 1.822079 0.089063
5101.16 5101.16 1.490000 3.359651 53.672 1.864982 0.093753
5103.44 5103.44 1.500000 3.349086 54.2008 1.903333 0.098081
5105.74 5105.74 1.510000 3.341891 54.7165 1.935308 0.100980
5108.05 5108.05 1.530000 3.338219 55.5917 1.973506 0.103337
5110.39 5110.39 1.540000 3.336957 56.1081 1.994357 0.104398
5112.74 5112.74 1.550000 3.335999 56.6365 2.015071 0.106172
5115.12 5115.12 1.560000 3.336397 57.158 2.032813 0.107115
5117.51 5117.51 1.580000 3.337883 58.0617 2.061876 0.108847
5119.92 5119.92 1.590000 3.341096 58.5982 2.074270 0.109891
5122.35 5122.35 1.600000 3.344353 59.131 2.086323 0.111097
5124.8 5124.8 1.610000 3.345990 59.6748 2.102062 0.112281
5127.27 5127.27 1.630000 3.346459 60.5867 2.133185 0.114830
5129.76 5129.76 1.640000 3.344942 61.1363 2.155807 0.116554
5132.27 5132.27 1.650000 3.342695 61.6897 2.180211 0.118283
5134.79 5134.79 1.660000 3.340042 62.2433 2.205618 0.119629
5137.34 5137.34 1.680000 3.338383 63.1754 2.242363 0.121497
5139.9 5139.9 1.690000 3.336896 63.76 2.266483 0.121908
5142.49 5142.49 1.700000 3.332868 64.4432 2.300030 0.123056
5145.09 5145.09 1.710000 3.326382 65.051 2.336803 0.124264
5147.71 5147.71 1.730000 3.319410 66.0095 2.387838 0.126189
5150.35 5150.35 1.740000 3.312042 66.5997 2.427011 0.128456
5153.01 5153.01 1.750000 3.303981 67.1904 2.468373 0.131317
5155.69 5155.69 1.760000 3.294543 67.7846 2.513782 0.135410
5158.39 5158.39 1.780000 3.283648 68.7555 2.577728 0.140302
5161.11 5161.11 1.790000 3.273121 69.4946 2.633025 0.144807
5163.84 5163.84 1.800000 3.264841 70.0983 2.677970 0.149293
5166.6 5166.6 1.810000 3.258135 70.693 2.718837 0.152199
5169.37 5169.37 1.830000 3.252582 71.6707 2.771799 0.156769
5172.17 5172.17 1.840000 3.247889 72.2721 2.808224 0.160670
5174.98 5174.98 1.850000 3.242940 72.8547 2.844883 0.164536
5177.81 5177.81 1.860000 3.237729 73.4455 2.882948 0.168605
5180.66 5180.66 1.880000 3.232433 74.4519 2.937980 0.172799
5183.53 5183.53 1.890000 3.227116 75.0951 2.979147 0.176197
5186.42 5186.42 1.900000 3.221905 75.6939 3.018598 0.179173
5189.32 5189.32 1.910000 3.217565 76.3051 3.056205 0.181657
5192.25 5192.25 1.930000 3.212328 77.306 3.112543 0.185592
5195.2 5195.2 1.940000 3.206569 77.9053 3.154803 0.188232
5198.16 5198.16 1.950000 3.200391 78.472 3.197421 0.191043
5201.14 5201.14 1.960000 3.194169 79.1006 3.243169 0.194313
5204.15 5204.15 1.980000 3.187117 80.148 3.309375 0.198243
5207.17 5207.17 1.990000 3.178924 80.7797 3.362884 0.201563
5210.21 5210.21 2.000000 3.170946 81.4125 3.416397 0.204606
5213.27 5213.27 2.010000 3.162492 82.03 3.471514 0.208252
5216.35 5216.35 2.030000 3.154880 83.0709 3.542431 0.214115
5219.45 5219.45 2.040000 3.148331 83.7357 3.594251 0.217881
5222.56 5222.56 2.050000 3.142311 84.4157 3.645324 0.222290
5225.7 5225.7 2.060000 3.136364 85.0796 3.695901 0.226989
5228.85 5228.85 2.080000 3.131036 86.1478 3.762288 0.231932
5232.03 5232.03 2.090000 3.125583 86.831 3.812876 0.236682
5235.22 5235.22 2.100000 3.120249 87.5338 3.864288 0.241500
5238.43 5238.43 2.110000 3.115511 88.2299 3.913510 0.246175
5241.66 5241.66 2.130000 3.110581 89.3219 3.981522 0.252403
5244.92 5244.92 2.140000 3.105459 90.0943 4.036588 0.258281
5248.18 5248.18 2.150000 3.100811 90.3498 4.066876 0.262389
5251.47 5251.47 2.160000 3.095758 91.0954 4.121212 0.267846
5254.78 5254.78 2.180000 3.090065 92.5716 4.211916 0.275385
5258.11 5258.11 2.190000 3.083568 93.3941 4.277042 0.281489
5261.45 5261.45 2.200000 3.076222 94.0891 4.340628 0.287302
5264.82 5264.82 2.210000 3.068690 94.8682 4.409669 0.293453
5268.2 5268.2 2.230000 3.061376 96.066 4.498115 0.300329
5271.6 5271.6 2.240000 3.054578 96.8105 4.563885 0.305540
5275.03 5275.03 2.250000 3.047924 97.6494 4.634187 0.310635
5278.47 5278.47 2.260000 3.041344 97.1292 4.639927 0.312036
5281.93 5281.93 2.280000 3.033886 99.4001 4.783944 0.323000
5285.4 5285.4 2.290000 3.026717 100.468 4.870133 0.329475
5288.9 5288.9 2.300000 3.019223 101.203 4.942685 0.335702
5292.42 5292.42 2.310000 3.011804 101.942 5.015814 0.342348
5295.96 5295.96 2.330000 3.005053 103.16 5.110130 0.350718
5299.51 5299.51 2.340000 2.998376 103.839 5.178227 0.357630
5303.09 5303.09 2.350000 2.992683 104.719 5.251916 0.364695
5306.68 5306.68 2.360000 2.985702 105.566 5.331521 0.372337
5310.29 5310.29 2.380000 2.978226 106.816 5.435111 0.381574
5313.92 5313.92 2.390000 2.970195 107.566 5.517400 0.388826
5317.57 5317.57 2.400000 2.962296 108.31 5.599644 0.397067
5321.24 5321.24 2.410000 2.956552 108.867 5.660877 0.403682
5324.93 5324.93 2.430000 2.949234 109.959 5.759629 0.413356
5328.64 5328.64 2.440000 2.941334 110.518 5.834819 0.421238
5332.36 5332.36 2.450000 2.932280 111.076 5.917656 0.429831
5336.11 5336.11 2.460000 2.923771 111.887 6.011778 0.439737
5339.87 5339.87 2.480000 2.916578 113.079 6.119689 0.450556
5343.66 5343.66 2.490000 2.909289 113.809 6.204269 0.460013
5347.46 5347.46 2.500000 2.901948 114.413 6.283140 0.468877
5351.28 5351.28 2.510000 2.894467 114.886 6.356441 0.477304
5355.12 5355.12 2.530000 2.888305 115.223 6.414494 0.483787
5358.98 5358.98 2.540000 2.879806 116.962 6.566889 0.497428
5362.86 5362.86 2.550000 2.872764 117.648 6.652115 0.506217
5366.76 5366.76 2.560000 2.865280 118.22 6.734666 0.514342
5370.68 5370.68 2.580000 2.858334 119.235 6.839846 0.524249
5374.61 5374.61 2.590000 2.851093 119.858 6.925557 0.533372
5378.57 5378.57 2.600000 2.842942 120.446 7.016466 0.543195
5382.54 5382.54 2.610000 2.834703 121.059 7.110521 0.553219
5386.54 5386.54 2.630000 2.826776 122.07 7.226961 0.565302
5390.55 5390.55 2.640000 2.818170 122.606 7.321425 0.576259
5394.58 5394.58 2.650000 2.810289 123.428 7.428827 0.588038
5398.63 5398.63 2.660000 2.802110 123.651 7.503408 0.597205
5402.7 5402.7 2.680000 2.793524 124.788 7.637668 0.611610
5406.79 5406.79 2.690000 2.784798 125.21 7.730655 0.622367
5410.9 5410.9 2.700000 2.775860 125.712 7.831365 0.634715
5415.02 5415.02 2.710000 2.767177 126.312 7.937341 0.646515
5419.17 5419.17 2.730000 2.758814 126.671 8.026762 0.658291
5423.33 5423.33 2.740000 2.750844 127.566 8.148114 0.671163
5427.52 5427.52 2.750000 2.742781 128.099 8.248426 0.683898
5431.72 5431.72 2.760000 2.734862 128.612 8.347294 0.696149
5435.94 5435.94 2.780000 2.727124 129.643 8.479580 0.711995
5440.18 5440.18 2.790000 2.719665 130.456 8.596641 0.725968
5444.44 5444.44 2.800000 2.711969 131.061 8.703239 0.739053
5448.72 5448.72 2.810000 2.704404 131.676 8.810432 0.751921
5453.02 5453.02 2.830000 2.696767 133.061 8.971365 0.769627
5457.34 5457.34 2.840000 2.688781 133.762 9.091000 0.784386
5461.67 5461.67 2.850000 2.681082 134.488 9.210980 0.798685
5466.03 5466.03 2.860000 2.673526 135.224 9.331598 0.813554
5470.4 5470.4 2.880000 2.666441 136.452 9.483295 0.831391
5474.8 5474.8 2.890000 2.659241 137.257 9.608193 0.847002
5479.21 5479.21 2.900000 2.654392 138.039 9.709937 0.860052
5483.64 5483.64 2.910000 2.650400 138.81 9.803189 0.872818
5488.09 5488.09 2.930000 2.643195 140.081 9.964516 0.891998
5492.56 5492.56 2.940000 2.633285 140.897 10.1223 0.911373
5497.05 5497.05 2.950000 2.624811 141.716 10.2678 0.929730
5501.56 5501.56 2.960000 2.616961 142.509 10.4067 0.947884
5506.08 5506.08 2.980000 2.607937 143.804 10.5965 0.970263
5510.63 5510.63 2.990000 2.599668 144.612 10.7444 0.989650
5515.19 5515.19 3.000000 2.592397 145.506 10.8897 1.008318
5519.78 5519.78 3.010000 2.585253 146.4 11.0352 1.027474
5524.38 5524.38 3.030000 2.578235 147.793 11.2187 1.050487
5529 5529 3.040000 2.571534 148.732 11.3659 1.071127
5533.64 5533.64 3.050000 2.565058 149.689 11.5134 1.090324
5538.3 5538.3 3.060000 2.557858 150.602 11.6672 1.112330
5542.98 5542.98 3.080000 2.550644 152.018 11.8622 1.137025
5547.68 5547.68 3.090000 2.543164 152.976 12.0266 1.159561
5552.4 5552.4 3.100000 2.535800 154.289 12.2195 1.184207
5557.13 5557.13 3.110000 2.528219 155.224 12.387 1.207021
5561.89 5561.89 3.130000 2.520327 156.664 12.601 1.235161
5566.66 5566.66 3.140000 2.512481 157.583 12.7747 1.258628
5571.46 5571.46 3.150000 2.504623 158.495 12.9501 1.282870
5576.27 5576.27 3.160000 2.496882 159.399 13.1251 1.307611
5581.1 5581.1 3.180000 2.489182 160.821 13.3445 1.337569
5585.95 5585.95 3.190000 2.481435 161.765 13.5273 1.363226
5590.82 5590.82 3.200000 2.473636 162.678 13.7102 1.389290
5595.71 5595.71 3.210000 2.466110 163.899 13.9174 1.417794
5600.62 5600.62 3.230000 2.458918 165.444 14.15 1.449693
5605.54 5605.54 3.240000 2.451595 166.612 14.3546 1.479075
5610.49 5610.49 3.250000 2.444116 167.646 14.5521 1.507405
5615.45 5615.45 3.260000 2.436839 168.597 14.7416 1.536229
5620.44 5620.44 3.280000 2.429675 169.973 14.9687 1.568769
5625.44 5625.44 3.290000 2.423077 170.117 15.0806 1.589897
5630.46 5630.46 3.300000 2.414577 170.727 15.2638 1.618794
5635.5 5635.5 3.310000 2.406321 171.54 15.4637 1.649384
5640.56 5640.56 3.330000 2.399557 173.011 15.7022 1.684923
5645.64 5645.64 3.340000 2.392396 173.755 15.883 1.714427
5650.74 5650.74 3.350000 2.385293 174.579 16.0721 1.744857
5655.86 5655.86 3.360000 2.377850 175.453 16.2732 1.777635
5660.99 5660.99 3.380000 2.370216 177.064 16.5486 1.818198
5666.15 5666.15 3.390000 2.363305 178.198 16.7699 1.852751
5671.32 5671.32 3.400000 2.356469 179.39 16.9979 1.888154
5676.52 5676.52 3.410000 2.348840 180.687 17.252 1.927891
5681.73 5681.73 3.430000 2.341312 182.448 17.5517 1.971869
5686.96 5686.96 3.440000 2.333997 183.56 17.7884 2.010258
5692.21 5692.21 3.450000 2.326583 184.488 18.0113 2.047993
5697.48 5697.48 3.460000 2.319335 185.501 18.242 2.086079
5702.77 5702.77 3.480000 2.312056 186.948 18.5186 2.129785
5708.08 5708.08 3.490000 2.304728 187.851 18.7449 2.168523