File: xdidata/Ti/Ti-K-BATO16.xdi
# XDI/1.0 BlueSky/1.5.0
# Beamline.name: 6BM
# Beamline.xray_source: NSLS-II three-pole wiggler
# Beamline.collimation: paraboloid mirror, 5 nm Rh on 30 nm Pt
# Beamline.focusing: not in use
# Beamline.harmonic_rejection: flat mirror, Si stripe, pitch = 7.0 mrad relative to beam
# Detector.i0: 10 cm N2
# Detector.i1: 25 cm N2
# Detector.i2: 25 cm N2
# Element.symbol: Ti
# Element.edge: K
# Facility.name: NSLS-II
# Facility.energy: 3.0
# Facility.current: 219.8
# Facility.mode: top-off
# Facility.gup: 301027
# Facility.saf: 304156
# Mono.name: Si(111)
# Mono.d_spacing: 3.13526
# Mono.encoder_resolution: 0.0000050 deg/ct
# Mono.angle_offset: 16.0571 deg
# Mono.scan_mode: pseudo channel cut
# Mono.scan_type: step
# Mono.direction: forward in energy
# Sample.name: Ba1.2 Al2.4 Ti 5.6 O16
# Sample.prep: Powder in polyethylene glycol pellet
# Sample.x_position: -97.532 mm
# Sample.y_position: 117.543 mm
# Sample.wheel_position: -555.000 mm
# Scan.experimenters: Bruce Ravel, Martin Stennett
# Scan.edge_energy: 4966.0
# Scan.start_time: 2019-05-30T01:31:37
# Scan.end_time: 2019-05-30T02:14:24
# Scan.transient_id: 9779
# Scan.uid: fcdc081d-1def-417a-b5df-ca404ab65176
# Scan.plot_hint: ln(I0/It)  --  ln($5/$6)
# Scan.sequence: merge of 3 scans
# Column.1: energy eV
# Column.2: requested_energy eV
# Column.3: measurement_time seconds
# Column.4: mutrans
# Column.5: i0
# Column.6: itrans
# Column.7: irefer
# /////
#  sample disk prepared by Martin
# -----
# energy   requested_energy   measurement_time   mutrans   i0   itrans   irefer
4765.99 4766 0.500000 3.790129 11.0696 0.250123 0.020573
4776.01 4776 0.500000 3.773859 11.2598 0.258560 0.021526
4786.01 4786 0.500000 3.748198 11.4851 0.270591 0.022635
4796.01 4796 0.500000 3.722067 11.7143 0.283297 0.024191
4806.01 4806 0.500000 3.695172 11.9447 0.296744 0.025547
4816.01 4816 0.500000 3.669790 12.1682 0.310066 0.027005
4826.01 4826 0.500000 3.643599 12.3947 0.324214 0.028533
4836.01 4836 0.500000 3.617995 12.6244 0.338797 0.029909
4846 4846 0.500000 3.593244 12.8531 0.353572 0.031613
4856.01 4856 0.500000 3.567202 13.0802 0.369315 0.033689
4866.01 4866 0.500000 3.541933 13.3023 0.385205 0.035344
4876 4876 0.500000 3.516374 13.5271 0.401851 0.037493
4886.01 4886 0.500000 3.492634 13.7457 0.418156 0.039422
4896.01 4896 0.500000 3.467232 13.9569 0.435503 0.041511
4906.01 4906 0.500000 3.442754 14.1647 0.452942 0.043880
4916 4916 0.500000 3.418659 14.3689 0.470674 0.045711
4926 4926 0.500000 3.394296 14.5731 0.489137 0.048521
4936 4936 0.500000 3.370798 14.7756 0.507722 0.050481
4938 4938 0.500000 3.366531 14.8095 0.511068 0.051065
4940 4940 0.500000 3.361541 14.8475 0.514940 0.051620
4942 4942 0.500000 3.356870 14.8852 0.518659 0.052155
4944.01 4944 0.500000 3.352894 14.9199 0.521944 0.052595
4946 4946 0.500000 3.347825 14.9522 0.525726 0.053050
4948.01 4948 0.500000 3.342800 14.9826 0.529455 0.053827
4950.01 4950 0.500000 3.338821 15.0184 0.532838 0.054132
4952.01 4952 0.500000 3.333868 15.047 0.536502 0.054622
4954.01 4954 0.500000 3.329807 15.0807 0.539894 0.054968
4956.01 4956 0.500000 3.325334 15.1111 0.543403 0.055423
4956.25 4956.25 0.500000 3.325133 15.1118 0.543539 0.055409
4956.5 4956.5 0.500000 3.324559 15.1112 0.543829 0.055258
4956.74 4956.75 0.500000 3.323750 15.1173 0.544487 0.055694
4956.99 4957 0.500000 3.323711 15.1204 0.544623 0.055351
4957.25 4957.25 0.500000 3.322919 15.1224 0.545122 0.055468
4957.49 4957.5 0.500000 3.322416 15.1295 0.545653 0.055615
4957.74 4957.75 0.500000 3.321975 15.1672 0.547255 0.055806
4957.99 4958 0.500000 3.320980 15.169 0.547864 0.055774
4958.24 4958.25 0.500000 3.320958 15.1757 0.548117 0.055658
4958.5 4958.5 0.500000 3.320736 15.1792 0.548369 0.055796
4958.75 4958.75 0.500000 3.320060 15.1835 0.548895 0.055962
4959 4959 0.500000 3.319447 15.1857 0.549310 0.055938
4959.25 4959.25 0.500000 3.318991 15.1887 0.549667 0.055899
4959.5 4959.5 0.500000 3.318553 15.1922 0.550037 0.056132
4959.75 4959.75 0.500000 3.318022 15.1943 0.550403 0.056024
4959.99 4960 0.500000 3.317899 15.1975 0.550588 0.056132
4960.24 4960.25 0.500000 3.317375 15.2019 0.551034 0.056079
4960.5 4960.5 0.500000 3.316720 15.207 0.551583 0.056292
4960.74 4960.75 0.500000 3.316475 15.2112 0.551867 0.056035
4961 4961 0.500000 3.316017 15.215 0.552262 0.056148
4961.25 4961.25 0.500000 3.316355 15.2191 0.552225 0.055786
4961.5 4961.5 0.500000 3.315568 15.2232 0.552806 0.055876
4961.75 4961.75 0.500000 3.315120 15.2273 0.553203 0.055716
4962 4962 0.500000 3.314580 15.2321 0.553678 0.055829
4962.25 4962.25 0.500000 3.314713 15.2362 0.553751 0.055426
4962.5 4962.5 0.500000 3.313496 15.2382 0.554498 0.055741
4962.75 4962.75 0.500000 3.313713 15.2435 0.554574 0.055432
4963 4963 0.500000 3.313240 15.2468 0.554956 0.055277
4963.25 4963.25 0.500000 3.312342 15.253 0.555679 0.055396
4963.49 4963.5 0.500000 3.312542 15.2575 0.555731 0.054732
4963.75 4963.75 0.500000 3.312298 15.2617 0.556018 0.053740
4963.99 4964 0.500000 3.312290 15.2645 0.556124 0.052626
4964.25 4964.25 0.500000 3.311690 15.2691 0.556626 0.051003
4964.5 4964.5 0.500000 3.311998 15.2737 0.556626 0.048053
4964.75 4964.75 0.500000 3.311913 15.2767 0.556778 0.044444
4965 4965 0.500000 3.311644 15.2806 0.557074 0.041090
4965.25 4965.25 0.500000 3.312438 15.2841 0.556760 0.038929
4965.5 4965.5 0.500000 3.312704 15.2882 0.556760 0.038360
4965.75 4965.75 0.500000 3.314306 15.3135 0.556792 0.038686
4966 4966 0.500000 3.315434 15.3253 0.556594 0.040270
4966.25 4966.25 0.500000 3.318643 15.3305 0.554983 0.041470
4966.5 4966.5 0.500000 3.323817 15.3336 0.552240 0.042753
4966.75 4966.75 0.500000 3.332743 15.3301 0.547190 0.042817
4967 4967 0.500000 3.341517 15.3295 0.542372 0.042915
4967.25 4967.25 0.500000 3.346693 15.3327 0.539724 0.042666
4967.5 4967.5 0.500000 3.344031 15.3363 0.541290 0.042570
4967.75 4967.75 0.500000 3.338230 15.3443 0.544712 0.042295
4968 4968 0.500000 3.335549 15.3503 0.546390 0.041922
4968.25 4968.25 0.500000 3.339674 15.3528 0.544248 0.040844
4968.5 4968.5 0.500000 3.349527 15.3562 0.539058 0.039946
4968.75 4968.75 0.500000 3.368112 15.359 0.529156 0.038513
4969 4969 0.500000 3.392437 15.3596 0.516525 0.037188
4969.25 4969.25 0.500000 3.413045 15.3574 0.505913 0.036144
4969.5 4969.5 0.500000 3.424397 15.358 0.500202 0.035191
4969.75 4969.75 0.500000 3.425008 15.3738 0.500405 0.035018
4970 4970 0.500000 3.419663 15.3971 0.503846 0.035113
4970.25 4970.25 0.500000 3.413177 15.4076 0.507438 0.035259
4970.5 4970.5 0.500000 3.404053 15.4156 0.512411 0.035407
4970.75 4970.75 0.500000 3.392058 15.4263 0.518949 0.035636
4971 4971 0.500000 3.379644 15.4369 0.525790 0.035749
4971.25 4971.25 0.500000 3.368517 15.4452 0.531965 0.035917
4971.5 4971.5 0.500000 3.361222 15.4527 0.536088 0.035703
4971.75 4971.75 0.500000 3.358978 15.4523 0.537284 0.034979
4972 4972 0.500000 3.361399 15.4555 0.536101 0.034221
4972.25 4972.25 0.500000 3.367967 15.4616 0.532778 0.033663
4972.5 4972.5 0.500000 3.375887 15.4634 0.528657 0.032771
4972.75 4972.75 0.500000 3.383123 15.4665 0.524950 0.031642
4973 4973 0.500000 3.386256 15.4679 0.523365 0.030987
4973.25 4973.25 0.500000 3.386665 15.4723 0.523295 0.030539
4973.5 4973.5 0.500000 3.385274 15.4763 0.524149 0.029552
4973.75 4973.75 0.500000 3.382949 15.478 0.525428 0.029383
4974 4974 0.500000 3.381508 15.4776 0.526176 0.028871
4974.25 4974.25 0.500000 3.381690 15.4786 0.526115 0.028193
4974.5 4974.5 0.500000 3.384023 15.4818 0.524984 0.027619
4974.75 4974.75 0.500000 3.387968 15.4845 0.523019 0.027398
4975 4975 0.500000 3.394181 15.484 0.519762 0.026472
4975.25 4975.25 0.500000 3.401657 15.4861 0.515987 0.025640
4975.5 4975.5 0.500000 3.409299 15.4887 0.512128 0.025494
4975.75 4975.75 0.500000 3.419096 15.4828 0.506972 0.024403
4976 4976 0.500000 3.429501 15.4835 0.501715 0.023830
4976.25 4976.25 0.500000 3.441409 15.4802 0.495651 0.023100
4976.5 4976.5 0.500000 3.454618 15.4788 0.489067 0.022456
4976.75 4976.75 0.500000 3.470695 15.479 0.481326 0.021821
4977 4977 0.500000 3.490064 15.48 0.472159 0.021056
4977.25 4977.25 0.500000 3.510693 15.4827 0.462566 0.020433
4977.5 4977.5 0.500000 3.533608 15.4842 0.452170 0.019915
4977.75 4977.75 0.500000 3.557909 15.4863 0.441350 0.019560
4978 4978 0.500000 3.583608 15.4889 0.430196 0.018679
4978.25 4978.25 0.500000 3.607396 15.4903 0.420057 0.018294
4978.5 4978.5 0.500000 3.630559 15.4923 0.410619 0.017622
4978.75 4978.75 0.500000 3.649906 15.4953 0.402753 0.017683
4979 4979 0.500000 3.666694 15.4927 0.396034 0.016954
4979.25 4979.25 0.500000 3.680113 15.4928 0.390774 0.016845
4979.5 4979.5 0.500000 3.691746 15.4892 0.386110 0.016620
4979.75 4979.75 0.500000 3.703244 15.4859 0.381620 0.016281
4980 4980 0.500000 3.714965 15.4821 0.377105 0.016106
4980.25 4980.25 0.500000 3.725523 15.4834 0.373167 0.015850
4980.5 4980.5 0.500000 3.736070 15.4821 0.369244 0.015706
4980.75 4980.75 0.500000 3.746161 15.4805 0.365471 0.015449
4981 4981 0.500000 3.757478 15.4779 0.361340 0.015393
4981.25 4981.25 0.500000 3.769513 15.4751 0.356847 0.015236
4981.5 4981.5 0.500000 3.783003 15.475 0.352096 0.015048
4981.75 4981.75 0.500000 3.798188 15.4768 0.346831 0.014572
4982 4982 0.500000 3.816015 15.4795 0.340812 0.014483
4982.25 4982.25 0.500000 3.834496 15.482 0.334575 0.014309
4982.5 4982.5 0.500000 3.854095 15.4849 0.328202 0.013891
4982.75 4982.75 0.500000 3.874463 15.485 0.321572 0.013349
4983 4983 0.500000 3.893985 15.4855 0.315365 0.013277
4983.25 4983.25 0.500000 3.913019 15.4852 0.309355 0.013130
4983.5 4983.5 0.500000 3.929732 15.4838 0.304201 0.013024
4983.75 4983.75 0.500000 3.945626 15.4814 0.299384 0.012913
4984 4984 0.500000 3.961576 15.4796 0.294649 0.012631
4984.25 4984.25 0.500000 3.977484 15.4794 0.289998 0.012362
4984.5 4984.5 0.500000 3.992171 15.4786 0.285770 0.012419
4984.75 4984.75 0.500000 4.005284 15.4787 0.282053 0.012224
4985 4985 0.500000 4.019913 15.4811 0.277957 0.012037
4985.25 4985.25 0.500000 4.031304 15.4817 0.274806 0.012182
4985.5 4985.5 0.500000 4.042506 15.483 0.271757 0.011845
4985.75 4985.75 0.500000 4.052631 15.4818 0.269030 0.011978
4986 4986 0.500000 4.060309 15.4817 0.266963 0.012073
4986.25 4986.25 0.500000 4.068466 15.483 0.264825 0.011892
4986.5 4986.5 0.500000 4.075134 15.4774 0.262969 0.011913
4986.75 4986.75 0.500000 4.080476 15.4766 0.261562 0.011997
4987 4987 0.500000 4.085998 15.4709 0.260007 0.011954
4987.25 4987.25 0.500000 4.089899 15.4805 0.259155 0.011964
4987.5 4987.5 0.500000 4.094295 15.501 0.258357 0.011910
4987.75 4987.75 0.500000 4.097391 15.5032 0.257608 0.012018
4988 4988 0.500000 4.102053 15.5081 0.256483 0.012026
4988.25 4988.25 0.500000 4.104889 15.5142 0.255867 0.011865
4988.5 4988.5 0.500000 4.108657 15.5222 0.255025 0.011671
4988.75 4988.75 0.500000 4.112531 15.5298 0.254162 0.011595
4989 4989 0.500000 4.116316 15.5408 0.253383 0.011737
4989.25 4989.25 0.500000 4.118229 15.5537 0.253104 0.011617
4989.5 4989.5 0.500000 4.121372 15.5644 0.252487 0.011769
4989.75 4989.75 0.500000 4.123166 15.5812 0.252310 0.011700
4990 4990 0.500000 4.122654 15.5928 0.252626 0.011854
4990.25 4990.25 0.500000 4.121719 15.6026 0.253021 0.011810
4990.5 4990.5 0.500000 4.119400 15.6134 0.253784 0.011898
4990.75 4990.75 0.500000 4.114775 15.6245 0.255144 0.011977
4991 4991 0.500000 4.109299 15.6351 0.256722 0.011795
4991.26 4991.25 0.500000 4.102671 15.6458 0.258626 0.012317
4991.5 4991.5 0.500000 4.094349 15.6533 0.260875 0.012272
4991.75 4991.75 0.500000 4.085168 15.6612 0.263419 0.012331
4992 4992 0.500000 4.074227 15.6727 0.266490 0.012548
4992.25 4992.25 0.500000 4.063269 15.681 0.269575 0.012406
4992.5 4992.5 0.500000 4.052258 15.6851 0.272660 0.012678
4992.75 4992.75 0.500000 4.040648 15.6916 0.275971 0.012729
4993 4993 0.500000 4.030828 15.6923 0.278703 0.012714
4993.25 4993.25 0.500000 4.020062 15.6982 0.281836 0.013090
4993.5 4993.5 0.500000 4.011392 15.7044 0.284358 0.013200
4993.75 4993.75 0.500000 4.002538 15.7106 0.287003 0.013119
4994 4994 0.500000 3.994862 15.7127 0.289250 0.013179
4994.25 4994.25 0.500000 3.987887 15.7154 0.291326 0.013181
4994.5 4994.5 0.500000 3.983054 15.7182 0.292811 0.013290
4994.75 4994.75 0.500000 3.978220 15.723 0.294326 0.013237
4995 4995 0.500000 3.974562 15.7273 0.295477 0.013449
4995.25 4995.25 0.500000 3.972670 15.7551 0.296554 0.013269
4995.5 4995.5 0.500000 3.971426 15.754 0.296909 0.013400
4995.75 4995.75 0.500000 3.971987 15.7548 0.296755 0.013232
4996 4996 0.700000 3.974243 22.0256 0.413941 0.018014
4997.09 4997.08 0.710000 3.986301 22.3837 0.415620 0.017962
4998.18 4998.18 0.730000 4.003734 23.0198 0.420037 0.017847
4999.29 4999.29 0.740000 4.021204 23.347 0.418657 0.017876
5000.44 5000.43 0.750000 4.035359 23.6954 0.418915 0.017646
5001.59 5001.58 0.760000 4.042700 24.0529 0.422132 0.017709
5002.77 5002.76 0.780000 4.039344 24.7877 0.436486 0.018485
5003.96 5003.95 0.790000 4.021493 25.1564 0.450973 0.019307
5005.17 5005.16 0.800000 3.991768 25.5373 0.471591 0.020172
5006.4 5006.39 0.810000 3.959004 25.9249 0.494713 0.021450
5007.65 5007.64 0.830000 3.932656 26.6253 0.521644 0.023341
5008.92 5008.91 0.840000 3.910153 26.9949 0.540900 0.024428
5010.21 5010.2 0.850000 3.879722 27.3734 0.565427 0.025865
5011.52 5011.51 0.860000 3.851583 27.7551 0.589701 0.027324
5012.84 5012.83 0.880000 3.834725 28.44 0.614519 0.028599
5014.19 5014.18 0.890000 3.825872 28.8071 0.627976 0.029387
5015.55 5015.54 0.900000 3.824666 29.1805 0.636885 0.029716
5016.94 5016.93 0.910000 3.825886 29.56 0.644383 0.030519
5018.34 5018.33 0.930000 3.825443 30.2641 0.660026 0.031741
5019.76 5019.75 0.940000 3.819990 30.6497 0.672100 0.032137
5021.19 5021.19 0.950000 3.810700 31.0325 0.686825 0.033406
5022.66 5022.65 0.960000 3.800736 31.4256 0.702509 0.034203
5024.14 5024.13 0.980000 3.793169 32.1408 0.723941 0.034981
5025.64 5025.63 0.990000 3.785748 32.5343 0.738264 0.035704
5027.14 5027.14 1.000000 3.779808 32.9239 0.751542 0.036274
5028.68 5028.68 1.010000 3.777116 33.3218 0.762686 0.036460
5030.24 5030.24 1.030000 3.774895 34.0421 0.780901 0.036849
5031.82 5031.81 1.040000 3.774187 34.4379 0.790548 0.036550
5033.41 5033.4 1.050000 3.775273 34.8438 0.798990 0.036361
5035.02 5035.01 1.060000 3.778697 35.2358 0.805224 0.035819
5036.65 5036.65 1.080000 3.785195 35.974 0.816758 0.035849
5038.29 5038.3 1.090000 3.793965 36.3766 0.818703 0.035887
5039.96 5039.97 1.100000 3.803637 36.7765 0.819744 0.036082
5041.65 5041.65 1.110000 3.810671 37.189 0.823114 0.036178
5043.36 5043.36 1.130000 3.813883 37.9283 0.836789 0.037022
5045.09 5045.09 1.140000 3.813509 38.3447 0.846291 0.038158
5046.83 5046.83 1.150000 3.811599 38.7545 0.856975 0.039187
5048.6 5048.6 1.160000 3.807801 39.1769 0.869615 0.040717
5050.38 5050.38 1.180000 3.802986 39.9367 0.890755 0.042645
5052.18 5052.18 1.190000 3.798732 40.3595 0.904019 0.043940
5054 5054 1.200000 3.794555 40.7872 0.917424 0.045332
5055.84 5055.84 1.210000 3.790773 41.2126 0.930501 0.046771
5057.7 5057.7 1.230000 3.786990 41.9886 0.951617 0.047767
5059.57 5059.58 1.240000 3.782791 42.4241 0.965530 0.048473
5061.48 5061.48 1.250000 3.778811 42.8599 0.979343 0.049267
5063.4 5063.4 1.260000 3.774500 43.3054 0.993796 0.050648
5065.33 5065.33 1.280000 3.770309 44.0981 1.016236 0.052109
5067.28 5067.29 1.290000 3.764386 44.5476 1.032685 0.053153
5069.26 5069.26 1.300000 3.758873 45.0055 1.049084 0.054059
5071.26 5071.26 1.310000 3.752549 45.4683 1.066589 0.055064
5073.27 5073.27 1.330000 3.744810 46.2758 1.093971 0.056756
5075.3 5075.3 1.340000 3.737304 46.7293 1.113003 0.057895
5077.35 5077.35 1.350000 3.731227 47.1966 1.130999 0.057936
5079.42 5079.42 1.360000 3.724860 47.7662 1.151951 0.057989
5081.51 5081.51 1.380000 3.718360 48.5904 1.179479 0.058688
5083.61 5083.61 1.390000 3.711939 49.0613 1.198568 0.058723
5085.74 5085.74 1.400000 3.705117 49.538 1.218511 0.058680
5087.89 5087.89 1.410000 3.696467 50.0139 1.240892 0.058992
5090.05 5090.05 1.430000 3.687561 50.8517 1.272967 0.059900
5092.23 5092.23 1.440000 3.677797 51.3483 1.298026 0.061639
5094.44 5094.44 1.450000 3.667855 51.8637 1.324149 0.063529
5096.66 5096.66 1.460000 3.658228 52.3549 1.349611 0.066095
5098.9 5098.9 1.480000 3.649059 53.2142 1.384400 0.070090
5101.16 5101.16 1.490000 3.640359 53.7158 1.409672 0.073239
5103.44 5103.44 1.500000 3.632760 54.2258 1.433895 0.075998
5105.74 5105.74 1.510000 3.625863 54.8543 1.460566 0.078672
5108.05 5108.05 1.530000 3.620605 55.7424 1.492028 0.080594
5110.39 5110.39 1.540000 3.616255 56.2499 1.512169 0.081488
5112.74 5112.74 1.550000 3.612727 56.768 1.531494 0.082798
5115.12 5115.12 1.560000 3.609982 57.2752 1.549431 0.084055
5117.51 5117.51 1.580000 3.607802 58.1612 1.576832 0.085785
5119.92 5119.92 1.590000 3.605561 58.6868 1.594653 0.087082
5122.35 5122.35 1.600000 3.603678 59.2023 1.611690 0.087845
5124.8 5124.8 1.610000 3.601774 59.7324 1.629216 0.089490
5127.27 5127.27 1.630000 3.600201 60.6456 1.656729 0.091477
5129.76 5129.76 1.640000 3.597739 61.2237 1.676645 0.092947
5132.27 5132.27 1.650000 3.594418 61.8752 1.700128 0.094514
5134.79 5134.79 1.660000 3.590496 62.4245 1.721963 0.095508
5137.34 5137.34 1.680000 3.585913 63.3597 1.755781 0.097487
5139.9 5139.9 1.690000 3.580889 63.9386 1.780745 0.098356
5142.49 5142.49 1.700000 3.575738 64.508 1.805881 0.099001
5145.09 5145.09 1.710000 3.569904 65.0786 1.832524 0.100024
5147.71 5147.71 1.730000 3.563433 66.0299 1.871394 0.101873
5150.35 5150.35 1.740000 3.556741 66.6219 1.900831 0.103380
5153.01 5153.01 1.750000 3.548862 67.1991 1.932467 0.105853
5155.69 5155.69 1.760000 3.540999 67.7942 1.964974 0.108359
5158.39 5158.39 1.780000 3.532809 68.7607 2.009387 0.112343
5161.11 5161.11 1.790000 3.524954 69.3399 2.042270 0.115457
5163.84 5163.84 1.800000 3.517219 69.9539 2.076358 0.118103
5166.6 5166.6 1.810000 3.509775 70.5602 2.110014 0.121178
5169.37 5169.37 1.830000 3.502858 71.5436 2.154272 0.124778
5172.17 5172.17 1.840000 3.496026 72.142 2.187167 0.128350
5174.98 5174.98 1.850000 3.489554 72.7361 2.219510 0.131573
5177.81 5177.81 1.860000 3.483366 73.3319 2.251587 0.134282
5180.66 5180.66 1.880000 3.477155 74.3358 2.296601 0.138111
5183.53 5183.53 1.890000 3.471207 74.969 2.330000 0.140409
5186.42 5186.42 1.900000 3.465208 75.5758 2.362993 0.143141
5189.32 5189.32 1.910000 3.459060 76.1925 2.396958 0.145340
5192.25 5192.25 1.930000 3.452759 77.1941 2.443828 0.148484
5195.2 5195.2 1.940000 3.446526 77.7867 2.477979 0.151020
5198.16 5198.16 1.950000 3.440575 78.354 2.510954 0.153012
5201.14 5201.14 1.960000 3.434450 78.9797 2.546571 0.155490
5204.15 5204.15 1.980000 3.428302 80.0266 2.596213 0.158847
5207.17 5207.17 1.990000 3.421706 80.6449 2.633594 0.160761
5210.21 5210.21 2.000000 3.415678 81.281 2.670419 0.162935
5213.27 5213.27 2.010000 3.408710 81.9022 2.709639 0.165670
5216.35 5216.35 2.030000 3.401900 82.9478 2.762996 0.170064
5219.45 5219.45 2.040000 3.395486 83.632 2.803692 0.173690
5222.56 5222.56 2.050000 3.389506 84.4351 2.847592 0.177049
5225.7 5225.7 2.060000 3.383788 85.0971 2.886375 0.180589
5228.85 5228.85 2.080000 3.378686 86.1624 2.937471 0.184750
5232.03 5232.03 2.090000 3.374022 86.8306 2.974083 0.187979
5235.22 5235.22 2.100000 3.371031 87.5333 3.007134 0.191285
5238.43 5238.43 2.110000 3.370415 88.215 3.032412 0.194119
5241.66 5241.66 2.130000 3.377427 89.3129 3.048713 0.196913
5244.92 5244.92 2.140000 3.419920 89.9486 2.942517 0.191982
5248.18 5248.18 2.150000 3.699843 90.091 2.227852 0.148304
5251.47 5251.47 2.160000 3.679557 91.1661 2.300674 0.154692
5254.78 5254.78 2.180000 3.470615 92.6306 2.880564 0.192860
5258.11 5258.11 2.190000 3.469398 93.4806 2.910596 0.195986
5261.45 5261.45 2.200000 3.464036 94.2102 2.949075 0.199454
5264.82 5264.82 2.210000 3.470881 95.0011 2.953554 0.200473
5268.2 5268.2 2.230000 3.469296 96.2373 2.996728 0.203886
5271.6 5271.6 2.240000 3.468334 96.9836 3.022872 0.206738
5275.03 5275.03 2.250000 3.460884 97.8931 3.074035 0.210903
5278.47 5278.47 2.260000 3.442211 97.7904 3.128671 0.214926
5281.93 5281.93 2.280000 3.429312 99.8797 3.237002 0.222575
5285.4 5285.4 2.290000 3.423229 100.755 3.285323 0.226834
5288.9 5288.9 2.300000 3.418204 101.517 3.326838 0.230758
5292.42 5292.42 2.310000 3.410763 102.298 3.377493 0.235680
5295.96 5295.96 2.330000 3.402223 103.565 3.448643 0.241316
5299.51 5299.51 2.340000 3.397523 104.269 3.488435 0.245779
5303.09 5303.09 2.350000 3.393336 105.029 3.528604 0.249568
5306.68 5306.68 2.360000 3.386781 105.882 3.580650 0.255126
5310.29 5310.29 2.380000 3.379839 107.155 3.648950 0.260728
5313.92 5313.92 2.390000 3.371197 107.948 3.707848 0.266549
5317.57 5317.57 2.400000 3.363682 108.725 3.762724 0.272122
5321.24 5321.24 2.410000 3.356283 109.327 3.811640 0.277242
5324.93 5324.93 2.430000 3.349346 110.408 3.876123 0.283559
5328.64 5328.64 2.440000 3.341306 110.966 3.927156 0.288369
5332.36 5332.36 2.450000 3.331366 111.645 3.990678 0.295549
5336.11 5336.11 2.460000 3.323579 112.484 4.052080 0.301409
5339.87 5339.87 2.480000 3.317987 113.749 4.120634 0.308768
5343.66 5343.66 2.490000 3.311947 114.5 4.172949 0.314683
5347.46 5347.46 2.500000 3.305189 115.113 4.223762 0.320751
5351.28 5351.28 2.510000 3.300528 115.609 4.261800 0.325131
5355.12 5355.12 2.530000 3.292963 116.128 4.313429 0.330912
5358.98 5358.98 2.540000 3.288405 117.757 4.393921 0.338517
5362.86 5362.86 2.550000 3.279075 118.443 4.460934 0.344981
5366.76 5366.76 2.560000 3.270238 119.014 4.522222 0.350960
5370.68 5370.68 2.580000 3.262869 120.017 4.594068 0.357909
5374.61 5374.61 2.590000 3.256028 120.905 4.659837 0.363975
5378.57 5378.57 2.600000 3.248957 121.474 4.714988 0.370101
5382.54 5382.54 2.610000 3.242069 122.052 4.770161 0.376835
5386.54 5386.54 2.630000 3.234438 123.046 4.845842 0.384581
5390.55 5390.55 2.640000 3.226619 123.488 4.901419 0.391696
5394.58 5394.58 2.650000 3.218893 124.061 4.962345 0.398691
5398.63 5398.63 2.660000 3.211150 124.273 5.009484 0.404692
5402.7 5402.7 2.680000 3.203352 125.449 5.096491 0.413739
5406.79 5406.79 2.690000 3.195630 125.934 5.155835 0.420595
5410.9 5410.9 2.700000 3.187968 126.329 5.211783 0.428267
5415.02 5415.02 2.710000 3.180444 126.822 5.271629 0.435943
5419.17 5419.17 2.730000 3.173405 127.198 5.324585 0.442410
5423.33 5423.33 2.740000 3.166283 127.913 5.392806 0.451051
5427.52 5427.52 2.750000 3.158779 128.361 5.452453 0.458764
5431.72 5431.72 2.760000 3.151012 129.051 5.524533 0.467470
5435.94 5435.94 2.780000 3.143255 130.044 5.610354 0.477326
5440.18 5440.18 2.790000 3.135257 130.533 5.676677 0.486301
5444.44 5444.44 2.800000 3.127383 131.047 5.744087 0.494554
5448.72 5448.72 2.810000 3.119731 131.566 5.811146 0.503146
5453.02 5453.02 2.830000 3.112046 132.63 5.903333 0.513576
5457.34 5457.34 2.840000 3.104540 133.215 5.974064 0.522183
5461.67 5461.67 2.850000 3.097183 133.889 6.048617 0.531662
5466.03 5466.03 2.860000 3.089503 134.532 6.124527 0.541201
5470.4 5470.4 2.880000 3.081827 135.708 6.225665 0.552456
5474.8 5474.8 2.890000 3.074131 136.416 6.306489 0.562906
5479.21 5479.21 2.900000 3.066429 137.134 6.388694 0.573552
5483.64 5483.64 2.910000 3.058658 137.88 6.473560 0.583756
5488.09 5488.09 2.930000 3.050653 139.071 6.581956 0.597041
5492.56 5492.56 2.940000 3.043002 139.874 6.670795 0.608331
5497.05 5497.05 2.950000 3.034843 140.653 6.762904 0.620062
5501.56 5501.56 2.960000 3.026945 141.414 6.853377 0.632159
5506.08 5506.08 2.980000 3.019258 142.678 6.968035 0.645518
5510.63 5510.63 2.990000 3.011500 143.5 7.062749 0.658216
5515.19 5515.19 3.000000 3.003767 144.39 7.161772 0.670876
5519.78 5519.78 3.010000 2.996015 145.226 7.259231 0.683903
5524.38 5524.38 3.030000 2.988072 146.882 7.400613 0.700924
5529 5529 3.040000 2.980412 147.892 7.508739 0.715635
5533.64 5533.64 3.050000 2.972653 148.794 7.613385 0.729671
5538.3 5538.3 3.060000 2.964684 149.678 7.719884 0.744381
5542.98 5542.98 3.080000 2.957283 151.055 7.848790 0.760828
5547.68 5547.68 3.090000 2.949387 152.012 7.961169 0.775517
5552.4 5552.4 3.100000 2.941580 152.928 8.071903 0.791355
5557.13 5557.13 3.110000 2.933538 154.251 8.207484 0.809069
5561.89 5561.89 3.130000 2.925852 155.648 8.345708 0.827453
5566.66 5566.66 3.140000 2.917948 156.549 8.460602 0.843143
5571.46 5571.46 3.150000 2.910115 157.493 8.578576 0.859624
5576.27 5576.27 3.160000 2.902223 158.361 8.694146 0.875492
5581.1 5581.1 3.180000 2.894212 159.796 8.843529 0.895152
5585.95 5585.95 3.190000 2.886467 161.056 8.982566 0.915204
5590.82 5590.82 3.200000 2.878623 161.959 9.104036 0.932311
5595.71 5595.71 3.210000 2.870679 162.87 9.228273 0.949679
5600.62 5600.62 3.230000 2.862707 164.28 9.382658 0.971207
5605.54 5605.54 3.240000 2.854998 165.155 9.505621 0.989708
5610.49 5610.49 3.250000 2.847979 166.09 9.626807 1.007898
5615.45 5615.45 3.260000 2.843064 166.997 9.727060 1.023791
5620.44 5620.44 3.280000 2.851675 168.313 9.719634 1.029544
5625.44 5625.44 3.290000 3.063418 168.356 7.867189 0.840651
5630.46 5630.46 3.300000 2.898478 169.138 9.320715 0.999742
5635.5 5635.5 3.310000 2.881455 169.548 9.503690 1.024794
5640.56 5640.56 3.330000 2.876617 171.062 9.635082 1.045210
5645.64 5645.64 3.340000 2.874207 171.725 9.695745 1.057846
5650.74 5650.74 3.350000 2.868856 172.382 9.785061 1.074233
5655.86 5655.86 3.360000 2.853001 173.278 9.993095 1.102904
5660.99 5660.99 3.380000 2.843621 174.694 10.1697 1.128727
5666.15 5666.15 3.390000 2.836739 175.768 10.3029 1.150549
5671.32 5671.32 3.400000 2.827742 176.846 10.4598 1.174026
5676.52 5676.52 3.410000 2.820823 178.063 10.6049 1.197437
5681.73 5681.73 3.430000 2.814407 179.654 10.7685 1.222238
5686.96 5686.96 3.440000 2.806839 180.988 10.9309 1.247727
5692.21 5692.21 3.450000 2.798064 181.814 11.0776 1.272447
5697.48 5697.48 3.460000 2.790396 182.678 11.2159 1.294765
5702.77 5702.77 3.480000 2.781791 184.178 11.4057 1.324464
5708.08 5708.08 3.490000 2.772959 185.159 11.5681 1.350940