File: xdidata/Ti/Ti-K-CaZrTi2O7.xdi
# XDI/1.0 BlueSky/1.5.0
# Beamline.name: 6BM
# Beamline.xray_source: NSLS-II three-pole wiggler
# Beamline.collimation: paraboloid mirror, 5 nm Rh on 30 nm Pt
# Beamline.focusing: not in use
# Beamline.harmonic_rejection: flat mirror, Si stripe, pitch = 7.0 mrad relative to beam
# Detector.i0: 10 cm N2
# Detector.i1: 25 cm N2
# Detector.i2: 25 cm N2
# Element.symbol: Ti
# Element.edge: K
# Facility.name: NSLS-II
# Facility.energy: 3.0
# Facility.current: 220.1
# Facility.mode: top-off
# Facility.gup: 301027
# Facility.saf: 304156
# Mono.name: Si(111)
# Mono.d_spacing: 3.13526
# Mono.encoder_resolution: 0.0000050 deg/ct
# Mono.angle_offset: 16.0571 deg
# Mono.scan_mode: pseudo channel cut
# Mono.scan_type: step
# Mono.direction: forward in energy
# Sample.name: CaZrTi2O7 zirconolite
# Sample.prep: Powder in polyethylene glycol pellet
# Sample.x_position: -97.532 mm
# Sample.y_position: 117.543 mm
# Sample.wheel_position: -630.000 mm
# Scan.experimenters: Bruce Ravel, Martin Stennett
# Scan.edge_energy: 4966.0
# Scan.start_time: 2019-05-30T05:08:33
# Scan.end_time: 2019-05-30T05:51:23
# Scan.transient_id: 9794
# Scan.uid: 5f713530-4e03-4c88-95ea-5e8784320b5e
# Scan.plot_hint: ln(I0/It)  --  ln($5/$6)
# Scan.sequence: merge of 3 scans
# Column.1: energy eV
# Column.2: requested_energy eV
# Column.3: measurement_time seconds
# Column.4: mutrans
# Column.5: i0
# Column.6: itrans
# Column.7: irefer
# /////
#  sample disk prepared by Martin
# -----
# energy   requested_energy   measurement_time   mutrans   i0   itrans   irefer
4766 4766 0.500000 3.459294 11.0213 0.346646 0.027668
4776.01 4776 0.500000 3.437217 11.2292 0.361063 0.029041
4786.01 4786 0.500000 3.412809 11.4468 0.377155 0.030646
4796.01 4796 0.500000 3.388821 11.6649 0.393672 0.032515
4806.01 4806 0.500000 3.364676 11.886 0.410936 0.034496
4816.01 4816 0.500000 3.341552 12.0987 0.428073 0.036173
4826.01 4826 0.500000 3.317664 12.3085 0.446032 0.038189
4836 4836 0.500000 3.294275 12.5352 0.464994 0.040244
4846 4846 0.500000 3.270732 12.7621 0.484688 0.042594
4856 4856 0.500000 3.247734 12.9793 0.504396 0.044921
4866.01 4866 0.500000 3.224927 13.1996 0.524796 0.047331
4876.01 4876 0.500000 3.202160 13.4177 0.545756 0.049911
4886 4886 0.500000 3.179326 13.63 0.567193 0.052652
4896.01 4896 0.500000 3.156986 13.8342 0.588699 0.055174
4906 4906 0.500000 3.135246 14.034 0.610327 0.058197
4916 4916 0.500000 3.113275 14.2209 0.632188 0.060650
4926 4926 0.500000 3.091070 14.4177 0.655331 0.063750
4936 4936 0.500000 3.069487 14.6085 0.678493 0.066836
4938 4938 0.500000 3.065301 14.6482 0.683194 0.067631
4940 4940 0.500000 3.060724 14.6849 0.688044 0.068158
4942 4942 0.500000 3.056458 14.7184 0.692565 0.068878
4944 4944 0.500000 3.052432 14.7539 0.697033 0.069560
4946 4946 0.500000 3.047987 14.7864 0.701686 0.069968
4948.01 4948 0.500000 3.043860 14.8155 0.705967 0.070500
4950 4950 0.500000 3.039961 14.8534 0.710542 0.071196
4952 4952 0.500000 3.035825 14.8875 0.715117 0.071547
4954.01 4954 0.500000 3.031570 14.9167 0.719584 0.072374
4956 4956 0.500000 3.027320 14.9436 0.723949 0.072871
4956.25 4956.25 0.500000 3.027273 14.947 0.724153 0.072868
4956.49 4956.5 0.500000 3.026337 14.9473 0.724835 0.073265
4956.74 4956.75 0.500000 3.025913 14.9494 0.725249 0.073007
4956.99 4957 0.500000 3.025342 14.9538 0.725871 0.073073
4957.25 4957.25 0.500000 3.024486 14.9573 0.726670 0.073317
4957.5 4957.5 0.500000 3.024310 14.9606 0.726959 0.073118
4957.74 4957.75 0.500000 3.023983 14.9626 0.727289 0.073197
4958 4958 0.500000 3.023737 14.9669 0.727682 0.073121
4958.24 4958.25 0.500000 3.022554 14.97 0.728689 0.073561
4958.49 4958.5 0.500000 3.022088 14.9736 0.729205 0.073321
4958.75 4958.75 0.500000 3.021834 14.9753 0.729477 0.073508
4958.99 4959 0.500000 3.021209 15.0065 0.731450 0.073570
4959.25 4959.25 0.500000 3.020665 15.0173 0.732377 0.073674
4959.5 4959.5 0.500000 3.020014 15.0202 0.732991 0.073736
4959.75 4959.75 0.500000 3.019914 15.0204 0.733079 0.073885
4960 4960 0.500000 3.018992 15.0242 0.733939 0.074004
4960.24 4960.25 0.500000 3.018826 15.0273 0.734209 0.073579
4960.5 4960.5 0.500000 3.018559 15.0323 0.734653 0.073907
4960.75 4960.75 0.500000 3.017654 15.0366 0.735531 0.073877
4960.99 4961 0.500000 3.017482 15.0409 0.735862 0.073518
4961.25 4961.25 0.500000 3.016893 15.0431 0.736409 0.073797
4961.5 4961.5 0.500000 3.016346 15.0451 0.736912 0.073670
4961.75 4961.75 0.500000 3.016098 15.0515 0.737403 0.073615
4962 4962 0.500000 3.015695 15.0583 0.738037 0.073830
4962.24 4962.25 0.500000 3.015004 15.0617 0.738711 0.073603
4962.5 4962.5 0.500000 3.014422 15.0666 0.739379 0.073634
4962.74 4962.75 0.500000 3.014007 15.0662 0.739669 0.073362
4962.99 4963 0.500000 3.013464 15.0721 0.740358 0.073064
4963.25 4963.25 0.500000 3.013237 15.0755 0.740703 0.072624
4963.5 4963.5 0.500000 3.012703 15.08 0.741315 0.072172
4963.75 4963.75 0.500000 3.012289 15.0843 0.741835 0.071108
4964 4964 0.500000 3.011669 15.0914 0.742640 0.070102
4964.25 4964.25 0.500000 3.011182 15.0935 0.743104 0.067916
4964.5 4964.5 0.500000 3.011388 15.0994 0.743241 0.064083
4964.75 4964.75 0.500000 3.010720 15.1012 0.743827 0.059527
4965 4965 0.500000 3.010334 15.1038 0.744244 0.054921
4965.25 4965.25 0.500000 3.009938 15.1057 0.744631 0.051840
4965.5 4965.5 0.500000 3.010475 15.1087 0.744382 0.050191
4965.75 4965.75 0.500000 3.010212 15.1173 0.745001 0.050603
4966 4966 0.500000 3.010215 15.12 0.745139 0.052496
4966.25 4966.25 0.500000 3.010759 15.1224 0.744845 0.054288
4966.5 4966.5 0.500000 3.012491 15.1236 0.743623 0.056062
4966.75 4966.75 0.500000 3.014423 15.1274 0.742375 0.057085
4967 4967 0.500000 3.017613 15.1286 0.740036 0.057722
4967.25 4967.25 0.500000 3.021196 15.1328 0.737597 0.057682
4967.5 4967.5 0.500000 3.023886 15.1325 0.735614 0.057067
4967.75 4967.75 0.500000 3.026464 15.1376 0.733950 0.056133
4968 4968 0.500000 3.029057 15.1429 0.732338 0.055254
4968.25 4968.25 0.500000 3.031235 15.1486 0.731003 0.054275
4968.5 4968.5 0.500000 3.034074 15.1534 0.729185 0.053208
4968.75 4968.75 0.500000 3.035832 15.1705 0.728726 0.052479
4969 4969 0.500000 3.035962 15.191 0.729609 0.051594
4969.25 4969.25 0.500000 3.034568 15.1955 0.730830 0.051035
4969.5 4969.5 0.500000 3.032465 15.1974 0.732463 0.050740
4969.75 4969.75 0.500000 3.029926 15.1954 0.734235 0.050547
4970 4970 0.500000 3.027615 15.1965 0.735977 0.050330
4970.25 4970.25 0.500000 3.026086 15.206 0.737570 0.050306
4970.5 4970.5 0.500000 3.024876 15.2173 0.739018 0.049994
4970.75 4970.75 0.500000 3.022830 15.2308 0.741189 0.049925
4971 4971 0.500000 3.020528 15.2399 0.743338 0.049858
4971.25 4971.25 0.500000 3.018913 15.2469 0.744876 0.049525
4971.5 4971.5 0.500000 3.017869 15.2517 0.745888 0.048819
4971.75 4971.75 0.500000 3.017676 15.2543 0.746162 0.048180
4972 4972 0.500000 3.018274 15.259 0.745944 0.047145
4972.25 4972.25 0.500000 3.019866 15.2639 0.745004 0.046021
4972.5 4972.5 0.500000 3.020232 15.2699 0.745014 0.045441
4972.75 4972.75 0.500000 3.021127 15.272 0.744456 0.044201
4973 4973 0.500000 3.021685 15.2747 0.744171 0.043202
4973.25 4973.25 0.500000 3.021351 15.2784 0.744600 0.042338
4973.5 4973.5 0.500000 3.021585 15.2796 0.744485 0.041716
4973.75 4973.75 0.500000 3.021869 15.2814 0.744360 0.040885
4974 4974 0.500000 3.022149 15.2797 0.744069 0.039984
4974.25 4974.25 0.500000 3.022854 15.2828 0.743695 0.039080
4974.5 4974.5 0.500000 3.023619 15.2855 0.743258 0.038478
4974.75 4974.75 0.500000 3.024820 15.32 0.744038 0.037891
4975 4975 0.500000 3.025816 15.3223 0.743402 0.036968
4975.25 4975.25 0.500000 3.027253 15.3217 0.742321 0.036177
4975.5 4975.5 0.500000 3.028547 15.3243 0.741482 0.035505
4975.75 4975.75 0.500000 3.029831 15.3208 0.740357 0.034793
4976 4976 0.500000 3.031313 15.3237 0.739403 0.034155
4976.25 4976.25 0.500000 3.032896 15.3208 0.738090 0.033631
4976.5 4976.5 0.500000 3.034168 15.3201 0.737123 0.032955
4976.75 4976.75 0.500000 3.035561 15.3227 0.736219 0.032248
4977 4977 0.500000 3.036569 15.3246 0.735575 0.031964
4977.26 4977.25 0.500000 3.038210 15.3261 0.734431 0.031664
4977.5 4977.5 0.500000 3.040159 15.3281 0.733111 0.031178
4977.75 4977.75 0.500000 3.043197 15.329 0.730921 0.030722
4978 4978 0.500000 3.046413 15.3305 0.728647 0.030146
4978.25 4978.25 0.500000 3.050245 15.3367 0.726137 0.030097
4978.5 4978.5 0.500000 3.053899 15.339 0.723619 0.029657
4978.75 4978.75 0.500000 3.056867 15.3356 0.721294 0.029461
4979 4979 0.500000 3.060134 15.3367 0.719001 0.029324
4979.25 4979.25 0.500000 3.063625 15.3351 0.716434 0.028915
4979.5 4979.5 0.500000 3.066151 15.3336 0.714575 0.028872
4979.75 4979.75 0.500000 3.068984 15.3342 0.712564 0.028496
4980 4980 0.500000 3.071920 15.3311 0.710313 0.028560
4980.25 4980.25 0.500000 3.075426 15.3271 0.707646 0.028270
4980.5 4980.5 0.500000 3.079709 15.3221 0.704390 0.028141
4980.75 4980.75 0.500000 3.084496 15.321 0.700998 0.028016
4981 4981 0.500000 3.090818 15.3183 0.696437 0.027436
4981.25 4981.25 0.500000 3.097700 15.3182 0.691715 0.027178
4981.5 4981.5 0.500000 3.105565 15.3217 0.686421 0.027150
4981.75 4981.75 0.500000 3.114274 15.3217 0.680467 0.026641
4982 4982 0.500000 3.123263 15.322 0.674319 0.026652
4982.25 4982.25 0.500000 3.133124 15.3238 0.667828 0.026123
4982.5 4982.5 0.500000 3.141972 15.3262 0.662046 0.025878
4982.75 4982.75 0.500000 3.151430 15.3278 0.655933 0.025551
4983 4983 0.500000 3.160763 15.3295 0.649856 0.025548
4983.25 4983.25 0.500000 3.169009 15.3302 0.644561 0.024826
4983.5 4983.5 0.500000 3.176299 15.3279 0.639753 0.024647
4983.75 4983.75 0.500000 3.182842 15.3243 0.635457 0.024435
4984 4984 0.500000 3.187984 15.3246 0.632219 0.024539
4984.25 4984.25 0.500000 3.191624 15.3239 0.629894 0.024740
4984.5 4984.5 0.500000 3.194449 15.3234 0.628092 0.024730
4984.75 4984.75 0.500000 3.196082 15.326 0.627186 0.024712
4985 4985 0.500000 3.196953 15.3274 0.626687 0.024903
4985.25 4985.25 0.500000 3.197203 15.3266 0.626500 0.024673
4985.5 4985.5 0.500000 3.196287 15.3244 0.626981 0.024957
4985.75 4985.75 0.500000 3.195862 15.3261 0.627317 0.025418
4986.01 4986 0.500000 3.193976 15.3245 0.628445 0.025241
4986.25 4986.25 0.500000 3.192950 15.3255 0.629118 0.025593
4986.5 4986.5 0.500000 3.190822 15.3258 0.630467 0.025584
4986.75 4986.75 0.500000 3.188861 15.3206 0.631485 0.025774
4987 4987 0.500000 3.186517 15.3197 0.632944 0.026118
4987.25 4987.25 0.500000 3.184574 15.3183 0.634109 0.025921
4987.5 4987.5 0.500000 3.182202 15.3181 0.635622 0.026269
4987.75 4987.75 0.500000 3.179889 15.3168 0.637034 0.026300
4988 4988 0.500000 3.177706 15.3187 0.638498 0.026237
4988.25 4988.25 0.500000 3.176126 15.3396 0.640375 0.026368
4988.5 4988.5 0.500000 3.174646 15.3698 0.642592 0.026466
4988.75 4988.75 0.500000 3.173083 15.3781 0.643941 0.026446
4989 4989 0.500000 3.171559 15.3865 0.645279 0.026605
4989.25 4989.25 0.500000 3.170835 15.3981 0.646240 0.026634
4989.51 4989.5 0.500000 3.169916 15.411 0.647385 0.026665
4989.75 4989.75 0.500000 3.168815 15.4233 0.648603 0.026762
4990 4990 0.500000 3.167886 15.4359 0.649740 0.026827
4990.25 4990.25 0.500000 3.167109 15.4498 0.650827 0.027094
4990.5 4990.5 0.500000 3.166528 15.4575 0.651527 0.026934
4990.75 4990.75 0.500000 3.165891 15.4686 0.652414 0.026920
4991 4991 0.500000 3.165569 15.4821 0.653192 0.026767
4991.25 4991.25 0.500000 3.165112 15.494 0.653995 0.026884
4991.5 4991.5 0.500000 3.164709 15.5027 0.654629 0.027404
4991.75 4991.75 0.500000 3.164189 15.5108 0.655306 0.027464
4992 4992 0.500000 3.164695 15.5179 0.655280 0.027400
4992.25 4992.25 0.500000 3.164770 15.5249 0.655523 0.027210
4992.5 4992.5 0.500000 3.165279 15.5316 0.655474 0.027515
4992.75 4992.75 0.500000 3.165937 15.5401 0.655401 0.027397
4993 4993 0.500000 3.166651 15.5441 0.655095 0.027326
4993.26 4993.25 0.500000 3.167673 15.5495 0.654652 0.027296
4993.5 4993.5 0.500000 3.168383 15.5539 0.654374 0.027480
4993.75 4993.75 0.500000 3.169764 15.5591 0.653693 0.027388
4994 4994 0.500000 3.170671 15.5624 0.653243 0.027284
4994.25 4994.25 0.500000 3.171970 15.5676 0.652616 0.027096
4994.5 4994.5 0.500000 3.172292 15.5729 0.652624 0.027299
4994.75 4994.75 0.500000 3.172972 15.5792 0.652441 0.026817
4995 4995 0.500000 3.173728 15.5801 0.651988 0.026895
4995.25 4995.25 0.500000 3.173562 15.5851 0.652302 0.027129
4995.5 4995.5 0.500000 3.173514 15.5867 0.652403 0.026655
4995.75 4995.75 0.500000 3.173184 15.5988 0.653124 0.026512
4996 4996 0.700000 3.173062 21.7715 0.911690 0.036667
4997.09 4997.08 0.710000 3.168580 22.1552 0.931927 0.036695
4998.19 4998.18 0.730000 3.163716 22.7823 0.962969 0.037041
4999.3 4999.29 0.740000 3.160455 23.1095 0.979996 0.037005
5000.44 5000.43 0.750000 3.157501 23.5117 1.000005 0.037829
5001.59 5001.58 0.760000 3.154601 23.8724 1.018283 0.038680
5002.77 5002.76 0.780000 3.150735 24.5519 1.051329 0.040306
5003.96 5003.95 0.790000 3.146842 24.9254 1.071491 0.040961
5005.17 5005.16 0.800000 3.141101 25.301 1.093888 0.042568
5006.4 5006.39 0.810000 3.133168 25.6855 1.119360 0.044441
5007.65 5007.64 0.830000 3.124582 26.3831 1.159691 0.047396
5008.92 5008.91 0.840000 3.116054 26.7582 1.186227 0.049424
5010.21 5010.2 0.850000 3.105485 27.1381 1.215870 0.051414
5011.52 5011.51 0.860000 3.095913 27.5161 1.244657 0.053236
5012.84 5012.83 0.880000 3.088701 28.2089 1.285218 0.055345
5014.19 5014.18 0.890000 3.083155 28.5827 1.309492 0.056888
5015.55 5015.54 0.900000 3.079107 28.9535 1.331867 0.058256
5016.94 5016.93 0.910000 3.076781 29.3309 1.352372 0.059723
5018.34 5018.33 0.930000 3.074374 30.0436 1.388578 0.062065
5019.76 5019.75 0.940000 3.071085 30.432 1.411158 0.063221
5021.2 5021.19 0.950000 3.066692 30.8252 1.435690 0.065038
5022.65 5022.65 0.960000 3.062199 31.2838 1.463582 0.066892
5024.14 5024.13 0.980000 3.058880 32.0129 1.502694 0.068285
5025.63 5025.63 0.990000 3.056214 32.4026 1.525044 0.068766
5027.15 5027.14 1.000000 3.053864 32.7996 1.547389 0.070160
5028.69 5028.68 1.010000 3.051677 33.203 1.569833 0.070546
5030.25 5030.24 1.030000 3.049066 33.9209 1.607958 0.071259
5031.82 5031.81 1.040000 3.045865 34.3247 1.632329 0.071185
5033.41 5033.4 1.050000 3.043309 34.7295 1.655817 0.070599
5035.01 5035.01 1.060000 3.040087 35.128 1.680202 0.070209
5036.66 5036.65 1.080000 3.037572 35.8682 1.719942 0.070738
5038.3 5038.3 1.090000 3.034391 36.2784 1.745131 0.071349
5039.96 5039.97 1.100000 3.032313 36.6891 1.768552 0.072040
5041.65 5041.65 1.110000 3.030418 37.1017 1.791841 0.073495
5043.36 5043.36 1.130000 3.029437 37.8489 1.829720 0.075719
5045.09 5045.09 1.140000 3.028639 38.268 1.851464 0.077441
5046.83 5046.83 1.150000 3.027623 38.684 1.873498 0.080274
5048.6 5048.6 1.160000 3.025937 39.1064 1.897146 0.082908
5050.38 5050.38 1.180000 3.024027 39.8775 1.938256 0.086591
5052.18 5052.18 1.190000 3.021453 40.2991 1.963781 0.089804
5054 5054 1.200000 3.018527 40.7355 1.990873 0.092618
5055.84 5055.84 1.210000 3.015997 41.1732 2.017356 0.094822
5057.7 5057.7 1.230000 3.013236 41.9545 2.061327 0.097344
5059.57 5059.58 1.240000 3.010672 42.3999 2.088549 0.099096
5061.48 5061.48 1.250000 3.007305 42.8385 2.117293 0.100762
5063.4 5063.4 1.260000 3.003466 43.2862 2.147636 0.102621
5065.33 5065.33 1.280000 2.999223 44.0881 2.196742 0.105694
5067.29 5067.29 1.290000 2.994840 44.5443 2.229208 0.108228
5069.26 5069.26 1.300000 2.991092 44.9979 2.260368 0.110713
5071.26 5071.26 1.310000 2.987223 45.456 2.292230 0.112565
5073.27 5073.27 1.330000 2.982633 46.2718 2.344108 0.115079
5075.3 5075.3 1.340000 2.977715 46.7322 2.379103 0.116438
5077.35 5077.35 1.350000 2.972458 47.2001 2.415575 0.116988
5079.42 5079.42 1.360000 2.967110 47.6744 2.452926 0.117184
5081.51 5081.51 1.380000 2.961672 48.4983 2.508945 0.118437
5083.6 5083.61 1.390000 2.956601 48.9941 2.547430 0.118386
5085.74 5085.74 1.400000 2.951429 49.5643 2.590483 0.117779
5087.89 5087.89 1.410000 2.946147 50.0454 2.629463 0.118426
5090.05 5090.05 1.430000 2.940759 50.8867 2.688116 0.119654
5092.23 5092.23 1.440000 2.935709 51.385 2.728180 0.121909
5094.44 5094.44 1.450000 2.930697 51.896 2.769181 0.126039
5096.66 5096.66 1.460000 2.925851 52.3987 2.809590 0.130763
5098.9 5098.9 1.480000 2.921095 53.2708 2.869962 0.137746
5101.16 5101.16 1.490000 2.916535 53.7703 2.910116 0.143956
5103.44 5103.44 1.500000 2.912033 54.2971 2.951893 0.149463
5105.74 5105.74 1.510000 2.906983 54.8214 2.995472 0.154044
5108.05 5108.05 1.530000 2.902774 55.7022 3.056422 0.157660
5110.39 5110.39 1.540000 2.898555 56.2279 3.098316 0.159890
5112.74 5112.74 1.550000 2.894452 56.7604 3.140521 0.162597
5115.12 5115.12 1.560000 2.890450 57.2978 3.182957 0.165187
5117.52 5117.51 1.580000 2.886190 58.1996 3.246874 0.168828
5119.92 5119.92 1.590000 2.882043 58.7473 3.291048 0.171608
5122.35 5122.35 1.600000 2.878221 59.3946 3.340043 0.174945
5124.8 5124.8 1.610000 2.874736 59.9626 3.383746 0.178465
5127.27 5127.27 1.630000 2.870790 60.8906 3.449687 0.182700
5129.76 5129.76 1.640000 2.866814 61.453 3.495441 0.185667
5132.27 5132.27 1.650000 2.862678 62.0119 3.541849 0.188952
5134.79 5134.79 1.660000 2.858094 62.573 3.590324 0.191770
5137.34 5137.34 1.680000 2.853572 63.5225 3.661320 0.194915
5139.9 5139.9 1.690000 2.848641 64.1157 3.713769 0.196708
5142.49 5142.49 1.700000 2.844172 64.8167 3.771192 0.198512
5145.09 5145.09 1.710000 2.839101 65.4233 3.825840 0.200366
5147.71 5147.71 1.730000 2.834124 66.3901 3.901769 0.203332
5150.35 5150.35 1.740000 2.828821 66.9888 3.957845 0.206623
5153.01 5153.01 1.750000 2.823644 67.589 4.014049 0.210581
5155.69 5155.69 1.760000 2.818798 68.1829 4.069009 0.215673
5158.39 5158.39 1.780000 2.813789 69.1679 4.148514 0.222523
5161.11 5161.11 1.790000 2.808569 69.755 4.205611 0.228542
5163.84 5163.84 1.800000 2.803481 70.3635 4.263950 0.233901
5166.6 5166.6 1.810000 2.798491 70.968 4.322086 0.238807
5169.37 5169.37 1.830000 2.793158 71.9513 4.405392 0.245834
5172.17 5172.17 1.840000 2.787741 72.5517 4.466291 0.252276
5174.98 5174.98 1.850000 2.782666 73.1364 4.525204 0.258479
5177.81 5177.81 1.860000 2.777327 73.7286 4.586259 0.265151
5180.66 5180.66 1.880000 2.772180 74.7379 4.673022 0.271755
5183.53 5183.53 1.890000 2.766702 75.3779 4.738939 0.276718
5186.42 5186.42 1.900000 2.761493 75.9865 4.802128 0.281475
5189.32 5189.32 1.910000 2.755809 76.597 4.868329 0.286357
5192.25 5192.25 1.930000 2.750606 77.613 4.958631 0.292563
5195.2 5195.2 1.940000 2.745234 78.2213 5.024385 0.297074
5198.16 5198.16 1.950000 2.739501 78.7883 5.089925 0.301080
5201.14 5201.14 1.960000 2.733643 79.4048 5.159898 0.306123
5204.15 5204.15 1.980000 2.727921 80.4677 5.258965 0.311858
5207.17 5207.17 1.990000 2.722144 81.1133 5.331875 0.316100
5210.21 5210.21 2.000000 2.716354 81.7399 5.404243 0.320487
5213.27 5213.27 2.010000 2.710815 82.3588 5.475432 0.325690
5216.35 5216.35 2.030000 2.705049 83.4152 5.577736 0.333403
5219.45 5219.45 2.040000 2.699517 84.0767 5.653137 0.340057
5222.56 5222.56 2.050000 2.693879 84.7547 5.730939 0.347176
5225.7 5225.7 2.060000 2.688518 85.4214 5.807081 0.352799
5228.85 5228.85 2.080000 2.683137 86.6683 5.923638 0.361910
5232.03 5232.03 2.090000 2.677794 87.3569 6.002700 0.369037
5235.22 5235.22 2.100000 2.672265 88.0517 6.083982 0.376754
5238.43 5238.43 2.110000 2.666870 88.7587 6.166015 0.384481
5241.66 5241.66 2.130000 2.661275 89.8579 6.277407 0.394964
5244.92 5244.92 2.140000 2.655962 90.4969 6.355708 0.403125
5248.18 5248.18 2.150000 2.650780 90.6545 6.399866 0.409436
5251.47 5251.47 2.160000 2.645118 91.4524 6.492850 0.418654
5254.78 5254.78 2.180000 2.639226 92.9309 6.636803 0.430723
5258.11 5258.11 2.190000 2.633400 93.7674 6.735678 0.439635
5261.45 5261.45 2.200000 2.627435 94.4809 6.827544 0.448907
5264.82 5264.82 2.210000 2.621280 95.2589 6.926257 0.457219
5268.2 5268.2 2.230000 2.615289 96.6654 7.070755 0.468442
5271.6 5271.6 2.240000 2.609450 97.4253 7.168090 0.476010
5275.03 5275.03 2.250000 2.603293 98.2673 7.274668 0.484500
5278.47 5278.47 2.260000 2.597109 97.9392 7.295362 0.487252
5281.93 5281.93 2.280000 2.591522 100.195 7.505219 0.502009
5285.4 5285.4 2.290000 2.585334 101.028 7.614564 0.511186
5288.9 5288.9 2.300000 2.579371 101.767 7.716139 0.520378
5292.42 5292.42 2.310000 2.573242 102.503 7.819741 0.530175
5295.96 5295.96 2.330000 2.567081 103.733 7.962471 0.542880
5299.51 5299.51 2.340000 2.561239 104.409 8.061267 0.552917
5303.09 5303.09 2.350000 2.555220 105.155 8.167932 0.563994
5306.68 5306.68 2.360000 2.549384 105.953 8.278098 0.574679
5310.29 5310.29 2.380000 2.543312 107.207 8.427098 0.587929
5313.92 5313.92 2.390000 2.537095 107.966 8.539640 0.598573
5317.57 5317.57 2.400000 2.530900 108.727 8.653285 0.610380
5321.24 5321.24 2.410000 2.524371 109.277 8.754062 0.621253
5324.93 5324.93 2.430000 2.518265 110.35 8.894143 0.635201
5328.64 5328.64 2.440000 2.512525 110.888 8.988986 0.646132
5332.36 5332.36 2.450000 2.507037 111.47 9.085847 0.656910
5336.11 5336.11 2.460000 2.500178 112.268 9.213901 0.670854
5339.87 5339.87 2.480000 2.493919 113.502 9.373635 0.687629
5343.66 5343.66 2.490000 2.487739 114.226 9.491882 0.701053
5347.46 5347.46 2.500000 2.481354 114.815 9.601983 0.713234
5351.28 5351.28 2.510000 2.475047 115.281 9.701905 0.724649
5355.12 5355.12 2.530000 2.469439 115.679 9.790189 0.735578
5358.98 5358.98 2.540000 2.462622 117.335 9.998295 0.754724
5362.86 5362.86 2.550000 2.455853 117.987 10.1222 0.766984
5366.76 5366.76 2.560000 2.449225 118.538 10.237 0.778743
5370.68 5370.68 2.580000 2.443207 119.531 10.3851 0.793078
5374.61 5374.61 2.590000 2.437014 120.119 10.501 0.805697
5378.57 5378.57 2.600000 2.430664 120.685 10.6176 0.818726
5382.54 5382.54 2.610000 2.424211 121.565 10.7643 0.834299
5386.54 5386.54 2.630000 2.417892 122.555 10.9207 0.852286
5390.55 5390.55 2.640000 2.411368 123.007 11.0329 0.865383
5394.58 5394.58 2.650000 2.404723 123.571 11.1573 0.879831
5398.63 5398.63 2.660000 2.398445 123.778 11.2463 0.892335
5402.7 5402.7 2.680000 2.391799 124.872 11.4214 0.911586
5406.79 5406.79 2.690000 2.385217 125.269 11.5334 0.925696
5410.9 5410.9 2.700000 2.378639 125.735 11.6527 0.940952
5415.02 5415.02 2.710000 2.372116 126.43 11.7939 0.958099
5419.17 5419.17 2.730000 2.365562 127.171 11.9409 0.976475
5423.33 5423.33 2.740000 2.359042 128.001 12.0975 0.994794
5427.52 5427.52 2.750000 2.352499 128.507 12.225 1.011676
5431.72 5431.72 2.760000 2.345930 129.001 12.3529 1.029197
5435.94 5435.94 2.780000 2.339432 130.003 12.53 1.049599
5440.18 5440.18 2.790000 2.332777 130.579 12.6695 1.067741
5444.44 5444.44 2.800000 2.326020 131.17 12.8132 1.086218
5448.72 5448.72 2.810000 2.319387 131.756 12.956 1.104569
5453.02 5453.02 2.830000 2.313042 132.868 13.1486 1.126633
5457.34 5457.34 2.840000 2.306244 133.516 13.3028 1.146202
5461.67 5461.67 2.850000 2.299604 134.226 13.4627 1.165568
5466.03 5466.03 2.860000 2.292699 134.969 13.631 1.186728
5470.4 5470.4 2.880000 2.285999 136.195 13.8472 1.211844
5474.8 5474.8 2.890000 2.279384 136.984 14.0199 1.233992
5479.21 5479.21 2.900000 2.272774 137.741 14.1909 1.255844
5483.64 5483.64 2.910000 2.266250 138.519 14.3644 1.278161
5488.09 5488.09 2.930000 2.259663 139.762 14.5892 1.304602
5492.56 5492.56 2.940000 2.253100 140.579 14.771 1.329170
5497.05 5497.05 2.950000 2.246444 141.402 14.9568 1.353213
5501.56 5501.56 2.960000 2.239846 142.198 15.1406 1.377936
5506.08 5506.08 2.980000 2.233306 143.498 15.3792 1.407321
5510.63 5510.63 2.990000 2.226720 144.29 15.5662 1.432209
5515.19 5515.19 3.000000 2.220127 145.207 15.7688 1.459023
5519.78 5519.78 3.010000 2.213693 146.096 15.9677 1.485957
5524.38 5524.38 3.030000 2.207203 147.452 16.2208 1.518362
5529 5529 3.040000 2.200592 148.392 16.4325 1.546825
5533.64 5533.64 3.050000 2.193744 149.332 16.6503 1.577276
5538.3 5538.3 3.060000 2.187115 150.324 16.8724 1.607743
5542.98 5542.98 3.080000 2.180375 151.874 17.1617 1.644361
5547.68 5547.68 3.090000 2.173622 152.859 17.3899 1.675608
5552.4 5552.4 3.100000 2.166785 153.817 17.619 1.707505
5557.13 5557.13 3.110000 2.160003 154.784 17.8505 1.739845
5561.89 5561.89 3.130000 2.153275 156.212 18.1367 1.777250
5566.66 5566.66 3.140000 2.146537 157.165 18.3708 1.810531
5571.46 5571.46 3.150000 2.139720 158.133 18.6103 1.844500
5576.27 5576.27 3.160000 2.133004 159.494 18.897 1.883722
5581.1 5581.1 3.180000 2.126361 161.314 19.24 1.928515
5585.95 5585.95 3.190000 2.119667 162.284 19.4857 1.964396
5590.82 5590.82 3.200000 2.112868 163.203 19.7297 1.999917
5595.71 5595.71 3.210000 2.106321 164.11 19.9697 2.035706
5600.62 5600.62 3.230000 2.099635 165.571 20.2826 2.079706
5605.54 5605.54 3.240000 2.092723 166.444 20.531 2.116226
5610.49 5610.49 3.250000 2.085941 167.36 20.7845 2.154917
5615.45 5615.45 3.260000 2.079173 168.275 21.0401 2.194413
5620.44 5620.44 3.280000 2.072365 169.687 21.3615 2.240810
5625.44 5625.44 3.290000 2.065731 169.797 21.5175 2.270371
5630.46 5630.46 3.300000 2.058918 170.525 21.7577 2.309991
5635.5 5635.5 3.310000 2.052312 171.183 21.9862 2.347617
5640.56 5640.56 3.330000 2.045415 172.67 22.3308 2.398229
5645.64 5645.64 3.340000 2.038062 173.421 22.5935 2.440912
5650.74 5650.74 3.350000 2.031666 174.192 22.8395 2.482445
5655.86 5655.86 3.360000 2.024733 175.06 23.113 2.526810
5660.99 5660.99 3.380000 2.017319 176.656 23.4973 2.583683
5666.15 5666.15 3.390000 2.011030 177.779 23.7959 2.630968
5671.32 5671.32 3.400000 2.004152 178.876 24.1078 2.680792
5676.52 5676.52 3.410000 1.997377 180.193 24.4505 2.735176
5681.73 5681.73 3.430000 1.990531 181.93 24.8558 2.796805
5686.96 5686.96 3.440000 1.983792 182.981 25.1685 2.847525
5692.21 5692.21 3.450000 1.977064 183.891 25.4643 2.899011
5697.48 5697.48 3.460000 1.970151 184.938 25.7869 2.952332
5702.77 5702.77 3.480000 1.963320 186.747 26.2178 3.019246
5708.08 5708.08 3.490000 1.956566 187.602 26.5162 3.072120