File: xdidata/Ti/Ti-K-TiN.xdi
# XDI/1.0 BlueSky/1.5.0
# Beamline.name: 6BM
# Beamline.xray_source: NSLS-II three-pole wiggler
# Beamline.collimation: paraboloid mirror, 5 nm Rh on 30 nm Pt
# Beamline.focusing: not in use
# Beamline.harmonic_rejection: flat mirror, Si stripe, pitch = 7.0 mrad relative to beam
# Detector.i0: 10 cm N2
# Detector.i1: 25 cm N2
# Detector.i2: 25 cm N2
# Element.symbol: Ti
# Element.edge: K
# Facility.name: NSLS-II
# Facility.energy: 3.0
# Facility.current: 219.1
# Facility.mode: top-off
# Facility.gup: 301027
# Facility.saf: 304156
# Mono.name: Si(111)
# Mono.d_spacing: 3.13532
# Mono.encoder_resolution: 0.0000050 deg/ct
# Mono.angle_offset: 16.0577 deg
# Mono.scan_mode: pseudo channel cut
# Mono.scan_type: step
# Mono.direction: forward in energy
# Sample.name: Ti nitride
# Sample.prep: powder on tape
# Sample.x_position: -97.500 mm
# Sample.y_position: 115.250 mm
# Sample.wheel_position: 45.000 mm
# Scan.experimenters: Bruce Ravel
# Scan.edge_energy: 4966.0
# Scan.start_time: 2019-06-16T13:11:58
# Scan.end_time: 2019-06-16T15:40:46
# Scan.transient_id: 10612
# Scan.uid: 204f3191-beaf-4c1d-b181-097e120b6375
# Scan.plot_hint: ln(I0/It)  --  ln($5/$6)
# Scan.sequence: merge of 9 scans
# Column.1: energy eV
# Column.2: requested_energy eV
# Column.3: measurement_time seconds
# Column.4: mutrans
# Column.5: i0
# Column.6: itrans
# Column.7: irefer
# /////
#  TiN standard
# -----
# energy   requested_energy   measurement_time   mutrans   i0   itrans   irefer
4765.99 4766 0.500000 3.187610 8.262805 0.341010 0.022627
4776.02 4776 0.500000 3.163588 8.458384 0.357575 0.024370
4786.01 4786 0.500000 3.140175 8.669619 0.375180 0.026158
4796.01 4796 0.500000 3.116731 8.878955 0.393352 0.027729
4806.01 4806 0.500000 3.093536 9.092931 0.412284 0.029626
4815.99 4816 0.500000 3.070789 9.303597 0.431534 0.031437
4826 4826 0.500000 3.048227 9.519446 0.451624 0.033697
4836 4836 0.500000 3.025807 9.731486 0.472131 0.035765
4846.01 4846 0.500000 3.003240 9.955417 0.494058 0.038009
4856 4856 0.500000 2.981415 10.1749 0.516075 0.040490
4866 4866 0.500000 2.959307 10.4026 0.539417 0.043086
4876 4876 0.500000 2.937276 10.6402 0.564031 0.045596
4886 4886 0.500000 2.915851 10.8668 0.588516 0.048181
4896 4896 0.500000 2.894050 11.1059 0.614724 0.051370
4906 4906 0.500000 2.872550 11.3337 0.640970 0.054433
4916 4916 0.500000 2.851349 11.5643 0.668026 0.057565
4926 4926 0.500000 2.830558 11.8011 0.696021 0.060839
4935.99 4936 0.500000 2.809807 12.0453 0.725321 0.064490
4937.99 4938 0.500000 2.805804 12.0871 0.730758 0.065138
4939.99 4940 0.500000 2.801667 12.1324 0.736535 0.065901
4942 4942 0.500000 2.797508 12.194 0.743368 0.066621
4944 4944 0.500000 2.793501 12.239 0.749102 0.067296
4946 4946 0.500000 2.789661 12.2804 0.754530 0.067901
4948 4948 0.500000 2.785681 12.3131 0.759554 0.068530
4950 4950 0.500000 2.781667 12.3594 0.765480 0.069433
4952 4952 0.500000 2.777635 12.4055 0.771441 0.070042
4954 4954 0.500000 2.773847 12.4434 0.776736 0.070690
4956 4956 0.500000 2.769938 12.4826 0.782234 0.071176
4956.24 4956.25 0.500000 2.769660 12.4899 0.782908 0.071401
4956.49 4956.5 0.500000 2.769056 12.4882 0.783279 0.071435
4956.74 4956.75 0.500000 2.768499 12.4905 0.783859 0.071498
4956.99 4957 0.500000 2.767852 12.4959 0.784702 0.071461
4957.24 4957.25 0.500000 2.767751 12.4989 0.784970 0.071501
4957.49 4957.5 0.500000 2.767248 12.5043 0.785704 0.071638
4957.74 4957.75 0.500000 2.766686 12.5204 0.787158 0.071757
4957.99 4958 0.500000 2.766135 12.5259 0.787936 0.071805
4958.24 4958.25 0.500000 2.765690 12.5443 0.789449 0.072051
4958.5 4958.5 0.500000 2.765289 12.5483 0.790021 0.072045
4958.75 4958.75 0.500000 2.764831 12.5548 0.790786 0.072189
4959 4959 0.500000 2.764412 12.5598 0.791437 0.072182
4959.24 4959.25 0.500000 2.763950 12.5659 0.792179 0.072148
4959.5 4959.5 0.500000 2.763571 12.5672 0.792566 0.072208
4959.75 4959.75 0.500000 2.763289 12.5711 0.793038 0.072092
4959.99 4960 0.500000 2.762593 12.577 0.793963 0.072276
4960.25 4960.25 0.500000 2.762318 12.5803 0.794386 0.072309
4960.5 4960.5 0.500000 2.761948 12.5856 0.795015 0.072312
4960.75 4960.75 0.500000 2.761456 12.5917 0.795802 0.072344
4961 4961 0.500000 2.760816 12.5944 0.796471 0.072337
4961.25 4961.25 0.500000 2.760536 12.6005 0.797081 0.072245
4961.49 4961.5 0.500000 2.760140 12.6046 0.797654 0.072289
4961.75 4961.75 0.500000 2.759683 12.608 0.798243 0.072370
4962 4962 0.500000 2.759359 12.6143 0.798894 0.072202
4962.25 4962.25 0.500000 2.758995 12.6206 0.799590 0.072261
4962.5 4962.5 0.500000 2.758715 12.6249 0.800084 0.072119
4962.75 4962.75 0.500000 2.758409 12.6309 0.800707 0.071874
4963 4963 0.500000 2.758022 12.6351 0.801289 0.071710
4963.25 4963.25 0.500000 2.757481 12.6446 0.802318 0.071221
4963.49 4963.5 0.500000 2.757382 12.6632 0.803580 0.070889
4963.75 4963.75 0.500000 2.757072 12.6688 0.804182 0.069942
4964 4964 0.500000 2.756787 12.6735 0.804711 0.068714
4964.25 4964.25 0.500000 2.757082 12.6755 0.804604 0.066580
4964.5 4964.5 0.500000 2.756702 12.6793 0.805147 0.063394
4964.74 4964.75 0.500000 2.756988 12.6828 0.805140 0.058652
4965 4965 0.500000 2.757476 12.6883 0.805098 0.053893
4965.25 4965.25 0.500000 2.758234 12.6926 0.804762 0.050612
4965.5 4965.5 0.500000 2.759744 12.6956 0.803733 0.048937
4965.75 4965.75 0.500000 2.762156 12.7002 0.802113 0.049196
4966 4966 0.500000 2.764295 12.7069 0.800810 0.050599
4966.25 4966.25 0.500000 2.766408 12.7092 0.799248 0.052264
4966.5 4966.5 0.500000 2.768168 12.7101 0.797903 0.054186
4966.75 4966.75 0.500000 2.770192 12.7125 0.796408 0.055149
4967 4967 0.500000 2.772395 12.7163 0.794912 0.055879
4967.25 4967.25 0.500000 2.774555 12.718 0.793313 0.055794
4967.5 4967.5 0.500000 2.776973 12.7209 0.791570 0.055494
4967.75 4967.75 0.500000 2.779529 12.7281 0.790029 0.054617
4968 4968 0.500000 2.782069 12.7327 0.788285 0.053791
4968.25 4968.25 0.500000 2.784360 12.7351 0.786606 0.052749
4968.5 4968.5 0.500000 2.786629 12.741 0.785206 0.051710
4968.75 4968.75 0.500000 2.789316 12.7418 0.783135 0.050586
4969 4969 0.500000 2.791843 12.746 0.781436 0.049849
4969.25 4969.25 0.500000 2.793986 12.7463 0.779786 0.049192
4969.5 4969.5 0.500000 2.796229 12.7498 0.778256 0.048554
4969.75 4969.75 0.500000 2.797719 12.7498 0.777108 0.048093
4970 4970 0.500000 2.798729 12.7549 0.776618 0.047723
4970.25 4970.25 0.500000 2.798830 12.7612 0.776921 0.047578
4970.5 4970.5 0.500000 2.798170 12.7705 0.778003 0.047553
4970.75 4970.75 0.500000 2.797718 12.781 0.778991 0.047496
4971 4971 0.500000 2.797680 12.7891 0.779512 0.047166
4971.25 4971.25 0.500000 2.797923 12.7949 0.779661 0.046614
4971.5 4971.5 0.500000 2.799640 12.8023 0.778797 0.045990
4971.75 4971.75 0.500000 2.802263 12.8074 0.777058 0.045055
4972 4972 0.500000 2.806880 12.8134 0.773789 0.044228
4972.25 4972.25 0.500000 2.813099 12.8167 0.769187 0.042856
4972.5 4972.5 0.500000 2.821070 12.8201 0.763306 0.041616
4972.75 4972.75 0.500000 2.829965 12.8248 0.756790 0.040396
4973 4973 0.500000 2.839385 12.8287 0.749956 0.039184
4973.25 4973.25 0.500000 2.848724 12.8337 0.743295 0.037829
4973.5 4973.5 0.500000 2.857909 12.8376 0.736794 0.036718
4973.75 4973.75 0.500000 2.866815 12.8389 0.730352 0.035787
4974 4974 0.500000 2.874585 12.8557 0.725564 0.034936
4974.25 4974.25 0.500000 2.881856 12.8604 0.720606 0.033951
4974.5 4974.5 0.500000 2.888403 12.8629 0.716011 0.032982
4974.75 4974.75 0.500000 2.894376 12.8651 0.711841 0.032094
4975 4975 0.500000 2.899902 12.8657 0.707990 0.031341
4975.25 4975.25 0.500000 2.905108 12.8683 0.704447 0.030571
4975.5 4975.5 0.500000 2.910014 12.869 0.701057 0.029929
4975.75 4975.75 0.500000 2.915041 12.8678 0.697455 0.029118
4976 4976 0.500000 2.919490 12.8684 0.694395 0.028596
4976.25 4976.25 0.500000 2.924436 12.8702 0.691074 0.027837
4976.5 4976.5 0.500000 2.929267 12.8708 0.687741 0.027214
4976.75 4976.75 0.500000 2.934795 12.8714 0.684021 0.026645
4977 4977 0.500000 2.940379 12.874 0.680326 0.026265
4977.25 4977.25 0.500000 2.946762 12.8737 0.675988 0.025532
4977.5 4977.5 0.500000 2.953608 12.8774 0.671618 0.025272
4977.75 4977.75 0.500000 2.961033 12.8819 0.666856 0.024775
4978 4978 0.500000 2.968544 12.8816 0.661821 0.024208
4978.25 4978.25 0.500000 2.975671 12.8877 0.657423 0.023996
4978.5 4978.5 0.500000 2.983339 12.902 0.653104 0.023577
4978.75 4978.75 0.500000 2.991716 12.903 0.647739 0.023252
4979 4979 0.500000 3.000522 12.9048 0.642115 0.022975
4979.25 4979.25 0.500000 3.009580 12.919 0.637058 0.022642
4979.5 4979.5 0.500000 3.020085 12.9178 0.630371 0.022466
4979.75 4979.75 0.500000 3.032012 12.9296 0.623451 0.021883
4980 4980 0.500000 3.043521 12.9304 0.616338 0.021646
4980.25 4980.25 0.500000 3.055665 12.93 0.608894 0.021218
4980.5 4980.5 0.500000 3.067484 12.9277 0.601635 0.021022
4980.75 4980.75 0.500000 3.080208 12.9272 0.593984 0.020622
4981 4981 0.500000 3.092162 12.9392 0.587527 0.020333
4981.25 4981.25 0.500000 3.103573 12.9419 0.580917 0.020045
4981.5 4981.5 0.500000 3.114868 12.9485 0.574732 0.019811
4981.75 4981.75 0.500000 3.126257 12.9475 0.568211 0.019566
4982 4982 0.500000 3.137534 12.951 0.561989 0.019078
4982.25 4982.25 0.500000 3.148368 12.9534 0.555950 0.018985
4982.5 4982.5 0.500000 3.158840 12.9553 0.550266 0.018632
4982.75 4982.75 0.500000 3.168495 12.9581 0.545119 0.018375
4983 4983 0.500000 3.176679 12.9618 0.540788 0.018182
4983.25 4983.25 0.500000 3.182728 12.9639 0.537637 0.018042
4983.5 4983.5 0.500000 3.185862 12.9624 0.535916 0.018065
4983.75 4983.75 0.500000 3.186458 12.9635 0.535629 0.018131
4984 4984 0.500000 3.183839 12.9632 0.537007 0.018062
4984.25 4984.25 0.500000 3.178634 12.9636 0.539836 0.018297
4984.5 4984.5 0.500000 3.171008 12.9648 0.543991 0.018571
4984.75 4984.75 0.500000 3.161800 12.9681 0.549212 0.018683
4985 4985 0.500000 3.151913 12.9847 0.555396 0.018894
4985.25 4985.25 0.500000 3.141815 12.9874 0.561116 0.019328
4985.5 4985.5 0.500000 3.131789 13.0047 0.567485 0.019508
4985.75 4985.75 0.500000 3.121740 13.006 0.573295 0.020079
4986 4986 0.500000 3.112344 13.0066 0.578716 0.020234
4986.25 4986.25 0.500000 3.103973 13.0079 0.583656 0.020549
4986.5 4986.5 0.500000 3.095707 13.0088 0.588527 0.020799
4986.75 4986.75 0.500000 3.087748 13.0085 0.593274 0.021064
4987 4987 0.500000 3.080556 13.0079 0.597495 0.021225
4987.25 4987.25 0.500000 3.073634 13.0075 0.601650 0.021360
4987.5 4987.5 0.500000 3.067000 13.0083 0.605646 0.021669
4987.75 4987.75 0.500000 3.060457 13.0081 0.609605 0.021740
4988 4988 0.500000 3.054628 13.0109 0.613311 0.021880
4988.25 4988.25 0.500000 3.049025 13.0197 0.617200 0.022269
4988.5 4988.5 0.500000 3.044301 13.0285 0.620566 0.022311
4988.75 4988.75 0.500000 3.039904 13.0374 0.623699 0.022249
4989 4989 0.500000 3.035963 13.0459 0.626597 0.022579
4989.25 4989.25 0.500000 3.032799 13.0576 0.629114 0.022648
4989.5 4989.5 0.500000 3.030266 13.0694 0.631280 0.022658
4989.75 4989.75 0.500000 3.028119 13.0807 0.633191 0.022670
4990 4990 0.500000 3.026209 13.0938 0.635034 0.023002
4990.25 4990.25 0.500000 3.025480 13.104 0.635998 0.023034
4990.5 4990.5 0.500000 3.024616 13.1271 0.637669 0.023149
4990.75 4990.75 0.500000 3.024521 13.1405 0.638380 0.023001
4991 4991 0.500000 3.025171 13.1675 0.639276 0.023017
4991.25 4991.25 0.500000 3.025965 13.1785 0.639307 0.023182
4991.5 4991.5 0.500000 3.027062 13.1874 0.639037 0.023352
4991.75 4991.75 0.500000 3.029016 13.1969 0.638248 0.023285
4992 4992 0.500000 3.031320 13.203 0.637069 0.023239
4992.25 4992.25 0.500000 3.033920 13.2111 0.635788 0.023226
4992.5 4992.5 0.500000 3.037090 13.218 0.634116 0.023154
4992.75 4992.75 0.500000 3.040348 13.2238 0.632325 0.023232
4993 4993 0.500000 3.044220 13.2317 0.630276 0.023039
4993.25 4993.25 0.500000 3.047432 13.2358 0.628462 0.023010
4993.5 4993.5 0.500000 3.051131 13.2437 0.626487 0.022945
4993.75 4993.75 0.500000 3.055142 13.2491 0.624244 0.022844
4994.01 4994 0.500000 3.058675 13.2532 0.622199 0.022775
4994.25 4994.25 0.500000 3.061994 13.2559 0.620285 0.022604
4994.5 4994.5 0.500000 3.064903 13.2595 0.618654 0.022361
4994.75 4994.75 0.500000 3.067827 13.2648 0.617089 0.022327
4995 4995 0.500000 3.069859 13.2691 0.616056 0.022288
4995.25 4995.25 0.500000 3.071703 13.2725 0.615089 0.022124
4995.5 4995.5 0.500000 3.073049 13.2753 0.614383 0.021958
4995.75 4995.75 0.500000 3.074128 13.2796 0.613919 0.021783
4996 4996 0.700000 3.074930 18.5975 0.859073 0.030261
4997.09 4997.08 0.710000 3.074808 18.8789 0.872177 0.030050
4998.19 4998.18 0.730000 3.069497 19.4178 0.901907 0.030073
4999.29 4999.29 0.740000 3.059907 19.7025 0.923861 0.030508
5000.44 5000.43 0.750000 3.047888 20.0057 0.949477 0.031304
5001.58 5001.58 0.760000 3.034656 20.3222 0.977265 0.032261
5002.76 5002.76 0.780000 3.020920 20.9075 1.019326 0.033943
5003.95 5003.95 0.790000 3.009281 21.2317 1.047294 0.035136
5005.16 5005.16 0.800000 2.999424 21.564 1.074202 0.036454
5006.39 5006.39 0.810000 2.988932 21.899 1.102395 0.038349
5007.65 5007.64 0.830000 2.975812 22.4972 1.147501 0.041223
5008.91 5008.91 0.840000 2.961208 22.825 1.181329 0.043539
5010.2 5010.2 0.850000 2.948037 23.1748 1.215321 0.045415
5011.51 5011.51 0.860000 2.938377 23.5078 1.244766 0.047172
5012.83 5012.83 0.880000 2.932237 24.1047 1.284237 0.049204
5014.18 5014.18 0.890000 2.928466 24.4311 1.306545 0.050528
5015.55 5015.54 0.900000 2.924971 24.7558 1.328551 0.051684
5016.93 5016.93 0.910000 2.920005 25.0903 1.353207 0.053329
5018.33 5018.33 0.930000 2.914551 25.7008 1.393707 0.055443
5019.76 5019.75 0.940000 2.910758 26.0418 1.417571 0.056901
5021.19 5021.19 0.950000 2.909725 26.384 1.437681 0.058295
5022.65 5022.65 0.960000 2.911977 26.7287 1.453193 0.059055
5024.13 5024.13 0.980000 2.916641 27.3576 1.480469 0.060269
5025.63 5025.63 0.990000 2.924411 27.7082 1.487828 0.060370
5027.14 5027.14 1.000000 2.934228 28.0594 1.491975 0.060257
5028.68 5028.68 1.010000 2.947118 28.4123 1.491378 0.059799
5030.24 5030.24 1.030000 2.962194 29.0815 1.503692 0.059602
5031.81 5031.81 1.040000 2.976609 29.4354 1.500195 0.058327
5033.4 5033.4 1.050000 2.985797 29.826 1.506197 0.057382
5035.02 5035.01 1.060000 2.987140 30.189 1.522484 0.056741
5036.66 5036.65 1.080000 2.980705 30.9006 1.568462 0.057492
5038.31 5038.3 1.090000 2.969798 31.281 1.605166 0.058253
5039.98 5039.97 1.100000 2.959309 31.648 1.641110 0.059765
5041.65 5041.65 1.110000 2.950431 32.0227 1.675348 0.061162
5043.36 5043.36 1.130000 2.940333 32.6888 1.727549 0.063685
5045.1 5045.09 1.140000 2.926522 33.0683 1.771958 0.066446
5046.84 5046.83 1.150000 2.910658 33.4481 1.820918 0.069752
5048.61 5048.6 1.160000 2.895038 33.8383 1.871180 0.073287
5050.39 5050.38 1.180000 2.882874 34.5178 1.932100 0.077442
5052.19 5052.18 1.190000 2.875650 34.9102 1.968223 0.081079
5054.01 5054 1.200000 2.873675 35.3068 1.994508 0.083493
5055.85 5055.84 1.210000 2.876425 35.7318 2.012962 0.085424
5057.71 5057.7 1.230000 2.881203 36.4697 2.044743 0.087336
5059.59 5059.58 1.240000 2.883630 36.888 2.063218 0.088178
5061.49 5061.48 1.250000 2.880603 37.2959 2.092393 0.089926
5063.4 5063.4 1.260000 2.872628 37.7088 2.132470 0.092222
5065.33 5065.33 1.280000 2.862549 38.433 2.195454 0.095908
5067.3 5067.29 1.290000 2.852203 38.8569 2.242816 0.098850
5069.25 5069.26 1.300000 2.842583 39.2751 2.288741 0.101368
5071.26 5071.26 1.310000 2.835086 39.7009 2.330997 0.103809
5073.27 5073.27 1.330000 2.830604 40.4368 2.384862 0.106463
5075.29 5075.3 1.340000 2.829330 40.8604 2.412900 0.107450
5077.34 5077.35 1.350000 2.832553 41.2889 2.430378 0.107255
5079.41 5079.42 1.360000 2.839673 41.7207 2.438367 0.106145
5081.5 5081.51 1.380000 2.846778 42.4828 2.465331 0.105673
5083.6 5083.61 1.390000 2.849668 42.9206 2.483543 0.104952
5085.73 5085.74 1.400000 2.846486 43.3528 2.516526 0.104405
5087.88 5087.89 1.410000 2.838737 43.8115 2.562954 0.104565
5090.04 5090.05 1.430000 2.826819 44.5837 2.639403 0.106948
5092.22 5092.23 1.440000 2.812556 45.0221 2.703614 0.110352
5094.44 5094.44 1.450000 2.799308 45.4732 2.767163 0.114791
5096.66 5096.66 1.460000 2.789784 45.9139 2.820694 0.119856
5098.9 5098.9 1.480000 2.784359 46.6742 2.883010 0.126441
5101.15 5101.16 1.490000 2.781888 47.1257 2.918087 0.131940
5103.44 5103.44 1.500000 2.780904 47.5876 2.949595 0.136599
5105.73 5105.74 1.510000 2.779987 48.0445 2.980648 0.140191
5108.05 5108.05 1.530000 2.777532 48.8178 3.036062 0.143492
5110.39 5110.39 1.540000 2.772225 49.2774 3.080956 0.146143
5112.74 5112.74 1.550000 2.765476 49.7469 3.131381 0.148783
5115.12 5115.12 1.560000 2.758491 50.2055 3.182377 0.151657
5117.51 5117.51 1.580000 2.752261 50.9901 3.252328 0.155378
5119.92 5119.92 1.590000 2.746645 51.4633 3.301007 0.158159
5122.35 5122.35 1.600000 2.741650 51.9307 3.347653 0.161411
5124.8 5124.8 1.610000 2.737448 52.3984 3.392033 0.164378
5127.27 5127.27 1.630000 2.734684 53.2379 3.455910 0.168777
5129.76 5129.76 1.640000 2.733511 53.7243 3.491576 0.171360
5132.27 5132.27 1.650000 2.733580 54.2232 3.523753 0.173513
5134.79 5134.79 1.660000 2.734476 54.7234 3.553077 0.175122
5137.34 5137.34 1.680000 2.735349 55.5227 3.601832 0.177267
5139.9 5139.9 1.690000 2.734947 55.9932 3.633814 0.177826
5142.49 5142.49 1.700000 2.731953 56.4626 3.675284 0.178848
5145.09 5145.09 1.710000 2.724638 56.925 3.732568 0.180630
5147.71 5147.71 1.730000 2.713383 57.7178 3.827404 0.184551
5150.35 5150.35 1.740000 2.700677 58.2338 3.910960 0.188666
5153.01 5153.01 1.750000 2.688498 58.6885 3.989807 0.193988
5155.69 5155.69 1.760000 2.677397 59.1527 4.066239 0.199905
5158.39 5158.39 1.780000 2.667880 59.9412 4.159886 0.207291
5161.11 5161.11 1.790000 2.660138 60.3809 4.222970 0.213062
5163.84 5163.84 1.800000 2.653500 60.9425 4.290637 0.218644
5166.6 5166.6 1.810000 2.647096 61.4004 4.350628 0.223801
5169.37 5169.37 1.830000 2.641368 62.1851 4.431545 0.230169
5172.17 5172.17 1.840000 2.636728 62.6257 4.483706 0.235935
5174.98 5174.98 1.850000 2.633257 63.0609 4.530568 0.241249
5177.81 5177.81 1.860000 2.630101 63.4911 4.575883 0.246374
5180.66 5180.66 1.880000 2.626935 64.2729 4.646929 0.252146
5183.53 5183.53 1.890000 2.623359 64.7237 4.696263 0.255974
5186.42 5186.42 1.900000 2.619809 65.1906 4.746968 0.259792
5189.32 5189.32 1.910000 2.616183 65.6371 4.796857 0.263614
5192.25 5192.25 1.930000 2.612029 66.4383 4.875596 0.268679
5195.2 5195.2 1.940000 2.607864 66.8888 4.929144 0.272239
5198.16 5198.16 1.950000 2.604014 67.2879 4.977705 0.275677
5201.14 5201.14 1.960000 2.599945 67.7076 5.029157 0.278858
5204.15 5204.15 1.980000 2.594764 68.4985 5.114346 0.283818
5207.17 5207.17 1.990000 2.588168 68.9716 5.183729 0.287633
5210.21 5210.21 2.000000 2.581150 69.4666 5.257730 0.292203
5213.27 5213.27 2.010000 2.574500 69.9285 5.328001 0.296994
5216.35 5216.35 2.030000 2.569305 70.6865 5.413806 0.303347
5219.45 5219.45 2.040000 2.565381 71.1169 5.468172 0.308385
5222.56 5222.56 2.050000 2.560916 71.5611 5.526968 0.313751
5225.7 5225.7 2.060000 2.554427 71.9817 5.595628 0.319325
5228.85 5228.85 2.080000 2.546527 72.7435 5.699715 0.327365
5232.03 5232.03 2.090000 2.538818 73.1823 5.778426 0.333871
5235.22 5235.22 2.100000 2.531417 73.6437 5.858086 0.341043
5238.43 5238.43 2.110000 2.523622 74.0835 5.939182 0.348634
5241.66 5241.66 2.130000 2.515498 74.8576 6.050189 0.358387
5244.92 5244.92 2.140000 2.507468 75.244 6.130434 0.366324
5248.18 5248.18 2.150000 2.500576 75.2432 6.172782 0.371605
5251.47 5251.47 2.160000 2.494898 75.7519 6.249894 0.379446
5254.78 5254.78 2.180000 2.489969 76.8334 6.370451 0.389798
5258.11 5258.11 2.190000 2.485376 77.3702 6.444487 0.397139
5261.45 5261.45 2.200000 2.480832 77.8881 6.517195 0.404019
5264.82 5264.82 2.210000 2.476106 78.3916 6.590357 0.410637
5268.2 5268.2 2.230000 2.471279 79.2717 6.696640 0.418966
5271.6 5271.6 2.240000 2.466794 79.8233 6.773519 0.425170
5275.03 5275.03 2.250000 2.462388 80.4105 6.853510 0.431281
5278.47 5278.47 2.260000 2.456895 79.9517 6.851894 0.432733
5281.93 5281.93 2.280000 2.450381 81.6233 7.040880 0.445751
5285.4 5285.4 2.290000 2.443812 82.2257 7.139586 0.453683
5288.9 5288.9 2.300000 2.437251 82.8209 7.238649 0.462014
5292.42 5292.42 2.310000 2.430555 83.3299 7.332020 0.471115
5295.96 5295.96 2.330000 2.423865 84.2348 7.461409 0.482536
5299.51 5299.51 2.340000 2.417768 84.7257 7.550783 0.491069
5303.09 5303.09 2.350000 2.411692 85.2776 7.646310 0.500707
5306.68 5306.68 2.360000 2.405468 85.7839 7.739654 0.509226
5310.29 5310.29 2.380000 2.398696 86.5322 7.860235 0.520309
5313.92 5313.92 2.390000 2.391558 87.0119 7.960492 0.529438
5317.57 5317.57 2.400000 2.384341 87.5155 8.064523 0.539913
5321.24 5321.24 2.410000 2.377525 88.0158 8.166107 0.550027
5324.93 5324.93 2.430000 2.370848 88.8895 8.302429 0.563128
5328.64 5328.64 2.440000 2.364178 89.4003 8.405970 0.573231
5332.36 5332.36 2.450000 2.357848 89.817 8.498812 0.583915
5336.11 5336.11 2.460000 2.352012 90.2923 8.593808 0.594565
5339.87 5339.87 2.480000 2.346658 91.35 8.741117 0.609387
5343.66 5343.66 2.490000 2.341725 91.9563 8.842674 0.620884
5347.46 5347.46 2.500000 2.336759 92.4654 8.935896 0.631374
5351.28 5351.28 2.510000 2.331941 92.872 9.018492 0.640986
5355.12 5355.12 2.530000 2.326833 93.5888 9.134682 0.653052
5358.98 5358.98 2.540000 2.320844 94.1679 9.246462 0.664197
5362.86 5362.86 2.550000 2.313562 95.346 9.430477 0.680127
5366.76 5366.76 2.560000 2.306142 95.9604 9.562007 0.692441
5370.68 5370.68 2.580000 2.298765 96.9587 9.732986 0.707671
5374.61 5374.61 2.590000 2.291622 97.5953 9.867128 0.720761
5378.57 5378.57 2.600000 2.284770 98.2686 10.0034 0.734828
5382.54 5382.54 2.610000 2.278274 98.9724 10.1408 0.749434
5386.54 5386.54 2.630000 2.271920 100.036 10.3151 0.766623
5390.55 5390.55 2.640000 2.265385 100.671 10.4486 0.781487
5394.58 5394.58 2.650000 2.258665 101.375 10.5926 0.796813
5398.63 5398.63 2.660000 2.252028 101.907 10.7191 0.811023
5402.7 5402.7 2.680000 2.245473 103.155 10.9218 0.831418
5406.79 5406.79 2.690000 2.239052 103.738 11.0543 0.846574
5410.9 5410.9 2.700000 2.232632 104.402 11.1967 0.862574
5415.02 5415.02 2.710000 2.226142 105.295 11.366 0.881086
5419.17 5419.17 2.730000 2.219394 106.141 11.5348 0.899801
5423.33 5423.33 2.740000 2.212560 107.042 11.7126 0.919670
5427.52 5427.52 2.750000 2.205608 107.746 11.8718 0.937849
5431.72 5431.72 2.760000 2.199024 108.408 12.0236 0.955668
5435.94 5435.94 2.780000 2.192788 109.464 12.2167 0.977579
5440.18 5440.18 2.790000 2.186755 110.172 12.3703 0.996010
5444.44 5444.44 2.800000 2.180795 110.844 12.52 1.013697
5448.72 5448.72 2.810000 2.174558 111.468 12.6692 1.031533
5453.02 5453.02 2.830000 2.168398 112.577 12.8744 1.054362
5457.34 5457.34 2.840000 2.162331 113.289 13.0346 1.073574
5461.67 5461.67 2.850000 2.156007 113.919 13.1903 1.092407
5466.03 5466.03 2.860000 2.149577 114.497 13.3426 1.110671
5470.4 5470.4 2.880000 2.143102 115.455 13.5417 1.133890
5474.8 5474.8 2.890000 2.136540 115.963 13.6909 1.152809
5479.21 5479.21 2.900000 2.129893 116.551 13.8521 1.172942
5483.64 5483.64 2.910000 2.123137 117.001 13.9998 1.192052
5488.09 5488.09 2.930000 2.116564 117.948 14.2063 1.216677
5492.56 5492.56 2.940000 2.109910 118.316 14.3457 1.236342
5497.05 5497.05 2.950000 2.103190 118.613 14.4787 1.255228
5501.56 5501.56 2.960000 2.096369 118.906 14.6138 1.274136
5506.08 5506.08 2.980000 2.089593 119.641 14.804 1.298094
5510.63 5510.63 2.990000 2.082606 119.844 14.9332 1.316916
5515.19 5515.19 3.000000 2.075456 119.991 15.0588 1.335851
5519.78 5519.78 3.010000 2.068358 120.128 15.1834 1.355239
5524.38 5524.38 3.030000 2.061609 120.591 15.3451 1.377522
5529 5529 3.040000 2.055177 120.704 15.4586 1.396101
5533.64 5533.64 3.050000 2.048950 120.699 15.5545 1.413538
5538.31 5538.3 3.060000 2.042784 120.652 15.6447 1.430333
5542.98 5542.98 3.080000 2.036419 120.964 15.7853 1.452335
5547.68 5547.68 3.090000 2.029858 120.886 15.8789 1.469733
5552.4 5552.4 3.100000 2.023090 120.823 15.9783 1.487209
5557.13 5557.13 3.110000 2.016262 120.721 16.0742 1.505043
5561.89 5561.89 3.130000 2.009480 121.197 16.2475 1.529972
5566.66 5566.66 3.140000 2.002922 121.251 16.3617 1.549563
5571.46 5571.46 3.150000 1.996372 121.126 16.4522 1.567620
5576.27 5576.27 3.160000 1.989613 120.966 16.5419 1.585489
5581.1 5581.1 3.180000 1.982727 121.279 16.6993 1.609810
5585.95 5585.95 3.190000 1.975690 121.238 16.8116 1.630172
5590.82 5590.82 3.200000 1.968665 121.178 16.9216 1.650435
5595.71 5595.71 3.210000 1.961832 121.145 17.0332 1.671228
5600.62 5600.62 3.230000 1.955020 121.54 17.2055 1.697979
5605.54 5605.54 3.240000 1.948106 121.669 17.3432 1.721578
5610.49 5610.49 3.250000 1.941218 121.818 17.4845 1.745973
5615.45 5615.45 3.260000 1.934321 122.034 17.6367 1.771053
5620.44 5620.44 3.280000 1.927404 122.478 17.8237 1.801103
5625.44 5625.44 3.290000 1.920442 122.057 17.8865 1.818479
5630.46 5630.46 3.300000 1.913322 122.255 18.0435 1.845477
5635.5 5635.5 3.310000 1.906529 122.426 18.1919 1.872270
5640.56 5640.56 3.330000 1.900005 123.145 18.4185 1.907198
5645.64 5645.64 3.340000 1.893407 123.506 18.5948 1.937559
5650.74 5650.74 3.350000 1.886748 123.864 18.7733 1.967595
5655.86 5655.86 3.360000 1.879931 124.467 18.9938 2.002898
5660.99 5660.99 3.380000 1.873212 125.516 19.283 2.045762
5666.15 5666.15 3.390000 1.866443 126.076 19.5006 2.081385
5671.32 5671.32 3.400000 1.859572 126.64 19.7228 2.117523
5676.52 5676.52 3.410000 1.852653 127.389 19.9772 2.157400
5681.73 5681.73 3.430000 1.845802 128.487 20.288 2.203999
5686.96 5686.96 3.440000 1.839093 129.111 20.5237 2.242930
5692.21 5692.21 3.450000 1.832373 129.747 20.7639 2.282654
5697.48 5697.48 3.460000 1.825612 130.395 21.0091 2.323412
5702.77 5702.77 3.480000 1.818750 131.346 21.3081 2.370695
5708.08 5708.08 3.490000 1.811949 131.969 21.5553 2.412232
5713.4 5713.4 3.500000 1.805122 132.805 21.8403 2.458912
5718.75 5718.75 3.510000 1.798266 133.453 22.098 2.502697
5724.12 5724.12 3.530000 1.791414 134.635 22.447 2.557480
5729.5 5729.5 3.540000 1.784538 135.31 22.7151 2.603137
5734.9 5734.9 3.550000 1.777679 135.931 22.9765 2.649398
5740.32 5740.32 3.560000 1.770767 136.565 23.2437 2.695936
5745.77 5745.77 3.580000 1.763743 137.575 23.5807 2.751920
5751.23 5751.23 3.590000 1.756929 138.271 23.862 2.801177
5756.7 5756.7 3.600000 1.750329 138.832 24.1175 2.848173
5762.2 5762.2 3.610000 1.743712 139.705 24.4302 2.902568
5767.72 5767.72 3.630000 1.737032 140.713 24.7715 2.961339
5773.26 5773.26 3.640000 1.730395 141.284 25.0376 3.010854
5778.81 5778.81 3.650000 1.723741 141.897 25.3141 3.062630
5784.39 5784.39 3.660000 1.717006 142.401 25.5757 3.113231
5789.98 5789.98 3.680000 1.710270 143.592 25.964 3.178882
5795.59 5795.59 3.690000 1.703545 144.248 26.2584 3.234332
5801.22 5801.22 3.700000 1.696850 144.762 26.529 3.287247
5806.87 5806.87 3.710000 1.690088 145.302 26.8087 3.341412
5812.54 5812.54 3.730000 1.683288 146.22 27.1623 3.405204
5818.23 5818.23 3.740000 1.676521 146.798 27.4546 3.462765