File: xdidata/Ti/Ti-K-TitaniumFoil.xdi
# XDI/1.0 BlueSky/1.10.0 BMM/2023-1.0-py310-tiled
# Beamline.name: BMM (06BM) -- Beamline for Materials Measurement (NIST)
# Beamline.xray_source: NSLS-II three-pole wiggler
# Beamline.collimation: paraboloid mirror, 5 nm Rh on 30 nm Pt
# Beamline.focusing: not in use
# Beamline.harmonic_rejection: flat mirror, Si stripe, pitch = 7.0 mrad relative to beam
# Beamline.software: Bluesky 1.10.0, Ophyd 1.7.0, DataBroker 2.0.0b13, Python 3.10.8, 2023-1.0-py310-tiled
# Detector.I0: 10 cm N2
# Detector.I1: 25 cm N2
# Detector.I2: 25 cm N2
# Element.symbol: Ti
# Element.edge: K
# Element.reference: Ti
# Element.reference_material: Ti foil
# Facility.name: NSLS-II
# Facility.energy: 3.0
# Facility.current: 400.3
# Facility.mode: top-off
# Facility.GUP: 301027
# Facility.SAF: 310583
# Facility.cycle: 2023-2
# Mono.name: Si(111)
# Mono.d_spacing: 3.13519
# Mono.encoder_resolution: 0.0000050 deg/ct
# Mono.angle_offset: 16.0754 deg
# Mono.scan_mode: pseudo channel cut
# Mono.scan_type: step
# Mono.direction: forward in energy
# Sample.name: Ti foil
# Sample.prep: reference foil
# Sample.x: 109.138 mm
# Sample.y: 153.150 mm
# Sample.SDD_position: 205.000 mm
# Scan.experimenters: Bruce Ravel
# Scan.edge_energy: 4966.4
# Scan.start_time: 2023-05-28T10:45:17
# Scan.end_time: 2023-05-28T10:53:20
# Scan.transient_id: 78609
# Scan.uid: 326d4dd8-c810-4d41-931a-3abae9d4b2f6
# Scan.plot_hint: ln(It/Ir)  --  ln($6/$7)
# Column.1: energy eV
# Column.2: requested_energy eV
# Column.3: measurement_time seconds
# Column.4: xmu
# Column.5: I0 nA
# Column.6: It nA
# Column.7: Ir nA
# ///////////
# standard reference foil
# -----------
# energy  requested_energy  measurement_time  xmu  I0  It  Ir
  4766.411  4766.400  0.500  3.399720  66.2294  13.1674  0.439562
  4776.408  4776.400  0.500  3.378617  67.2028  13.5445  0.461795
  4786.411  4786.400  0.500  3.357625  68.1954  13.9442  0.485507
  4796.408  4796.400  0.500  3.336215  69.158  14.336  0.509950
  4806.408  4806.400  0.500  3.315662  70.1385  14.7329  0.534953
  4816.408  4816.400  0.500  3.295430  71.0901  15.1405  0.560987
  4826.407  4826.400  0.500  3.274559  72.0055  15.5563  0.588550
  4836.403  4836.400  0.500  3.254228  72.9282  15.9565  0.616090
  4846.404  4846.400  0.500  3.234159  73.8692  16.3932  0.645782
  4856.406  4856.400  0.500  3.213834  74.7483  16.8182  0.676127
  4866.405  4866.400  0.500  3.194062  75.6671  17.2557  0.707568
  4876.404  4876.400  0.500  3.174364  76.5632  17.6911  0.739856
  4886.406  4886.400  0.500  3.155519  77.4166  18.1211  0.772254
  4896.404  4896.400  0.500  3.136185  78.2811  18.5616  0.806468
  4906.403  4906.400  0.500  3.117011  79.1556  19.0114  0.842002
  4916.404  4916.400  0.500  3.098169  80.0324  19.4566  0.878108
  4926.403  4926.400  0.500  3.079965  80.9038  19.9034  0.914777
  4936.404  4936.400  0.500  3.062799  81.7366  20.3704  0.952449
  4938.401  4938.400  0.500  3.059302  81.9293  20.4739  0.960644
  4940.409  4940.400  0.500  3.055936  82.1004  20.574  0.968595
  4942.403  4942.400  0.500  3.052522  82.2503  20.6504  0.975518
  4944.403  4944.400  0.500  3.049505  82.4096  20.7436  0.982882
  4946.403  4946.400  0.500  3.046590  82.5766  20.8356  0.990122
  4948.403  4948.400  0.500  3.043355  82.7664  20.9343  0.998034
  4950.401  4950.400  0.500  3.041015  82.9277  21.0295  1.004922
  4952.405  4952.400  0.500  3.038667  83.0698  21.1157  1.011415
  4954.403  4954.400  0.500  3.036730  83.2753  21.2286  1.018795
  4956.402  4956.400  0.500  3.036172  83.4362  21.3266  1.024070
  4956.694  4956.700  0.500  3.036260  83.4522  21.3339  1.024328
  4956.993  4957.000  0.500  3.036217  83.4832  21.3577  1.025516
  4957.293  4957.300  0.500  3.036072  83.4954  21.3646  1.025993
  4957.591  4957.600  0.500  3.036577  83.5252  21.3821  1.026319
  4957.892  4957.900  0.500  3.036375  83.5195  21.3764  1.026250
  4958.193  4958.200  0.500  3.037041  83.5701  21.4056  1.026971
  4958.491  4958.500  0.500  3.037020  83.5667  21.4244  1.027895
  4958.792  4958.800  0.500  3.037541  83.5947  21.4361  1.027920
  4959.092  4959.100  0.500  3.037611  83.6346  21.4518  1.028599
  4959.393  4959.400  0.500  3.037890  83.6574  21.4622  1.028812
  4959.693  4959.700  0.500  3.039056  83.6807  21.4749  1.028217
  4959.995  4960.000  0.500  3.039502  83.6883  21.4704  1.027544
  4960.294  4960.300  0.500  3.040653  83.7071  21.4848  1.027051
  4960.593  4960.600  0.500  3.041917  83.7232  21.5052  1.026726
  4960.893  4960.900  0.500  3.043581  83.7372  21.512  1.025346
  4961.194  4961.200  0.500  3.045295  83.7587  21.5325  1.024567
  4961.496  4961.500  0.500  3.047344  83.7829  21.5584  1.023700
  4961.796  4961.800  0.500  3.049556  83.821  21.5699  1.021980
  4962.097  4962.100  0.500  3.052457  83.8252  21.5735  1.019191
  4962.396  4962.400  0.500  3.056556  83.8616  21.6034  1.016427
  4962.696  4962.700  0.500  3.061892  83.8833  21.618  1.011700
  4962.994  4963.000  0.500  3.067985  83.8854  21.6274  1.005994
  4963.295  4963.300  0.500  3.076744  83.9182  21.6386  0.997738
  4963.596  4963.600  0.500  3.089359  83.9252  21.6432  0.985439
  4963.899  4963.900  0.500  3.107103  83.9582  21.6594  0.968833
  4964.199  4964.200  0.500  3.136972  83.9588  21.6686  0.940723
  4964.497  4964.500  0.500  3.189778  83.9968  21.6869  0.893087
  4964.796  4964.800  0.500  3.283319  84.0146  21.6977  0.813742
  4965.097  4965.100  0.500  3.437788  84.0372  21.7124  0.697743
  4965.397  4965.400  0.500  3.633147  84.0539  21.7298  0.574380
  4965.699  4965.700  0.500  3.778479  84.0773  21.745  0.497034
  4965.999  4966.000  0.500  3.819850  84.1054  21.7619  0.477262
  4966.300  4966.300  0.500  3.775473  84.1141  21.7684  0.499068
  4966.597  4966.600  0.500  3.692276  84.1509  21.7824  0.542714
  4966.899  4966.900  0.500  3.614473  84.1579  21.7974  0.587027
  4967.199  4967.200  0.500  3.564488  84.1498  21.7992  0.617168
  4967.498  4967.500  0.500  3.545048  84.1939  21.8103  0.629604
  4967.798  4967.800  0.500  3.549598  84.2134  21.8228  0.627104
  4968.101  4968.100  0.500  3.570507  84.2353  21.8423  0.614677
  4968.400  4968.400  0.500  3.604523  84.2507  21.8412  0.594090
  4968.700  4968.700  0.500  3.645663  84.305  21.8602  0.570642
  4969.000  4969.000  0.500  3.686545  84.3051  21.8793  0.548261
  4969.300  4969.300  0.500  3.724181  84.3235  21.8884  0.528230
  4969.600  4969.600  0.500  3.755989  84.3482  21.9083  0.512157
  4969.901  4969.900  0.500  3.780474  84.3721  21.9319  0.500307
  4970.198  4970.200  0.500  3.798310  84.3992  21.939  0.491623
  4970.501  4970.500  0.500  3.810887  84.4174  21.9522  0.485770
  4970.802  4970.800  0.500  3.819128  84.4269  21.9598  0.481950
  4971.101  4971.100  0.500  3.828597  84.4779  21.9701  0.477633
  4971.400  4971.400  0.500  3.844011  84.4876  21.9785  0.470506
  4971.698  4971.700  0.500  3.868172  84.5098  21.9984  0.459690
  4971.996  4972.000  0.500  3.899598  84.5385  22.0177  0.445859
  4972.299  4972.300  0.500  3.941654  84.5394  22.0251  0.427641
  4972.602  4972.600  0.500  3.990081  84.5754  22.041  0.407719
  4972.904  4972.900  0.500  4.039991  84.5787  22.0439  0.387921
  4973.200  4973.200  0.500  4.091543  84.6085  22.0686  0.368841
  4973.501  4973.500  0.500  4.142323  84.6322  22.087  0.350872
  4973.801  4973.800  0.500  4.191273  84.652  22.0968  0.334259
  4974.105  4974.100  0.500  4.238777  84.6804  22.1204  0.319091
  4974.404  4974.400  0.500  4.286318  84.6977  22.147  0.304642
  4974.702  4974.700  0.500  4.331260  84.721  22.1612  0.291441
  4975.005  4975.000  0.500  4.375068  84.7269  22.1661  0.279011
  4975.304  4975.300  0.500  4.422254  84.9964  22.2275  0.266889
  4975.602  4975.600  0.500  4.467875  85.049  22.2557  0.255310
  4975.904  4975.900  0.500  4.512539  85.078  22.2824  0.244450
  4976.203  4976.200  0.500  4.558048  85.0858  22.2799  0.233549
  4976.503  4976.500  0.500  4.602857  85.0839  22.2831  0.223348
  4976.806  4976.800  0.500  4.643291  85.087  22.2718  0.214387
  4977.104  4977.100  0.500  4.680528  85.1192  22.29  0.206720
  4977.400  4977.400  0.500  4.714437  85.1396  22.3032  0.199946
  4977.704  4977.700  0.500  4.744217  85.1535  22.3214  0.194238
  4978.000  4978.000  0.500  4.768939  85.1883  22.3442  0.189689
  4978.303  4978.300  0.500  4.792917  85.2067  22.3565  0.185296
  4978.603  4978.600  0.500  4.813258  85.2341  22.3807  0.181762
  4978.902  4978.900  0.500  4.830778  85.2494  22.4012  0.178769
  4979.202  4979.200  0.500  4.845697  85.257  22.4167  0.176243
  4979.500  4979.500  0.500  4.858190  85.2731  22.4267  0.174132
  4979.800  4979.800  0.500  4.868457  85.2937  22.4385  0.172445
  4980.099  4980.100  0.500  4.877673  85.3  22.4563  0.170998
  4980.400  4980.400  0.500  4.886043  85.3334  22.4734  0.169702
  4980.703  4980.700  0.500  4.894485  85.3444  22.4906  0.168404
  4981.005  4981.000  0.500  4.899572  85.3669  22.4925  0.167564
  4981.301  4981.300  0.500  4.907355  85.368  22.5011  0.166328
  4981.600  4981.600  0.500  4.914583  85.4125  22.5174  0.165250
  4981.898  4981.900  0.500  4.923336  85.4211  22.535  0.163938
  4982.199  4982.200  0.500  4.932389  85.4369  22.5229  0.162374
  4982.503  4982.500  0.500  4.940775  85.4504  22.5469  0.161189
  4982.804  4982.800  0.500  4.949401  85.4607  22.5426  0.159774
  4983.101  4983.100  0.500  4.957202  85.5003  22.5558  0.158625
  4983.400  4983.400  0.500  4.963815  85.5249  22.5884  0.157807
  4983.700  4983.700  0.500  4.966317  85.539  22.6089  0.157556
  4984.000  4984.000  0.500  4.967275  85.5428  22.6134  0.157437
  4984.301  4984.300  0.500  4.964249  85.548  22.6392  0.158094
  4984.604  4984.600  0.500  4.959693  85.588  22.6348  0.158785
  4984.902  4984.900  0.500  4.951277  85.6188  22.6545  0.160266
  4985.199  4985.200  0.500  4.940954  85.6507  22.6833  0.162135
  4985.499  4985.500  0.500  4.929872  85.6587  22.6856  0.163959
  4985.804  4985.800  0.500  4.917081  85.6763  22.7024  0.166192
  4986.101  4986.100  0.500  4.903155  85.6995  22.7232  0.168677
  4986.403  4986.400  0.500  4.892504  85.7182  22.7256  0.170501
  4986.703  4986.700  0.500  4.881056  85.7281  22.724  0.172452
  4987.003  4987.000  0.500  4.871324  85.7498  22.7323  0.174202
  4987.299  4987.300  0.500  4.863763  85.7707  22.7511  0.175670
  4987.599  4987.600  0.500  4.859260  85.793  22.7612  0.176541
  4987.901  4987.900  0.500  4.854445  85.8103  22.7883  0.177605
  4988.201  4988.200  0.500  4.852607  85.8426  22.8139  0.178131
  4988.502  4988.500  0.500  4.849829  85.8719  22.8172  0.178653
  4988.804  4988.800  0.500  4.848264  85.8705  22.8372  0.179089
  4989.101  4989.100  0.500  4.848004  85.8988  22.8619  0.179329
  4989.401  4989.400  0.500  4.845752  85.9033  22.8524  0.179659
  4989.701  4989.700  0.500  4.844845  85.9419  22.8729  0.179983
  4990.002  4990.000  0.500  4.844165  85.9432  22.8635  0.180031
  4990.304  4990.300  0.500  4.842633  85.9631  22.886  0.180485
  4990.604  4990.600  0.500  4.839808  86.0073  22.9113  0.181196
  4990.903  4990.900  0.500  4.837516  86.0449  22.9362  0.181809
  4991.199  4991.200  0.500  4.835055  86.0579  22.9431  0.182312
  4991.400  4991.400  0.500  4.833274  86.0576  22.9553  0.182733
  4992.399  4992.390  0.500  4.821165  86.1273  22.9955  0.185284
  4993.398  4993.390  0.500  4.815592  86.1998  23.0485  0.186749
  4994.428  4994.410  0.500  4.822463  86.2663  23.1033  0.185911
  4995.454  4995.460  0.500  4.848438  86.3078  23.1445  0.181467
  4996.516  4996.520  0.500  4.893327  86.4196  23.1813  0.173777
  4997.599  4997.600  0.500  4.947996  86.4941  23.2139  0.164763
  4998.700  4998.700  0.500  4.995637  86.5731  23.2806  0.157549
  4999.823  4999.820  0.500  5.022287  86.6323  23.3259  0.153704
  5000.968  5000.960  0.500  5.025826  86.7422  23.3787  0.153508
  5002.115  5002.110  0.500  5.016744  86.8044  23.4298  0.155248
  5003.298  5003.290  0.500  5.008360  86.9131  23.5123  0.157106
  5004.489  5004.480  0.500  4.996960  87.0013  23.5709  0.159303
  5005.707  5005.700  0.500  4.971348  87.0794  23.6343  0.163876
  5006.935  5006.930  0.500  4.926182  87.1786  23.6961  0.171895
  5008.187  5008.180  0.500  4.872309  87.2801  23.7497  0.181820
  5009.454  5009.450  0.500  4.824265  87.3538  23.811  0.191261
  5010.748  5010.740  0.500  4.791334  87.4505  23.8663  0.198123
  5012.058  5012.050  0.500  4.772417  87.5529  23.9353  0.202491
  5013.388  5013.380  0.500  4.757487  87.6402  23.9998  0.206090
  5014.735  5014.730  0.500  4.740749  87.7208  24.0582  0.210079
  5016.106  5016.100  0.500  4.724300  87.8131  24.1178  0.214092
  5017.489  5017.480  0.500  4.705782  87.9046  24.1932  0.218775
  5018.897  5018.890  0.500  4.688926  88.014  24.254  0.223053
  5020.315  5020.310  0.500  4.673122  88.0948  24.3215  0.227237
  5021.755  5021.750  0.500  4.660875  88.1765  24.3763  0.230556
  5023.216  5023.210  0.500  4.653530  88.2888  24.4575  0.233029
  5024.697  5024.690  0.500  4.653702  88.3641  24.5191  0.233575
  5026.198  5026.190  0.500  4.660162  88.4803  24.5739  0.232590
  5027.718  5027.710  0.500  4.669839  88.5858  24.6355  0.230928
  5029.258  5029.250  0.500  4.684207  88.713  24.7286  0.228494
  5030.815  5030.810  0.500  4.710890  88.8087  24.8068  0.223181
  5032.386  5032.380  0.500  4.749318  88.9142  24.8931  0.215514
  5033.988  5033.980  0.500  4.792961  89.0005  24.9771  0.207007
  5035.606  5035.590  0.500  4.833434  89.1281  25.049  0.199368
  5037.239  5037.230  0.500  4.865634  89.217  25.113  0.193544
  5038.897  5038.880  0.500  4.883809  89.3143  25.1903  0.190643
  5040.565  5040.550  0.500  4.884950  89.4404  25.2881  0.191165
  5042.254  5042.240  0.500  4.874489  89.5586  25.3696  0.193798
  5043.960  5043.950  0.500  4.853818  89.6688  25.4154  0.198203
  5045.688  5045.680  0.500  4.825487  89.7873  25.5082  0.204643
  5047.439  5047.430  0.500  4.787909  89.9055  25.6035  0.213274
  5049.204  5049.190  0.500  4.745322  90.0559  25.7045  0.223430
  5050.997  5050.980  0.500  4.700134  90.1305  25.7621  0.234282
  5052.788  5052.780  0.500  4.656769  90.2653  25.8412  0.245417
  5054.620  5054.610  0.500  4.621778  90.3856  25.9335  0.255064
  5056.466  5056.450  0.500  4.601072  90.5128  26.0125  0.261194
  5058.321  5058.310  0.500  4.592792  90.6477  26.1031  0.264282
  5060.202  5060.190  0.500  4.591575  90.7318  26.1871  0.265455
  5062.085  5062.090  0.500  4.586885  90.8921  26.2989  0.267842
  5064.017  5064.010  0.500  4.574447  91.0185  26.4058  0.272296
  5065.943  5065.950  0.500  4.559179  91.141  26.5195  0.277676
  5067.918  5067.910  0.500  4.544137  91.2762  26.6106  0.282853
  5069.883  5069.880  0.500  4.532310  91.3731  26.6938  0.287113
  5071.900  5071.880  0.500  4.524568  91.5274  26.7869  0.290354
  5073.902  5073.890  0.500  4.524924  91.675  26.904  0.291519
  5075.930  5075.920  0.500  4.535736  91.7847  26.9994  0.289407
  5077.990  5077.980  0.500  4.553709  91.9268  27.096  0.285269
  5080.058  5080.050  0.500  4.580729  92.0306  27.1855  0.278581
  5082.147  5082.140  0.500  4.614271  92.1817  27.2989  0.270516
  5084.253  5084.250  0.500  4.649566  92.297  27.3937  0.262041
  5086.386  5086.380  0.500  4.684244  92.463  27.5148  0.254229
  5088.526  5088.520  0.500  4.712345  92.5321  27.5902  0.247862
  5090.697  5090.690  0.500  4.726538  92.6768  27.7133  0.245459
  5092.885  5092.880  0.500  4.717051  92.7661  27.8056  0.248624
  5095.087  5095.080  0.500  4.684586  92.9197  27.8858  0.257569
  5097.309  5097.300  0.500  4.635430  93.0604  28.0132  0.271782
  5099.557  5099.550  0.500  4.577229  93.1796  28.1223  0.289191
  5101.826  5101.810  0.500  4.521637  93.2814  28.2287  0.306880
  5104.104  5104.090  0.500  4.478309  93.4269  28.3466  0.321807
  5106.392  5106.390  0.500  4.455147  93.5426  28.4536  0.330592
  5108.719  5108.710  0.500  4.447171  93.7051  28.5825  0.334749
  5111.060  5111.050  0.500  4.444672  93.8138  28.6762  0.336686
  5113.404  5113.400  0.500  4.442886  93.9532  28.8056  0.338810
  5115.788  5115.780  0.500  4.440125  94.0831  28.9487  0.341434
  5118.177  5118.170  0.500  4.436601  94.2093  29.029  0.343591
  5120.597  5120.590  0.500  4.431825  94.3354  29.1345  0.346489
  5123.024  5123.020  0.500  4.425124  94.4635  29.2496  0.350197
  5125.473  5125.470  0.500  4.414765  94.6086  29.374  0.355348
  5127.957  5127.950  0.500  4.403687  94.7496  29.4947  0.360784
  5130.448  5130.440  0.500  4.396225  94.8767  29.6081  0.364884
  5132.965  5132.950  0.500  4.392756  94.9501  29.7257  0.367606
  5135.478  5135.470  0.500  4.394019  95.0858  29.8457  0.368624
  5138.026  5138.020  0.500  4.401393  95.2228  29.9705  0.367446
  5140.595  5140.590  0.500  4.413318  95.3528  30.075  0.364356
  5143.179  5143.170  0.500  4.426029  95.4583  30.2032  0.361288
  5145.786  5145.780  0.500  4.439039  95.5742  30.3324  0.358143
  5148.406  5148.400  0.500  4.448185  95.6676  30.4408  0.356150
  5151.057  5151.050  0.500  4.447726  95.7621  30.5773  0.357912
  5153.713  5153.710  0.500  4.434939  95.8845  30.6819  0.363758
  5156.395  5156.390  0.500  4.414013  96.0156  30.8119  0.373024
  5159.095  5159.090  0.500  4.391192  96.1252  30.9362  0.383175
  5161.819  5161.810  0.500  4.370192  96.2265  31.0629  0.392909
  5164.557  5164.550  0.500  4.353756  96.317  31.1804  0.400930
  5167.303  5167.300  0.500  4.337935  96.4025  31.3014  0.408905
  5170.095  5170.080  0.500  4.320232  96.4945  31.4082  0.417628
  5172.877  5172.870  0.500  4.298888  96.8726  31.623  0.429556
  5175.699  5175.690  0.500  4.276948  96.9647  31.7466  0.440801
  5178.538  5178.520  0.500  4.260353  97.0451  31.87  0.449919
  5181.380  5181.370  0.500  4.248980  97.1237  31.9702  0.456495
  5184.255  5184.250  0.500  4.241906  97.2104  32.0831  0.461360
  5187.146  5187.140  0.500  4.237027  97.2879  32.2215  0.465616
  5190.051  5190.050  0.500  4.233050  97.3669  32.352  0.469366
  5192.976  5192.970  0.500  4.229104  97.434  32.4789  0.473070
  5195.947  5195.920  0.500  4.227635  97.4715  32.5794  0.475231
  5198.896  5198.890  0.500  4.225668  97.5373  32.7044  0.477994
  5201.873  5201.870  0.500  4.225567  97.6453  32.8501  0.480172
  5204.904  5204.880  0.500  4.226469  97.6769  32.9615  0.481366
  5207.908  5207.900  0.500  4.227472  97.7695  33.1052  0.482979
  5210.960  5210.950  0.500  4.227813  97.8446  33.2298  0.484632
  5214.033  5214.010  0.500  4.224645  97.9015  33.3392  0.487770
  5217.098  5217.090  0.500  4.216606  97.9878  33.4622  0.493522
  5220.178  5220.190  0.500  4.206546  98.0749  33.6003  0.500569
  5223.316  5223.310  0.500  4.196157  98.1546  33.7414  0.507921
  5226.475  5226.450  0.500  4.187358  98.2327  33.8864  0.514612
  5229.627  5229.600  0.500  4.179892  98.3016  34.0111  0.520375
  5232.789  5232.780  0.500  4.169391  98.3737  34.1368  0.527812
  5235.998  5235.970  0.500  4.157642  98.4899  34.2785  0.536266
  5239.216  5239.190  0.500  4.144414  98.5614  34.4172  0.545606
  5242.452  5242.420  0.500  4.130191  98.6112  34.513  0.554963
  5245.659  5245.670  0.500  4.116180  98.6744  34.6571  0.565142
  5248.935  5248.950  0.500  4.102342  98.7713  34.8246  0.575786
  5252.247  5252.240  0.500  4.089446  98.8264  34.9588  0.585507
  5255.549  5255.550  0.500  4.076532  98.9101  35.0907  0.595356
  5258.854  5258.870  0.500  4.065932  98.9827  35.2239  0.603983
  5262.208  5262.220  0.500  4.057404  99.0228  35.3402  0.611168
  5265.578  5265.590  0.500  4.050902  99.1011  35.4911  0.617781
  5268.964  5268.970  0.500  4.046252  99.1697  35.6562  0.623548
  5272.366  5272.380  0.500  4.043041  99.2107  35.7885  0.627876
  5275.794  5275.800  0.500  4.040104  99.3308  35.936  0.632317
  5279.236  5279.250  0.500  4.036618  98.5098  35.7472  0.631191
  5282.701  5282.710  0.500  4.032570  99.0956  36.0561  0.639228
  5286.179  5286.190  0.500  4.028339  99.1764  36.2065  0.644617
  5289.681  5289.690  0.500  4.021479  99.205  36.3468  0.651567
  5293.197  5293.210  0.500  4.013763  99.2168  36.485  0.659112
  5296.736  5296.750  0.500  4.003813  99.1942  36.5849  0.667526
  5300.293  5300.300  0.500  3.993987  99.206  36.735  0.676883
  5303.870  5303.880  0.500  3.985114  99.1712  36.8403  0.684872
  5307.470  5307.480  0.500  3.977518  99.1236  36.9483  0.692119
  5311.089  5311.090  0.500  3.969242  99.0355  37.0496  0.699783
  5314.716  5314.720  0.500  3.960862  98.9603  37.1509  0.707602
  5318.369  5318.380  0.500  3.951604  98.8828  37.2394  0.715885
  5322.038  5322.050  0.500  3.942151  98.7916  37.333  0.724500
  5325.723  5325.740  0.500  3.932779  98.6752  37.4157  0.732943
  5329.436  5329.450  0.500  3.922779  98.5444  37.509  0.742155
  5333.168  5333.180  0.500  3.912525  98.387  37.5686  0.750995
  5336.921  5336.920  0.500  3.901196  98.2114  37.633  0.760853
  5340.679  5340.690  0.500  3.889831  98.0252  37.6739  0.770386
  5344.470  5344.480  0.500  3.879175  97.8309  37.7382  0.779968
  5348.268  5348.280  0.500  3.868753  97.6319  37.7918  0.789258
  5352.102  5352.110  0.500  3.860159  97.3786  37.8271  0.796815
  5355.938  5355.950  0.500  3.852292  97.1244  37.8629  0.803868
  5359.796  5359.810  0.500  3.845757  96.9232  37.9198  0.810355
  5363.679  5363.690  0.500  3.840556  96.6006  37.9207  0.814600
  5367.578  5367.590  0.500  3.835898  96.3557  37.9606  0.819265
  5371.508  5371.510  0.500  3.830024  96.0716  37.9431  0.823711
  5375.442  5375.450  0.500  3.823596  95.8569  37.9858  0.829955
  5379.416  5379.410  0.500  3.815854  95.5488  38.0137  0.837019
  5383.365  5383.380  0.500  3.807503  95.3195  38.0841  0.845603
  5387.369  5387.380  0.500  3.798705  95.007  38.0934  0.853284
  5391.375  5391.390  0.500  3.789769  94.7793  38.1372  0.861933
  5395.414  5395.430  0.500  3.780560  94.5631  38.1834  0.870960
  5399.466  5399.480  0.500  3.772293  94.1606  38.1169  0.876662
  5403.536  5403.550  0.500  3.763682  93.9972  38.1856  0.885837
  5407.640  5407.640  0.500  3.754700  93.6492  38.2082  0.894357
  5411.733  5411.750  0.500  3.745196  93.2674  38.192  0.902514
  5415.871  5415.880  0.500  3.736166  93.1999  38.3104  0.913526
  5420.026  5420.030  0.500  3.727458  92.8647  38.2962  0.921174
  5424.177  5424.190  0.500  3.718138  92.7293  38.3752  0.931717
  5428.366  5428.380  0.500  3.708385  92.5551  38.4174  0.941883
  5432.568  5432.580  0.500  3.698851  92.3566  38.4675  0.952147
  5436.801  5436.810  0.500  3.689771  92.1934  38.5515  0.962928
  5441.040  5441.050  0.500  3.681097  92.0366  38.6172  0.972973
  5445.310  5445.310  0.500  3.672197  91.875  38.6866  0.983435
  5449.576  5449.590  0.500  3.664018  91.7175  38.7591  0.993370
  5453.879  5453.890  0.500  3.655473  91.5904  38.8436  1.004078
  5458.193  5458.210  0.500  3.648206  91.4482  38.9467  1.014087
  5462.534  5462.550  0.500  3.640370  91.2743  39.0395  1.024498
  5466.899  5466.910  0.500  3.632412  91.1703  39.1198  1.034810
  5471.275  5471.290  0.500  3.624697  90.9714  39.1852  1.044568
  5475.669  5475.680  0.500  3.616655  90.9132  39.3107  1.056374
  5480.084  5480.100  0.500  3.608823  90.7575  39.3769  1.066473
  5484.519  5484.530  0.500  3.600785  90.6221  39.4446  1.076928
  5488.961  5488.980  0.500  3.592341  90.4937  39.5539  1.089068
  5493.431  5493.450  0.500  3.583524  90.3421  39.6354  1.100979
  5497.925  5497.940  0.500  3.575412  90.1495  39.7177  1.112249
  5502.429  5502.450  0.500  3.567012  90.0688  39.7838  1.123499
  5506.966  5506.980  0.500  3.558222  89.9029  39.887  1.136359
  5511.516  5511.530  0.500  3.549919  89.8325  39.9987  1.149043
  5516.087  5516.100  0.500  3.541691  89.6535  40.0739  1.160714
  5520.667  5520.680  0.500  3.533187  89.5241  40.1347  1.172402
  5525.269  5525.290  0.500  3.524621  89.4119  40.2557  1.186052
  5529.892  5529.910  0.500  3.515526  89.3141  40.3614  1.200030
  5534.549  5534.560  0.500  3.506663  89.1918  40.4413  1.213112
  5539.207  5539.220  0.500  3.497687  89.0292  40.5287  1.226694
  5543.892  5543.900  0.500  3.488894  88.9558  40.6278  1.240555
  5548.587  5548.600  0.500  3.480826  88.8421  40.7034  1.252932
  5553.305  5553.320  0.500  3.472413  88.797  40.8702  1.268695
  5558.049  5558.060  0.500  3.464343  88.6419  40.9573  1.281700
  5562.804  5562.810  0.500  3.455884  88.604  41.0965  1.296980
  5567.577  5567.590  0.500  3.447740  88.4912  41.1842  1.310378
  5572.380  5572.390  0.500  3.439231  88.3723  41.2705  1.324344
  5577.186  5577.200  0.500  3.430636  88.2633  41.3709  1.339027
  5582.016  5582.030  0.500  3.422334  88.2027  41.4957  1.354260
  5586.877  5586.890  0.500  3.413899  88.1276  41.6035  1.369282
  5591.748  5591.760  0.500  3.405761  88.0187  41.7117  1.384059
  5596.638  5596.650  0.500  3.397626  87.8969  41.797  1.398220
  5601.561  5601.560  0.500  3.389038  87.7777  41.9125  1.414176
  5606.494  5606.490  0.500  3.380635  87.6965  42.0582  1.431064
  5611.425  5611.430  0.500  3.372106  87.5547  42.1227  1.445537
  5616.389  5616.400  0.500  3.363839  87.4584  42.2317  1.461307
  5621.379  5621.390  0.500  3.354864  87.3293  42.3491  1.478581
  5626.377  5626.390  0.500  3.346191  87.1606  42.413  1.493712
  5631.406  5631.420  0.500  3.337367  87.0033  42.497  1.509936
  5636.451  5636.460  0.500  3.328647  86.8415  42.5756  1.525976
  5641.510  5641.520  0.500  3.319734  86.6239  42.6126  1.540975
  5646.589  5646.600  0.500  3.310905  86.5037  42.7235  1.558689
  5651.688  5651.700  0.500  3.302586  86.2899  42.7845  1.573952
  5656.830  5656.820  0.500  3.293354  86.1112  42.8401  1.590614
  5661.952  5661.960  0.500  3.284798  85.9041  42.8839  1.605923
  5667.122  5667.120  0.500  3.276472  85.6865  42.9309  1.621125
  5672.292  5672.300  0.500  3.267604  85.3988  42.9757  1.637271
  5677.482  5677.490  0.500  3.258891  85.2676  43.07  1.655224
  5682.699  5682.710  0.500  3.250576  85.053  43.1204  1.670996
  5687.932  5687.940  0.500  3.241909  84.7995  43.1476  1.686605
  5693.180  5693.190  0.500  3.233063  84.4946  43.15  1.701686
  5698.452  5698.460  0.500  3.224635  84.2764  43.1942  1.717845
  5703.745  5703.750  0.500  3.216263  83.9733  43.2172  1.733210
  5709.047  5709.060  0.500  3.207329  83.7456  43.2692  1.750868
  5714.384  5714.390  0.500  3.199018  83.472  43.2745  1.765695
  5719.736  5719.740  0.500  3.190572  83.2339  43.3134  1.782276
  5725.097  5725.110  0.500  3.181908  83.015  43.3789  1.800499
  5730.475  5730.490  0.500  3.173248  82.7637  43.4126  1.817571
  5735.891  5735.900  0.500  3.164850  82.4781  43.4167  1.833074
  5741.314  5741.320  0.500  3.156214  82.2505  43.4619  1.850897
  5746.761  5746.770  0.500  3.147455  82.0269  43.5119  1.869326
  5752.224  5752.230  0.500  3.138764  81.7635  43.5285  1.886368
  5757.693  5757.710  0.500  3.130007  81.6105  43.6176  1.906853
  5763.203  5763.210  0.500  3.121208  81.3996  43.6366  1.924544
  5768.725  5768.730  0.500  3.112485  81.2133  43.7067  1.944523
  5774.257  5774.270  0.500  3.104135  81.0222  43.774  1.963847
  5779.808  5779.820  0.500  3.095426  80.7292  43.7557  1.980197
  5785.383  5785.400  0.500  3.086704  80.5647  43.8503  2.001861
  5790.983  5791.000  0.500  3.077892  80.3917  43.9051  2.022105
  5796.598  5796.610  0.500  3.069232  80.1758  43.9669  2.042563
  5802.235  5802.250  0.500  3.060723  79.9769  44.0265  2.062810
  5807.889  5807.900  0.500  3.052113  79.7446  44.0677  2.082595
  5813.560  5813.570  0.500  3.043793  79.5176  44.0866  2.100892
  5819.242  5819.260  0.500  3.035129  79.3232  44.1393  2.121709