File: xdidata/Ti/Ti-K-BFTO16.xdi
# XDI/1.0 BlueSky/1.5.0
# Beamline.name: 6BM
# Beamline.xray_source: NSLS-II three-pole wiggler
# Beamline.collimation: paraboloid mirror, 5 nm Rh on 30 nm Pt
# Beamline.focusing: not in use
# Beamline.harmonic_rejection: flat mirror, Si stripe, pitch = 7.0 mrad relative to beam
# Detector.i0: 10 cm N2
# Detector.i1: 25 cm N2
# Detector.i2: 25 cm N2
# Element.symbol: Ti
# Element.edge: K
# Facility.name: NSLS-II
# Facility.energy: 3.0
# Facility.current: 221.0
# Facility.mode: top-off
# Facility.gup: 301027
# Facility.saf: 304156
# Mono.name: Si(111)
# Mono.d_spacing: 3.13526
# Mono.encoder_resolution: 0.0000050 deg/ct
# Mono.angle_offset: 16.0571 deg
# Mono.scan_mode: pseudo channel cut
# Mono.scan_type: step
# Mono.direction: forward in energy
# Sample.name: Ba1.2 Fe2.4 Ti 5.6 O16
# Sample.prep: Powder in polyethylene glycol pellet
# Sample.x_position: -97.532 mm
# Sample.y_position: 117.543 mm
# Sample.wheel_position: -570.000 mm
# Scan.experimenters: Bruce Ravel, Martin Stennett
# Scan.edge_energy: 4966.0
# Scan.start_time: 2019-05-30T02:14:49
# Scan.end_time: 2019-05-30T02:57:38
# Scan.transient_id: 9782
# Scan.uid: 429a122b-c2cd-40ff-a640-542bce673ec1
# Scan.plot_hint: ln(I0/It)  --  ln($5/$6)
# Scan.sequence: merge of 3 scans
# Column.1: energy eV
# Column.2: requested_energy eV
# Column.3: measurement_time seconds
# Column.4: mutrans
# Column.5: i0
# Column.6: itrans
# Column.7: irefer
# /////
#  sample disk prepared by Martin
# -----
# energy   requested_energy   measurement_time   mutrans   i0   itrans   irefer
4766 4766 0.500000 3.766666 11.0098 0.254652 0.020499
4776.01 4776 0.500000 3.739354 11.228 0.266881 0.021978
4786.01 4786 0.500000 3.713047 11.4523 0.279472 0.023232
4796.01 4796 0.500000 3.685896 11.675 0.292747 0.024954
4806.01 4806 0.500000 3.659047 11.9041 0.306614 0.026155
4816.01 4816 0.500000 3.633299 12.1252 0.320456 0.027742
4826.01 4826 0.500000 3.607934 12.3458 0.334656 0.029414
4836 4836 0.500000 3.581945 12.5796 0.349984 0.031127
4846 4846 0.500000 3.556369 12.8094 0.365607 0.032885
4856 4856 0.500000 3.530936 13.0363 0.381664 0.034660
4866.01 4866 0.500000 3.505234 13.2838 0.399047 0.036743
4876.01 4876 0.500000 3.480752 13.5088 0.415862 0.038658
4886 4886 0.500000 3.456048 13.7276 0.433165 0.040433
4896 4896 0.500000 3.431444 13.9348 0.450656 0.042972
4906 4906 0.500000 3.406764 14.1412 0.468757 0.045115
4916 4916 0.500000 3.382308 14.346 0.487320 0.047692
4926 4926 0.500000 3.358495 14.5508 0.506186 0.049919
4936 4936 0.500000 3.334675 14.7495 0.525471 0.052557
4938 4938 0.500000 3.329600 14.786 0.529450 0.052964
4940 4940 0.500000 3.325484 14.8222 0.532935 0.053459
4942.01 4942 0.500000 3.320938 14.8564 0.536610 0.053808
4944.01 4944 0.500000 3.316221 14.894 0.540502 0.054463
4946.01 4946 0.500000 3.311301 14.9262 0.544339 0.055061
4948.01 4948 0.500000 3.306550 14.9557 0.548015 0.055175
4950.01 4950 0.500000 3.302592 14.9904 0.551464 0.055829
4952 4952 0.500000 3.297582 15.0229 0.555434 0.056365
4954 4954 0.500000 3.293047 15.051 0.559002 0.056914
4956 4956 0.500000 3.289220 15.0814 0.562280 0.057045
4956.24 4956.25 0.500000 3.288274 15.086 0.562982 0.057584
4956.49 4956.5 0.500000 3.288201 15.0873 0.563075 0.057278
4956.74 4956.75 0.500000 3.287581 15.0913 0.563570 0.057230
4957 4957 0.500000 3.286557 15.0932 0.564218 0.057572
4957.25 4957.25 0.500000 3.286374 15.0956 0.564415 0.057512
4957.49 4957.5 0.500000 3.285701 15.098 0.564883 0.057269
4957.74 4957.75 0.500000 3.284995 15.1015 0.565412 0.057783
4957.99 4958 0.500000 3.285110 15.1056 0.565502 0.057502
4958.24 4958.25 0.500000 3.284600 15.1064 0.565819 0.057424
4958.49 4958.5 0.500000 3.283630 15.1107 0.566530 0.057822
4958.74 4958.75 0.500000 3.283288 15.1144 0.566862 0.057712
4959 4959 0.500000 3.283105 15.1196 0.567159 0.057636
4959.25 4959.25 0.500000 3.282003 15.122 0.567873 0.057915
4959.5 4959.5 0.500000 3.281673 15.1584 0.569429 0.057874
4959.75 4959.75 0.500000 3.281379 15.162 0.569732 0.058109
4959.99 4960 0.500000 3.281074 15.1677 0.570120 0.057898
4960.25 4960.25 0.500000 3.280495 15.1719 0.570607 0.057920
4960.5 4960.5 0.500000 3.280370 15.1751 0.570802 0.058102
4960.75 4960.75 0.500000 3.279661 15.1766 0.571265 0.057709
4961 4961 0.500000 3.279644 15.1803 0.571413 0.057961
4961.25 4961.25 0.500000 3.278413 15.188 0.572408 0.058265
4961.5 4961.5 0.500000 3.278221 15.1926 0.572688 0.057805
4961.75 4961.75 0.500000 3.277698 15.1971 0.573156 0.057891
4962 4962 0.500000 3.277446 15.2008 0.573441 0.058085
4962.25 4962.25 0.500000 3.276716 15.2038 0.573973 0.057865
4962.5 4962.5 0.500000 3.276677 15.2078 0.574149 0.057563
4962.74 4962.75 0.500000 3.276641 15.2125 0.574346 0.057425
4963 4963 0.500000 3.275929 15.2173 0.574935 0.057229
4963.25 4963.25 0.500000 3.275463 15.2215 0.575362 0.057052
4963.5 4963.5 0.500000 3.275069 15.2252 0.575730 0.056550
4963.75 4963.75 0.500000 3.274725 15.2334 0.576239 0.055994
4964 4964 0.500000 3.274473 15.2353 0.576455 0.054631
4964.25 4964.25 0.500000 3.274471 15.2408 0.576666 0.052653
4964.5 4964.5 0.500000 3.274667 15.2464 0.576762 0.049911
4964.74 4964.75 0.500000 3.273326 15.2509 0.577703 0.046282
4965 4965 0.500000 3.274334 15.2544 0.577258 0.042671
4965.25 4965.25 0.500000 3.274345 15.2557 0.577299 0.040298
4965.5 4965.5 0.500000 3.274483 15.2609 0.577416 0.039672
4965.75 4965.75 0.500000 3.274948 15.2644 0.577286 0.040124
4966 4966 0.500000 3.276677 15.2692 0.576467 0.041480
4966.25 4966.25 0.500000 3.278879 15.273 0.575333 0.042868
4966.5 4966.5 0.500000 3.282713 15.2775 0.573323 0.044129
4966.75 4966.75 0.500000 3.289297 15.282 0.569687 0.044465
4967 4967 0.500000 3.296205 15.2796 0.565707 0.044758
4967.25 4967.25 0.500000 3.300045 15.2821 0.563628 0.044580
4967.5 4967.5 0.500000 3.297921 15.2827 0.564863 0.044248
4967.75 4967.75 0.500000 3.294297 15.2926 0.567267 0.043874
4968 4968 0.500000 3.293323 15.2994 0.568068 0.043501
4968.25 4968.25 0.500000 3.297255 15.3045 0.566043 0.042525
4968.5 4968.5 0.500000 3.306227 15.3059 0.561050 0.041403
4968.75 4968.75 0.500000 3.320980 15.308 0.552894 0.040061
4969 4969 0.500000 3.339415 15.3094 0.542915 0.039034
4969.25 4969.25 0.500000 3.354305 15.3067 0.534686 0.037920
4969.5 4969.5 0.500000 3.362654 15.31 0.530428 0.037441
4969.75 4969.75 0.500000 3.364869 15.3062 0.529085 0.037094
4970 4970 0.500000 3.361889 15.3141 0.530919 0.036795
4970.25 4970.25 0.500000 3.356197 15.3219 0.534215 0.036856
4970.5 4970.5 0.500000 3.348481 15.335 0.538852 0.037255
4970.75 4970.75 0.500000 3.338789 15.3455 0.544444 0.037116
4971 4971 0.500000 3.328819 15.351 0.550121 0.037413
4971.25 4971.25 0.500000 3.320910 15.3613 0.554867 0.037271
4971.5 4971.5 0.500000 3.316144 15.3676 0.557735 0.037099
4971.75 4971.75 0.500000 3.314276 15.3712 0.558901 0.036526
4972 4972 0.500000 3.316656 15.3773 0.557789 0.035780
4972.25 4972.25 0.500000 3.321202 15.3819 0.555436 0.034891
4972.5 4972.5 0.500000 3.325561 15.4135 0.554131 0.034049
4972.75 4972.75 0.500000 3.328944 15.4182 0.552442 0.033333
4973 4973 0.500000 3.330428 15.4195 0.551677 0.032450
4973.25 4973.25 0.500000 3.329556 15.4227 0.552268 0.031691
4973.5 4973.5 0.500000 3.328498 15.4251 0.552938 0.031474
4973.75 4973.75 0.500000 3.327047 15.4271 0.553812 0.030645
4974 4974 0.500000 3.327692 15.4288 0.553525 0.029990
4974.25 4974.25 0.500000 3.329959 15.4307 0.552336 0.029755
4974.5 4974.5 0.500000 3.332817 15.4332 0.550849 0.029154
4974.75 4974.75 0.500000 3.336928 15.4331 0.548580 0.028211
4975 4975 0.500000 3.341936 15.4349 0.545900 0.027820
4975.25 4975.25 0.500000 3.347729 15.4364 0.542812 0.027021
4975.5 4975.5 0.500000 3.353716 15.4339 0.539486 0.026571
4975.75 4975.75 0.500000 3.360124 15.4331 0.536010 0.026097
4976 4976 0.500000 3.368936 15.4311 0.531209 0.025286
4976.25 4976.25 0.500000 3.377998 15.4319 0.526478 0.024589
4976.5 4976.5 0.500000 3.388887 15.4308 0.520693 0.023872
4976.75 4976.75 0.500000 3.402057 15.4312 0.513940 0.023126
4977 4977 0.500000 3.416858 15.4317 0.506399 0.022655
4977.25 4977.25 0.500000 3.433986 15.4326 0.497942 0.021834
4977.5 4977.5 0.500000 3.452235 15.4336 0.488869 0.021479
4977.75 4977.75 0.500000 3.471790 15.4365 0.479517 0.020887
4978 4978 0.500000 3.493480 15.441 0.469280 0.020576
4978.25 4978.25 0.500000 3.513592 15.4413 0.459947 0.019841
4978.5 4978.5 0.500000 3.532472 15.4422 0.451377 0.019407
4978.75 4978.75 0.500000 3.548246 15.4436 0.444391 0.019352
4979 4979 0.500000 3.564296 15.4453 0.437357 0.018637
4979.25 4979.25 0.500000 3.577176 15.4431 0.431735 0.018149
4979.5 4979.5 0.500000 3.590235 15.4428 0.426138 0.018175
4979.75 4979.75 0.500000 3.602946 15.4738 0.421564 0.017924
4980 4980 0.500000 3.615123 15.4707 0.416318 0.017787
4980.25 4980.25 0.500000 3.627392 15.4658 0.411172 0.017347
4980.5 4980.5 0.500000 3.638726 15.4661 0.406564 0.016986
4980.75 4980.75 0.500000 3.651667 15.4583 0.401131 0.016966
4981 4981 0.500000 3.664788 15.4561 0.395846 0.016861
4981.25 4981.25 0.500000 3.680549 15.4532 0.389596 0.016357
4981.5 4981.5 0.500000 3.697173 15.4569 0.383228 0.016140
4981.75 4981.75 0.500000 3.716824 15.4582 0.375773 0.015610
4982 4982 0.500000 3.737220 15.4625 0.368238 0.015359
4982.25 4982.25 0.500000 3.757981 15.4637 0.360735 0.015052
4982.5 4982.5 0.500000 3.777733 15.4653 0.353752 0.014864
4982.75 4982.75 0.500000 3.797689 15.4683 0.346876 0.014560
4983 4983 0.500000 3.815487 15.4678 0.340726 0.014353
4983.25 4983.25 0.500000 3.832112 15.4663 0.335047 0.014010
4983.5 4983.5 0.500000 3.846732 15.4658 0.330207 0.013975
4983.75 4983.75 0.500000 3.862333 15.4631 0.325043 0.013621
4984 4984 0.500000 3.875567 15.4608 0.320668 0.013512
4984.25 4984.25 0.500000 3.889598 15.459 0.316181 0.013354
4984.5 4984.5 0.500000 3.902377 15.4614 0.312271 0.013413
4984.75 4984.75 0.500000 3.915075 15.4602 0.308271 0.013429
4985 4985 0.500000 3.930096 15.4634 0.303748 0.013091
4985.25 4985.25 0.500000 3.942951 15.4617 0.299806 0.013036
4985.5 4985.5 0.500000 3.955983 15.4637 0.295946 0.013005
4985.75 4985.75 0.500000 3.968365 15.4614 0.292273 0.012915
4986 4986 0.500000 3.980390 15.4612 0.288754 0.012812
4986.25 4986.25 0.500000 3.992392 15.4602 0.285346 0.012706
4986.5 4986.5 0.500000 4.002391 15.4578 0.282472 0.012744
4986.75 4986.75 0.500000 4.012466 15.456 0.279605 0.012552
4987 4987 0.500000 4.020401 15.453 0.277314 0.012450
4987.25 4987.25 0.500000 4.027920 15.4509 0.275200 0.012449
4987.5 4987.5 0.500000 4.033867 15.4499 0.273548 0.012423
4987.75 4987.75 0.500000 4.037460 15.4513 0.272600 0.012382
4988 4988 0.500000 4.041577 15.4535 0.271514 0.012373
4988.25 4988.25 0.500000 4.044777 15.4669 0.270887 0.012490
4988.5 4988.5 0.500000 4.046833 15.502 0.270943 0.012441
4988.75 4988.75 0.500000 4.048713 15.5131 0.270625 0.012293
4989 4989 0.500000 4.050598 15.5241 0.270303 0.012181
4989.25 4989.25 0.500000 4.051871 15.5348 0.270147 0.012516
4989.5 4989.5 0.500000 4.050647 15.5468 0.270690 0.012411
4989.75 4989.75 0.500000 4.050269 15.5579 0.270984 0.012222
4990 4990 0.500000 4.047006 15.5734 0.272138 0.012646
4990.25 4990.25 0.500000 4.041900 15.5865 0.273747 0.012503
4990.5 4990.5 0.500000 4.033800 15.5991 0.276199 0.012810
4990.75 4990.75 0.500000 4.025743 15.6098 0.278655 0.012772
4991 4991 0.500000 4.014756 15.6185 0.281865 0.012814
4991.25 4991.25 0.500000 4.003076 15.6257 0.285331 0.013146
4991.5 4991.5 0.500000 3.991507 15.6361 0.288802 0.013153
4991.75 4991.75 0.500000 3.977628 15.6443 0.293023 0.013278
4992 4992 0.500000 3.963391 15.6548 0.297384 0.013740
4992.25 4992.25 0.500000 3.951303 15.6601 0.301133 0.013582
4992.5 4992.5 0.500000 3.939476 15.6657 0.304825 0.013922
4992.75 4992.75 0.500000 3.927844 15.6725 0.308548 0.014100
4993 4993 0.500000 3.916774 15.6799 0.312119 0.014093
4993.26 4993.25 0.500000 3.907713 15.6809 0.314991 0.014247
4993.5 4993.5 0.500000 3.899877 15.687 0.317593 0.014375
4993.75 4993.75 0.500000 3.893039 15.691 0.319811 0.014593
4994 4994 0.500000 3.887684 15.6942 0.321613 0.014584
4994.25 4994.25 0.500000 3.882212 15.7005 0.323494 0.014408
4994.5 4994.5 0.500000 3.879328 15.704 0.324519 0.014514
4994.75 4994.75 0.500000 3.877320 15.706 0.325213 0.014732
4995 4995 0.500000 3.876130 15.7103 0.325688 0.014475
4995.26 4995.25 0.500000 3.876190 15.7116 0.325694 0.014477
4995.5 4995.5 0.500000 3.877644 15.7146 0.325287 0.014209
4995.75 4995.75 0.500000 3.880405 15.7185 0.324473 0.013968
4996 4996 0.700000 3.882183 21.9436 0.452175 0.019878
4997.09 4997.08 0.710000 3.898909 22.3327 0.452538 0.019325
4998.18 4998.18 0.730000 3.919672 22.9604 0.455725 0.019157
4999.3 4999.29 0.740000 3.941960 23.2867 0.452011 0.018701
5000.44 5000.43 0.750000 3.960101 23.6405 0.450612 0.018714
5001.58 5001.58 0.760000 3.970845 23.9991 0.452577 0.018821
5002.77 5002.76 0.780000 3.964158 24.679 0.468505 0.019947
5003.96 5003.95 0.790000 3.938753 25.0501 0.487789 0.020422
5005.16 5005.16 0.800000 3.902758 25.4251 0.513196 0.021558
5006.4 5006.39 0.810000 3.865519 25.8096 0.540768 0.023282
5007.65 5007.64 0.830000 3.837248 26.5056 0.571285 0.025088
5008.91 5008.91 0.840000 3.812209 26.881 0.594029 0.026338
5010.21 5010.2 0.850000 3.779763 27.2625 0.622355 0.028294
5011.52 5011.51 0.860000 3.753615 27.636 0.647586 0.029391
5012.83 5012.83 0.880000 3.737651 28.3272 0.674454 0.030727
5014.19 5014.18 0.890000 3.730868 28.6942 0.687853 0.031403
5015.55 5015.54 0.900000 3.728557 29.0595 0.698228 0.032235
5016.94 5016.93 0.910000 3.728567 29.5097 0.709041 0.033257
5018.34 5018.33 0.930000 3.725572 30.2122 0.728099 0.034338
5019.76 5019.75 0.940000 3.716341 30.5975 0.744218 0.035313
5021.2 5021.19 0.950000 3.703729 30.9872 0.763276 0.036342
5022.66 5022.65 0.960000 3.691294 31.3726 0.782427 0.037520
5024.14 5024.13 0.980000 3.681653 32.091 0.808109 0.038553
5025.64 5025.63 0.990000 3.674699 32.4828 0.823668 0.039222
5027.15 5027.14 1.000000 3.671570 32.8757 0.836245 0.039811
5028.69 5028.68 1.010000 3.670351 33.277 0.847479 0.040266
5030.24 5030.24 1.030000 3.673139 33.9897 0.863236 0.040453
5031.82 5031.81 1.040000 3.678198 34.3847 0.868856 0.039859
5033.41 5033.4 1.050000 3.686016 34.7869 0.872161 0.039316
5035.01 5035.01 1.060000 3.696156 35.1865 0.873276 0.038837
5036.65 5036.65 1.080000 3.707335 35.9214 0.881624 0.038387
5038.29 5038.3 1.090000 3.717043 36.3329 0.883114 0.038349
5039.97 5039.97 1.100000 3.723576 36.7382 0.887136 0.038524
5041.65 5041.65 1.110000 3.726611 37.1427 0.894185 0.038861
5043.36 5043.36 1.130000 3.725157 37.8864 0.913419 0.040284
5045.09 5045.09 1.140000 3.721439 38.3188 0.927282 0.041281
5046.83 5046.83 1.150000 3.715393 38.7943 0.944490 0.042757
5048.6 5048.6 1.160000 3.708497 39.2193 0.961444 0.044438
5050.38 5050.38 1.180000 3.700764 39.9825 0.987762 0.046777
5052.18 5052.18 1.190000 3.694150 40.3982 1.004642 0.047924
5054 5054 1.200000 3.688375 40.8321 1.021320 0.049888
5055.84 5055.84 1.210000 3.683769 41.2582 1.036740 0.051303
5057.7 5057.7 1.230000 3.680681 42.0311 1.059429 0.052392
5059.58 5059.58 1.240000 3.678630 42.4758 1.072836 0.053584
5061.48 5061.48 1.250000 3.676669 42.9165 1.086092 0.053951
5063.4 5063.4 1.260000 3.673324 43.3585 1.100952 0.054863
5065.33 5065.33 1.280000 3.669468 44.1593 1.125628 0.057008
5067.29 5067.29 1.290000 3.664207 44.6142 1.143208 0.058368
5069.26 5069.26 1.300000 3.658932 45.068 1.160950 0.059315
5071.26 5071.26 1.310000 3.652733 45.5263 1.180041 0.060701
5073.27 5073.27 1.330000 3.646078 46.3315 1.208938 0.062029
5075.3 5075.3 1.340000 3.638994 46.8599 1.231420 0.062994
5077.35 5077.35 1.350000 3.632590 47.3694 1.252814 0.063384
5079.42 5079.42 1.360000 3.626827 47.8368 1.272477 0.063823
5081.51 5081.51 1.380000 3.621704 48.6617 1.301071 0.064287
5083.61 5083.61 1.390000 3.616238 49.1371 1.320982 0.064110
5085.74 5085.74 1.400000 3.608585 49.6161 1.344099 0.064324
5087.89 5087.89 1.410000 3.599444 50.0983 1.369630 0.064297
5090.05 5090.05 1.430000 3.589225 50.9469 1.407146 0.065636
5092.23 5092.23 1.440000 3.577293 51.4412 1.437834 0.067484
5094.44 5094.44 1.450000 3.565826 51.9567 1.469006 0.069996
5096.66 5096.66 1.460000 3.553927 52.4571 1.500915 0.073299
5098.9 5098.9 1.480000 3.542191 53.3182 1.543576 0.077271
5101.16 5101.16 1.490000 3.531356 53.8212 1.575106 0.081030
5103.44 5103.44 1.500000 3.522753 54.3345 1.603855 0.084433
5105.74 5105.74 1.510000 3.516577 54.8472 1.629013 0.086260
5108.05 5108.05 1.530000 3.512043 55.7202 1.662467 0.088907
5110.39 5110.39 1.540000 3.508606 56.2297 1.683442 0.090340
5112.74 5112.74 1.550000 3.505731 56.749 1.703878 0.091337
5115.12 5115.12 1.560000 3.503494 57.266 1.723252 0.092198
5117.51 5117.51 1.580000 3.501823 58.1583 1.753027 0.094478
5119.92 5119.92 1.590000 3.500706 58.683 1.770826 0.095226
5122.35 5122.35 1.600000 3.499781 59.2131 1.788476 0.096980
5124.8 5124.8 1.610000 3.498345 59.7497 1.807274 0.098632
5127.27 5127.27 1.630000 3.496485 60.6625 1.838297 0.100848
5129.76 5129.76 1.640000 3.493552 61.2187 1.860601 0.102120
5132.27 5132.27 1.650000 3.490073 61.7794 1.884189 0.103798
5134.79 5134.79 1.660000 3.486529 62.3404 1.908062 0.105328
5137.34 5137.34 1.680000 3.482350 63.284 1.945041 0.106962
5139.9 5139.9 1.690000 3.478309 63.8756 1.971165 0.107768
5142.49 5142.49 1.700000 3.473260 64.4555 1.999144 0.108850
5145.09 5145.09 1.710000 3.466976 65.0385 2.029941 0.109885
5147.71 5147.71 1.730000 3.459175 66.086 2.078793 0.111863
5150.35 5150.35 1.740000 3.450199 66.7369 2.118169 0.113994
5153.01 5153.01 1.750000 3.440234 67.3339 2.158531 0.116795
5155.69 5155.69 1.760000 3.430310 67.9288 2.199328 0.120482
5158.39 5158.39 1.780000 3.420958 68.913 2.252175 0.124530
5161.11 5161.11 1.790000 3.412109 69.505 2.291684 0.128110
5163.84 5163.84 1.800000 3.403397 70.1159 2.332066 0.131632
5166.6 5166.6 1.810000 3.395492 70.7121 2.370562 0.134945
5169.37 5169.37 1.830000 3.388600 71.7018 2.420368 0.138926
5172.17 5172.17 1.840000 3.382168 72.299 2.456260 0.142397
5174.98 5174.98 1.850000 3.376199 72.8907 2.491204 0.146285
5177.81 5177.81 1.860000 3.370524 73.4878 2.525894 0.149637
5180.66 5180.66 1.880000 3.364946 74.4941 2.574803 0.153789
5183.53 5183.53 1.890000 3.358881 75.2756 2.617652 0.156642
5186.42 5186.42 1.900000 3.352788 75.8878 2.655068 0.159581
5189.32 5189.32 1.910000 3.346431 76.5167 2.694118 0.162384
5192.25 5192.25 1.930000 3.340148 77.5228 2.746768 0.165858
5195.2 5195.2 1.940000 3.334184 78.1246 2.784651 0.168395
5198.16 5198.16 1.950000 3.328288 78.6956 2.821586 0.170989
5201.14 5201.14 1.960000 3.322069 79.3213 2.861759 0.173640
5204.15 5204.15 1.980000 3.315399 80.3679 2.918924 0.176979
5207.17 5207.17 1.990000 3.308709 81.0002 2.961627 0.179607
5210.21 5210.21 2.000000 3.301462 81.6234 3.006139 0.181999
5213.27 5213.27 2.010000 3.293752 82.2558 3.052861 0.185693
5216.35 5216.35 2.030000 3.286384 83.4507 3.120140 0.190487
5219.45 5219.45 2.040000 3.278902 84.1403 3.169524 0.194586
5222.56 5222.56 2.050000 3.272558 84.8126 3.215195 0.198570
5225.7 5225.7 2.060000 3.266824 85.4774 3.259027 0.202489
5228.85 5228.85 2.080000 3.261240 86.5507 3.318425 0.207229
5232.03 5232.03 2.090000 3.256176 87.225 3.361264 0.210829
5235.22 5235.22 2.100000 3.252376 87.9215 3.400997 0.214681
5238.43 5238.43 2.110000 3.252042 88.6225 3.429250 0.217624
5241.66 5241.66 2.130000 3.260505 89.7112 3.442099 0.220962
5244.92 5244.92 2.140000 3.310154 90.3534 3.298852 0.213694
5248.18 5248.18 2.150000 3.645835 90.5092 2.362549 0.156828
5251.47 5251.47 2.160000 3.626538 91.3642 2.431174 0.162635
5254.78 5254.78 2.180000 3.375744 92.8323 3.174118 0.211466
5258.11 5258.11 2.190000 3.375184 93.6784 3.204908 0.214887
5261.45 5261.45 2.200000 3.370188 94.3901 3.245434 0.218928
5264.82 5264.82 2.210000 3.379562 95.1973 3.242645 0.219191
5268.2 5268.2 2.230000 3.375949 96.4086 3.295794 0.223651
5271.6 5271.6 2.240000 3.373014 97.1701 3.331588 0.226618
5275.03 5275.03 2.250000 3.367491 98.0366 3.379910 0.230596
5278.47 5278.47 2.260000 3.350408 97.7152 3.426861 0.234151
5281.93 5281.93 2.280000 3.337051 99.8238 3.547913 0.242758
5285.4 5285.4 2.290000 3.329456 100.693 3.606087 0.248048
5288.9 5288.9 2.300000 3.322052 101.45 3.660183 0.252743
5292.42 5292.42 2.310000 3.312832 102.222 3.722185 0.257784
5295.96 5295.96 2.330000 3.304837 103.733 3.807537 0.265327
5299.51 5299.51 2.340000 3.301383 104.42 3.846002 0.269379
5303.09 5303.09 2.350000 3.295946 105.19 3.895508 0.274520
5306.68 5306.68 2.360000 3.288154 106.017 3.956818 0.280179
5310.29 5310.29 2.380000 3.281049 107.289 4.032865 0.287151
5313.92 5313.92 2.390000 3.273645 108.064 4.092197 0.293216
5317.57 5317.57 2.400000 3.266344 108.852 4.152218 0.298647
5321.24 5321.24 2.410000 3.258057 109.448 4.209722 0.304571
5324.93 5324.93 2.430000 3.249229 110.529 4.289006 0.312352
5328.64 5328.64 2.440000 3.240253 111.082 4.349314 0.317905
5332.36 5332.36 2.450000 3.231803 111.766 4.413219 0.325069
5336.11 5336.11 2.460000 3.224855 112.714 4.481675 0.332254
5339.87 5339.87 2.480000 3.219546 114.068 4.559669 0.340365
5343.66 5343.66 2.490000 3.213594 114.834 4.617664 0.346718
5347.46 5347.46 2.500000 3.208293 115.461 4.667575 0.353089
5351.28 5351.28 2.510000 3.201525 115.953 4.719297 0.358867
5355.12 5355.12 2.530000 3.195138 116.451 4.769956 0.364373
5358.98 5358.98 2.540000 3.188951 118.097 4.867398 0.373363
5362.86 5362.86 2.550000 3.178865 119.047 4.956259 0.382033
5366.76 5366.76 2.560000 3.170871 119.609 5.019660 0.388161
5370.68 5370.68 2.580000 3.164031 120.617 5.096690 0.395007
5374.61 5374.61 2.590000 3.157046 121.207 5.157498 0.401750
5378.57 5378.57 2.600000 3.149915 121.777 5.218869 0.408531
5382.54 5382.54 2.610000 3.142441 122.357 5.283038 0.415846
5386.54 5386.54 2.630000 3.134214 123.308 5.368088 0.424781
5390.55 5390.55 2.640000 3.125380 123.753 5.435271 0.432716
5394.58 5394.58 2.650000 3.117108 124.31 5.505068 0.440583
5398.63 5398.63 2.660000 3.108952 124.508 5.558983 0.447990
5402.7 5402.7 2.680000 3.100454 125.564 5.654003 0.457475
5406.79 5406.79 2.690000 3.092086 125.911 5.717250 0.465559
5410.9 5410.9 2.700000 3.084457 126.298 5.778740 0.473354
5415.02 5415.02 2.710000 3.077424 126.779 5.841706 0.481252
5419.17 5419.17 2.730000 3.070844 127.13 5.896549 0.488443
5423.33 5423.33 2.740000 3.063787 127.842 5.971551 0.497688
5427.52 5427.52 2.750000 3.056281 128.278 6.037044 0.506677
5431.72 5431.72 2.760000 3.048387 128.704 6.105103 0.514831
5435.94 5435.94 2.780000 3.040574 129.704 6.200813 0.526126
5440.18 5440.18 2.790000 3.032339 130.436 6.287359 0.536549
5444.44 5444.44 2.800000 3.024869 130.963 6.360115 0.545455
5448.72 5448.72 2.810000 3.016905 131.487 6.436558 0.555657
5453.02 5453.02 2.830000 3.009636 132.537 6.535326 0.566326
5457.34 5457.34 2.840000 3.001939 133.16 6.616815 0.577277
5461.67 5461.67 2.850000 2.994275 133.821 6.700812 0.587336
5466.03 5466.03 2.860000 2.986442 134.49 6.787234 0.598026
5470.4 5470.4 2.880000 2.978748 135.674 6.899906 0.611181
5474.8 5474.8 2.890000 2.970827 136.417 6.992817 0.622136
5479.21 5479.21 2.900000 2.962819 137.141 7.086475 0.633981
5483.64 5483.64 2.910000 2.954446 137.884 7.184809 0.646441
5488.09 5488.09 2.930000 2.946580 139.105 7.305672 0.660677
5492.56 5492.56 2.940000 2.938548 139.906 7.406959 0.673271
5497.05 5497.05 2.950000 2.930210 140.961 7.525304 0.687757
5501.56 5501.56 2.960000 2.922071 141.818 7.632909 0.701329
5506.08 5506.08 2.980000 2.913971 143.1 7.764593 0.717204
5510.63 5510.63 2.990000 2.905937 143.877 7.869746 0.731636
5515.19 5515.19 3.000000 2.898170 144.76 7.979717 0.745879
5519.78 5519.78 3.010000 2.890006 145.906 8.108838 0.761941
5524.38 5524.38 3.030000 2.882237 147.344 8.252645 0.780120
5529 5529 3.040000 2.874613 148.274 8.368220 0.794954
5533.64 5533.64 3.050000 2.866875 149.227 8.487478 0.811586
5538.3 5538.3 3.060000 2.859073 150.12 8.605112 0.827128
5542.98 5542.98 3.080000 2.851116 151.526 8.755169 0.846531
5547.68 5547.68 3.090000 2.843286 152.465 8.878601 0.862980
5552.4 5552.4 3.100000 2.835314 153.408 9.005058 0.880625
5557.13 5557.13 3.110000 2.827317 154.353 9.133237 0.897554
5561.89 5561.89 3.130000 2.819446 155.784 9.290784 0.918014
5566.66 5566.66 3.140000 2.811331 156.671 9.419842 0.936097
5571.46 5571.46 3.150000 2.803021 157.602 9.554920 0.954682
5576.27 5576.27 3.160000 2.794817 158.521 9.689747 0.973649
5581.1 5581.1 3.180000 2.786469 160.007 9.862596 0.996598
5585.95 5585.95 3.190000 2.778353 160.899 9.998353 1.016073
5590.82 5590.82 3.200000 2.769963 161.831 10.141 1.035685
5595.71 5595.71 3.210000 2.761910 162.811 10.2849 1.056415
5600.62 5600.62 3.230000 2.753818 164.523 10.4775 1.082289
5605.54 5605.54 3.240000 2.745824 165.424 10.6195 1.103041
5610.49 5610.49 3.250000 2.738786 166.287 10.7503 1.122636
5615.45 5615.45 3.260000 2.734050 167.245 10.8635 1.141448
5620.44 5620.44 3.280000 2.744926 168.623 10.834 1.144276
5625.44 5625.44 3.290000 2.993723 168.686 8.451379 0.901348
5630.46 5630.46 3.300000 2.804154 169.499 10.2642 1.098780
5635.5 5635.5 3.310000 2.783359 170.011 10.5118 1.131172
5640.56 5640.56 3.330000 2.780455 171.537 10.637 1.151560
5645.64 5645.64 3.340000 2.777348 172.286 10.7168 1.166935
5650.74 5650.74 3.350000 2.771292 173.401 10.8517 1.188922
5655.86 5655.86 3.360000 2.756120 174.31 11.0752 1.219880
5660.99 5660.99 3.380000 2.745520 176.221 11.316 1.253179
5666.15 5666.15 3.390000 2.738132 177.333 11.4719 1.278209
5671.32 5671.32 3.400000 2.728893 178.521 11.6559 1.305301
5676.52 5676.52 3.410000 2.723257 179.76 11.8032 1.329611
5681.73 5681.73 3.430000 2.715752 181.435 12.0029 1.359847
5686.96 5686.96 3.440000 2.707770 182.41 12.1641 1.386386
5692.21 5692.21 3.450000 2.700069 183.281 12.3167 1.411457
5697.48 5697.48 3.460000 2.691779 184.21 12.4822 1.438562
5702.77 5702.77 3.480000 2.682669 185.648 12.6947 1.471017
5708.08 5708.08 3.490000 2.673178 186.488 12.8738 1.500695