File: xdidata/Ti/Ti-K-Titanite.xdi
# XDI/1.0 BlueSky/1.5.0
# Beamline.name: 6BM
# Beamline.xray_source: NSLS-II three-pole wiggler
# Beamline.collimation: paraboloid mirror, 5 nm Rh on 30 nm Pt
# Beamline.focusing: not in use
# Beamline.harmonic_rejection: flat mirror, Si stripe, pitch = 7.0 mrad relative to beam
# Detector.i0: 10 cm N2
# Detector.i1: 25 cm N2
# Detector.i2: 25 cm N2
# Element.symbol: Ti
# Element.edge: K
# Facility.name: NSLS-II
# Facility.current: 0.0 mA
# Facility.energy: 3.0 GeV
# Facility.mode: top-off
# Facility.gup: 303483
# Facility.saf: 303580
# Mono.name: Si(111)
# Mono.d_spacing: 3.13525
# Mono.encoder_resolution: 0.0000050 deg/ct
# Mono.angle_offset: 16.0547 deg
# Mono.scan_mode: pseudo channel cut
# Mono.scan_type: step
# Mono.direction: forward in energy
# Sample.x_position: -114.337 mm
# Sample.y_position: 94.906 mm
# Sample.name: CaTiSiO5 (sphene)
# Sample.prep: natural sample, ground, Powder on tape
# Scan.experimenters: Bruce Ravel
# Scan.edge_energy: 4966.0
# Scan.start_time: 2019-04-06T11:49:11
# Scan.end_time: 2019-04-06T12:09:05
# Scan.transient_id: 8259
# Scan.uid: 96eac8ae-50e3-4275-a0a9-26fd09de50a6
# Scan.plot_hint: ln(I0/It)  --  ln($5/$6)
# Scan.sequence: merge of 2 scans
# Column.1: energy eV
# Column.2: requested_energy eV
# Column.3: measurement_time seconds
# Column.4: mutrans
# Column.5: i0
# Column.6: itrans
# Column.7: irefer
# /////
#
# -----
# energy   requested_energy   measurement_time   mutrans   i0   itrans   irefer
4865.99 4866 1.000000 2.396345 42.6086 3.879517 0.213476
4876.01 4876 1.000000 2.376920 43.4487 4.033625 0.226543
4886.01 4886 1.000000 2.356908 44.2644 4.192375 0.238585
4896.17 4896 1.000000 2.337753 45.1486 4.359531 0.249853
4906 4906 1.000000 2.318626 45.9282 4.519737 0.264126
4916 4916 1.000000 2.299456 46.7777 4.692417 0.277882
4926 4926 1.000000 2.280601 47.4434 4.849811 0.295917
4936 4936 1.000000 2.262466 47.8204 4.977795 0.303348
4938.01 4938 1.000000 2.258606 47.8744 5.002738 0.313194
4940 4940 1.000000 2.254884 47.8859 5.022581 0.307921
4942 4942 1.000000 2.251486 47.9951 5.051136 0.319354
4944 4944 1.000000 2.247604 48.0162 5.072980 0.315744
4946 4946 1.000000 2.244168 48.0541 5.094465 0.321179
4948 4948 1.000000 2.240634 48.0615 5.113304 0.318796
4950 4950 1.000000 2.236930 48.0389 5.129870 0.325590
4952 4952 1.000000 2.233226 48.045 5.149563 0.319439
4954 4954 1.000000 2.230073 48.0263 5.163789 0.318340
4956 4956 1.000000 2.226702 47.9948 5.177822 0.320796
4956.24 4956.25 1.000000 2.225785 48.0368 5.187126 0.327870
4956.49 4956.5 1.000000 2.225540 48.062 5.191130 0.326650
4956.74 4956.75 1.000000 2.225052 47.9898 5.185862 0.330941
4956.99 4957 1.000000 2.224658 48.0693 5.196503 0.326481
4957.24 4957.25 1.000000 2.224266 47.9964 5.190656 0.331058
4957.49 4957.5 1.000000 2.224011 48.0103 5.193492 0.329411
4957.74 4957.75 1.000000 2.223477 47.9755 5.192467 0.328146
4957.99 4958 1.000000 2.223021 47.9903 5.196449 0.328873
4958.24 4958.25 1.000000 2.222136 47.9999 5.202097 0.323504
4958.5 4958.5 1.000000 2.222096 47.9617 5.198187 0.328648
4958.75 4958.75 1.000000 2.221759 47.8754 5.190600 0.332441
4959 4959 1.000000 2.221471 47.9782 5.203221 0.326185
4959.25 4959.25 1.000000 2.220580 47.9674 5.206672 0.333257
4959.5 4959.5 1.000000 2.220639 47.9177 5.200975 0.330329
4959.75 4959.75 1.000000 2.220271 47.9252 5.203682 0.333015
4960 4960 1.000000 2.219463 47.9708 5.212839 0.329252
4960.25 4960.25 1.000000 2.219175 48.0106 5.218680 0.331180
4960.5 4960.5 1.000000 2.218531 47.9335 5.213679 0.330715
4960.75 4960.75 1.000000 2.218262 47.9071 5.212205 0.326388
4961 4961 1.000000 2.217973 47.9556 5.219003 0.332687
4961.25 4961.25 1.000000 2.217260 47.9629 5.223500 0.326109
4961.5 4961.5 1.000000 2.216537 47.9575 5.226694 0.328460
4961.75 4961.75 1.000000 2.216141 47.9313 5.225889 0.325553
4962 4962 1.000000 2.216373 47.9575 5.227555 0.322718
4962.25 4962.25 1.000000 2.215905 47.9338 5.227425 0.324350
4962.5 4962.5 1.000000 2.215177 47.9713 5.235324 0.328333
4962.75 4962.75 1.000000 2.214591 47.9532 5.236438 0.324491
4963 4963 1.000000 2.214323 47.9719 5.239828 0.319548
4963.25 4963.25 1.000000 2.213851 48.0039 5.245802 0.321067
4963.5 4963.5 1.000000 2.213508 47.9913 5.246233 0.316648
4963.75 4963.75 1.000000 2.213296 48.0378 5.252434 0.309288
4964 4964 1.000000 2.213078 47.9949 5.248893 0.298052
4964.25 4964.25 1.000000 2.212639 47.9029 5.241130 0.282235
4964.5 4964.5 1.000000 2.212471 47.8422 5.235360 0.261678
4964.75 4964.75 1.000000 2.212439 47.8896 5.240718 0.238877
4965 4965 1.000000 2.212038 47.8607 5.239651 0.224340
4965.25 4965.25 1.000000 2.211081 47.7979 5.237774 0.216466
4965.5 4965.5 1.000000 2.211249 47.7646 5.233271 0.219721
4965.75 4965.75 1.000000 2.210489 47.8708 5.248901 0.225939
4966 4966 1.000000 2.210573 47.8592 5.247177 0.235392
4966.25 4966.25 1.000000 2.210834 47.8359 5.243262 0.243186
4966.5 4966.5 1.000000 2.210694 47.8961 5.250585 0.244199
4966.75 4966.75 1.000000 2.210975 47.7802 5.236427 0.252517
4967 4967 1.000000 2.211603 47.8168 5.237143 0.253367
4967.25 4967.25 1.000000 2.211362 47.7449 5.230523 0.255744
4967.5 4967.5 1.000000 2.211426 47.8081 5.237107 0.248483
4967.75 4967.75 1.000000 2.211314 47.8041 5.237279 0.243752
4968 4968 1.000000 2.211558 47.7959 5.235075 0.237085
4968.25 4968.25 1.000000 2.211734 47.7979 5.234384 0.237843
4968.5 4968.5 1.000000 2.212788 47.7406 5.222633 0.228792
4968.75 4968.75 1.000000 2.214390 47.838 5.224855 0.225585
4969 4969 1.000000 2.216613 47.7649 5.205236 0.219552
4969.25 4969.25 1.000000 2.218701 47.7185 5.189257 0.217040
4969.5 4969.5 1.000000 2.220069 47.6751 5.177607 0.219783
4969.75 4969.75 1.000000 2.219459 47.727 5.186395 0.220993
4970 4970 1.000000 2.217188 47.8535 5.211910 0.214640
4970.25 4970.25 1.000000 2.214613 47.8652 5.226527 0.212092
4970.5 4970.5 1.000000 2.212299 47.8694 5.239265 0.213364
4970.75 4970.75 1.000000 2.210973 47.8307 5.241983 0.216177
4971 4971 1.000000 2.209611 47.9105 5.257928 0.212569
4971.25 4971.25 1.000000 2.208019 47.9321 5.268623 0.212077
4971.5 4971.5 1.000000 2.207026 47.8121 5.260624 0.207893
4971.75 4971.75 1.000000 2.205939 48.018 5.289014 0.201620
4972 4972 1.000000 2.205391 47.9368 5.282982 0.202984
4972.25 4972.25 1.000000 2.205797 47.9555 5.282916 0.194887
4972.5 4972.5 1.000000 2.205447 47.913 5.280076 0.191625
4972.75 4972.75 1.000000 2.205619 47.867 5.274097 0.185774
4973 4973 1.000000 2.205663 47.9125 5.278882 0.178622
4973.25 4973.25 1.000000 2.206068 47.7838 5.262568 0.174421
4973.5 4973.5 1.000000 2.206265 47.8293 5.266547 0.175358
4973.75 4973.75 1.000000 2.206620 47.9161 5.274239 0.166673
4974 4974 1.000000 2.206784 47.8232 5.263136 0.163421
4974.25 4974.25 1.000000 2.207321 47.8186 5.259784 0.160734
4974.5 4974.5 1.000000 2.208096 47.8312 5.257099 0.157783
4974.75 4974.75 1.000000 2.208639 47.6849 5.238181 0.154015
4975 4975 1.000000 2.209807 47.7011 5.233870 0.156677
4975.25 4975.25 1.000000 2.210653 47.7328 5.232951 0.152159
4975.5 4975.5 1.000000 2.211658 47.6851 5.222389 0.145423
4975.75 4975.75 1.000000 2.212525 47.6664 5.215842 0.143516
4976 4976 1.000000 2.213172 47.6482 5.210434 0.141667
4976.25 4976.25 1.000000 2.214019 47.5517 5.195486 0.139203
4976.5 4976.5 1.000000 2.214825 47.4854 5.184132 0.134782
4976.75 4976.75 1.000000 2.215483 47.5413 5.186796 0.132852
4977 4977 1.000000 2.216744 47.4805 5.173675 0.130456
4977.25 4977.25 1.000000 2.217961 47.4824 5.167546 0.129790
4977.5 4977.5 1.000000 2.218850 47.5348 5.168641 0.122465
4977.75 4977.75 1.000000 2.220257 47.4622 5.153471 0.119348
4978 4978 1.000000 2.222604 47.4377 5.138697 0.122029
4978.25 4978.25 1.000000 2.224652 47.4566 5.130260 0.120185
4978.5 4978.5 1.000000 2.226821 47.4508 5.118606 0.120854
4978.75 4978.75 1.000000 2.229401 47.4232 5.102515 0.123310
4979 4979 1.000000 2.231427 47.3918 5.088665 0.120355
4979.25 4979.25 1.000000 2.234131 47.362 5.071734 0.116863
4979.5 4979.5 1.000000 2.235717 47.3202 5.059159 0.117294
4979.75 4979.75 1.000000 2.237914 47.2966 5.045536 0.116149
4980 4980 1.000000 2.239480 47.3091 5.039056 0.116466
4980.25 4980.25 1.000000 2.241357 47.3372 5.032629 0.113897
4980.5 4980.5 1.000000 2.244013 47.2742 5.012694 0.113487
4980.75 4980.75 1.000000 2.247330 47.2222 4.990494 0.112840
4981 4981 1.000000 2.251243 47.1402 4.962328 0.112265
4981.25 4981.25 1.000000 2.256162 47.2418 4.948663 0.108535
4981.5 4981.5 1.000000 2.261459 47.1419 4.912000 0.111468
4981.75 4981.75 1.000000 2.267206 47.1874 4.888520 0.106988
4982 4982 1.000000 2.272604 47.1122 4.854865 0.107673
4982.25 4982.25 1.000000 2.278448 47.1383 4.829111 0.106927
4982.5 4982.5 1.000000 2.284255 47.1851 4.806136 0.106379
4982.75 4982.75 1.000000 2.289171 47.1357 4.777039 0.106017
4983 4983 1.000000 2.294364 47.104 4.749286 0.104269
4983.25 4983.25 1.000000 2.298013 47.129 4.734360 0.103451
4983.5 4983.5 1.000000 2.301708 47.1479 4.719015 0.108623
4983.75 4983.75 1.000000 2.304380 47.0927 4.700830 0.104774
4984 4984 1.000000 2.306100 47.0624 4.689782 0.098280
4984.25 4984.25 1.000000 2.307174 47.0955 4.688021 0.095741
4984.5 4984.5 1.000000 2.308747 47.0513 4.676233 0.104402
4984.75 4984.75 1.000000 2.309019 47.0099 4.670852 0.110235
4985 4985 1.000000 2.309029 47.0157 4.671376 0.107075
4985.25 4985.25 1.000000 2.308959 47.0041 4.670558 0.108358
4985.5 4985.5 1.000000 2.308953 46.971 4.667294 0.102363
4985.75 4985.75 1.000000 2.309620 47.0092 4.667990 0.105928
4986 4986 1.000000 2.309651 47.0309 4.669970 0.102161
4986.25 4986.25 1.000000 2.310086 47.0181 4.666663 0.111439
4986.5 4986.5 1.000000 2.310782 46.9095 4.652661 0.109230
4986.75 4986.75 1.000000 2.310665 46.9122 4.653499 0.104854
4987 4987 1.000000 2.309339 46.9219 4.660609 0.111499
4987.25 4987.25 1.000000 2.308234 46.8031 4.653922 0.102462
4987.5 4987.5 1.000000 2.306104 46.8136 4.664894 0.105773
4987.75 4987.75 1.000000 2.303469 46.8476 4.680576 0.107764
4988 4988 1.000000 2.300569 46.9254 4.702007 0.115548
4988.25 4988.25 1.000000 2.297617 47.0553 4.728994 0.110702
4988.5 4988.5 1.000000 2.295161 47.0592 4.741066 0.109634
4988.75 4988.75 1.000000 2.293058 47.0312 4.748203 0.111117
4989 4989 1.000000 2.290966 47.1238 4.767468 0.110901
4989.25 4989.25 1.000000 2.289267 47.1498 4.778098 0.112212
4989.5 4989.5 1.000000 2.287298 47.2075 4.793481 0.110417
4989.75 4989.75 1.000000 2.286468 47.3454 4.811472 0.109587
4990 4990 1.000000 2.285317 47.343 4.816780 0.113859
4990.25 4990.25 1.000000 2.284759 47.3282 4.817960 0.111663
4990.5 4990.5 1.000000 2.283950 47.3509 4.824176 0.115658
4990.75 4990.75 1.000000 2.283215 47.4696 4.839810 0.115937
4991 4991 1.000000 2.283055 47.388 4.832257 0.116897
4991.25 4991.25 1.000000 2.282509 47.423 4.838456 0.109402
4991.5 4991.5 1.000000 2.281946 47.472 4.846194 0.115983
4991.75 4991.75 1.000000 2.281332 47.4903 4.851046 0.116666
4992.01 4992 1.000000 2.280965 47.477 4.851493 0.116502
4992.25 4992.25 1.000000 2.280514 47.4359 4.849460 0.113208
4992.5 4992.5 1.000000 2.280412 47.5297 4.859539 0.115694
4992.75 4992.75 1.000000 2.280221 47.4406 4.851347 0.116410
4993 4993 1.000000 2.279949 47.5757 4.866493 0.117838
4993.25 4993.25 1.000000 2.280260 47.4627 4.853441 0.116941
4993.5 4993.5 1.000000 2.281252 47.5034 4.852771 0.115314
4993.75 4993.75 1.000000 2.281544 47.5645 4.857595 0.119355
4994 4994 1.000000 2.282534 47.5927 4.855618 0.116049
4994.25 4994.25 1.000000 2.283740 47.512 4.841617 0.114544
4994.5 4994.5 1.000000 2.284725 47.5708 4.842804 0.119637
4994.75 4994.75 1.000000 2.285951 47.5 4.829720 0.118641
4995 4995 1.000000 2.286725 47.5541 4.831444 0.113334
4995.25 4995.25 1.000000 2.287448 47.5271 4.825209 0.117559
4995.5 4995.5 1.000000 2.288346 47.5244 4.820596 0.111587
4995.75 4995.75 1.000000 2.288408 47.5674 4.824661 0.111381
4996 4996 1.000000 2.288875 47.611 4.826817 0.113196
4998.01 4998 1.000000 2.289565 47.4935 4.811594 0.106491
5000 5000 1.000000 2.285233 47.5194 4.835105 0.101468
5002.01 5002 1.000000 2.276264 47.7315 4.900465 0.109720
5004.01 5004 1.000000 2.265281 47.7555 4.957069 0.107180
5006.01 5006 1.000000 2.252948 47.9001 5.033793 0.113212
5008.01 5008 1.000000 2.242561 48.1028 5.107861 0.121099
5010.01 5010 1.000000 2.233354 48.1879 5.164223 0.128607
5012.01 5012 1.000000 2.225849 48.3257 5.217999 0.132101
5014 5014 1.000000 2.220691 48.335 5.245996 0.134049
5016 5016 1.000000 2.217121 48.3845 5.270153 0.142464
5018.01 5018 1.000000 2.214974 48.512 5.295409 0.145438
5020.01 5020 1.000000 2.211809 48.578 5.319433 0.142987
5022.01 5022 1.000000 2.207336 48.7339 5.360419 0.144895
5024.01 5024 1.000000 2.203871 48.9034 5.397727 0.143249
5026.01 5026 1.000000 2.200592 48.9754 5.423422 0.146420
5028.01 5028 1.000000 2.196806 49.0664 5.454102 0.146884
5030.01 5030 1.000000 2.193128 49.2057 5.489743 0.143548
5032.01 5032 1.000000 2.189734 49.2104 5.508932 0.142853
5034.01 5034 1.000000 2.186415 49.4087 5.549523 0.137292
5036.01 5036 1.000000 2.182893 49.4555 5.574386 0.132618
5038.01 5038 1.000000 2.180274 49.5467 5.599292 0.131985
5040.01 5040 1.000000 2.178324 49.7008 5.627683 0.132987
5042.01 5042 1.000000 2.176442 49.8309 5.653044 0.136726
5044.01 5044 1.000000 2.175066 49.9719 5.676844 0.139124
5046 5046 1.000000 2.172856 49.9955 5.692082 0.138943
5048.01 5048 1.000000 2.170481 50.1095 5.718637 0.152251
5050.01 5050 1.000000 2.167955 50.1967 5.743074 0.152294
5052 5052 1.000000 2.165361 50.2468 5.763732 0.157692
5054.01 5054 1.000000 2.162179 50.4384 5.804158 0.162441
5056.01 5056 1.000000 2.158795 50.5948 5.841903 0.166473
5058.01 5058 1.000000 2.156003 50.6487 5.864463 0.168041
5060 5060 1.000000 2.152388 50.725 5.894557 0.164485
5062 5062 1.000000 2.148467 50.7761 5.923694 0.167090
5064.01 5064 1.000000 2.144623 51.0102 5.973938 0.178340
5066.01 5066 1.000000 2.140672 51.0124 5.997840 0.180250
5068.01 5068 1.000000 2.136651 51.2201 6.046526 0.182119
5070.01 5070 1.000000 2.131975 51.4267 6.099357 0.181105
5072.01 5072 1.000000 2.127533 51.4511 6.129421 0.181087
5074.01 5074 1.000000 2.123142 51.6216 6.176795 0.180504
5076 5076 1.000000 2.119008 51.6903 6.210617 0.183703
5078.01 5078 1.000000 2.115287 51.8305 6.250695 0.186760
5080.01 5080 1.000000 2.111504 51.9528 6.289185 0.183848
5082.01 5082 1.000000 2.107360 52.1376 6.337772 0.178173
5084.01 5084 1.000000 2.103181 52.2508 6.378134 0.181887
5086.01 5086 1.000000 2.099384 52.3675 6.416719 0.184536
5088.01 5088 1.000000 2.095441 52.4006 6.446113 0.170623
5090.01 5090 1.000000 2.091357 52.6051 6.497748 0.174109
5092.01 5092 1.000000 2.087804 52.6465 6.526021 0.175345
5094.01 5094 1.000000 2.084092 52.704 6.557430 0.178763
5096 5096 1.000000 2.080491 52.7453 6.586233 0.190056
5098.01 5098 1.000000 2.077632 52.9352 6.628890 0.196278
5100.01 5100 1.000000 2.074813 52.9954 6.655165 0.202778
5102 5102 1.000000 2.071765 53.1251 6.691811 0.215798
5104 5104 1.000000 2.068579 53.0891 6.708632 0.216291
5106.01 5106 1.000000 2.065438 53.333 6.760675 0.216750
5108.01 5108 1.000000 2.061913 53.3463 6.786208 0.220588
5110.01 5110 1.000000 2.058479 53.5062 6.829966 0.217317
5112.01 5112 1.000000 2.055379 53.6351 6.867683 0.219838
5114.01 5114 1.000000 2.051798 53.7036 6.901129 0.219596
5116.01 5116 1.000000 2.048197 53.7877 6.936875 0.232265
5118.01 5118 1.000000 2.044685 53.8658 6.971370 0.226458
5120.01 5120 1.000000 2.041424 53.9478 7.004801 0.233258
5122.01 5122 1.000000 2.038314 54.0618 7.041474 0.233966
5124.01 5124 1.000000 2.035380 54.0973 7.066783 0.231705
5126.01 5126 1.000000 2.032214 54.1965 7.102200 0.235233
5128.01 5128 1.000000 2.029530 54.3215 7.137703 0.241717
5130.01 5130 1.000000 2.026454 54.3756 7.166820 0.242914
5132.01 5132 1.000000 2.023222 54.4624 7.201495 0.238909
5134 5134 1.000000 2.019748 54.5688 7.240664 0.247373
5136 5136 1.000000 2.016352 54.6756 7.279501 0.244263
5138.01 5138 1.000000 2.012635 54.793 7.322313 0.252722
5140 5140 1.000000 2.009536 54.82 7.348647 0.243671
5142 5142 1.000000 2.006074 54.8941 7.384094 0.246585
5144.01 5144 1.000000 2.002914 54.9964 7.421290 0.246843
5146 5146 1.000000 1.999372 55.0665 7.457115 0.249089
5148 5148 1.000000 1.996189 55.0417 7.477520 0.245919
5150.01 5150 1.000000 1.992592 55.1402 7.517900 0.252559
5152.01 5152 1.000000 1.989391 55.3527 7.571055 0.250162
5154 5154 1.000000 1.986463 55.3831 7.597420 0.252179
5156 5156 1.000000 1.982676 55.5172 7.644730 0.259211
5158 5158 1.000000 1.979119 55.5217 7.672561 0.263983
5160 5160 1.000000 1.975738 55.5649 7.704571 0.270316
5162 5162 1.000000 1.972141 55.722 7.754206 0.268775
5164 5164 1.000000 1.968785 55.7614 7.785765 0.274427