File: xdidata/Ti/Ti-K-FeTiO3.xdi
# XDI/1.0 BlueSky/1.5.0
# Beamline.name: 6BM
# Beamline.xray_source: NSLS-II three-pole wiggler
# Beamline.collimation: paraboloid mirror, 5 nm Rh on 30 nm Pt
# Beamline.focusing: not in use
# Beamline.harmonic_rejection: flat mirror, Si stripe, pitch = 7.0 mrad relative to beam
# Detector.i0: 10 cm N2
# Detector.i1: 25 cm N2
# Detector.i2: 25 cm N2
# Element.symbol: Ti
# Element.edge: K
# Facility.name: NSLS-II
# Facility.energy: 3.0
# Facility.current: 220.4
# Facility.mode: top-off
# Facility.gup: 301027
# Facility.saf: 304156
# Mono.name: Si(111)
# Mono.d_spacing: 3.13526
# Mono.encoder_resolution: 0.0000050 deg/ct
# Mono.angle_offset: 16.0571 deg
# Mono.scan_mode: pseudo channel cut
# Mono.scan_type: step
# Mono.direction: forward in energy
# Sample.name: FeTiO3 ilmentite
# Sample.prep: Powder in polyethylene glycol pellet
# Sample.x_position: -97.532 mm
# Sample.y_position: 117.543 mm
# Sample.wheel_position: -495.000 mm
# Scan.experimenters: Bruce Ravel, Martin Stennett
# Scan.edge_energy: 4966.0
# Scan.start_time: 2019-05-29T22:38:18
# Scan.end_time: 2019-05-29T23:21:07
# Scan.transient_id: 9767
# Scan.uid: c73218a9-3596-4db0-a2a7-6013c9c8c299
# Scan.plot_hint: ln(I0/It)  --  ln($5/$6)
# Scan.sequence: merge of 3 scans
# Column.1: energy eV
# Column.2: requested_energy eV
# Column.3: measurement_time seconds
# Column.4: mutrans
# Column.5: i0
# Column.6: itrans
# Column.7: irefer
# /////
#  sample disk prepared by Martin
# -----
# energy   requested_energy   measurement_time   mutrans   i0   itrans   irefer
4765.98 4766 0.500000 3.813591 11.0101 0.242998 0.020035
4776.01 4776 0.500000 3.795059 11.2505 0.252929 0.021135
4786.01 4786 0.500000 3.766456 11.4859 0.265712 0.022283
4796.01 4796 0.500000 3.739806 11.7266 0.278608 0.023556
4806.01 4806 0.500000 3.712023 11.9705 0.292419 0.024992
4816.01 4816 0.500000 3.685041 12.2063 0.306329 0.026602
4826.01 4826 0.500000 3.659155 12.4392 0.320367 0.028072
4836.01 4836 0.500000 3.632924 12.6774 0.335178 0.029833
4846 4846 0.500000 3.606178 12.9165 0.350758 0.031640
4856.01 4856 0.500000 3.580892 13.152 0.366292 0.033247
4866.01 4866 0.500000 3.554909 13.3819 0.382510 0.035055
4876.01 4876 0.500000 3.530965 13.6124 0.398528 0.037107
4886.01 4886 0.500000 3.506039 13.8361 0.415301 0.039075
4896.01 4896 0.500000 3.481641 14.0577 0.432374 0.041093
4906.01 4906 0.500000 3.457796 14.2822 0.449881 0.043244
4916 4916 0.500000 3.433368 14.5035 0.468145 0.045708
4926 4926 0.500000 3.409761 14.7255 0.486664 0.048217
4936 4936 0.500000 3.386661 14.9383 0.505238 0.050514
4938 4938 0.500000 3.381866 14.9782 0.509022 0.051160
4940 4940 0.500000 3.377390 15.0188 0.512692 0.051478
4942 4942 0.500000 3.373307 15.056 0.516067 0.051957
4944.01 4944 0.500000 3.367935 15.0952 0.520201 0.052457
4946.01 4946 0.500000 3.363575 15.1324 0.523755 0.052844
4948.01 4948 0.500000 3.359130 15.1656 0.527245 0.053415
4950.01 4950 0.500000 3.354984 15.2034 0.530750 0.053940
4952 4952 0.500000 3.351113 15.2368 0.533979 0.054154
4954 4954 0.500000 3.347156 15.2708 0.537294 0.054619
4956.01 4956 0.500000 3.342705 15.3021 0.540794 0.055180
4956.24 4956.25 0.500000 3.342469 15.3058 0.541053 0.055102
4956.49 4956.5 0.500000 3.342310 15.3064 0.541161 0.055130
4956.75 4956.75 0.500000 3.342214 15.3135 0.541465 0.054997
4956.99 4957 0.500000 3.341384 15.3141 0.541937 0.055141
4957.25 4957.25 0.500000 3.341011 15.3196 0.542337 0.055179
4957.49 4957.5 0.500000 3.340635 15.3218 0.542613 0.055244
4957.74 4957.75 0.500000 3.340017 15.3256 0.543084 0.055466
4958 4958 0.500000 3.339042 15.3294 0.543748 0.055493
4958.24 4958.25 0.500000 3.338807 15.3344 0.544054 0.055221
4958.5 4958.5 0.500000 3.338203 15.3388 0.544539 0.055421
4958.74 4958.75 0.500000 3.337755 15.341 0.544860 0.055336
4959 4959 0.500000 3.337491 15.3439 0.545108 0.055560
4959.25 4959.25 0.500000 3.336887 15.3503 0.545665 0.055505
4959.5 4959.5 0.500000 3.336695 15.3515 0.545811 0.055552
4959.74 4959.75 0.500000 3.336343 15.3542 0.546098 0.055451
4960 4960 0.500000 3.336041 15.3579 0.546397 0.055704
4960.25 4960.25 0.500000 3.335150 15.3625 0.547045 0.055438
4960.49 4960.5 0.500000 3.335197 15.366 0.547147 0.055733
4960.75 4960.75 0.500000 3.334399 15.3704 0.547739 0.055548
4961 4961 0.500000 3.334811 15.3761 0.547717 0.055627
4961.25 4961.25 0.500000 3.334193 15.3809 0.548227 0.055418
4961.5 4961.5 0.500000 3.333371 15.3833 0.548760 0.055642
4961.75 4961.75 0.500000 3.333734 15.3904 0.548820 0.055595
4962 4962 0.500000 3.333221 15.396 0.549298 0.055511
4962.25 4962.25 0.500000 3.333253 15.3981 0.549357 0.055235
4962.49 4962.5 0.500000 3.332979 15.4037 0.549702 0.055163
4962.75 4962.75 0.500000 3.332818 15.4079 0.549946 0.054894
4963 4963 0.500000 3.332349 15.4101 0.550281 0.054683
4963.25 4963.25 0.500000 3.332553 15.4158 0.550372 0.054359
4963.5 4963.5 0.500000 3.332912 15.4216 0.550387 0.053974
4963.75 4963.75 0.500000 3.332325 15.4252 0.550829 0.053050
4964 4964 0.500000 3.332364 15.4389 0.551300 0.051831
4964.25 4964.25 0.500000 3.332621 15.4485 0.551506 0.049668
4964.5 4964.5 0.500000 3.332629 15.4506 0.551573 0.046817
4964.75 4964.75 0.500000 3.333219 15.467 0.551832 0.042982
4964.99 4965 0.500000 3.334486 15.4685 0.551198 0.040123
4965.25 4965.25 0.500000 3.335281 15.471 0.550833 0.038172
4965.5 4965.5 0.500000 3.336504 15.4765 0.550344 0.037887
4965.75 4965.75 0.500000 3.339811 15.4812 0.548712 0.038628
4966 4966 0.500000 3.343855 15.4856 0.546653 0.039769
4966.25 4966.25 0.500000 3.351533 15.4872 0.542562 0.040681
4966.5 4966.5 0.500000 3.362995 15.4892 0.536454 0.041557
4966.75 4966.75 0.500000 3.379961 15.49 0.527384 0.041489
4967 4967 0.500000 3.394646 15.4929 0.519817 0.041297
4967.25 4967.25 0.500000 3.398900 15.4963 0.517759 0.040880
4967.5 4967.5 0.500000 3.393249 15.4997 0.520796 0.040759
4967.75 4967.75 0.500000 3.390084 15.506 0.522620 0.040173
4968 4968 0.500000 3.396645 15.5131 0.519474 0.039583
4968.25 4968.25 0.500000 3.418094 15.5161 0.508626 0.038282
4968.5 4968.5 0.500000 3.454401 15.5192 0.490621 0.036120
4968.75 4968.75 0.500000 3.497897 15.5221 0.469877 0.034327
4969 4969 0.500000 3.529621 15.5243 0.455131 0.033009
4969.25 4969.25 0.500000 3.535839 15.5218 0.452232 0.032202
4969.5 4969.5 0.500000 3.520767 15.5242 0.459154 0.032458
4969.75 4969.75 0.500000 3.496064 15.5247 0.470690 0.033216
4970 4970 0.500000 3.470957 15.5311 0.482724 0.033777
4970.25 4970.25 0.500000 3.449953 15.5413 0.493299 0.034233
4970.5 4970.5 0.500000 3.433386 15.5526 0.501920 0.034872
4970.75 4970.75 0.500000 3.421253 15.5628 0.508427 0.034984
4971 4971 0.500000 3.413403 15.5738 0.512841 0.034780
4971.25 4971.25 0.500000 3.409938 15.5801 0.514820 0.034691
4971.5 4971.5 0.500000 3.409134 15.5865 0.515436 0.034151
4971.75 4971.75 0.500000 3.410727 15.626 0.515931 0.033740
4972 4972 0.500000 3.413054 15.6302 0.514870 0.032825
4972.25 4972.25 0.500000 3.414902 15.6331 0.514020 0.032147
4972.5 4972.5 0.500000 3.415557 15.6376 0.513823 0.031659
4972.75 4972.75 0.500000 3.416303 15.6421 0.513589 0.031149
4973 4973 0.500000 3.417762 15.641 0.512797 0.030032
4973.25 4973.25 0.500000 3.419226 15.6459 0.512200 0.029444
4973.5 4973.5 0.500000 3.422504 15.6499 0.510662 0.028799
4973.75 4973.75 0.500000 3.426894 15.6493 0.508429 0.028333
4974 4974 0.500000 3.434791 15.652 0.504545 0.027537
4974.25 4974.25 0.500000 3.443590 15.6567 0.500281 0.026812
4974.5 4974.5 0.500000 3.453639 15.6575 0.495215 0.026106
4974.75 4974.75 0.500000 3.467472 15.659 0.488495 0.025274
4975 4975 0.500000 3.483043 15.6598 0.480898 0.024476
4975.25 4975.25 0.500000 3.500199 15.6595 0.472772 0.023699
4975.5 4975.5 0.500000 3.518544 15.6583 0.464140 0.022597
4975.75 4975.75 0.500000 3.538554 15.658 0.454984 0.022062
4976 4976 0.500000 3.558472 15.6592 0.446084 0.021267
4976.25 4976.25 0.500000 3.577720 15.6915 0.438445 0.020545
4976.5 4976.5 0.500000 3.595745 15.693 0.430601 0.019868
4976.75 4976.75 0.500000 3.611793 15.6915 0.423718 0.019406
4977 4977 0.500000 3.626322 15.6954 0.417687 0.019280
4977.25 4977.25 0.500000 3.638942 15.6963 0.412508 0.018333
4977.5 4977.5 0.500000 3.648032 15.6978 0.408839 0.018487
4977.75 4977.75 0.500000 3.658288 15.699 0.404704 0.017672
4978 4978 0.500000 3.668168 15.7048 0.400846 0.017544
4978.25 4978.25 0.500000 3.678859 15.706 0.396611 0.017139
4978.5 4978.5 0.500000 3.690494 15.7075 0.392012 0.017099
4978.75 4978.75 0.500000 3.703910 15.7094 0.386870 0.016675
4979 4979 0.500000 3.718292 15.7065 0.381234 0.016249
4979.25 4979.25 0.500000 3.734063 15.7075 0.375386 0.016089
4979.5 4979.5 0.500000 3.752143 15.703 0.368508 0.015816
4979.75 4979.75 0.500000 3.773571 15.6993 0.360684 0.015387
4980 4980 0.500000 3.798370 15.7 0.351769 0.015186
4980.25 4980.25 0.500000 3.825173 15.6977 0.342453 0.014908
4980.5 4980.5 0.500000 3.853621 15.6933 0.332653 0.014329
4980.75 4980.75 0.500000 3.883643 15.6898 0.322868 0.014016
4981 4981 0.500000 3.916074 15.6882 0.312523 0.013405
4981.25 4981.25 0.500000 3.946111 15.6897 0.303352 0.013254
4981.5 4981.5 0.500000 3.976762 15.6924 0.294198 0.012787
4981.75 4981.75 0.500000 4.005507 15.6934 0.285911 0.012418
4982 4982 0.500000 4.034575 15.6952 0.277663 0.011769
4982.25 4982.25 0.500000 4.058859 15.6966 0.271030 0.011794
4982.51 4982.5 0.500000 4.079377 15.6954 0.265451 0.011719
4982.75 4982.75 0.500000 4.097178 15.6984 0.260906 0.011659
4983 4983 0.500000 4.112472 15.7007 0.256975 0.011236
4983.25 4983.25 0.500000 4.121648 15.7009 0.254674 0.011171
4983.5 4983.5 0.500000 4.127582 15.6986 0.253090 0.010967
4983.75 4983.75 0.500000 4.131048 15.6952 0.252161 0.010998
4984 4984 0.500000 4.133467 15.6941 0.251530 0.011080
4984.25 4984.25 0.500000 4.136465 15.6936 0.250771 0.010937
4984.5 4984.5 0.500000 4.139380 15.6971 0.250097 0.011127
4984.75 4984.75 0.500000 4.144274 15.6969 0.248884 0.011039
4985 4985 0.500000 4.150773 15.697 0.247283 0.010877
4985.25 4985.25 0.500000 4.158063 15.7003 0.245521 0.010974
4985.5 4985.5 0.500000 4.165758 15.6993 0.243637 0.011072
4985.75 4985.75 0.500000 4.174490 15.6999 0.241495 0.011111
4986 4986 0.500000 4.185768 15.6991 0.238774 0.010762
4986.25 4986.25 0.500000 4.196572 15.6987 0.236190 0.011044
4986.5 4986.5 0.500000 4.209375 15.6962 0.233200 0.010739
4986.75 4986.75 0.500000 4.222176 15.6923 0.230163 0.010688
4987 4987 0.500000 4.237311 15.688 0.226659 0.010772
4987.25 4987.25 0.500000 4.252919 15.6882 0.223137 0.010559
4987.5 4987.5 0.500000 4.269528 15.6862 0.219435 0.010499
4987.75 4987.75 0.500000 4.283354 15.6875 0.216422 0.010437
4988 4988 0.500000 4.294820 15.6936 0.214034 0.010272
4988.25 4988.25 0.500000 4.303535 15.7006 0.212282 0.010297
4988.5 4988.5 0.500000 4.305810 15.7089 0.211915 0.009979
4988.75 4988.75 0.500000 4.302430 15.717 0.212733 0.010148
4989 4989 0.500000 4.294001 15.7307 0.214717 0.010200
4989.25 4989.25 0.500000 4.282753 15.7419 0.217279 0.010252
4989.5 4989.5 0.500000 4.266779 15.7546 0.221008 0.010571
4989.75 4989.75 0.500000 4.251250 15.7649 0.224613 0.010791
4990 4990 0.500000 4.234314 15.7787 0.228663 0.010966
4990.25 4990.25 0.500000 4.218666 15.7887 0.232372 0.010912
4990.5 4990.5 0.500000 4.203254 15.8012 0.236174 0.011272
4990.75 4990.75 0.500000 4.190119 15.8117 0.239447 0.011373
4991 4991 0.500000 4.178587 15.8203 0.242354 0.011287
4991.25 4991.25 0.500000 4.168087 15.8354 0.245177 0.011504
4991.5 4991.5 0.500000 4.158342 15.8438 0.247699 0.011437
4991.75 4991.75 0.500000 4.149231 15.852 0.250106 0.011669
4992 4992 0.500000 4.142714 15.859 0.251844 0.011562
4992.25 4992.25 0.500000 4.133904 15.8692 0.254218 0.011865
4992.5 4992.5 0.500000 4.127860 15.8738 0.255822 0.011764
4992.75 4992.75 0.500000 4.120424 15.8783 0.257811 0.012048
4993 4993 0.500000 4.115097 15.8836 0.259292 0.012216
4993.25 4993.25 0.500000 4.111159 15.8845 0.260337 0.012050
4993.5 4993.5 0.500000 4.105573 15.8913 0.261905 0.012090
4993.75 4993.75 0.500000 4.102541 15.8955 0.262769 0.012156
4994 4994 0.500000 4.100015 15.9034 0.263559 0.012053
4994.25 4994.25 0.500000 4.096721 15.9082 0.264502 0.012171
4994.5 4994.5 0.500000 4.095001 15.911 0.265010 0.012145
4994.75 4994.75 0.500000 4.093918 15.9113 0.265300 0.012061
4995 4995 0.500000 4.093280 15.9568 0.266230 0.012111
4995.25 4995.25 0.500000 4.093557 15.9595 0.266199 0.012178
4995.5 4995.5 0.500000 4.093903 15.9644 0.266187 0.012189
4995.75 4995.75 0.500000 4.096506 16.0191 0.266403 0.012122
4996 4996 0.700000 4.098594 22.3347 0.370668 0.016574
4997.09 4997.08 0.710000 4.115553 22.6884 0.370195 0.016475
4998.19 4998.18 0.730000 4.143130 23.3212 0.370209 0.016195
4999.3 4999.29 0.740000 4.168926 23.6615 0.366008 0.015787
5000.44 5000.43 0.750000 4.183010 24.0188 0.366348 0.015972
5001.58 5001.58 0.760000 4.179436 24.3834 0.373237 0.016168
5002.77 5002.76 0.780000 4.161495 25.0797 0.390857 0.017077
5003.95 5003.95 0.790000 4.139440 25.4511 0.405477 0.017504
5005.16 5005.16 0.800000 4.114574 25.8339 0.421931 0.018701
5006.4 5006.39 0.810000 4.090699 26.229 0.438761 0.019324
5007.64 5007.64 0.830000 4.071145 26.9347 0.459436 0.020674
5008.91 5008.91 0.840000 4.048935 27.3178 0.476434 0.021745
5010.21 5010.2 0.850000 4.018273 27.7382 0.498878 0.023114
5011.52 5011.51 0.860000 3.990058 28.1451 0.520653 0.024432
5012.84 5012.83 0.880000 3.969862 28.8476 0.544518 0.025785
5014.19 5014.18 0.890000 3.955318 29.2239 0.559718 0.026608
5015.55 5015.54 0.900000 3.945857 29.6042 0.572389 0.027189
5016.93 5016.93 0.910000 3.939989 29.9854 0.583163 0.028163
5018.34 5018.33 0.930000 3.936141 30.6984 0.599334 0.029134
5019.76 5019.75 0.940000 3.928565 31.0877 0.611559 0.029820
5021.2 5021.19 0.950000 3.919395 31.4771 0.624923 0.030726
5022.66 5022.65 0.960000 3.912627 31.9505 0.638620 0.031437
5024.14 5024.13 0.980000 3.910775 32.6792 0.654398 0.032131
5025.63 5025.63 0.990000 3.912362 33.072 0.661214 0.032395
5027.14 5027.14 1.000000 3.914081 33.4649 0.667925 0.032696
5028.69 5028.68 1.010000 3.915774 33.8725 0.674914 0.032770
5030.24 5030.24 1.030000 3.918611 34.6026 0.687512 0.032992
5031.82 5031.81 1.040000 3.922586 35.0008 0.692642 0.032606
5033.41 5033.4 1.050000 3.929210 35.4015 0.695940 0.032100
5035.02 5035.01 1.060000 3.936285 35.8078 0.698977 0.031688
5036.65 5036.65 1.080000 3.943407 36.5541 0.708491 0.031776
5038.29 5038.3 1.090000 3.948089 36.9568 0.712963 0.031728
5039.97 5039.97 1.100000 3.950005 37.365 0.719451 0.032127
5041.64 5041.65 1.110000 3.948944 37.7722 0.728061 0.032586
5043.36 5043.36 1.130000 3.946448 38.5197 0.744326 0.033618
5045.09 5045.09 1.140000 3.941905 38.9333 0.755749 0.034711
5046.83 5046.83 1.150000 3.935002 39.3477 0.769078 0.035681
5048.6 5048.6 1.160000 3.927009 39.7682 0.783536 0.037095
5050.38 5050.38 1.180000 3.920486 40.5299 0.803767 0.038960
5052.18 5052.18 1.190000 3.914552 40.9479 0.816889 0.040272
5054 5054 1.200000 3.908610 41.3806 0.830443 0.041625
5055.83 5055.84 1.210000 3.902505 41.8093 0.844179 0.042697
5057.7 5057.7 1.230000 3.898694 42.5913 0.863255 0.043737
5059.58 5059.58 1.240000 3.896329 43.0283 0.874179 0.044288
5061.48 5061.48 1.250000 3.895137 43.4624 0.884054 0.045006
5063.4 5063.4 1.260000 3.892027 43.8973 0.895679 0.045873
5065.33 5065.33 1.280000 3.888151 44.6979 0.915561 0.047607
5067.29 5067.29 1.290000 3.884894 45.1391 0.927614 0.048227
5069.26 5069.26 1.300000 3.881457 45.5822 0.939940 0.049265
5071.26 5071.26 1.310000 3.877767 46.0353 0.952793 0.049927
5073.27 5073.27 1.330000 3.874022 46.847 0.973227 0.051032
5075.3 5075.3 1.340000 3.868458 47.2961 0.988040 0.051699
5077.35 5077.35 1.350000 3.861403 47.7679 1.004968 0.052079
5079.42 5079.42 1.360000 3.851780 48.2305 1.024520 0.052654
5081.51 5081.51 1.380000 3.842794 49.0462 1.051237 0.052639
5083.61 5083.61 1.390000 3.834619 49.5168 1.070033 0.053112
5085.74 5085.74 1.400000 3.829774 49.9824 1.085348 0.052411
5087.89 5087.89 1.410000 3.826809 50.456 1.098884 0.052763
5090.05 5090.05 1.430000 3.823075 51.2971 1.121372 0.053713
5092.23 5092.23 1.440000 3.817666 51.7859 1.138204 0.054554
5094.44 5094.44 1.450000 3.809207 52.2858 1.158956 0.056444
5096.66 5096.66 1.460000 3.799649 52.7733 1.180994 0.058393
5098.9 5098.9 1.480000 3.788392 53.6281 1.213703 0.062043
5101.16 5101.16 1.490000 3.777535 54.1152 1.238090 0.064735
5103.44 5103.44 1.500000 3.767887 54.6116 1.261575 0.067809
5105.74 5105.74 1.510000 3.759648 55.1447 1.284437 0.069735
5108.05 5108.05 1.530000 3.752929 56.0987 1.315461 0.071455
5110.39 5110.39 1.540000 3.747388 56.5999 1.334584 0.072423
5112.74 5112.74 1.550000 3.741400 57.1039 1.354552 0.073729
5115.12 5115.12 1.560000 3.735127 57.6047 1.375027 0.075209
5117.51 5117.51 1.580000 3.730422 58.4873 1.402683 0.076842
5119.92 5119.92 1.590000 3.726212 59.0032 1.421023 0.077912
5122.35 5122.35 1.600000 3.721711 59.5263 1.440096 0.079214
5124.8 5124.8 1.610000 3.718470 60.046 1.457380 0.080758
5127.27 5127.27 1.630000 3.716770 60.9506 1.481856 0.082492
5129.76 5129.76 1.640000 3.715720 61.4905 1.496549 0.083690
5132.27 5132.27 1.650000 3.714051 62.0361 1.512350 0.084906
5134.79 5134.79 1.660000 3.711990 62.5743 1.528620 0.085286
5137.34 5137.34 1.680000 3.708554 63.5107 1.556838 0.087231
5139.9 5139.9 1.690000 3.704542 64.1421 1.578636 0.087833
5142.49 5142.49 1.700000 3.699422 64.7677 1.602204 0.088822
5145.09 5145.09 1.710000 3.695224 65.326 1.622818 0.089088
5147.71 5147.71 1.730000 3.690834 66.2653 1.653392 0.090375
5150.35 5150.35 1.740000 3.685781 66.9918 1.679999 0.091898
5153.01 5153.01 1.750000 3.678704 67.5571 1.706208 0.093743
5155.69 5155.69 1.760000 3.670429 68.1362 1.735121 0.096087
5158.39 5158.39 1.780000 3.661155 69.108 1.776262 0.099812
5161.11 5161.11 1.790000 3.651659 69.6913 1.808359 0.102710
5163.84 5163.84 1.800000 3.641199 70.2777 1.842730 0.105404
5166.6 5166.6 1.810000 3.629637 70.8716 1.879919 0.108243
5169.37 5169.37 1.830000 3.617998 71.8356 1.927821 0.112323
5172.17 5172.17 1.840000 3.608836 72.4233 1.961466 0.115360
5174.98 5174.98 1.850000 3.601857 73.0112 1.991222 0.118603
5177.81 5177.81 1.860000 3.597085 73.5812 2.016379 0.120969
5180.66 5180.66 1.880000 3.591791 74.5755 2.054470 0.124445
5183.53 5183.53 1.890000 3.587373 75.193 2.080659 0.126372
5186.42 5186.42 1.900000 3.583419 75.7742 2.105049 0.128405
5189.32 5189.32 1.910000 3.580618 76.3781 2.127779 0.129906
5192.25 5192.25 1.930000 3.577359 77.3631 2.162253 0.132469
5195.2 5195.2 1.940000 3.573482 77.9393 2.186824 0.133967
5198.16 5198.16 1.950000 3.567876 78.5043 2.215041 0.135892
5201.14 5201.14 1.960000 3.562278 79.1168 2.244869 0.137818
5204.15 5204.15 1.980000 3.557169 80.1581 2.286071 0.140693
5207.17 5207.17 1.990000 3.551948 80.7615 2.315329 0.142122
5210.21 5210.21 2.000000 3.544921 81.3718 2.349277 0.144554
5213.27 5213.27 2.010000 3.537009 81.9921 2.385981 0.146657
5216.35 5216.35 2.030000 3.528483 83.0496 2.437456 0.150581
5219.45 5219.45 2.040000 3.519800 83.6887 2.477632 0.153918
5222.56 5222.56 2.050000 3.510751 84.3447 2.519753 0.157234
5225.7 5225.7 2.060000 3.502336 84.9792 2.560165 0.160819
5228.85 5228.85 2.080000 3.494015 86.0425 2.613863 0.164875
5232.03 5232.03 2.090000 3.484789 86.7053 2.658407 0.168774
5235.22 5235.22 2.100000 3.475904 87.3967 2.703508 0.172657
5238.43 5238.43 2.110000 3.467380 88.0865 2.748180 0.176683
5241.66 5241.66 2.130000 3.459578 89.1637 2.803571 0.181648
5244.92 5244.92 2.140000 3.453016 89.8202 2.842819 0.185506
5248.18 5248.18 2.150000 3.448465 89.9258 2.859136 0.188411
5251.47 5251.47 2.160000 3.442817 90.9394 2.907744 0.192975
5254.78 5254.78 2.180000 3.437112 92.5049 2.974717 0.198426
5258.11 5258.11 2.190000 3.432424 93.3841 3.017114 0.202269
5261.45 5261.45 2.200000 3.427534 94.0693 3.054140 0.205676
5264.82 5264.82 2.210000 3.422692 94.8751 3.095251 0.209484
5268.2 5268.2 2.230000 3.416974 96.0793 3.152520 0.213975
5271.6 5271.6 2.240000 3.410397 96.8593 3.199091 0.217947
5275.03 5275.03 2.250000 3.403668 97.7354 3.249811 0.221842
5278.47 5278.47 2.260000 3.396859 97.5702 3.266484 0.223936
5281.93 5281.93 2.280000 3.390602 99.5832 3.354796 0.230288
5285.4 5285.4 2.290000 3.382486 100.465 3.412089 0.234828
5288.9 5288.9 2.300000 3.373476 101.465 3.477251 0.240403
5292.42 5292.42 2.310000 3.365031 102.254 3.533986 0.245168
5295.96 5295.96 2.330000 3.357431 103.551 3.606133 0.251676
5299.51 5299.51 2.340000 3.349921 104.432 3.664225 0.257001
5303.09 5303.09 2.350000 3.342319 105.231 3.720431 0.262852
5306.68 5306.68 2.360000 3.334812 106.059 3.777970 0.268125
5310.29 5310.29 2.380000 3.326761 107.34 3.854503 0.274700
5313.92 5313.92 2.390000 3.319048 108.134 3.913092 0.280413
5317.57 5317.57 2.400000 3.311724 108.886 3.969249 0.285918
5321.24 5321.24 2.410000 3.304954 109.483 4.018112 0.290708
5324.93 5324.93 2.430000 3.297983 110.521 4.084565 0.296976
5328.64 5328.64 2.440000 3.290858 111.034 4.132926 0.303404
5332.36 5332.36 2.450000 3.283205 111.753 4.191598 0.309026
5336.11 5336.11 2.460000 3.276126 112.529 4.250675 0.315485
5339.87 5339.87 2.480000 3.268298 113.748 4.330533 0.323406
5343.66 5343.66 2.490000 3.260694 114.432 4.389816 0.330530
5347.46 5347.46 2.500000 3.252786 114.974 4.445614 0.336467
5351.28 5351.28 2.510000 3.245853 115.469 4.495827 0.342309
5355.12 5355.12 2.530000 3.237492 116.05 4.556358 0.348597
5358.98 5358.98 2.540000 3.231220 117.567 4.644984 0.356351
5362.86 5362.86 2.550000 3.223755 118.226 4.706048 0.362416
5366.76 5366.76 2.560000 3.216463 118.752 4.761580 0.368387
5370.68 5370.68 2.580000 3.209555 119.691 4.832473 0.374787
5374.61 5374.61 2.590000 3.202351 120.203 4.888241 0.380963
5378.57 5378.57 2.600000 3.195023 120.716 4.945216 0.387733
5382.54 5382.54 2.610000 3.187928 121.238 5.001957 0.394444
5386.54 5386.54 2.630000 3.180638 122.181 5.077718 0.402180
5390.55 5390.55 2.640000 3.173333 122.603 5.132637 0.409244
5394.58 5394.58 2.650000 3.166264 123.414 5.203236 0.417315
5398.63 5398.63 2.660000 3.158832 123.595 5.249750 0.422688
5402.7 5402.7 2.680000 3.151009 124.566 5.332550 0.432158
5406.79 5406.79 2.690000 3.143288 124.843 5.385814 0.438483
5410.9 5410.9 2.700000 3.135257 125.14 5.442173 0.446104
5415.02 5415.02 2.710000 3.127534 125.599 5.504471 0.454068
5419.17 5419.17 2.730000 3.120163 125.986 5.562288 0.460972
5423.33 5423.33 2.740000 3.112523 126.585 5.631567 0.469370
5427.52 5427.52 2.750000 3.104907 126.989 5.692757 0.477564
5431.72 5431.72 2.760000 3.098105 127.354 5.748071 0.484994
5435.94 5435.94 2.780000 3.091124 128.399 5.835860 0.495323
5440.18 5440.18 2.790000 3.083822 128.889 5.901059 0.504079
5444.44 5444.44 2.800000 3.076689 129.321 5.963222 0.512096
5448.72 5448.72 2.810000 3.069695 129.786 6.026676 0.520549
5453.02 5453.02 2.830000 3.062773 130.97 6.123874 0.531752
5457.34 5457.34 2.840000 3.055697 131.665 6.200095 0.540982
5461.67 5461.67 2.850000 3.048817 132.23 6.269663 0.549904
5466.03 5466.03 2.860000 3.041519 132.864 6.345937 0.559266
5470.4 5470.4 2.880000 3.034022 133.976 6.447183 0.571529
5474.8 5474.8 2.890000 3.026151 134.655 6.531056 0.581316
5479.21 5479.21 2.900000 3.018198 135.273 6.613395 0.592068
5483.64 5483.64 2.910000 3.010280 135.926 6.698163 0.602672
5488.09 5488.09 2.930000 3.002121 137.031 6.807924 0.615989
5492.56 5492.56 2.940000 2.993712 137.761 6.902002 0.628113
5497.05 5497.05 2.950000 2.984849 138.479 6.999719 0.640805
5501.56 5501.56 2.960000 2.976608 139.264 7.097647 0.652722
5506.08 5506.08 2.980000 2.968258 140.448 7.218038 0.667610
5510.63 5510.63 2.990000 2.959964 141.252 7.319808 0.680596
5515.19 5515.19 3.000000 2.951620 142.087 7.424795 0.694329
5519.78 5519.78 3.010000 2.943548 142.933 7.529510 0.708088
5524.38 5524.38 3.030000 2.935664 144.265 7.659860 0.724082
5529 5529 3.040000 2.927765 145.141 7.767475 0.738659
5533.64 5533.64 3.050000 2.919917 146.013 7.875704 0.753256
5538.3 5538.3 3.060000 2.912356 146.873 7.982240 0.767798
5542.98 5542.98 3.080000 2.904820 148.267 8.118928 0.785816
5547.68 5547.68 3.090000 2.897209 149.077 8.225642 0.800417
5552.4 5552.4 3.100000 2.889576 150.253 8.354099 0.817589
5557.13 5557.13 3.110000 2.882068 151.192 8.469636 0.833105
5561.89 5561.89 3.130000 2.874507 152.566 8.611495 0.850945
5566.66 5566.66 3.140000 2.866328 153.501 8.735433 0.868898
5571.46 5571.46 3.150000 2.858126 154.4 8.858911 0.886097
5576.27 5576.27 3.160000 2.850326 155.546 8.994570 0.904233
5581.1 5581.1 3.180000 2.842350 157.089 9.156550 0.925486
5585.95 5585.95 3.190000 2.834536 157.994 9.281524 0.942715
5590.82 5590.82 3.200000 2.826334 158.892 9.411158 0.962051
5595.71 5595.71 3.210000 2.818255 159.772 9.540032 0.980396
5600.62 5600.62 3.230000 2.810275 161.162 9.700169 1.002884
5605.54 5605.54 3.240000 2.802077 162.035 9.832964 1.021516
5610.49 5610.49 3.250000 2.793770 162.944 9.970615 1.041500
5615.45 5615.45 3.260000 2.785931 164.081 10.1192 1.062910
5620.44 5620.44 3.280000 2.777850 165.428 10.285 1.086677
5625.44 5625.44 3.290000 2.770890 165.453 10.3585 1.101131
5630.46 5630.46 3.300000 2.762348 166.181 10.4933 1.122088
5635.5 5635.5 3.310000 2.754737 166.507 10.5942 1.139171
5640.56 5640.56 3.330000 2.746217 167.983 10.7795 1.165284
5645.64 5645.64 3.340000 2.738005 168.619 10.9096 1.186808
5650.74 5650.74 3.350000 2.730369 169.234 11.0333 1.207228
5655.86 5655.86 3.360000 2.722266 169.931 11.1689 1.228751
5660.99 5660.99 3.380000 2.714395 171.326 11.3495 1.255894
5666.15 5666.15 3.390000 2.706205 172.269 11.5058 1.280768
5671.32 5671.32 3.400000 2.698234 173.385 11.673 1.306592
5676.52 5676.52 3.410000 2.690111 174.543 11.8469 1.333306
5681.73 5681.73 3.430000 2.682269 176.033 12.0421 1.363013
5686.96 5686.96 3.440000 2.674328 176.914 12.1988 1.388966
5692.21 5692.21 3.450000 2.666416 177.793 12.3568 1.414772
5697.48 5697.48 3.460000 2.658313 178.647 12.5171 1.441263
5702.77 5702.77 3.480000 2.649932 179.914 12.712 1.472439
5708.08 5708.08 3.490000 2.641673 180.672 12.8714 1.499650