File: xdidata/Ti/Ti-K-Gd2TiO5.xdi
# XDI/1.0 BlueSky/1.5.0
# Beamline.name: 6BM
# Beamline.xray_source: NSLS-II three-pole wiggler
# Beamline.collimation: paraboloid mirror, 5 nm Rh on 30 nm Pt
# Beamline.focusing: not in use
# Beamline.harmonic_rejection: flat mirror, Si stripe, pitch = 7.0 mrad relative to beam
# Detector.i0: 10 cm N2
# Detector.i1: 25 cm N2
# Detector.i2: 25 cm N2
# Element.symbol: Ti
# Element.edge: K
# Facility.name: NSLS-II
# Facility.energy: 3.0
# Facility.current: 220.2
# Facility.mode: top-off
# Facility.gup: 301027
# Facility.saf: 304156
# Mono.name: Si(111)
# Mono.d_spacing: 3.13526
# Mono.encoder_resolution: 0.0000050 deg/ct
# Mono.angle_offset: 16.0571 deg
# Mono.scan_mode: pseudo channel cut
# Mono.scan_type: step
# Mono.direction: forward in energy
# Sample.name: Gd2TiO5
# Sample.prep: Powder in polyethylene glycol pellet
# Sample.x_position: -97.532 mm
# Sample.y_position: 117.543 mm
# Sample.wheel_position: -660.000 mm
# Scan.experimenters: Bruce Ravel, Martin Stennett
# Scan.edge_energy: 4966.0
# Scan.start_time: 2019-05-30T06:34:57
# Scan.end_time: 2019-05-30T07:18:04
# Scan.transient_id: 9800
# Scan.uid: ab891910-b780-46a3-beb0-4f663fd13232
# Scan.plot_hint: ln(I0/It)  --  ln($5/$6)
# Scan.sequence: merge of 3 scans
# Column.1: energy eV
# Column.2: requested_energy eV
# Column.3: measurement_time seconds
# Column.4: mutrans
# Column.5: i0
# Column.6: itrans
# Column.7: irefer
# /////
#  sample disk prepared by Martin
# -----
# energy   requested_energy   measurement_time   mutrans   i0   itrans   irefer
4766 4766 0.500000 4.178798 11.0034 0.168569 0.014305
4776.01 4776 0.500000 4.166853 11.1933 0.173508 0.014928
4786.01 4786 0.500000 4.138947 11.4087 0.181851 0.015803
4796.01 4796 0.500000 4.111993 11.6266 0.190387 0.016500
4806.01 4806 0.500000 4.083481 11.8492 0.199644 0.017627
4816.01 4816 0.500000 4.056256 12.0617 0.208833 0.018667
4826.01 4826 0.500000 4.027908 12.2704 0.218557 0.019635
4836 4836 0.500000 4.002077 12.504 0.228545 0.020535
4846 4846 0.500000 3.974706 12.7325 0.239177 0.022020
4856 4856 0.500000 3.947003 12.9494 0.250081 0.023219
4866.01 4866 0.500000 3.919355 13.165 0.261376 0.024478
4876.01 4876 0.500000 3.892433 13.3853 0.273002 0.025945
4886.01 4886 0.500000 3.865883 13.5968 0.284778 0.027364
4896.01 4896 0.500000 3.839619 13.801 0.296749 0.028637
4906 4906 0.500000 3.813150 13.9989 0.309075 0.030452
4916 4916 0.500000 3.786864 14.1915 0.321673 0.032056
4926 4926 0.500000 3.761133 14.3869 0.334600 0.033631
4936 4936 0.500000 3.735954 14.5787 0.347708 0.035241
4938 4938 0.500000 3.730444 14.6165 0.350538 0.035576
4940 4940 0.500000 3.725869 14.6528 0.353014 0.035961
4942 4942 0.500000 3.720768 14.6861 0.355629 0.036222
4944.01 4944 0.500000 3.715927 14.7188 0.358152 0.036245
4946.01 4946 0.500000 3.709818 14.7527 0.361176 0.036883
4948 4948 0.500000 3.705424 14.7842 0.363539 0.037474
4950 4950 0.500000 3.699902 14.8208 0.366458 0.037960
4952 4952 0.500000 3.695063 14.8544 0.369068 0.037953
4954 4954 0.500000 3.689990 14.8836 0.371678 0.038379
4956 4956 0.500000 3.686049 14.9122 0.373861 0.038506
4956.25 4956.25 0.500000 3.684816 14.9142 0.374372 0.038608
4956.5 4956.5 0.500000 3.684166 14.9149 0.374635 0.038598
4956.74 4956.75 0.500000 3.683513 14.9179 0.374955 0.038593
4956.99 4957 0.500000 3.683102 14.9216 0.375202 0.038542
4957.25 4957.25 0.500000 3.682527 14.9238 0.375473 0.038738
4957.5 4957.5 0.500000 3.682290 14.9314 0.375754 0.038747
4957.75 4957.75 0.500000 3.681691 14.9354 0.376080 0.038598
4958 4958 0.500000 3.680174 14.9357 0.376660 0.038836
4958.24 4958.25 0.500000 3.679699 14.9471 0.377124 0.038844
4958.49 4958.5 0.500000 3.679046 14.9672 0.377877 0.038777
4958.74 4958.75 0.500000 3.677974 14.9731 0.378431 0.038987
4959 4959 0.500000 3.678259 14.9773 0.378433 0.039143
4959.25 4959.25 0.500000 3.677325 14.9789 0.378822 0.038905
4959.5 4959.5 0.500000 3.676294 14.9826 0.379310 0.038924
4959.75 4959.75 0.500000 3.676266 14.9844 0.379367 0.039134
4960 4960 0.500000 3.675415 14.9881 0.379782 0.039078
4960.25 4960.25 0.500000 3.674622 14.9895 0.380120 0.039368
4960.49 4960.5 0.500000 3.674010 14.9961 0.380517 0.039052
4960.74 4960.75 0.500000 3.673474 15.0023 0.380880 0.039284
4960.99 4961 0.500000 3.673163 15.0049 0.381064 0.039226
4961.25 4961.25 0.500000 3.672865 15.0087 0.381275 0.039050
4961.5 4961.5 0.500000 3.671927 15.0124 0.381726 0.039159
4961.75 4961.75 0.500000 3.671199 15.0153 0.382076 0.039245
4962 4962 0.500000 3.671544 15.0208 0.382088 0.038976
4962.25 4962.25 0.500000 3.670116 15.0241 0.382719 0.038917
4962.49 4962.5 0.500000 3.669405 15.0287 0.383103 0.039021
4962.75 4962.75 0.500000 3.670133 15.033 0.382937 0.038487
4962.99 4963 0.500000 3.668469 15.0361 0.383653 0.038681
4963.24 4963.25 0.500000 3.668611 15.0414 0.383737 0.038486
4963.5 4963.5 0.500000 3.667522 15.0466 0.384286 0.038499
4963.75 4963.75 0.500000 3.667691 15.0517 0.384351 0.037757
4964 4964 0.500000 3.666861 15.091 0.385675 0.037208
4964.25 4964.25 0.500000 3.666556 15.0939 0.385866 0.036163
4964.5 4964.5 0.500000 3.665993 15.0964 0.386148 0.034484
4964.75 4964.75 0.500000 3.665049 15.0989 0.386574 0.032214
4964.99 4965 0.500000 3.665657 15.101 0.386395 0.029882
4965.25 4965.25 0.500000 3.665436 15.1058 0.386605 0.027830
4965.5 4965.5 0.500000 3.665414 15.111 0.386744 0.027161
4965.75 4965.75 0.500000 3.664814 15.1163 0.387113 0.027283
4966 4966 0.500000 3.665872 15.1204 0.386812 0.027949
4966.25 4966.25 0.500000 3.665570 15.1222 0.386969 0.029064
4966.5 4966.5 0.500000 3.667922 15.1233 0.386089 0.029877
4966.75 4966.75 0.500000 3.669756 15.1281 0.385504 0.030739
4967 4967 0.500000 3.674631 15.1294 0.383658 0.030614
4967.25 4967.25 0.500000 3.680672 15.1303 0.381368 0.030623
4967.5 4967.5 0.500000 3.687744 15.1304 0.378670 0.030155
4967.75 4967.75 0.500000 3.697124 15.136 0.375284 0.029633
4968 4968 0.500000 3.706310 15.1439 0.372050 0.029204
4968.25 4968.25 0.500000 3.716009 15.1471 0.368549 0.028302
4968.5 4968.5 0.500000 3.722199 15.1495 0.366332 0.027686
4968.75 4968.75 0.500000 3.719453 15.1502 0.367356 0.027208
4969 4969 0.500000 3.706176 15.1549 0.372361 0.027316
4969.25 4969.25 0.500000 3.690826 15.156 0.378095 0.027419
4969.5 4969.5 0.500000 3.679571 15.1548 0.382357 0.027536
4969.75 4969.75 0.500000 3.671825 15.1533 0.385351 0.027546
4970 4970 0.500000 3.667264 15.156 0.387169 0.027308
4970.25 4970.25 0.500000 3.665618 15.164 0.388017 0.027195
4970.5 4970.5 0.500000 3.664608 15.1754 0.388707 0.027306
4970.75 4970.75 0.500000 3.664810 15.2167 0.389686 0.027103
4971 4971 0.500000 3.664923 15.2246 0.389844 0.026973
4971.25 4971.25 0.500000 3.664832 15.2341 0.390123 0.026723
4971.5 4971.5 0.500000 3.664371 15.2388 0.390424 0.026599
4971.75 4971.75 0.500000 3.664008 15.2428 0.390666 0.026071
4972 4972 0.500000 3.664084 15.2482 0.390776 0.025779
4972.25 4972.25 0.500000 3.664498 15.2513 0.390695 0.025220
4972.5 4972.5 0.500000 3.665101 15.2551 0.390556 0.024435
4972.75 4972.75 0.500000 3.666290 15.2587 0.390184 0.023966
4973 4973 0.500000 3.664875 15.2625 0.390834 0.023526
4973.25 4973.25 0.500000 3.664882 15.2652 0.390900 0.023392
4973.5 4973.5 0.500000 3.664228 15.2694 0.391262 0.022777
4973.75 4973.75 0.500000 3.664241 15.2703 0.391280 0.022010
4974 4974 0.500000 3.664448 15.274 0.391293 0.021737
4974.25 4974.25 0.500000 3.665110 15.2753 0.391070 0.021485
4974.5 4974.5 0.500000 3.666024 15.2783 0.390787 0.021212
4974.75 4974.75 0.500000 3.666226 15.2786 0.390718 0.020893
4975 4975 0.500000 3.667040 15.2825 0.390498 0.020414
4975.25 4975.25 0.500000 3.668314 15.2807 0.389959 0.019976
4975.5 4975.5 0.500000 3.669020 15.2799 0.389660 0.019646
4975.75 4975.75 0.500000 3.669401 15.2805 0.389527 0.019283
4976 4976 0.500000 3.669564 15.2793 0.389433 0.018864
4976.25 4976.25 0.500000 3.669771 15.2777 0.389310 0.018579
4976.5 4976.5 0.500000 3.670214 15.2796 0.389189 0.018284
4976.75 4976.75 0.500000 3.670150 15.2771 0.389146 0.017851
4977 4977 0.500000 3.670774 15.2806 0.388995 0.017672
4977.25 4977.25 0.500000 3.671582 15.2824 0.388724 0.017549
4977.5 4977.5 0.500000 3.672450 15.2864 0.388492 0.017457
4977.75 4977.75 0.500000 3.674231 15.2898 0.387882 0.017028
4978 4978 0.500000 3.675847 15.2907 0.387284 0.016799
4978.25 4978.25 0.500000 3.677434 15.2944 0.386760 0.016896
4978.5 4978.5 0.500000 3.679655 15.2958 0.385942 0.016803
4978.75 4978.75 0.500000 3.682877 15.2953 0.384681 0.016364
4979 4979 0.500000 3.685598 15.2979 0.383709 0.016346
4979.25 4979.25 0.500000 3.688606 15.2959 0.382498 0.016161
4979.5 4979.5 0.500000 3.689908 15.2967 0.382027 0.016373
4979.75 4979.75 0.500000 3.693759 15.2927 0.380454 0.016286
4980 4980 0.500000 3.695488 15.2915 0.379769 0.016081
4980.25 4980.25 0.500000 3.698225 15.2902 0.378686 0.016156
4980.5 4980.5 0.500000 3.701343 15.2869 0.377449 0.015946
4980.75 4980.75 0.500000 3.705191 15.2835 0.375909 0.015988
4981 4981 0.500000 3.709447 15.2839 0.374325 0.015729
4981.25 4981.25 0.500000 3.715689 15.2829 0.371956 0.015539
4981.5 4981.5 0.500000 3.721285 15.2846 0.369943 0.015322
4981.75 4981.75 0.500000 3.728198 15.2864 0.367404 0.015551
4982 4982 0.500000 3.736422 15.2884 0.364482 0.015112
4982.25 4982.25 0.500000 3.743767 15.2897 0.361802 0.015057
4982.5 4982.5 0.500000 3.750059 15.2907 0.359591 0.014829
4982.75 4982.75 0.500000 3.755125 15.2949 0.357862 0.014645
4983 4983 0.500000 3.759610 15.2955 0.356280 0.014674
4983.25 4983.25 0.500000 3.761940 15.2954 0.355438 0.014690
4983.5 4983.5 0.500000 3.764260 15.2928 0.354561 0.014340
4983.75 4983.75 0.500000 3.765683 15.2903 0.354000 0.014555
4984 4984 0.500000 3.767295 15.2902 0.353427 0.014764
4984.25 4984.25 0.500000 3.768245 15.2898 0.353079 0.014538
4984.5 4984.5 0.500000 3.769745 15.289 0.352536 0.014529
4984.75 4984.75 0.500000 3.770188 15.2889 0.352376 0.014725
4985 4985 0.500000 3.768997 15.2929 0.352883 0.014845
4985.25 4985.25 0.500000 3.768658 15.2944 0.353042 0.014764
4985.5 4985.5 0.500000 3.767154 15.2963 0.353616 0.014851
4985.75 4985.75 0.500000 3.765843 15.2985 0.354135 0.015039
4986 4986 0.500000 3.763119 15.2981 0.355090 0.015205
4986.25 4986.25 0.500000 3.760979 15.2945 0.355765 0.015186
4986.5 4986.5 0.500000 3.758211 15.295 0.356759 0.015279
4986.75 4986.75 0.500000 3.755270 15.2936 0.357777 0.015554
4987 4987 0.500000 3.752878 15.3202 0.359261 0.015515
4987.25 4987.25 0.500000 3.750434 15.3175 0.360078 0.015410
4987.5 4987.5 0.500000 3.748033 15.3159 0.360907 0.015727
4987.75 4987.75 0.500000 3.746669 15.3204 0.361503 0.015686
4988 4988 0.500000 3.745618 15.3221 0.361921 0.015712
4988.25 4988.25 0.500000 3.745037 15.3265 0.362238 0.015643
4988.5 4988.5 0.500000 3.744514 15.3342 0.362609 0.015983
4988.75 4988.75 0.500000 3.745197 15.3445 0.362606 0.015702
4989 4989 0.500000 3.744793 15.355 0.363000 0.015696
4989.25 4989.25 0.500000 3.745195 15.3676 0.363154 0.015758
4989.5 4989.5 0.500000 3.744633 15.3773 0.363583 0.015989
4989.75 4989.75 0.500000 3.746092 15.3895 0.363344 0.015982
4990 4990 0.500000 3.745954 15.4041 0.363741 0.015651
4990.25 4990.25 0.500000 3.747441 15.4156 0.363474 0.015555
4990.5 4990.5 0.500000 3.747734 15.4288 0.363675 0.015960
4990.75 4990.75 0.500000 3.748871 15.44 0.363526 0.015844
4991 4991 0.500000 3.749483 15.4544 0.363644 0.015956
4991.26 4991.25 0.500000 3.750004 15.4617 0.363620 0.015842
4991.5 4991.5 0.500000 3.750394 15.4689 0.363652 0.015929
4991.75 4991.75 0.500000 3.750549 15.4784 0.363818 0.015887
4992 4992 0.500000 3.749546 15.4905 0.364465 0.016165
4992.25 4992.25 0.500000 3.750130 15.499 0.364455 0.015985
4992.5 4992.5 0.500000 3.749515 15.5057 0.364835 0.016131
4992.75 4992.75 0.500000 3.749465 15.5108 0.364973 0.016202
4993 4993 0.500000 3.750027 15.5183 0.364945 0.016183
4993.25 4993.25 0.500000 3.750711 15.5251 0.364856 0.016215
4993.5 4993.5 0.500000 3.752029 15.5619 0.365235 0.016098
4993.75 4993.75 0.500000 3.752794 15.5666 0.365070 0.016256
4994 4994 0.500000 3.753683 15.5691 0.364803 0.016189
4994.25 4994.25 0.500000 3.754994 15.5749 0.364466 0.016237
4994.5 4994.5 0.500000 3.755816 15.5793 0.364266 0.015914
4994.75 4994.75 0.500000 3.756670 15.5837 0.364058 0.015988
4995 4995 0.500000 3.758033 15.5866 0.363629 0.015742
4995.25 4995.25 0.500000 3.759075 15.5908 0.363348 0.015519
4995.5 4995.5 0.500000 3.759662 15.592 0.363164 0.015598
4995.75 4995.75 0.500000 3.759985 15.6029 0.363301 0.015387
4996 4996 0.700000 3.759562 21.7775 0.507285 0.021582
4997.09 4997.08 0.710000 3.756797 22.159 0.517607 0.021387
4998.18 4998.18 0.730000 3.750253 22.7839 0.535679 0.021908
4999.3 4999.29 0.740000 3.743991 23.1083 0.546732 0.021976
5000.44 5000.43 0.750000 3.738523 23.4598 0.558091 0.022120
5001.59 5001.58 0.760000 3.732619 23.8478 0.570677 0.023073
5002.77 5002.76 0.780000 3.726676 24.5464 0.590902 0.023777
5003.96 5003.95 0.790000 3.721637 24.9175 0.602867 0.024371
5005.16 5005.16 0.800000 3.715386 25.2913 0.615738 0.025130
5006.4 5006.39 0.810000 3.708542 25.6821 0.629554 0.026299
5007.65 5007.64 0.830000 3.703886 26.3762 0.649588 0.028063
5008.91 5008.91 0.840000 3.698377 26.7463 0.662334 0.029052
5010.21 5010.2 0.850000 3.691652 27.1177 0.676066 0.029721
5011.52 5011.51 0.860000 3.684509 27.5015 0.690555 0.031106
5012.83 5012.83 0.880000 3.680543 28.1864 0.710557 0.032086
5014.19 5014.18 0.890000 3.675962 28.5588 0.723252 0.032748
5015.55 5015.54 0.900000 3.671505 28.9281 0.735880 0.033722
5016.94 5016.93 0.910000 3.666973 29.3122 0.749041 0.034573
5018.33 5018.33 0.930000 3.661959 30.0132 0.770799 0.036094
5019.76 5019.75 0.940000 3.656045 30.4001 0.785375 0.036841
5021.19 5021.19 0.950000 3.650530 30.7856 0.799721 0.037827
5022.66 5022.65 0.960000 3.646362 31.1775 0.813297 0.038443
5024.14 5024.13 0.980000 3.642269 31.8922 0.835348 0.039603
5025.63 5025.63 0.990000 3.638532 32.2857 0.848816 0.040087
5027.14 5027.14 1.000000 3.633766 32.679 0.863267 0.040778
5028.69 5028.68 1.010000 3.629009 33.0779 0.877975 0.041238
5030.25 5030.24 1.030000 3.624912 33.8046 0.900947 0.041712
5031.81 5031.81 1.040000 3.620853 34.1996 0.915162 0.041565
5033.41 5033.4 1.050000 3.616330 34.6021 0.930147 0.041609
5035.02 5035.01 1.060000 3.613057 35.006 0.944098 0.041248
5036.65 5036.65 1.080000 3.610206 35.7345 0.966487 0.041603
5038.29 5038.3 1.090000 3.607607 36.1453 0.980126 0.041741
5039.97 5039.97 1.100000 3.606068 36.5621 0.992968 0.042240
5041.65 5041.65 1.110000 3.604496 36.9774 1.005829 0.042940
5043.35 5043.36 1.130000 3.602081 37.7231 1.028588 0.044567
5045.09 5045.09 1.140000 3.599610 38.1428 1.042613 0.045429
5046.83 5046.83 1.150000 3.596362 38.563 1.057529 0.047059
5048.6 5048.6 1.160000 3.593797 38.9849 1.071843 0.048758
5050.38 5050.38 1.180000 3.591116 39.755 1.095951 0.050724
5052.18 5052.18 1.190000 3.587777 40.1873 1.111569 0.052464
5054 5054 1.200000 3.583314 40.6229 1.128645 0.054492
5055.84 5055.84 1.210000 3.578628 41.0596 1.146129 0.055972
5057.69 5057.7 1.230000 3.574567 41.8458 1.172833 0.057419
5059.58 5059.58 1.240000 3.571110 42.296 1.189561 0.058586
5061.48 5061.48 1.250000 3.568803 42.7385 1.204781 0.059286
5063.4 5063.4 1.260000 3.566170 43.1899 1.220712 0.060356
5065.33 5065.33 1.280000 3.563294 43.9938 1.247020 0.062083
5067.29 5067.29 1.290000 3.559916 44.4443 1.264050 0.063172
5069.26 5069.26 1.300000 3.555872 44.9023 1.282252 0.064637
5071.26 5071.26 1.310000 3.550600 45.3701 1.302456 0.065969
5073.27 5073.27 1.330000 3.544899 46.1842 1.333410 0.067704
5075.3 5075.3 1.340000 3.539042 46.7405 1.357399 0.068434
5077.35 5077.35 1.350000 3.533134 47.2148 1.379314 0.068565
5079.42 5079.42 1.360000 3.527093 47.6941 1.401744 0.069166
5081.51 5081.51 1.380000 3.521326 48.5162 1.434163 0.069606
5083.61 5083.61 1.390000 3.515718 48.998 1.456545 0.069902
5085.74 5085.74 1.400000 3.509983 49.4759 1.479212 0.069503
5087.89 5087.89 1.410000 3.503996 49.9559 1.502520 0.069608
5090.05 5090.05 1.430000 3.498521 50.8022 1.536388 0.070704
5092.23 5092.23 1.440000 3.493154 51.2986 1.559723 0.072116
5094.44 5094.44 1.450000 3.487615 51.9346 1.587836 0.074533
5096.66 5096.66 1.460000 3.482293 52.4384 1.611789 0.077527
5098.9 5098.9 1.480000 3.476780 53.3053 1.647505 0.081592
5101.16 5101.16 1.490000 3.471672 53.8111 1.671647 0.085115
5103.44 5103.44 1.500000 3.466899 54.3283 1.695788 0.088187
5105.74 5105.74 1.510000 3.462057 54.8862 1.721515 0.090606
5108.05 5108.05 1.530000 3.457382 55.8417 1.759689 0.093202
5110.39 5110.39 1.540000 3.452517 56.3644 1.784819 0.094137
5112.74 5112.74 1.550000 3.447052 56.8944 1.811474 0.096209
5115.12 5115.12 1.560000 3.442140 57.4158 1.837091 0.097732
5117.51 5117.51 1.580000 3.437416 58.3134 1.874654 0.099547
5119.92 5119.92 1.590000 3.432117 58.8547 1.902099 0.101777
5122.35 5122.35 1.600000 3.426737 59.3887 1.929710 0.103704
5124.8 5124.8 1.610000 3.421562 59.9312 1.957422 0.105352
5127.27 5127.27 1.630000 3.416106 60.8527 1.998389 0.108186
5129.76 5129.76 1.640000 3.410983 61.4059 2.026932 0.110469
5132.27 5132.27 1.650000 3.405042 61.9682 2.057691 0.112561
5134.79 5134.79 1.660000 3.400051 62.5281 2.086664 0.114107
5137.34 5137.34 1.680000 3.394642 63.47 2.129570 0.116093
5139.9 5139.9 1.690000 3.389336 64.0605 2.160822 0.117046
5142.49 5142.49 1.700000 3.384413 64.6468 2.191373 0.117903
5145.09 5145.09 1.710000 3.379234 65.2201 2.222286 0.118842
5147.71 5147.71 1.730000 3.374014 66.1877 2.267053 0.120819
5150.35 5150.35 1.740000 3.369133 66.7823 2.298608 0.122501
5153.01 5153.01 1.750000 3.364358 67.3763 2.330168 0.124601
5155.69 5155.69 1.760000 3.359021 67.9709 2.363302 0.128483
5158.39 5158.39 1.780000 3.353264 68.9509 2.411210 0.132456
5161.11 5161.11 1.790000 3.347420 69.5362 2.445931 0.135824
5163.84 5163.84 1.800000 3.341518 70.1443 2.481947 0.138820
5166.6 5166.6 1.810000 3.335515 70.7453 2.518272 0.142373
5169.37 5169.37 1.830000 3.329423 71.7284 2.568862 0.146296
5172.17 5172.17 1.840000 3.323229 72.3318 2.606569 0.149874
5174.98 5174.98 1.850000 3.316870 72.9219 2.644607 0.154232
5177.81 5177.81 1.860000 3.310602 73.5075 2.682595 0.157630
5180.66 5180.66 1.880000 3.304613 74.5148 2.735701 0.162007
5183.53 5183.53 1.890000 3.298709 75.1469 2.775239 0.165011
5186.42 5186.42 1.900000 3.292395 75.7542 2.815377 0.168101
5189.32 5189.32 1.910000 3.285999 76.3614 2.856163 0.170910
5192.25 5192.25 1.930000 3.279546 77.3606 2.912264 0.174748
5195.2 5195.2 1.940000 3.273317 77.9627 2.953265 0.177465
5198.16 5198.16 1.950000 3.267046 78.5275 2.993379 0.180241
5201.14 5201.14 1.960000 3.260957 79.1513 3.035577 0.182710
5204.15 5204.15 1.980000 3.254714 80.2101 3.095450 0.186528
5207.17 5207.17 1.990000 3.248581 80.8837 3.140662 0.189519
5210.21 5210.21 2.000000 3.242661 81.6627 3.189722 0.192202
5213.27 5213.27 2.010000 3.236674 82.2781 3.233072 0.195332
5216.35 5216.35 2.030000 3.230452 83.3196 3.294412 0.199726
5219.45 5219.45 2.040000 3.224281 83.9862 3.341338 0.203963
5222.56 5222.56 2.050000 3.217941 84.6566 3.389434 0.207844
5225.7 5225.7 2.060000 3.211193 85.3256 3.439338 0.212473
5228.85 5228.85 2.080000 3.204714 86.4044 3.505476 0.217564
5232.03 5232.03 2.090000 3.198248 87.0842 3.555966 0.221992
5235.22 5235.22 2.100000 3.191813 87.8031 3.608473 0.226441
5238.43 5238.43 2.110000 3.185350 88.6526 3.666990 0.231977
5241.66 5241.66 2.130000 3.178837 89.7559 3.736908 0.238231
5244.92 5244.92 2.140000 3.172277 90.5695 3.795590 0.243454
5248.18 5248.18 2.150000 3.165777 90.7986 3.830011 0.247948
5251.47 5251.47 2.160000 3.159298 91.5814 3.888129 0.253656
5254.78 5254.78 2.180000 3.152682 93.0585 3.977075 0.261234
5258.11 5258.11 2.190000 3.146261 93.8966 4.038742 0.266915
5261.45 5261.45 2.200000 3.139854 94.616 4.095858 0.272504
5264.82 5264.82 2.210000 3.133406 95.3987 4.156437 0.277748
5268.2 5268.2 2.230000 3.126890 96.6194 4.237147 0.283942
5271.6 5271.6 2.240000 3.120469 97.3826 4.298133 0.289001
5275.03 5275.03 2.250000 3.114005 98.2235 4.363356 0.293810
5278.47 5278.47 2.260000 3.107328 97.7682 4.372232 0.295587
5281.93 5281.93 2.280000 3.100367 99.9975 4.503162 0.304676
5285.4 5285.4 2.290000 3.093629 100.851 4.572298 0.310275
5288.9 5288.9 2.300000 3.086546 101.594 4.638705 0.316040
5292.42 5292.42 2.310000 3.079425 102.333 4.705847 0.322732
5295.96 5295.96 2.330000 3.072616 103.564 4.794986 0.330432
5299.51 5299.51 2.340000 3.065696 104.243 4.859945 0.336967
5303.09 5303.09 2.350000 3.058484 104.98 4.929712 0.343584
5306.68 5306.68 2.360000 3.051330 105.765 5.002275 0.350392
5310.29 5310.29 2.380000 3.044219 107.016 5.097545 0.359004
5313.92 5313.92 2.390000 3.037136 107.773 5.170111 0.365848
5317.57 5317.57 2.400000 3.030229 108.53 5.242519 0.373191
5321.24 5321.24 2.410000 3.023356 109.092 5.305976 0.379746
5324.93 5324.93 2.430000 3.015667 110.159 5.399263 0.389070
5328.64 5328.64 2.440000 3.008856 110.705 5.463092 0.396054
5332.36 5332.36 2.450000 3.001955 111.275 5.529239 0.403075
5336.11 5336.11 2.460000 2.995094 112.071 5.607139 0.411695
5339.87 5339.87 2.480000 2.988567 113.289 5.705206 0.422098
5343.66 5343.66 2.490000 2.981490 114 5.781781 0.430162
5347.46 5347.46 2.500000 2.974208 114.603 5.854825 0.438513
5351.28 5351.28 2.510000 2.966857 115.05 5.921040 0.446050
5355.12 5355.12 2.530000 2.959742 115.426 5.982792 0.452893
5358.98 5358.98 2.540000 2.952069 117.15 6.118924 0.465213
5362.86 5362.86 2.550000 2.944552 118.05 6.212467 0.474366
5366.76 5366.76 2.560000 2.937090 118.61 6.288645 0.482021
5370.68 5370.68 2.580000 2.929985 119.6 6.386368 0.491558
5374.61 5374.61 2.590000 2.922647 120.197 6.465537 0.499037
5378.57 5378.57 2.600000 2.914891 120.767 6.546780 0.508536
5382.54 5382.54 2.610000 2.907583 121.362 6.627281 0.517080
5386.54 5386.54 2.630000 2.900128 122.353 6.731383 0.528300
5390.55 5390.55 2.640000 2.892950 123.206 6.827139 0.538910
5394.58 5394.58 2.650000 2.885406 123.782 6.911018 0.548537
5398.63 5398.63 2.660000 2.878031 124.192 6.985205 0.557520
5402.7 5402.7 2.680000 2.871053 125.385 7.101687 0.570539
5406.79 5406.79 2.690000 2.863889 125.788 7.175738 0.579895
5410.9 5410.9 2.700000 2.856567 126.255 7.255323 0.589817
5415.02 5415.02 2.710000 2.849213 126.813 7.341193 0.600301
5419.17 5419.17 2.730000 2.841885 127.173 7.416177 0.610096
5423.33 5423.33 2.740000 2.834562 128.008 7.519696 0.621799
5427.52 5427.52 2.750000 2.826995 128.517 7.606967 0.633007
5431.72 5431.72 2.760000 2.819461 129.005 7.693606 0.644068
5435.94 5435.94 2.780000 2.812068 130.02 7.811653 0.657924
5440.18 5440.18 2.790000 2.804572 130.586 7.904726 0.669444
5444.44 5444.44 2.800000 2.796890 131.177 8.001737 0.681265
5448.72 5448.72 2.810000 2.789178 131.765 8.099775 0.693546
5453.02 5453.02 2.830000 2.781645 132.853 8.228472 0.708492
5457.34 5457.34 2.840000 2.774029 133.498 8.331653 0.721191
5461.67 5461.67 2.850000 2.766590 134.188 8.437219 0.734495
5466.03 5466.03 2.860000 2.759338 134.894 8.543343 0.747773
5470.4 5470.4 2.880000 2.751903 136.087 8.683217 0.763501
5474.8 5474.8 2.890000 2.744416 136.846 8.797240 0.777637
5479.21 5479.21 2.900000 2.737032 137.597 8.911122 0.792583
5483.64 5483.64 2.910000 2.729398 138.334 9.027447 0.806613
5488.09 5488.09 2.930000 2.722313 139.547 9.171392 0.823735
5492.56 5492.56 2.940000 2.714980 140.315 9.289677 0.838964
5497.05 5497.05 2.950000 2.707365 141.124 9.414711 0.855227
5501.56 5501.56 2.960000 2.700150 141.916 9.536082 0.871558
5506.08 5506.08 2.980000 2.692772 143.198 9.693485 0.890413
5510.63 5510.63 2.990000 2.685118 144.124 9.831190 0.908165
5515.19 5515.19 3.000000 2.677672 145.235 9.980982 0.926916
5519.78 5519.78 3.010000 2.670087 146.151 10.1204 0.945513
5524.38 5524.38 3.030000 2.662601 147.553 10.2943 0.967389
5529 5529 3.040000 2.654957 148.544 10.443 0.986576
5533.64 5533.64 3.050000 2.647357 149.486 10.5892 1.006169
5538.3 5538.3 3.060000 2.639774 150.424 10.7369 1.026629
5542.98 5542.98 3.080000 2.632127 151.875 10.9237 1.050557
5547.68 5547.68 3.090000 2.624539 153.014 11.0894 1.072207
5552.4 5552.4 3.100000 2.616927 154.118 11.2547 1.094251
5557.13 5557.13 3.110000 2.609487 155.28 11.4244 1.116660
5561.89 5561.89 3.130000 2.601926 156.905 11.6314 1.143133
5566.66 5566.66 3.140000 2.594392 157.879 11.7922 1.165913
5571.46 5571.46 3.150000 2.586748 158.868 11.9571 1.187920
5576.27 5576.27 3.160000 2.579290 159.81 12.1181 1.211576
5581.1 5581.1 3.180000 2.571604 161.262 12.3225 1.238893
5585.95 5585.95 3.190000 2.563953 162.269 12.4946 1.263046
5590.82 5590.82 3.200000 2.556492 163.195 12.6601 1.286575
5595.71 5595.71 3.210000 2.548685 164.111 12.8309 1.311428
5600.62 5600.62 3.230000 2.541058 165.562 13.0434 1.340204
5605.54 5605.54 3.240000 2.533228 166.453 13.2168 1.366090
5610.49 5610.49 3.250000 2.525489 167.415 13.3964 1.392329
5615.45 5615.45 3.260000 2.517640 168.377 13.5795 1.419852
5620.44 5620.44 3.280000 2.510056 169.763 13.7956 1.450535
5625.44 5625.44 3.290000 2.502328 169.887 13.9128 1.471483
5630.46 5630.46 3.300000 2.494077 170.553 14.083 1.497750
5635.5 5635.5 3.310000 2.487675 171.261 14.2323 1.523040
5640.56 5640.56 3.330000 2.479787 172.751 14.4698 1.557680
5645.64 5645.64 3.340000 2.472117 173.503 14.6446 1.585364
5650.74 5650.74 3.350000 2.463596 174.284 14.8365 1.615481
5655.86 5655.86 3.360000 2.456258 175.198 15.0241 1.646126
5660.99 5660.99 3.380000 2.448673 176.772 15.2746 1.682318
5666.15 5666.15 3.390000 2.440685 177.887 15.4942 1.716438
5671.32 5671.32 3.400000 2.433181 179.162 15.7228 1.751360
5676.52 5676.52 3.410000 2.425329 180.771 15.989 1.791606
5681.73 5681.73 3.430000 2.417741 182.561 16.2703 1.833761
5686.96 5686.96 3.440000 2.410340 183.611 16.4855 1.868839
5692.21 5692.21 3.450000 2.402643 184.508 16.694 1.903100
5697.48 5697.48 3.460000 2.394938 185.495 16.9131 1.939778
5702.77 5702.77 3.480000 2.387246 186.958 17.1782 1.980740
5708.08 5708.08 3.490000 2.379419 188.144 17.4229 2.021311