File: xdidata/Ti/Ti-K-Ce23TiO3.xdi
# XDI/1.0 BlueSky/1.5.0
# Beamline.name: 6BM
# Beamline.xray_source: NSLS-II three-pole wiggler
# Beamline.collimation: paraboloid mirror, 5 nm Rh on 30 nm Pt
# Beamline.focusing: not in use
# Beamline.harmonic_rejection: flat mirror, Si stripe, pitch = 7.0 mrad relative to beam
# Detector.i0: 10 cm N2
# Detector.i1: 25 cm N2
# Detector.i2: 25 cm N2
# Element.symbol: Ti
# Element.edge: K
# Facility.name: NSLS-II
# Facility.energy: 3.0
# Facility.current: 219.5
# Facility.mode: top-off
# Facility.gup: 301027
# Facility.saf: 304156
# Mono.name: Si(111)
# Mono.d_spacing: 3.13526
# Mono.encoder_resolution: 0.0000050 deg/ct
# Mono.angle_offset: 16.0571 deg
# Mono.scan_mode: pseudo channel cut
# Mono.scan_type: step
# Mono.direction: forward in energy
# Sample.name: Ce2/3TiO3
# Sample.prep: Powder in polyethylene glycol pellet
# Sample.x_position: -113.290 mm
# Sample.y_position: 117.505 mm
# Sample.wheel_position: 240.000 mm
# Scan.experimenters: Bruce Ravel, Martin Stennett
# Scan.edge_energy: 4966.0
# Scan.start_time: 2019-05-30T18:46:41
# Scan.end_time: 2019-05-30T19:30:34
# Scan.transient_id: 9849
# Scan.uid: e2b11d3c-c12a-4aa5-b32c-5765a332a951
# Scan.plot_hint: (DTC1 + DTC2 + DTC3 + DTC4) / I0  --  ($8+$9+$10+$11) / $5
# Scan.sequence: merge of 3 scans
# Column.1: energy eV
# Column.2: requested_energy eV
# Column.3: measurement_time seconds
# Column.4: mutrans
# Column.5: i0
# Column.6: itrans
# Column.7: irefer
# /////
#  sample disk prepared by Martin
# -----
# energy   requested_energy   measurement_time   mutrans   i0   itrans   irefer
4765.99 4766 0.500000 79.5582 10.4733 0.031846 0.004947
4776.01 4776 0.500000 78.0621 10.6709 0.031947 0.004744
4786.01 4786 0.500000 72.7955 10.9225 0.034042 0.005105
4796.01 4796 0.500000 69.1128 11.2125 0.036379 0.005379
4806.01 4806 0.500000 65.0007 11.4777 0.038641 0.005571
4816.01 4816 0.500000 62.3423 11.7413 0.041295 0.006004
4826.01 4826 0.500000 60.2271 12.0114 0.043954 0.006379
4836 4836 0.500000 55.6741 12.2464 0.046262 0.006612
4846 4846 0.500000 52.5043 12.5036 0.049265 0.006802
4856 4856 0.500000 48.1224 12.7736 0.052052 0.007362
4866 4866 0.500000 45.8169 13.0393 0.055223 0.007841
4876.01 4876 0.500000 41.8915 13.3093 0.058484 0.008231
4886 4886 0.500000 37.7404 13.6139 0.062320 0.008892
4896 4896 0.500000 37.5731 13.8768 0.065378 0.009053
4906 4906 0.500000 34.0884 14.1862 0.069626 0.009593
4916 4916 0.500000 32.5281 14.4559 0.073739 0.010577
4926 4926 0.500000 29.5619 14.7292 0.077572 0.010953
4936 4936 0.500000 29.1602 14.9895 0.081864 0.011478
4938 4938 0.500000 28.5963 15.0395 0.082315 0.011506
4939.99 4940 0.500000 29.2828 15.0909 0.083298 0.011815
4941.99 4942 0.500000 29.5638 15.1376 0.084249 0.011866
4943.99 4944 0.500000 29.059 15.1872 0.085211 0.012053
4946 4946 0.500000 29.1696 15.23 0.086031 0.012118
4947.99 4948 0.500000 27.5175 15.2723 0.086851 0.012523
4950 4950 0.500000 30.3947 15.3235 0.087708 0.012403
4952 4952 0.500000 28.6783 15.3696 0.088534 0.012494
4954 4954 0.500000 29.7674 15.4157 0.089471 0.012764
4956 4956 0.500000 31.0998 15.4596 0.089832 0.012575
4956.25 4956.25 0.500000 31.061 15.4671 0.090459 0.012879
4956.49 4956.5 0.500000 31.3763 15.4737 0.090422 0.012858
4956.74 4956.75 0.500000 32.5556 15.4801 0.090646 0.012988
4956.99 4957 0.500000 31.3087 15.4801 0.090453 0.012758
4957.24 4957.25 0.500000 32.8282 15.4848 0.090707 0.012872
4957.49 4957.5 0.500000 33.8666 15.4906 0.090778 0.012945
4957.74 4957.75 0.500000 31.0678 15.4947 0.090863 0.012825
4957.99 4958 0.500000 32.6267 15.502 0.090898 0.012854
4958.25 4958.25 0.500000 32.9506 15.5078 0.091267 0.012816
4958.5 4958.5 0.500000 31.2755 15.5137 0.091362 0.013191
4958.75 4958.75 0.500000 31.956 15.5225 0.091398 0.012901
4958.99 4959 0.500000 32.018 15.5283 0.091397 0.012817
4959.24 4959.25 0.500000 32.7781 15.5306 0.091315 0.012806
4959.49 4959.5 0.500000 33.7826 15.5343 0.091690 0.012949
4959.74 4959.75 0.500000 34.6127 15.5413 0.091663 0.012903
4959.99 4960 0.500000 34.2209 15.5474 0.091600 0.012863
4960.25 4960.25 0.500000 34.034 15.5517 0.091866 0.012900
4960.5 4960.5 0.500000 33.1088 15.5545 0.091976 0.012914
4960.74 4960.75 0.500000 33.0747 15.5607 0.092040 0.012934
4961 4961 0.500000 35.4052 15.5699 0.092279 0.013097
4961.24 4961.25 0.500000 36.7866 15.5717 0.092301 0.013029
4961.49 4961.5 0.500000 35.6505 15.5816 0.092457 0.013012
4961.75 4961.75 0.500000 36.2541 15.5852 0.092548 0.012970
4962 4962 0.500000 36.4742 15.5901 0.092499 0.012985
4962.25 4962.25 0.500000 37.9611 15.5965 0.092859 0.013075
4962.5 4962.5 0.500000 36.4107 15.6027 0.092882 0.012920
4962.75 4962.75 0.500000 38.7553 15.6058 0.092862 0.012884
4963 4963 0.500000 39.0049 15.6101 0.092948 0.012935
4963.25 4963.25 0.500000 39.1076 15.6166 0.093099 0.012962
4963.5 4963.5 0.500000 41.0483 15.6239 0.093247 0.012757
4963.75 4963.75 0.500000 39.7939 15.6296 0.093360 0.012726
4964 4964 0.500000 40.9763 15.6338 0.093372 0.012436
4964.25 4964.25 0.500000 43.3959 15.638 0.093507 0.012306
4964.5 4964.5 0.500000 45.2739 15.6448 0.093372 0.011608
4964.75 4964.75 0.500000 45.4076 15.6479 0.093458 0.011068
4965 4965 0.500000 48.9233 15.6564 0.093659 0.010481
4965.25 4965.25 0.500000 50.4356 15.657 0.093534 0.009760
4965.5 4965.5 0.500000 53.8429 15.6634 0.093700 0.009576
4965.75 4965.75 0.500000 61.5758 15.6681 0.093529 0.009348
4966 4966 0.500000 66.4297 15.6756 0.093428 0.009278
4966.25 4966.25 0.500000 76.7317 15.6772 0.093126 0.009701
4966.5 4966.5 0.500000 84.5031 15.6796 0.093269 0.010263
4966.75 4966.75 0.500000 93.316 15.6864 0.092908 0.010450
4967 4967 0.500000 109.448 15.689 0.092603 0.010535
4967.25 4967.25 0.500000 118.636 15.689 0.092305 0.010529
4967.5 4967.5 0.500000 133.458 15.6956 0.092013 0.010415
4967.75 4967.75 0.500000 143.494 15.6993 0.091826 0.010196
4968 4968 0.500000 149.383 15.7083 0.091671 0.010096
4968.25 4968.25 0.500000 155.263 15.7139 0.091347 0.009894
4968.5 4968.5 0.500000 166.936 15.7183 0.091471 0.009864
4968.75 4968.75 0.500000 187.657 15.7219 0.090567 0.009645
4969 4969 0.500000 212.612 15.7221 0.090106 0.009446
4969.25 4969.25 0.500000 236.406 15.7217 0.089490 0.009272
4969.5 4969.5 0.500000 239.64 15.7233 0.089191 0.009242
4969.75 4969.75 0.500000 246.704 15.7252 0.089278 0.009026
4970 4970 0.500000 235.611 15.7262 0.089309 0.009075
4970.25 4970.25 0.500000 235.691 15.7335 0.090003 0.009333
4970.5 4970.5 0.500000 232.741 15.7401 0.089895 0.009043
4970.75 4970.75 0.500000 232.02 15.7564 0.090204 0.009109
4971 4971 0.500000 231.107 15.7641 0.090372 0.009117
4971.25 4971.25 0.500000 227.429 15.7756 0.090426 0.008947
4971.5 4971.5 0.500000 235.116 15.7801 0.090546 0.008949
4971.75 4971.75 0.500000 240.282 15.7837 0.090338 0.008890
4972 4972 0.500000 243.595 15.7887 0.090508 0.008876
4972.25 4972.25 0.500000 254.769 15.7926 0.090161 0.008365
4972.5 4972.5 0.500000 266.228 15.7953 0.089869 0.008225
4972.75 4972.75 0.500000 278.396 15.7978 0.089475 0.008041
4973 4973 0.500000 286.1 15.8015 0.089601 0.007965
4973.25 4973.25 0.500000 290.936 15.802 0.089550 0.008140
4973.5 4973.5 0.500000 293.322 15.8071 0.089574 0.007730
4973.75 4973.75 0.500000 286.638 15.8077 0.089713 0.007781
4974 4974 0.500000 284.06 15.8108 0.089800 0.007651
4974.25 4974.25 0.500000 288.729 15.8104 0.089865 0.007385
4974.5 4974.5 0.500000 284.552 15.8125 0.090118 0.007224
4974.75 4974.75 0.500000 283.214 15.8128 0.090356 0.007295
4975 4975 0.500000 283.85 15.8142 0.090151 0.007045
4975.25 4975.25 0.500000 288.001 15.8168 0.090116 0.006880
4975.5 4975.5 0.500000 295.423 15.817 0.090150 0.006837
4975.75 4975.75 0.500000 298.45 15.8166 0.089897 0.006727
4976 4976 0.500000 312.597 15.8159 0.089592 0.006716
4976.25 4976.25 0.500000 325.436 15.8546 0.089546 0.006724
4976.5 4976.5 0.500000 341.089 15.8522 0.089220 0.006673
4976.75 4976.75 0.500000 360.44 15.8533 0.088481 0.006325
4977 4977 0.500000 383.783 15.8532 0.087994 0.006533
4977.25 4977.25 0.500000 406.14 15.8546 0.087421 0.006115
4977.5 4977.5 0.500000 433.746 15.856 0.086649 0.005950
4977.75 4977.75 0.500000 465.741 15.8584 0.085851 0.005981
4978 4978 0.500000 495.283 15.8625 0.085023 0.005862
4978.25 4978.25 0.500000 540.877 15.8658 0.083865 0.005724
4978.5 4978.5 0.500000 573.811 15.8679 0.083082 0.005776
4978.75 4978.75 0.500000 622.317 15.8711 0.081582 0.005800
4979 4979 0.500000 670.38 15.8837 0.080272 0.005434
4979.25 4979.25 0.500000 726.399 15.8963 0.079101 0.005435
4979.5 4979.5 0.500000 778.851 15.8944 0.077456 0.005293
4979.75 4979.75 0.500000 837.345 15.8939 0.076030 0.005271
4980 4980 0.500000 903.076 15.8906 0.074474 0.005196
4980.25 4980.25 0.500000 961.009 15.9054 0.073230 0.005266
4980.5 4980.5 0.500000 1033.48 15.9223 0.071245 0.004741
4980.75 4980.75 0.500000 1116.08 15.9225 0.069601 0.005107
4981 4981 0.500000 1182.19 15.9211 0.067807 0.004805
4981.25 4981.25 0.500000 1249.92 15.9203 0.065943 0.004657
4981.5 4981.5 0.500000 1329.19 15.9188 0.064639 0.004691
4981.75 4981.75 0.500000 1399.83 15.9217 0.062858 0.004654
4982 4982 0.500000 1465.72 15.9246 0.061456 0.004668
4982.25 4982.25 0.500000 1538.86 15.929 0.059988 0.004492
4982.5 4982.5 0.500000 1589.56 15.9336 0.058906 0.004770
4982.75 4982.75 0.500000 1648.25 15.9335 0.057840 0.004395
4983 4983 0.500000 1691.72 15.9366 0.056770 0.004314
4983.25 4983.25 0.500000 1737.28 15.938 0.056025 0.004348
4983.5 4983.5 0.500000 1752.46 15.9364 0.055438 0.004218
4983.75 4983.75 0.500000 1789 15.9376 0.055246 0.004295
4984 4984 0.500000 1774.03 15.934 0.055122 0.004257
4984.25 4984.25 0.500000 1782.61 15.9352 0.055133 0.004327
4984.5 4984.5 0.500000 1761.43 15.9366 0.055495 0.004291
4984.75 4984.75 0.500000 1750.52 15.936 0.055733 0.004262
4985 4985 0.500000 1728.66 15.9393 0.056571 0.004456
4985.25 4985.25 0.500000 1702.44 15.9408 0.056958 0.004358
4985.51 4985.5 0.500000 1688.73 15.9434 0.057412 0.004223
4985.75 4985.75 0.500000 1653.69 15.9455 0.058116 0.004490
4986 4986 0.500000 1642.17 15.9472 0.058718 0.004715
4986.25 4986.25 0.500000 1626 15.9456 0.058982 0.004614
4986.5 4986.5 0.500000 1596.54 15.9451 0.059506 0.004480
4986.75 4986.75 0.500000 1587.01 15.9439 0.059846 0.004605
4987 4987 0.500000 1574.68 15.9409 0.060174 0.004563
4987.25 4987.25 0.500000 1577.04 15.9399 0.060528 0.004640
4987.5 4987.5 0.500000 1562.64 15.9394 0.060414 0.004619
4987.75 4987.75 0.500000 1556.77 15.9408 0.060620 0.004646
4988 4988 0.500000 1565.27 15.9431 0.060973 0.004775
4988.25 4988.25 0.500000 1572.54 15.9479 0.060405 0.004429
4988.5 4988.5 0.500000 1567.77 15.9582 0.060697 0.004579
4988.75 4988.75 0.500000 1569.18 15.9716 0.060895 0.004818
4989 4989 0.500000 1583.2 15.9813 0.060660 0.004563
4989.25 4989.25 0.500000 1580.23 15.9951 0.060812 0.004631
4989.5 4989.5 0.500000 1588.68 16.0101 0.060699 0.004730
4989.75 4989.75 0.500000 1597.01 16.0232 0.060525 0.004527
4990 4990 0.500000 1608.61 16.0386 0.060602 0.004621
4990.25 4990.25 0.500000 1609.91 16.0519 0.060492 0.004564
4990.5 4990.5 0.500000 1614.65 16.0645 0.060618 0.004848
4990.75 4990.75 0.500000 1621.73 16.0787 0.060194 0.004700
4991 4991 0.500000 1649.45 16.0923 0.060248 0.004699
4991.25 4991.25 0.500000 1650.48 16.1041 0.060220 0.004738
4991.5 4991.5 0.500000 1647.73 16.114 0.059965 0.004450
4991.75 4991.75 0.500000 1664.88 16.1255 0.060186 0.004799
4992 4992 0.500000 1671.71 16.1355 0.059769 0.004513
4992.25 4992.25 0.500000 1682.76 16.145 0.060166 0.004874
4992.5 4992.5 0.500000 1682.6 16.1544 0.059837 0.004852
4992.75 4992.75 0.500000 1694.62 16.1615 0.059684 0.004609
4993 4993 0.500000 1706.5 16.1666 0.059749 0.004682
4993.25 4993.25 0.500000 1700.5 16.1744 0.059783 0.004618
4993.5 4993.5 0.500000 1708.73 16.1785 0.059609 0.004630
4993.75 4993.75 0.500000 1726.32 16.1868 0.059537 0.004580
4994 4994 0.500000 1723.59 16.1907 0.059564 0.004548
4994.25 4994.25 0.500000 1724.7 16.1975 0.059803 0.004852
4994.5 4994.5 0.500000 1740.42 16.2031 0.059318 0.004564
4994.75 4994.75 0.500000 1732.55 16.2091 0.059657 0.004701
4995 4995 0.500000 1728.2 16.215 0.059635 0.004767
4995.25 4995.25 0.500000 1729.57 16.217 0.059562 0.004639
4995.5 4995.5 0.500000 1733.95 16.2216 0.059710 0.004729
4995.75 4995.75 0.500000 1753.54 16.2251 0.059665 0.004605
4996 4996 0.700000 1751.69 22.6966 0.083447 0.006341
4997.09 4997.08 0.710000 1744.11 23.0669 0.085477 0.006601
4998.19 4998.18 0.730000 1735.31 23.7165 0.088110 0.006414
4999.3 4999.29 0.740000 1729 24.0611 0.090333 0.006812
5000.44 5000.43 0.750000 1718.56 24.4303 0.092460 0.006772
5001.59 5001.58 0.760000 1701.46 24.8119 0.094748 0.006770
5002.77 5002.76 0.780000 1664.45 25.5265 0.099050 0.007203
5003.96 5003.95 0.790000 1633.3 25.9186 0.102445 0.007259
5005.17 5005.16 0.800000 1580.97 26.3106 0.106094 0.007596
5006.4 5006.39 0.810000 1538.49 26.7159 0.109918 0.007792
5007.65 5007.64 0.830000 1497.57 27.4419 0.115165 0.008438
5008.92 5008.91 0.840000 1476.58 27.8342 0.118591 0.008891
5010.2 5010.2 0.850000 1429.61 28.2352 0.122400 0.009010
5011.51 5011.51 0.860000 1402.76 28.6289 0.126753 0.009561
5012.84 5012.83 0.880000 1377.57 29.3511 0.131440 0.009814
5014.19 5014.18 0.890000 1362.51 29.7431 0.134765 0.010144
5015.55 5015.54 0.900000 1352.39 30.1292 0.137491 0.010355
5016.94 5016.93 0.910000 1349.67 30.5185 0.139936 0.010857
5018.34 5018.33 0.930000 1355.65 31.2566 0.143814 0.010920
5019.76 5019.75 0.940000 1360.15 31.6642 0.146232 0.011119
5021.19 5021.19 0.950000 1348.88 32.0663 0.149075 0.011230
5022.65 5022.65 0.960000 1355.94 32.4711 0.152024 0.011469
5024.14 5024.13 0.980000 1354.8 33.2188 0.156084 0.011885
5025.64 5025.63 0.990000 1359.27 33.6583 0.158581 0.011715
5027.15 5027.14 1.000000 1372.07 34.1116 0.161344 0.012098
5028.69 5028.68 1.010000 1379.29 34.526 0.163679 0.012403
5030.24 5030.24 1.030000 1391.05 35.3684 0.168167 0.012322
5031.81 5031.81 1.040000 1394.59 35.783 0.170974 0.012537
5033.4 5033.4 1.050000 1412.9 36.1974 0.173367 0.012531
5035.02 5035.01 1.060000 1422.35 36.6062 0.175266 0.012420
5036.65 5036.65 1.080000 1441.66 37.3707 0.178470 0.012240
5038.29 5038.3 1.090000 1481.46 37.7986 0.180244 0.012576
5039.98 5039.97 1.100000 1489.27 38.2121 0.182410 0.012749
5041.65 5041.65 1.110000 1504.15 38.631 0.184858 0.012814
5043.35 5043.36 1.130000 1499.07 39.4275 0.189792 0.013252
5045.09 5045.09 1.140000 1490.07 39.8976 0.193396 0.013798
5046.82 5046.83 1.150000 1488.19 40.3239 0.197040 0.014080
5048.6 5048.6 1.160000 1499.25 40.7527 0.200331 0.014482
5050.38 5050.38 1.180000 1506.27 41.5361 0.204715 0.015058
5052.18 5052.18 1.190000 1539.72 41.959 0.206235 0.015129
5054 5054 1.200000 1563.96 42.3901 0.207906 0.015734
5055.83 5055.84 1.210000 1591.05 42.827 0.209749 0.016016
5057.69 5057.7 1.230000 1606.05 43.6251 0.214310 0.016594
5059.57 5059.58 1.240000 1615.3 44.0605 0.217230 0.016764
5061.48 5061.48 1.250000 1613.22 44.5077 0.220998 0.016709
5063.39 5063.4 1.260000 1606.6 44.9506 0.225092 0.017147
5065.32 5065.33 1.280000 1599.47 45.7588 0.231271 0.017575
5067.28 5067.29 1.290000 1581.03 46.1964 0.236739 0.018049
5069.26 5069.26 1.300000 1567.34 46.644 0.241696 0.018475
5071.25 5071.26 1.310000 1563.72 47.0922 0.246394 0.018997
5073.26 5073.27 1.330000 1566.08 47.9019 0.252437 0.019322
5075.3 5075.3 1.340000 1568.83 48.3419 0.256121 0.019626
5077.35 5077.35 1.350000 1570.12 48.7844 0.260502 0.019836
5079.41 5079.42 1.360000 1562.1 49.2316 0.265076 0.019903
5081.51 5081.51 1.380000 1554.96 50.034 0.272825 0.020109
5083.6 5083.61 1.390000 1526.71 50.4753 0.279074 0.020272
5085.74 5085.74 1.400000 1513.43 50.9166 0.285447 0.020532
5087.89 5087.89 1.410000 1509.22 51.3536 0.290750 0.020466
5090.05 5090.05 1.430000 1510.31 52.1646 0.297424 0.020595
5092.23 5092.23 1.440000 1512.3 52.6018 0.302092 0.021082
5094.44 5094.44 1.450000 1513.8 53.047 0.306753 0.021935
5096.66 5096.66 1.460000 1513.05 53.4933 0.311491 0.022112
5098.9 5098.9 1.480000 1516.48 54.3052 0.318612 0.023553
5101.16 5101.16 1.490000 1518.08 54.7351 0.323477 0.024192
5103.44 5103.44 1.500000 1529.01 55.1891 0.328216 0.025087
5105.74 5105.74 1.510000 1530.22 55.6421 0.333199 0.025580
5108.05 5108.05 1.530000 1533.31 56.4514 0.340612 0.026387
5110.39 5110.39 1.540000 1535.42 56.9007 0.345229 0.026686
5112.74 5112.74 1.550000 1552.32 57.3626 0.350390 0.027045
5115.12 5115.12 1.560000 1560.53 57.8102 0.355365 0.027647
5117.51 5117.51 1.580000 1558.72 58.6436 0.362491 0.028101
5119.92 5119.92 1.590000 1571.26 59.1093 0.367656 0.028603
5122.35 5122.35 1.600000 1575.71 59.5727 0.373438 0.029068
5124.8 5124.8 1.610000 1577.62 60.047 0.378879 0.029434
5127.27 5127.27 1.630000 1586.84 60.8958 0.387116 0.030203
5129.76 5129.76 1.640000 1592.18 61.366 0.392704 0.030603
5132.27 5132.27 1.650000 1597.34 61.8444 0.398450 0.030867
5134.79 5134.79 1.660000 1601.92 62.3198 0.404585 0.031703
5137.34 5137.34 1.680000 1609.43 63.1866 0.413084 0.032240
5139.9 5139.9 1.690000 1616.97 63.6716 0.419298 0.032553
5142.49 5142.49 1.700000 1622.29 64.159 0.425415 0.032417
5145.09 5145.09 1.710000 1627.52 64.6524 0.432379 0.033235
5147.71 5147.71 1.730000 1629.92 65.5307 0.441741 0.033544
5150.35 5150.35 1.740000 1633.53 66.0217 0.448920 0.033979
5153.01 5153.01 1.750000 1633.27 66.6906 0.457319 0.034458
5155.69 5155.69 1.760000 1635.99 67.3761 0.466200 0.035729
5158.39 5158.39 1.780000 1636.21 68.4404 0.478028 0.036879
5161.11 5161.11 1.790000 1635.02 68.9484 0.486100 0.037851
5163.84 5163.84 1.800000 1639.22 69.4784 0.493900 0.038824
5166.6 5166.6 1.810000 1645.73 69.9889 0.501768 0.039407
5169.37 5169.37 1.830000 1641.35 70.8923 0.512867 0.040649
5172.17 5172.17 1.840000 1641.04 71.4159 0.521501 0.041437
5174.98 5174.98 1.850000 1642.47 71.9271 0.530927 0.043033
5177.81 5177.81 1.860000 1639.74 72.4464 0.539857 0.043610
5180.66 5180.66 1.880000 1637.85 73.3552 0.552169 0.045088
5183.53 5183.53 1.890000 1636.79 73.9202 0.561992 0.045733
5186.42 5186.42 1.900000 1643.73 74.4505 0.571719 0.046524
5189.32 5189.32 1.910000 1642.16 74.9726 0.580869 0.047546
5192.25 5192.25 1.930000 1648.88 75.8781 0.592987 0.048562
5195.2 5195.2 1.940000 1653.42 76.4101 0.601987 0.049367
5198.16 5198.16 1.950000 1656.69 76.9169 0.611234 0.050116
5201.14 5201.14 1.960000 1663.6 77.4553 0.621362 0.051095
5204.15 5204.15 1.980000 1663.97 78.4023 0.634353 0.052029
5207.17 5207.17 1.990000 1671.89 78.9559 0.644410 0.052401
5210.21 5210.21 2.000000 1675.33 79.515 0.655255 0.053456
5213.27 5213.27 2.010000 1679.05 80.0501 0.665881 0.054650
5216.35 5216.35 2.030000 1680.19 80.9624 0.679560 0.055659
5219.45 5219.45 2.040000 1680.22 81.48 0.690540 0.057036
5222.56 5222.56 2.050000 1686.37 82.02 0.700871 0.057773
5225.7 5225.7 2.060000 1694.17 82.5049 0.711684 0.059085
5228.85 5228.85 2.080000 1700.39 83.4111 0.725539 0.060285
5232.03 5232.03 2.090000 1706.8 83.9416 0.736604 0.061408
5235.22 5235.22 2.100000 1711.89 84.4908 0.747784 0.062533
5238.43 5238.43 2.110000 1719.66 85.035 0.759885 0.064476
5241.66 5241.66 2.130000 1713.54 85.9746 0.775901 0.065949
5244.92 5244.92 2.140000 1722.05 86.4943 0.788928 0.067793
5248.18 5248.18 2.150000 1726.26 86.5924 0.797155 0.068363
5251.47 5251.47 2.160000 1727.2 87.1726 0.809560 0.070097
5254.78 5254.78 2.180000 1733.62 88.5107 0.829634 0.072157
5258.11 5258.11 2.190000 1746.56 89.1658 0.843120 0.073287
5261.45 5261.45 2.200000 1748.68 89.7454 0.855948 0.074758
5264.82 5264.82 2.210000 1757.12 90.3796 0.870029 0.076463
5268.2 5268.2 2.230000 1761.12 91.445 0.888222 0.078319
5271.6 5271.6 2.240000 1768.34 92.0727 0.902787 0.079665
5275.03 5275.03 2.250000 1767.76 92.8185 0.919778 0.081192
5278.47 5278.47 2.260000 1772.37 92.153 0.922252 0.081519
5281.93 5281.93 2.280000 1777.11 94.3853 0.954040 0.084059
5285.4 5285.4 2.290000 1778.55 95.1429 0.971586 0.085808
5288.9 5288.9 2.300000 1781.96 95.8159 0.988167 0.087793
5292.42 5292.42 2.310000 1788.08 96.4559 1.004612 0.089433
5295.96 5295.96 2.330000 1791.91 97.8702 1.029558 0.091894
5299.51 5299.51 2.340000 1791.87 98.7046 1.049273 0.094140
5303.09 5303.09 2.350000 1797.13 99.4287 1.068091 0.096261
5306.68 5306.68 2.360000 1795.26 100.257 1.088540 0.098155
5310.29 5310.29 2.380000 1799.41 101.394 1.112591 0.101015
5313.92 5313.92 2.390000 1801.11 102.123 1.131700 0.102937
5317.57 5317.57 2.400000 1809.87 102.774 1.150528 0.105042
5321.24 5321.24 2.410000 1809.63 103.243 1.167532 0.107102
5324.93 5324.93 2.430000 1825.71 104.35 1.191218 0.110162
5328.64 5328.64 2.440000 1823.53 104.908 1.210163 0.112095
5332.36 5332.36 2.450000 1832.4 105.547 1.228532 0.114432
5336.11 5336.11 2.460000 1832.06 106.184 1.248090 0.116727
5339.87 5339.87 2.480000 1842.2 107.281 1.273558 0.119724
5343.66 5343.66 2.490000 1847.23 107.872 1.293361 0.122547
5347.46 5347.46 2.500000 1851.9 108.438 1.313476 0.124866
5351.28 5351.28 2.510000 1857.9 108.863 1.331635 0.127208
5355.12 5355.12 2.530000 1862.01 109.203 1.348891 0.128939
5358.98 5358.98 2.540000 1868.42 110.881 1.383087 0.132945
5362.86 5362.86 2.550000 1871.33 111.556 1.405817 0.135659
5366.76 5366.76 2.560000 1877.26 112.081 1.426560 0.137840
5370.68 5370.68 2.580000 1883.19 112.954 1.452443 0.141022
5374.61 5374.61 2.590000 1889.48 113.381 1.472792 0.143181
5378.57 5378.57 2.600000 1893.76 113.914 1.495108 0.145416
5382.54 5382.54 2.610000 1894.86 114.402 1.516464 0.148542
5386.54 5386.54 2.630000 1899 115.307 1.544145 0.151836
5390.55 5390.55 2.640000 1907.71 115.637 1.563788 0.154677
5394.58 5394.58 2.650000 1910.81 116.138 1.586549 0.157471
5398.63 5398.63 2.660000 1923.11 116.21 1.602697 0.159716
5402.7 5402.7 2.680000 1926.22 117.081 1.630550 0.163124
5406.79 5406.79 2.690000 1935.75 117.098 1.646680 0.165634
5410.9 5410.9 2.700000 1937.69 117.254 1.666382 0.168431
5415.02 5415.02 2.710000 1945.51 117.573 1.686789 0.171502
5419.17 5419.17 2.730000 1952.93 117.646 1.705112 0.174487
5423.33 5423.33 2.740000 1956.84 118.1 1.729055 0.177635
5427.52 5427.52 2.750000 1965.35 118.249 1.748386 0.180326
5431.72 5431.72 2.760000 1976.57 118.283 1.767593 0.183506
5435.94 5435.94 2.780000 1977.49 118.791 1.792702 0.186422
5440.18 5440.18 2.790000 1979.74 118.932 1.813822 0.190074
5444.44 5444.44 2.800000 1991.61 119.296 1.838215 0.193206
5448.72 5448.72 2.810000 1991.03 119.642 1.863248 0.196741
5453.02 5453.02 2.830000 2001.58 120.536 1.896845 0.200961
5457.34 5457.34 2.840000 2005.2 120.716 1.920382 0.204429
5461.67 5461.67 2.850000 2010.81 120.93 1.942910 0.207566
5466.03 5466.03 2.860000 2017.35 121.156 1.967261 0.211312
5470.4 5470.4 2.880000 2027.2 121.899 2.000258 0.215600
5474.8 5474.8 2.890000 2029.8 122.201 2.026487 0.219470
5479.21 5479.21 2.900000 2038.73 122.543 2.053309 0.223265
5483.64 5483.64 2.910000 2044.5 122.968 2.082184 0.227098
5488.09 5488.09 2.930000 2048 123.738 2.114695 0.231847
5492.56 5492.56 2.940000 2062.92 124.215 2.144552 0.236103
5497.05 5497.05 2.950000 2067.62 124.751 2.177710 0.240731
5501.56 5501.56 2.960000 2073.16 125.284 2.210514 0.245818
5506.08 5506.08 2.980000 2080.2 126.272 2.250489 0.251394
5510.63 5510.63 2.990000 2085.02 126.796 2.284078 0.256489
5515.19 5515.19 3.000000 2092.66 127.443 2.319751 0.261415
5519.78 5519.78 3.010000 2106.32 128.182 2.358065 0.267119
5524.38 5524.38 3.030000 2116.38 129.252 2.402090 0.273088
5529 5529 3.040000 2118.7 129.995 2.441941 0.278528
5533.64 5533.64 3.050000 2126.36 130.685 2.481143 0.284555
5538.3 5538.3 3.060000 2127.87 131.456 2.521572 0.290724
5542.98 5542.98 3.080000 2141.59 132.695 2.573623 0.298421
5547.68 5547.68 3.090000 2146.22 133.483 2.617165 0.304729
5552.4 5552.4 3.100000 2152.07 134.415 2.664213 0.310925
5557.13 5557.13 3.110000 2160.09 135.154 2.707817 0.317562
5561.89 5561.89 3.130000 2165.25 136.485 2.764370 0.325778
5566.66 5566.66 3.140000 2173.02 137.361 2.812515 0.333040
5571.46 5571.46 3.150000 2178.44 138.162 2.859338 0.339743
5576.27 5576.27 3.160000 2184.71 138.899 2.905277 0.346840
5581.1 5581.1 3.180000 2196.01 140.264 2.966740 0.355950
5585.95 5585.95 3.190000 2202.16 141.084 3.016089 0.364045
5590.82 5590.82 3.200000 2216.06 141.891 3.066003 0.371436
5595.71 5595.71 3.210000 2213.4 142.746 3.118196 0.379406
5600.62 5600.62 3.230000 2224.85 144.153 3.182460 0.388411
5605.54 5605.54 3.240000 2229.15 145.644 3.250698 0.398818
5610.49 5610.49 3.250000 2237.74 146.626 3.308571 0.407721
5615.45 5615.45 3.260000 2246.59 147.372 3.361962 0.416773
5620.44 5620.44 3.280000 2259.36 148.642 3.428334 0.426635
5625.44 5625.44 3.290000 2261.42 148.699 3.468343 0.434119
5630.46 5630.46 3.300000 2263.36 148.987 3.513920 0.442365
5635.5 5635.5 3.310000 2280.49 149.992 3.577993 0.452237
5640.56 5640.56 3.330000 2285.46 151.245 3.648123 0.463358
5645.64 5645.64 3.340000 2290.47 151.837 3.701670 0.472585
5650.74 5650.74 3.350000 2302.97 152.411 3.757601 0.481902
5655.86 5655.86 3.360000 2307.67 153.124 3.815973 0.492096
5660.99 5660.99 3.380000 2311.53 154.49 3.892736 0.504272
5666.15 5666.15 3.390000 2320.76 155.395 3.958117 0.514986
5671.32 5671.32 3.400000 2332.08 156.333 4.026327 0.526385
5676.52 5676.52 3.410000 2338.26 157.242 4.092241 0.537599
5681.73 5681.73 3.430000 2344.2 158.598 4.170740 0.550463
5686.96 5686.96 3.440000 2357.44 159.426 4.235933 0.562291
5692.21 5692.21 3.450000 2369.34 160.14 4.296193 0.572827
5697.48 5697.48 3.460000 2379.83 160.856 4.353954 0.583351
5702.77 5702.77 3.480000 2384.88 161.945 4.417007 0.595212
5708.08 5708.08 3.490000 2403.44 162.661 4.453447 0.603336