File: xdidata/Ti/Ti-K-TiO.xdi
# XDI/1.0 BlueSky/1.5.0
# Beamline.name: 6BM
# Beamline.xray_source: NSLS-II three-pole wiggler
# Beamline.collimation: paraboloid mirror, 5 nm Rh on 30 nm Pt
# Beamline.focusing: not in use
# Beamline.harmonic_rejection: flat mirror, Si stripe, pitch = 7.0 mrad relative to beam
# Detector.i0: 10 cm N2
# Detector.i1: 25 cm N2
# Detector.i2: 25 cm N2
# Element.symbol: Ti
# Element.edge: K
# Facility.name: NSLS-II
# Facility.energy: 3.0
# Facility.current: 219.3
# Facility.mode: top-off
# Facility.gup: 301027
# Facility.saf: 304156
# Mono.name: Si(111)
# Mono.d_spacing: 3.13526
# Mono.encoder_resolution: 0.0000050 deg/ct
# Mono.angle_offset: 16.0571 deg
# Mono.scan_mode: pseudo channel cut
# Mono.scan_type: step
# Mono.direction: forward in energy
# Sample.name: TiO
# Sample.prep: Powder in polyethylene glycol pellet
# Sample.x_position: -97.532 mm
# Sample.y_position: 117.543 mm
# Sample.wheel_position: -720.000 mm
# Scan.experimenters: Bruce Ravel, Martin Stennett
# Scan.edge_energy: 4966.0
# Scan.start_time: 2019-05-30T09:28:40
# Scan.end_time: 2019-05-30T10:11:04
# Scan.transient_id: 9812
# Scan.uid: 5e9fb322-3abe-42ad-8e8c-6943a9110918
# Scan.plot_hint: ln(I0/It)  --  ln($5/$6)
# Scan.sequence: merge of 3 scans
# Column.1: energy eV
# Column.2: requested_energy eV
# Column.3: measurement_time seconds
# Column.4: mutrans
# Column.5: i0
# Column.6: itrans
# Column.7: irefer
# /////
#  sample disk prepared by Martin
# -----
# energy   requested_energy   measurement_time   mutrans   i0   itrans   irefer
4766 4766 0.500000 3.771044 10.9476 0.252104 0.020359
4776.01 4776 0.500000 3.742426 11.1694 0.264677 0.021871
4786.01 4786 0.500000 3.714846 11.3807 0.277227 0.022952
4796.01 4796 0.500000 3.687958 11.5959 0.290166 0.024371
4806.01 4806 0.500000 3.660605 11.8134 0.303805 0.026084
4816.01 4816 0.500000 3.634577 12.0242 0.317377 0.027435
4826.01 4826 0.500000 3.608606 12.2335 0.331401 0.028662
4836 4836 0.500000 3.581766 12.4546 0.346569 0.030540
4846 4846 0.500000 3.555587 12.6786 0.362159 0.032271
4856 4856 0.500000 3.530202 12.8943 0.377785 0.033997
4866.01 4866 0.500000 3.504505 13.1103 0.394116 0.035948
4876.01 4876 0.500000 3.478565 13.3274 0.411178 0.038093
4886.01 4886 0.500000 3.453683 13.5361 0.428135 0.039995
4896.01 4896 0.500000 3.428575 13.7361 0.445505 0.041803
4906.01 4906 0.500000 3.403755 13.934 0.463282 0.044359
4916.01 4916 0.500000 3.379395 14.1243 0.481190 0.046664
4926 4926 0.500000 3.355494 14.3161 0.499518 0.048954
4936 4936 0.500000 3.332423 14.5118 0.518168 0.051538
4938 4938 0.500000 3.328029 14.5493 0.521796 0.052076
4940 4940 0.500000 3.323348 14.5832 0.525462 0.052482
4942 4942 0.500000 3.319719 14.6152 0.528531 0.052841
4944 4944 0.500000 3.315482 14.6823 0.533208 0.053434
4946 4946 0.500000 3.311047 14.7177 0.536870 0.054013
4948.01 4948 0.500000 3.307099 14.7477 0.540096 0.054188
4950 4950 0.500000 3.303408 14.7858 0.543494 0.054852
4952 4952 0.500000 3.300094 14.8163 0.546421 0.055214
4954 4954 0.500000 3.296935 14.8494 0.549376 0.055677
4956 4956 0.500000 3.294027 14.8795 0.552089 0.055958
4956.25 4956.25 0.500000 3.293953 14.8832 0.552272 0.055942
4956.49 4956.5 0.500000 3.293537 14.884 0.552530 0.055967
4956.74 4956.75 0.500000 3.293568 14.8847 0.552539 0.056039
4956.99 4957 0.500000 3.293280 14.8878 0.552813 0.055919
4957.25 4957.25 0.500000 3.292941 14.8938 0.553221 0.056144
4957.5 4957.5 0.500000 3.293374 14.8973 0.553117 0.056040
4957.75 4957.75 0.500000 3.292475 14.9003 0.553719 0.056392
4958 4958 0.500000 3.292487 14.8993 0.553679 0.056154
4958.25 4958.25 0.500000 3.292044 14.9056 0.554156 0.056172
4958.49 4958.5 0.500000 3.292084 14.9062 0.554157 0.056380
4958.74 4958.75 0.500000 3.292178 14.9118 0.554313 0.056254
4958.99 4959 0.500000 3.292643 14.9126 0.554087 0.056091
4959.25 4959.25 0.500000 3.291941 14.9171 0.554642 0.056254
4959.5 4959.5 0.500000 3.292493 14.9219 0.554515 0.056039
4959.75 4959.75 0.500000 3.292631 14.9257 0.554579 0.056283
4960 4960 0.500000 3.291902 14.926 0.554992 0.056120
4960.25 4960.25 0.500000 3.292438 14.9311 0.554889 0.056164
4960.5 4960.5 0.500000 3.291953 14.9348 0.555292 0.055985
4960.75 4960.75 0.500000 3.292232 14.9396 0.555318 0.056021
4961 4961 0.500000 3.292574 14.9414 0.555193 0.056110
4961.25 4961.25 0.500000 3.292885 14.9484 0.555282 0.055927
4961.5 4961.5 0.500000 3.292659 14.951 0.555503 0.056131
4961.75 4961.75 0.500000 3.293667 14.9566 0.555153 0.055954
4962 4962 0.500000 3.294342 14.9598 0.554894 0.055665
4962.25 4962.25 0.500000 3.295279 14.9619 0.554453 0.055676
4962.5 4962.5 0.500000 3.296005 14.9661 0.554208 0.055435
4962.75 4962.75 0.500000 3.297315 14.9717 0.553686 0.055142
4962.99 4963 0.500000 3.297968 14.9749 0.553447 0.054839
4963.25 4963.25 0.500000 3.299659 15.0123 0.553888 0.054614
4963.5 4963.5 0.500000 3.301511 15.0149 0.552957 0.054333
4963.75 4963.75 0.500000 3.303762 15.0195 0.551892 0.053357
4964 4964 0.500000 3.307348 15.0252 0.550105 0.052270
4964.25 4964.25 0.500000 3.310791 15.0283 0.548347 0.050787
4964.5 4964.5 0.500000 3.317275 15.0296 0.544855 0.048050
4964.75 4964.75 0.500000 3.325636 15.0344 0.540500 0.044469
4965 4965 0.500000 3.340557 15.0406 0.532719 0.040149
4965.25 4965.25 0.500000 3.360374 15.0467 0.522461 0.037249
4965.5 4965.5 0.500000 3.386604 15.0469 0.509047 0.034974
4965.75 4965.75 0.500000 3.413618 15.0532 0.495671 0.034043
4966 4966 0.500000 3.435088 15.0576 0.485159 0.034605
4966.25 4966.25 0.500000 3.449034 15.0585 0.478500 0.035306
4966.5 4966.5 0.500000 3.459264 15.0627 0.473750 0.035950
4966.75 4966.75 0.500000 3.471630 15.0649 0.467997 0.036572
4967 4967 0.500000 3.483970 15.0666 0.462345 0.036496
4967.25 4967.25 0.500000 3.493887 15.0679 0.457754 0.036444
4967.5 4967.5 0.500000 3.504199 15.0704 0.453167 0.035899
4967.75 4967.75 0.500000 3.515263 15.0773 0.448380 0.035288
4968 4968 0.500000 3.529459 15.0847 0.442228 0.034355
4968.25 4968.25 0.500000 3.546226 15.0883 0.435024 0.033338
4968.5 4968.5 0.500000 3.564441 15.0922 0.427291 0.032148
4968.75 4968.75 0.500000 3.584034 15.0934 0.419121 0.030903
4969 4969 0.500000 3.604671 15.0951 0.410568 0.029924
4969.25 4969.25 0.500000 3.625779 15.093 0.401936 0.029155
4969.5 4969.5 0.500000 3.646570 15.0964 0.393734 0.028010
4969.75 4969.75 0.500000 3.667427 15.0935 0.385554 0.027374
4970 4970 0.500000 3.690160 15.0938 0.376906 0.026652
4970.25 4970.25 0.500000 3.713076 15.1069 0.368621 0.025704
4970.5 4970.5 0.500000 3.737548 15.1174 0.359979 0.025451
4970.75 4970.75 0.500000 3.766472 15.1257 0.349926 0.024637
4971 4971 0.500000 3.797663 15.1343 0.339343 0.023798
4971.25 4971.25 0.500000 3.831212 15.1446 0.328416 0.022859
4971.5 4971.5 0.500000 3.862092 15.1495 0.318476 0.022109
4971.75 4971.75 0.500000 3.894857 15.1539 0.308302 0.020962
4972 4972 0.500000 3.926353 15.16 0.298840 0.020010
4972.25 4972.25 0.500000 3.956126 15.1622 0.290185 0.019103
4972.5 4972.5 0.500000 3.983444 15.1664 0.282410 0.018556
4972.75 4972.75 0.500000 4.011605 15.1708 0.274670 0.017567
4973 4973 0.500000 4.037488 15.1743 0.267686 0.016731
4973.25 4973.25 0.500000 4.060639 15.1787 0.261638 0.015911
4973.5 4973.5 0.500000 4.082129 15.1819 0.256143 0.015676
4973.75 4973.75 0.500000 4.101521 15.1833 0.251285 0.015126
4974 4974 0.500000 4.120238 15.1975 0.246814 0.014440
4974.25 4974.25 0.500000 4.135179 15.219 0.243525 0.013965
4974.5 4974.5 0.500000 4.147450 15.2201 0.240548 0.013828
4974.75 4974.75 0.500000 4.158630 15.2224 0.237913 0.013366
4975 4975 0.500000 4.166763 15.2243 0.235996 0.013037
4975.25 4975.25 0.500000 4.175536 15.2224 0.233926 0.012766
4975.5 4975.5 0.500000 4.184514 15.2213 0.231806 0.012413
4975.75 4975.75 0.500000 4.194400 15.2219 0.229529 0.012380
4976 4976 0.500000 4.206565 15.2238 0.226779 0.011911
4976.25 4976.25 0.500000 4.220532 15.2251 0.223678 0.011656
4976.5 4976.5 0.500000 4.237145 15.2244 0.219945 0.011341
4976.75 4976.75 0.500000 4.254705 15.2225 0.216117 0.010926
4977 4977 0.500000 4.272756 15.2256 0.212317 0.010868
4977.25 4977.25 0.500000 4.293083 15.2265 0.208036 0.010445
4977.5 4977.5 0.500000 4.311486 15.2318 0.204295 0.010047
4977.75 4977.75 0.500000 4.332850 15.2344 0.200030 0.009670
4978 4978 0.500000 4.350795 15.238 0.196522 0.009684
4978.25 4978.25 0.500000 4.372135 15.2412 0.192409 0.009355
4978.5 4978.5 0.500000 4.390938 15.2441 0.188865 0.009062
4978.75 4978.75 0.500000 4.409668 15.2449 0.185330 0.009166
4979 4979 0.500000 4.430493 15.2463 0.181558 0.008776
4979.25 4979.25 0.500000 4.449639 15.2453 0.178098 0.008641
4979.5 4979.5 0.500000 4.468177 15.2435 0.174836 0.008382
4979.75 4979.75 0.500000 4.490422 15.2416 0.170931 0.008362
4980 4980 0.500000 4.511387 15.24 0.167397 0.007946
4980.25 4980.25 0.500000 4.532754 15.2365 0.163808 0.007899
4980.5 4980.5 0.500000 4.555594 15.2351 0.160094 0.007649
4980.76 4980.75 0.500000 4.577751 15.2323 0.156540 0.007949
4981 4981 0.500000 4.601222 15.2299 0.152893 0.007544
4981.25 4981.25 0.500000 4.623276 15.2315 0.149591 0.007600
4981.5 4981.5 0.500000 4.648163 15.2311 0.145901 0.007254
4981.75 4981.75 0.500000 4.672566 15.2325 0.142374 0.007300
4982 4982 0.500000 4.699950 15.2377 0.138562 0.006929
4982.25 4982.25 0.500000 4.727069 15.2376 0.134881 0.006722
4982.5 4982.5 0.500000 4.752711 15.2404 0.131488 0.006750
4982.75 4982.75 0.500000 4.779714 15.2442 0.128024 0.006545
4983 4983 0.500000 4.802123 15.2438 0.125170 0.006257
4983.25 4983.25 0.500000 4.822565 15.2754 0.122904 0.006241
4983.5 4983.5 0.500000 4.834970 15.2758 0.121398 0.006365
4983.75 4983.75 0.500000 4.845794 15.2741 0.120077 0.006344
4984 4984 0.500000 4.850963 15.2711 0.119431 0.006257
4984.25 4984.25 0.500000 4.852291 15.2708 0.119273 0.006143
4984.5 4984.5 0.500000 4.849548 15.2717 0.119608 0.006206
4984.75 4984.75 0.500000 4.841005 15.2726 0.120630 0.006253
4985 4985 0.500000 4.831884 15.2727 0.121753 0.006233
4985.25 4985.25 0.500000 4.817946 15.2737 0.123446 0.006280
4985.5 4985.5 0.500000 4.802793 15.2744 0.125352 0.006468
4985.75 4985.75 0.500000 4.784212 15.2787 0.127744 0.006864
4986.01 4986 0.500000 4.766483 15.2817 0.130080 0.006702
4986.25 4986.25 0.500000 4.747912 15.2797 0.132475 0.006774
4986.51 4986.5 0.500000 4.731230 15.2797 0.134715 0.006952
4986.75 4986.75 0.500000 4.714668 15.2754 0.136909 0.007233
4987 4987 0.500000 4.697088 15.2748 0.139327 0.007278
4987.25 4987.25 0.500000 4.683238 15.2727 0.141242 0.007147
4987.5 4987.5 0.500000 4.668997 15.271 0.143261 0.007439
4987.75 4987.75 0.500000 4.656432 15.2701 0.145082 0.007190
4988 4988 0.500000 4.644255 15.2731 0.146865 0.007484
4988.25 4988.25 0.500000 4.631339 15.2791 0.148827 0.007760
4988.5 4988.5 0.500000 4.621108 15.2851 0.150433 0.007639
4988.75 4988.75 0.500000 4.611352 15.2963 0.152029 0.007602
4989 4989 0.500000 4.600204 15.3044 0.153803 0.007672
4989.25 4989.25 0.500000 4.588819 15.3187 0.155710 0.007826
4989.5 4989.5 0.500000 4.577574 15.3348 0.157648 0.008106
4989.75 4989.75 0.500000 4.570142 15.3457 0.158937 0.007851
4990 4990 0.500000 4.558371 15.3583 0.160943 0.008022
4990.25 4990.25 0.500000 4.549603 15.37 0.162480 0.008097
4990.5 4990.5 0.500000 4.541878 15.3802 0.163845 0.008253
4990.75 4990.75 0.500000 4.533784 15.3939 0.165333 0.008180
4991 4991 0.500000 4.526343 15.4059 0.166687 0.008269
4991.25 4991.25 0.500000 4.520238 15.4161 0.167823 0.008371
4991.5 4991.5 0.500000 4.515829 15.4261 0.168676 0.008434
4991.75 4991.75 0.500000 4.513432 15.4345 0.169174 0.008496
4992 4992 0.500000 4.510079 15.4429 0.169832 0.008592
4992.25 4992.25 0.500000 4.508755 15.453 0.170171 0.008686
4992.5 4992.5 0.500000 4.507861 15.4991 0.170831 0.008596
4992.75 4992.75 0.500000 4.507739 15.5045 0.170911 0.008502
4993 4993 0.500000 4.510140 15.5102 0.170565 0.008524
4993.25 4993.25 0.500000 4.513402 15.5162 0.170074 0.008569
4993.51 4993.5 0.500000 4.515009 15.5191 0.169820 0.008377
4993.75 4993.75 0.500000 4.519629 15.525 0.169115 0.008510
4994 4994 0.500000 4.523623 15.5286 0.168481 0.008478
4994.25 4994.25 0.500000 4.527746 15.5324 0.167827 0.008381
4994.5 4994.5 0.500000 4.533333 15.5362 0.166934 0.008322
4994.75 4994.75 0.500000 4.539942 15.5421 0.165900 0.008203
4995 4995 0.500000 4.545444 15.5469 0.165031 0.008267
4995.25 4995.25 0.500000 4.552789 15.5481 0.163843 0.008052
4995.5 4995.5 0.500000 4.558155 15.5529 0.163024 0.008063
4995.75 4995.75 0.500000 4.564454 15.5547 0.162014 0.007967
4996 4996 0.700000 4.569552 21.7339 0.225226 0.010934
4997.09 4997.08 0.710000 4.587514 22.103 0.224970 0.010939
4998.19 4998.18 0.730000 4.590280 22.7257 0.230667 0.010926
4999.3 4999.29 0.740000 4.582174 23.0521 0.235885 0.011243
5000.44 5000.43 0.750000 4.565086 23.3979 0.243561 0.011495
5001.59 5001.58 0.760000 4.540819 23.7529 0.253323 0.011777
5002.77 5002.76 0.780000 4.512355 24.4348 0.268121 0.012233
5003.96 5003.95 0.790000 4.484033 24.8032 0.279981 0.012997
5005.17 5005.16 0.800000 4.463779 25.1774 0.290011 0.013525
5006.4 5006.39 0.810000 4.444182 25.5579 0.300230 0.014191
5007.65 5007.64 0.830000 4.426806 26.2505 0.313769 0.014858
5008.91 5008.91 0.840000 4.407476 26.6267 0.324466 0.016144
5010.21 5010.2 0.850000 4.392218 27.004 0.334130 0.016473
5011.52 5011.51 0.860000 4.376990 27.3784 0.343961 0.017111
5012.83 5012.83 0.880000 4.366694 28.0626 0.356200 0.017754
5014.19 5014.18 0.890000 4.359037 28.4326 0.363674 0.018078
5015.55 5015.54 0.900000 4.353310 28.8043 0.370544 0.018463
5016.94 5016.93 0.910000 4.347962 29.1764 0.377343 0.019243
5018.34 5018.33 0.930000 4.342799 29.8871 0.388534 0.019657
5019.76 5019.75 0.940000 4.335026 30.3345 0.397428 0.020424
5021.2 5021.19 0.950000 4.329117 30.723 0.404904 0.021044
5022.65 5022.65 0.960000 4.327753 31.1104 0.410568 0.021270
5024.14 5024.13 0.980000 4.331911 31.8329 0.418359 0.021848
5025.64 5025.63 0.990000 4.343825 32.2294 0.418554 0.022046
5027.15 5027.14 1.000000 4.362328 32.6159 0.415805 0.021388
5028.69 5028.68 1.010000 4.384122 33.0154 0.411821 0.021302
5030.24 5030.24 1.030000 4.407919 33.7348 0.410915 0.021296
5031.81 5031.81 1.040000 4.432011 34.1288 0.405815 0.020572
5033.4 5033.4 1.050000 4.453324 34.5295 0.401919 0.020155
5035.02 5035.01 1.060000 4.471964 34.929 0.399067 0.019753
5036.66 5036.65 1.080000 4.482868 35.6623 0.403020 0.019547
5038.3 5038.3 1.090000 4.481274 36.0739 0.408319 0.019928
5039.98 5039.97 1.100000 4.473898 36.4809 0.415982 0.020125
5041.65 5041.65 1.110000 4.459985 36.8872 0.426493 0.020907
5043.36 5043.36 1.130000 4.445021 37.6371 0.441739 0.021546
5045.09 5045.09 1.140000 4.429072 38.0508 0.453772 0.022181
5046.82 5046.83 1.150000 4.411484 38.4681 0.466895 0.022895
5048.6 5048.6 1.160000 4.390307 38.888 0.482103 0.024296
5050.38 5050.38 1.180000 4.368285 39.6572 0.502592 0.025652
5052.18 5052.18 1.190000 4.345835 40.084 0.519516 0.027300
5053.99 5054 1.200000 4.329084 40.5205 0.534040 0.027917
5055.84 5055.84 1.210000 4.317898 40.954 0.545830 0.029261
5057.69 5057.7 1.230000 4.313949 41.8194 0.559568 0.029729
5059.57 5059.58 1.240000 4.315539 42.2605 0.564574 0.030237
5061.48 5061.48 1.250000 4.319938 42.7023 0.567972 0.030449
5063.39 5063.4 1.260000 4.321720 43.1487 0.572888 0.030999
5065.33 5065.33 1.280000 4.321331 43.9474 0.583720 0.031402
5067.28 5067.29 1.290000 4.312953 44.4014 0.594699 0.032337
5069.26 5069.26 1.300000 4.300363 44.8587 0.608451 0.033127
5071.25 5071.26 1.310000 4.284177 45.314 0.624644 0.034195
5073.27 5073.27 1.330000 4.267511 46.1258 0.646527 0.035401
5075.3 5075.3 1.340000 4.253035 46.5853 0.662487 0.036160
5077.35 5077.35 1.350000 4.243833 47.0543 0.675345 0.036411
5079.42 5079.42 1.360000 4.239586 47.5289 0.685059 0.036753
5081.51 5081.51 1.380000 4.240637 48.3546 0.696230 0.036478
5083.61 5083.61 1.390000 4.245831 48.8299 0.699432 0.036316
5085.74 5085.74 1.400000 4.252683 49.3079 0.701450 0.035977
5087.89 5087.89 1.410000 4.258983 49.7843 0.703785 0.035616
5090.05 5090.05 1.430000 4.261277 50.6255 0.714044 0.035669
5092.23 5092.23 1.440000 4.255936 51.1286 0.724994 0.036307
5094.44 5094.44 1.450000 4.245141 51.7191 0.741327 0.037702
5096.66 5096.66 1.460000 4.231943 52.2443 0.758809 0.039580
5098.9 5098.9 1.480000 4.218691 53.1074 0.781635 0.041713
5101.16 5101.16 1.490000 4.208605 53.6065 0.796967 0.043718
5103.44 5103.44 1.500000 4.203116 54.1326 0.809222 0.045103
5105.74 5105.74 1.510000 4.201651 54.6553 0.818236 0.045904
5108.05 5108.05 1.530000 4.204366 55.5264 0.829028 0.046690
5110.39 5110.39 1.540000 4.207383 56.0474 0.834280 0.047561
5112.74 5112.74 1.550000 4.210149 56.5797 0.839878 0.047850
5115.12 5115.12 1.560000 4.209313 57.1046 0.848381 0.048145
5117.51 5117.51 1.580000 4.203334 58.0066 0.866949 0.049367
5119.92 5119.92 1.590000 4.194838 58.5461 0.882475 0.050433
5122.35 5122.35 1.600000 4.183684 59.084 0.900568 0.051277
5124.8 5124.8 1.610000 4.172027 59.6203 0.919394 0.052731
5127.27 5127.27 1.630000 4.160103 60.5453 0.944868 0.054808
5129.76 5129.76 1.640000 4.149915 61.1006 0.963308 0.055607
5132.27 5132.27 1.650000 4.140215 61.6651 0.981673 0.057138
5134.79 5134.79 1.660000 4.133447 62.2265 0.997336 0.057612
5137.34 5137.34 1.680000 4.128488 63.1705 1.017494 0.058873
5139.9 5139.9 1.690000 4.123265 63.7655 1.032462 0.059064
5142.49 5142.49 1.700000 4.119794 64.359 1.045698 0.059601
5145.09 5145.09 1.710000 4.116269 64.9431 1.058910 0.060361
5147.71 5147.71 1.730000 4.113092 65.9129 1.078145 0.060604
5150.35 5150.35 1.740000 4.107874 66.5872 1.094874 0.061752
5153.01 5153.01 1.750000 4.101243 67.2599 1.113306 0.063085
5155.69 5155.69 1.760000 4.091747 67.8679 1.134069 0.064617
5158.39 5158.39 1.780000 4.079136 68.8555 1.165165 0.067390
5161.11 5161.11 1.790000 4.066311 69.4505 1.190426 0.069426
5163.84 5163.84 1.800000 4.054763 70.0577 1.214779 0.071469
5166.6 5166.6 1.810000 4.044802 70.6639 1.237547 0.073170
5169.37 5169.37 1.830000 4.036788 71.6574 1.265045 0.075925
5172.17 5172.17 1.840000 4.031164 72.2551 1.282797 0.077577
5174.98 5174.98 1.850000 4.027064 72.8422 1.298524 0.079479
5177.81 5177.81 1.860000 4.024474 73.4406 1.312589 0.080884
5180.66 5180.66 1.880000 4.021390 74.4538 1.334815 0.082768
5183.53 5183.53 1.890000 4.017106 75.0944 1.352072 0.084082
5186.42 5186.42 1.900000 4.010543 75.7064 1.372067 0.085440
5189.32 5189.32 1.910000 4.003410 76.3285 1.393247 0.086949
5192.25 5192.25 1.930000 3.996604 77.3349 1.421249 0.089215
5195.2 5195.2 1.940000 3.991003 77.9738 1.441048 0.090011
5198.16 5198.16 1.950000 3.985201 78.5953 1.460989 0.091696
5201.14 5201.14 1.960000 3.979098 79.2389 1.481965 0.092877
5204.15 5204.15 1.980000 3.972006 80.2999 1.512510 0.094881
5207.17 5207.17 1.990000 3.964288 80.9354 1.536277 0.096573
5210.21 5210.21 2.000000 3.957454 81.5693 1.558933 0.097938
5213.27 5213.27 2.010000 3.950474 82.1838 1.581676 0.099103
5216.35 5216.35 2.030000 3.942556 83.2332 1.614603 0.101668
5219.45 5219.45 2.040000 3.934076 83.895 1.641305 0.103968
5222.56 5222.56 2.050000 3.925690 84.5778 1.668589 0.106310
5225.7 5225.7 2.060000 3.918921 85.2456 1.693197 0.108118
5228.85 5228.85 2.080000 3.913374 86.36 1.724870 0.110807
5232.03 5232.03 2.090000 3.908442 87.1806 1.749873 0.112913
5235.22 5235.22 2.100000 3.902935 87.8792 1.773631 0.115401
5238.43 5238.43 2.110000 3.896266 88.5767 1.799673 0.117554
5241.66 5241.66 2.130000 3.888974 89.6729 1.835271 0.121268
5244.92 5244.92 2.140000 3.881168 90.299 1.862573 0.123551
5248.18 5248.18 2.150000 3.873051 90.4762 1.881436 0.125774
5251.47 5251.47 2.160000 3.863321 91.2243 1.915539 0.129364
5254.78 5254.78 2.180000 3.853738 92.6972 1.965220 0.133245
5258.11 5258.11 2.190000 3.844200 93.5366 2.002000 0.136162
5261.45 5261.45 2.200000 3.834372 94.2394 2.036971 0.139159
5264.82 5264.82 2.210000 3.826177 95.0112 2.070569 0.142046
5268.2 5268.2 2.230000 3.818742 96.2212 2.112571 0.145617
5271.6 5271.6 2.240000 3.811458 96.9628 2.144419 0.148056
5275.03 5275.03 2.250000 3.803856 97.8 2.179438 0.150920
5278.47 5278.47 2.260000 3.796433 97.2976 2.184406 0.151492
5281.93 5281.93 2.280000 3.788666 99.557 2.252552 0.156828
5285.4 5285.4 2.290000 3.780943 100.393 2.289088 0.159546
5288.9 5288.9 2.300000 3.773058 101.129 2.324112 0.162243
5292.42 5292.42 2.310000 3.764620 101.88 2.361228 0.165962
5295.96 5295.96 2.330000 3.756665 103.1 2.408562 0.170169
5299.51 5299.51 2.340000 3.749454 103.975 2.446606 0.173759
5303.09 5303.09 2.350000 3.742418 104.736 2.481903 0.177332
5306.68 5306.68 2.360000 3.735558 105.518 2.517642 0.180520
5310.29 5310.29 2.380000 3.728701 106.767 2.564972 0.185029
5313.92 5313.92 2.390000 3.721753 107.525 2.601198 0.188734
5317.57 5317.57 2.400000 3.714896 108.287 2.637660 0.191901
5321.24 5321.24 2.410000 3.707507 108.825 2.670424 0.195704
5324.93 5324.93 2.430000 3.700463 109.917 2.716271 0.200130
5328.64 5328.64 2.440000 3.692974 110.474 2.750562 0.203835
5332.36 5332.36 2.450000 3.684652 111.033 2.787580 0.207834
5336.11 5336.11 2.460000 3.676831 111.816 2.829292 0.212325
5339.87 5339.87 2.480000 3.668331 113.02 2.884166 0.218168
5343.66 5343.66 2.490000 3.660329 113.745 2.925975 0.222363
5347.46 5347.46 2.500000 3.652485 114.672 2.973055 0.226949
5351.28 5351.28 2.510000 3.644218 115.125 3.009591 0.231057
5355.12 5355.12 2.530000 3.636331 115.455 3.042096 0.234728
5358.98 5358.98 2.540000 3.627935 117.196 3.114003 0.241526
5362.86 5362.86 2.550000 3.620099 117.876 3.156723 0.245449
5366.76 5366.76 2.560000 3.612062 118.436 3.197305 0.249364
5370.68 5370.68 2.580000 3.603714 119.447 3.251620 0.254676
5374.61 5374.61 2.590000 3.595032 120.093 3.297743 0.259698
5378.57 5378.57 2.600000 3.586379 120.936 3.349734 0.264697
5382.54 5382.54 2.610000 3.577207 121.556 3.397943 0.269806
5386.54 5386.54 2.630000 3.568195 122.573 3.457389 0.276137
5390.55 5390.55 2.640000 3.559426 123.045 3.501265 0.281667
5394.58 5394.58 2.650000 3.551190 123.613 3.546536 0.286580
5398.63 5398.63 2.660000 3.543456 123.841 3.580650 0.290833
5402.7 5402.7 2.680000 3.535278 124.975 3.643103 0.297461
5406.79 5406.79 2.690000 3.527582 125.416 3.684224 0.302624
5410.9 5410.9 2.700000 3.520051 125.925 3.727139 0.307534
5415.02 5415.02 2.710000 3.511577 126.525 3.776761 0.313560
5419.17 5419.17 2.730000 3.503287 126.905 3.819652 0.318707
5423.33 5423.33 2.740000 3.495032 127.801 3.878464 0.325539
5427.52 5427.52 2.750000 3.486873 128.336 3.926608 0.331790
5431.72 5431.72 2.760000 3.478671 128.864 3.975253 0.337853
5435.94 5435.94 2.780000 3.470337 129.897 4.040631 0.345009
5440.18 5440.18 2.790000 3.461872 130.495 4.093758 0.351605
5444.44 5444.44 2.800000 3.453545 131.105 4.147294 0.357475
5448.72 5448.72 2.810000 3.444936 131.714 4.202557 0.365038
5453.02 5453.02 2.830000 3.436442 132.843 4.274762 0.372776
5457.34 5457.34 2.840000 3.427921 133.821 4.343081 0.380569
5461.67 5461.67 2.850000 3.419736 134.539 4.402251 0.387635
5466.03 5466.03 2.860000 3.411081 135.274 4.464770 0.396143
5470.4 5470.4 2.880000 3.402914 136.494 4.541990 0.404728
5474.8 5474.8 2.890000 3.394563 137.269 4.606103 0.412287
5479.21 5479.21 2.900000 3.386281 138.054 4.670946 0.420039
5483.64 5483.64 2.910000 3.377804 138.821 4.736889 0.427981
5488.09 5488.09 2.930000 3.370087 140.047 4.815748 0.437585
5492.56 5492.56 2.940000 3.361426 140.844 4.885277 0.446358
5497.05 5497.05 2.950000 3.353240 141.655 4.953805 0.454744
5501.56 5501.56 2.960000 3.345400 142.48 5.021859 0.463686
5506.08 5506.08 2.980000 3.337531 144.07 5.118050 0.474898
5510.63 5510.63 2.990000 3.329265 144.847 5.188337 0.484145
5515.19 5515.19 3.000000 3.320784 145.723 5.264162 0.494011
5519.78 5519.78 3.010000 3.312195 146.593 5.341278 0.504154
5524.38 5524.38 3.030000 3.303760 147.973 5.437250 0.515718
5529 5529 3.040000 3.295438 148.924 5.517927 0.526400
5533.64 5533.64 3.050000 3.286881 149.949 5.603639 0.537691
5538.3 5538.3 3.060000 3.278208 151.078 5.695001 0.549633
5542.98 5542.98 3.080000 3.269333 152.505 5.800073 0.562421
5547.68 5547.68 3.090000 3.260741 153.45 5.886363 0.574087
5552.4 5552.4 3.100000 3.251873 154.411 5.975954 0.586108
5557.13 5557.13 3.110000 3.243278 155.351 6.064208 0.597980
5561.89 5561.89 3.130000 3.235295 156.766 6.168526 0.611647
5566.66 5566.66 3.140000 3.227237 157.684 6.254828 0.623140
5571.46 5571.46 3.150000 3.218753 158.612 6.345282 0.635752
5576.27 5576.27 3.160000 3.210116 159.53 6.437344 0.648622
5581.1 5581.1 3.180000 3.201117 160.954 6.553531 0.663990
5585.95 5585.95 3.190000 3.192360 161.948 6.651958 0.677861
5590.82 5590.82 3.200000 3.183978 162.82 6.744097 0.690500
5595.71 5595.71 3.210000 3.175420 163.792 6.842700 0.704739
5600.62 5600.62 3.230000 3.166913 165.165 6.958927 0.720403
5605.54 5605.54 3.240000 3.158686 166.075 7.055105 0.734393
5610.49 5610.49 3.250000 3.150622 167.028 7.153056 0.748219
5615.45 5615.45 3.260000 3.141892 168.08 7.261236 0.764472
5620.44 5620.44 3.280000 3.133368 169.634 7.391106 0.782398
5625.44 5625.44 3.290000 3.125027 169.766 7.458799 0.794290
5630.46 5630.46 3.300000 3.115828 170.4 7.555851 0.808939
5635.5 5635.5 3.310000 3.107210 171.184 7.656326 0.824780
5640.56 5640.56 3.330000 3.097879 172.715 7.797204 0.844528
5645.64 5645.64 3.340000 3.089157 173.451 7.899013 0.860511
5650.74 5650.74 3.350000 3.081712 174.249 7.994686 0.875817
5655.86 5655.86 3.360000 3.072076 175.146 8.113627 0.894370
5660.99 5660.99 3.380000 3.063522 176.767 8.259068 0.915316
5666.15 5666.15 3.390000 3.054835 178.285 8.402647 0.936406
5671.32 5671.32 3.400000 3.046279 179.491 8.532204 0.956092
5676.52 5676.52 3.410000 3.037478 180.811 8.670906 0.976523
5681.73 5681.73 3.430000 3.028796 182.576 8.831892 1.000307
5686.96 5686.96 3.440000 3.019932 183.693 8.965064 1.021937
5692.21 5692.21 3.450000 3.011281 184.627 9.088883 1.041663
5697.48 5697.48 3.460000 3.002773 185.945 9.232033 1.063868
5702.77 5702.77 3.480000 2.993938 187.532 9.393441 1.089496
5708.08 5708.08 3.490000 2.985234 188.461 9.522520 1.109677