File: xdidata/Ti/Ti-K-Fe2TiO5.xdi
# XDI/1.0 BlueSky/1.5.0
# Beamline.name: 6BM
# Beamline.xray_source: NSLS-II three-pole wiggler
# Beamline.collimation: paraboloid mirror, 5 nm Rh on 30 nm Pt
# Beamline.focusing: not in use
# Beamline.harmonic_rejection: flat mirror, Si stripe, pitch = 7.0 mrad relative to beam
# Detector.i0: 10 cm N2
# Detector.i1: 25 cm N2
# Detector.i2: 25 cm N2
# Element.symbol: Ti
# Element.edge: K
# Facility.name: NSLS-II
# Facility.energy: 3.0
# Facility.current: 220.4
# Facility.mode: top-off
# Facility.gup: 301027
# Facility.saf: 304156
# Mono.name: Si(111)
# Mono.d_spacing: 3.13526
# Mono.encoder_resolution: 0.0000050 deg/ct
# Mono.angle_offset: 16.0571 deg
# Mono.scan_mode: pseudo channel cut
# Mono.scan_type: step
# Mono.direction: forward in energy
# Sample.name: Fe2TiO5
# Sample.prep: Powder in polyethylene glycol pellet
# Sample.x_position: -97.532 mm
# Sample.y_position: 117.543 mm
# Sample.wheel_position: -600.000 mm
# Scan.experimenters: Bruce Ravel, Martin Stennett
# Scan.edge_energy: 4966.0
# Scan.start_time: 2019-05-30T03:41:45
# Scan.end_time: 2019-05-30T04:24:42
# Scan.transient_id: 9788
# Scan.uid: d9aa5281-2d45-470e-9237-65acae46ec2d
# Scan.plot_hint: ln(I0/It)  --  ln($5/$6)
# Scan.sequence: merge of 3 scans
# Column.1: energy eV
# Column.2: requested_energy eV
# Column.3: measurement_time seconds
# Column.4: mutrans
# Column.5: i0
# Column.6: itrans
# Column.7: irefer
# /////
#  sample disk prepared by Martin
# -----
# energy   requested_energy   measurement_time   mutrans   i0   itrans   irefer
4765.99 4766 0.500000 3.535705 10.9975 0.320446 0.025681
4776.01 4776 0.500000 3.510751 11.2548 0.336230 0.027349
4786.01 4786 0.500000 3.487568 11.4768 0.350903 0.028711
4796.01 4796 0.500000 3.462394 11.6986 0.366805 0.030527
4806.01 4806 0.500000 3.438726 11.9258 0.382883 0.032019
4816.01 4816 0.500000 3.414578 12.1426 0.399373 0.034049
4826.01 4826 0.500000 3.391243 12.3587 0.416083 0.035833
4836 4836 0.500000 3.366967 12.5862 0.434148 0.037940
4846 4846 0.500000 3.344032 12.8158 0.452326 0.039751
4856 4856 0.500000 3.320828 13.0408 0.471062 0.041864
4866.01 4866 0.500000 3.297090 13.2629 0.490607 0.044377
4876.01 4876 0.500000 3.274079 13.4834 0.510371 0.046801
4886 4886 0.500000 3.251408 13.6973 0.530356 0.049272
4896 4896 0.500000 3.228391 13.9042 0.550897 0.051879
4906 4906 0.500000 3.205903 14.1062 0.571616 0.054362
4916 4916 0.500000 3.183258 14.3039 0.592905 0.057282
4926 4926 0.500000 3.160569 14.5043 0.615006 0.060216
4936 4936 0.500000 3.138244 14.6973 0.637260 0.062930
4938 4938 0.500000 3.134314 14.7333 0.641337 0.063511
4940 4940 0.500000 3.129591 14.7722 0.646074 0.064309
4942 4942 0.500000 3.125057 14.8064 0.650509 0.064947
4944 4944 0.500000 3.120884 14.8407 0.654740 0.065310
4946.01 4946 0.500000 3.117137 14.8747 0.658708 0.065842
4948.01 4948 0.500000 3.112337 14.9069 0.663313 0.066747
4950.01 4950 0.500000 3.107481 14.9419 0.668104 0.067540
4952 4952 0.500000 3.103794 14.9737 0.671998 0.067966
4954 4954 0.500000 3.099520 15.0031 0.676202 0.068284
4956 4956 0.500000 3.095225 15.0339 0.680507 0.068500
4956.25 4956.25 0.500000 3.095229 15.0379 0.680687 0.068785
4956.49 4956.5 0.500000 3.094455 15.038 0.681216 0.068910
4956.74 4956.75 0.500000 3.093685 15.0394 0.681807 0.068831
4956.99 4957 0.500000 3.093611 15.0437 0.682054 0.068876
4957.24 4957.25 0.500000 3.092740 15.0451 0.682707 0.068850
4957.49 4957.5 0.500000 3.092611 15.0486 0.682958 0.069043
4957.74 4957.75 0.500000 3.092155 15.0543 0.683525 0.068990
4957.99 4958 0.500000 3.091636 15.0564 0.683977 0.069176
4958.24 4958.25 0.500000 3.091025 15.0608 0.684593 0.069197
4958.49 4958.5 0.500000 3.090893 15.0649 0.684869 0.069253
4958.74 4958.75 0.500000 3.090448 15.0677 0.685304 0.069180
4959 4959 0.500000 3.089625 15.0695 0.685952 0.068990
4959.25 4959.25 0.500000 3.089410 15.0723 0.686229 0.069144
4959.5 4959.5 0.500000 3.088850 15.0749 0.686729 0.069272
4959.75 4959.75 0.500000 3.088344 15.082 0.687398 0.069288
4960 4960 0.500000 3.088125 15.0861 0.687736 0.069483
4960.24 4960.25 0.500000 3.087666 15.0874 0.688110 0.069260
4960.49 4960.5 0.500000 3.087227 15.0934 0.688688 0.069436
4960.75 4960.75 0.500000 3.086506 15.0973 0.689359 0.069331
4961 4961 0.500000 3.085960 15.1026 0.689978 0.069600
4961.24 4961.25 0.500000 3.085533 15.1059 0.690427 0.069363
4961.5 4961.5 0.500000 3.085186 15.1099 0.690848 0.069291
4961.75 4961.75 0.500000 3.084849 15.1152 0.691326 0.069393
4962 4962 0.500000 3.084240 15.1184 0.691893 0.069495
4962.25 4962.25 0.500000 3.084025 15.1229 0.692249 0.068984
4962.49 4962.5 0.500000 3.083476 15.1264 0.692788 0.068860
4962.74 4962.75 0.500000 3.083516 15.1318 0.693007 0.068825
4963 4963 0.500000 3.082870 15.139 0.693784 0.068642
4963.25 4963.25 0.500000 3.082952 15.1412 0.693825 0.068109
4963.5 4963.5 0.500000 3.082793 15.1458 0.694150 0.067710
4963.75 4963.75 0.500000 3.082294 15.1491 0.694645 0.067028
4964 4964 0.500000 3.082234 15.1569 0.695047 0.065648
4964.25 4964.25 0.500000 3.082037 15.1592 0.695288 0.063389
4964.5 4964.5 0.500000 3.081991 15.1621 0.695454 0.060235
4964.75 4964.75 0.500000 3.081677 15.1627 0.695699 0.055567
4965 4965 0.500000 3.081729 15.1979 0.697282 0.051549
4965.25 4965.25 0.500000 3.081713 15.2112 0.697897 0.048656
4965.5 4965.5 0.500000 3.082639 15.2152 0.697436 0.047498
4965.75 4965.75 0.500000 3.083795 15.2161 0.696673 0.047566
4966 4966 0.500000 3.085604 15.2178 0.695492 0.049165
4966.25 4966.25 0.500000 3.088915 15.223 0.693420 0.050850
4966.5 4966.5 0.500000 3.093844 15.2235 0.690062 0.052259
4966.75 4966.75 0.500000 3.102857 15.2288 0.684078 0.053153
4967 4967 0.500000 3.114224 15.2315 0.676437 0.052876
4967.25 4967.25 0.500000 3.125508 15.231 0.668851 0.052490
4967.5 4967.5 0.500000 3.131738 15.2366 0.664951 0.051806
4967.75 4967.75 0.500000 3.132500 15.2414 0.664660 0.051248
4968 4968 0.500000 3.129934 15.2432 0.666439 0.050616
4968.25 4968.25 0.500000 3.131551 15.2513 0.665703 0.049590
4968.5 4968.5 0.500000 3.140544 15.2517 0.659772 0.048193
4968.75 4968.75 0.500000 3.155040 15.2525 0.650327 0.046936
4969 4969 0.500000 3.170838 15.2554 0.640239 0.045739
4969.25 4969.25 0.500000 3.179809 15.2547 0.634507 0.044669
4969.5 4969.5 0.500000 3.180406 15.2567 0.634204 0.044137
4969.75 4969.75 0.500000 3.173789 15.2564 0.638387 0.044238
4970 4970 0.500000 3.164200 15.2611 0.644743 0.044281
4970.25 4970.25 0.500000 3.155130 15.2694 0.650965 0.044345
4970.5 4970.5 0.500000 3.147014 15.2808 0.656767 0.044614
4970.75 4970.75 0.500000 3.139073 15.2917 0.662478 0.044797
4971 4971 0.500000 3.130711 15.2989 0.668390 0.044972
4971.25 4971.25 0.500000 3.123805 15.3058 0.673294 0.044739
4971.5 4971.5 0.500000 3.118023 15.3142 0.677588 0.044829
4971.75 4971.75 0.500000 3.114109 15.3185 0.680421 0.044187
4972 4972 0.500000 3.111849 15.3226 0.682141 0.043279
4972.25 4972.25 0.500000 3.111133 15.3247 0.682718 0.042347
4972.5 4972.5 0.500000 3.110760 15.3314 0.683275 0.041765
4972.75 4972.75 0.500000 3.110644 15.3321 0.683391 0.040808
4973 4973 0.500000 3.110704 15.3344 0.683452 0.039960
4973.25 4973.25 0.500000 3.110251 15.3357 0.683818 0.039044
4973.5 4973.5 0.500000 3.110102 15.3403 0.684124 0.038234
4973.75 4973.75 0.500000 3.111126 15.346 0.683677 0.037473
4974 4974 0.500000 3.112326 15.3814 0.684433 0.036959
4974.25 4974.25 0.500000 3.114991 15.3846 0.682748 0.036034
4974.5 4974.5 0.500000 3.118476 15.3849 0.680393 0.035402
4974.75 4974.75 0.500000 3.123119 15.3865 0.677298 0.034466
4975 4975 0.500000 3.128199 15.3886 0.673956 0.033883
4975.25 4975.25 0.500000 3.133449 15.3879 0.670388 0.032950
4975.5 4975.5 0.500000 3.139834 15.3859 0.666089 0.032130
4975.75 4975.75 0.500000 3.146830 15.3868 0.661469 0.031402
4976 4976 0.500000 3.155422 15.4187 0.657153 0.030526
4976.25 4976.25 0.500000 3.163803 15.4192 0.651691 0.029559
4976.5 4976.5 0.500000 3.172677 15.4185 0.645917 0.029012
4976.75 4976.75 0.500000 3.183244 15.417 0.639052 0.028493
4977 4977 0.500000 3.193028 15.4204 0.632955 0.028131
4977.25 4977.25 0.500000 3.202154 15.4202 0.627206 0.027254
4977.5 4977.5 0.500000 3.210246 15.4222 0.622240 0.026910
4977.75 4977.75 0.500000 3.218036 15.4233 0.617480 0.026214
4978 4978 0.500000 3.224771 15.431 0.613618 0.025904
4978.25 4978.25 0.500000 3.231402 15.4358 0.609736 0.025819
4978.5 4978.5 0.500000 3.237889 15.4393 0.605915 0.025281
4978.75 4978.75 0.500000 3.244811 15.4355 0.601618 0.025077
4979 4979 0.500000 3.252526 15.439 0.597130 0.024472
4979.25 4979.25 0.500000 3.260163 15.4376 0.592534 0.024811
4979.5 4979.5 0.500000 3.269443 15.4361 0.586990 0.024000
4979.75 4979.75 0.500000 3.279733 15.4344 0.580945 0.023888
4980 4980 0.500000 3.291036 15.4304 0.574225 0.023514
4980.25 4980.25 0.500000 3.303891 15.4295 0.566879 0.023075
4980.5 4980.5 0.500000 3.317539 15.4252 0.559016 0.022821
4980.75 4980.75 0.500000 3.332430 15.4218 0.550721 0.022270
4981 4981 0.500000 3.348358 15.4215 0.541956 0.022055
4981.25 4981.25 0.500000 3.363809 15.4224 0.533689 0.021518
4981.5 4981.5 0.500000 3.379991 15.424 0.525118 0.021403
4981.75 4981.75 0.500000 3.396501 15.4293 0.516753 0.020694
4982 4982 0.500000 3.412824 15.4306 0.508367 0.020374
4982.25 4982.25 0.500000 3.428615 15.432 0.500452 0.020005
4982.5 4982.5 0.500000 3.443253 15.4334 0.493212 0.019702
4982.75 4982.75 0.500000 3.457505 15.4351 0.486372 0.019644
4983 4983 0.500000 3.471506 15.4366 0.479654 0.019255
4983.25 4983.25 0.500000 3.484414 15.4366 0.473452 0.018996
4983.5 4983.5 0.500000 3.496117 15.4359 0.467947 0.018848
4983.75 4983.75 0.500000 3.507349 15.4323 0.462599 0.018500
4984 4984 0.500000 3.518172 15.4285 0.457542 0.018346
4984.25 4984.25 0.500000 3.527613 15.4276 0.453192 0.018061
4984.5 4984.5 0.500000 3.535688 15.4286 0.449584 0.018202
4984.75 4984.75 0.500000 3.542927 15.4313 0.446417 0.018028
4985 4985 0.500000 3.548673 15.4335 0.443912 0.018235
4985.25 4985.25 0.500000 3.552942 15.4355 0.442078 0.018362
4985.5 4985.5 0.500000 3.555959 15.4348 0.440721 0.018331
4985.75 4985.75 0.500000 3.558125 15.4359 0.439806 0.018386
4986 4986 0.500000 3.557766 15.435 0.439936 0.018290
4986.25 4986.25 0.500000 3.556317 15.4339 0.440549 0.018544
4986.5 4986.5 0.500000 3.553867 15.4336 0.441609 0.018762
4986.75 4986.75 0.500000 3.549860 15.4328 0.443357 0.018694
4987 4987 0.500000 3.545067 15.4323 0.445473 0.019064
4987.25 4987.25 0.500000 3.539370 15.4271 0.447874 0.018882
4987.5 4987.5 0.500000 3.534453 15.427 0.450076 0.019227
4987.75 4987.75 0.500000 3.527796 15.4272 0.453099 0.019298
4988 4988 0.500000 3.522162 15.4306 0.455742 0.019520
4988.25 4988.25 0.500000 3.517117 15.4376 0.458257 0.019537
4988.5 4988.5 0.500000 3.511466 15.445 0.461083 0.019678
4988.75 4988.75 0.500000 3.507402 15.4512 0.463132 0.019833
4989 4989 0.500000 3.503616 15.4627 0.465261 0.019754
4989.25 4989.25 0.500000 3.500345 15.4731 0.467086 0.019738
4989.51 4989.5 0.500000 3.498191 15.4865 0.468505 0.019834
4989.75 4989.75 0.500000 3.496746 15.5009 0.469612 0.019923
4990 4990 0.500000 3.494876 15.5136 0.470877 0.020041
4990.25 4990.25 0.500000 3.493977 15.5244 0.471624 0.020052
4990.5 4990.5 0.500000 3.493631 15.5373 0.472183 0.020246
4990.75 4990.75 0.500000 3.492898 15.5494 0.472898 0.020159
4991 4991 0.500000 3.491975 15.5591 0.473629 0.020495
4991.25 4991.25 0.500000 3.491592 15.5699 0.474140 0.020265
4991.51 4991.5 0.500000 3.490766 15.5779 0.474776 0.020562
4991.75 4991.75 0.500000 3.490835 15.5888 0.475075 0.020421
4992 4992 0.500000 3.490199 15.5951 0.475568 0.020165
4992.25 4992.25 0.500000 3.489918 15.6022 0.475920 0.020408
4992.5 4992.5 0.500000 3.489169 15.6093 0.476493 0.020401
4992.75 4992.75 0.500000 3.488901 15.6168 0.476846 0.020646
4993 4993 0.500000 3.488719 15.6201 0.477037 0.020445
4993.25 4993.25 0.500000 3.488297 15.6241 0.477361 0.020733
4993.5 4993.5 0.500000 3.488128 15.6284 0.477577 0.020362
4993.75 4993.75 0.500000 3.487721 15.6344 0.477950 0.020779
4994 4994 0.500000 3.487721 15.6383 0.478070 0.020704
4994.25 4994.25 0.500000 3.488687 15.6415 0.477708 0.020273
4994.5 4994.5 0.500000 3.489026 15.6448 0.477643 0.020853
4994.75 4994.75 0.500000 3.490494 15.6691 0.477684 0.020277
4995 4995 0.500000 3.490923 15.6715 0.477555 0.020453
4995.25 4995.25 0.500000 3.492431 15.6741 0.476910 0.020032
4995.5 4995.5 0.500000 3.493980 15.6775 0.476281 0.020063
4995.75 4995.75 0.500000 3.495770 15.699 0.476079 0.019843
4996 4996 0.700000 3.496773 21.9166 0.663966 0.027782
4997.09 4997.08 0.710000 3.502517 22.2792 0.671096 0.027645
4998.19 4998.18 0.730000 3.505626 22.9085 0.687899 0.027270
4999.3 4999.29 0.740000 3.502927 23.2346 0.699580 0.027480
5000.44 5000.43 0.750000 3.496426 23.5843 0.714739 0.027861
5001.59 5001.58 0.760000 3.488798 23.9399 0.731074 0.028654
5002.77 5002.76 0.780000 3.479802 24.6205 0.758643 0.029635
5003.96 5003.95 0.790000 3.466483 24.9939 0.780491 0.030813
5005.17 5005.16 0.800000 3.451288 25.3677 0.804272 0.032310
5006.4 5006.39 0.810000 3.436655 25.7525 0.828521 0.033814
5007.65 5007.64 0.830000 3.424873 26.4502 0.861051 0.036045
5008.91 5008.91 0.840000 3.413953 26.8227 0.882746 0.037832
5010.21 5010.2 0.850000 3.400297 27.1993 0.907470 0.039455
5011.52 5011.51 0.860000 3.388101 27.5739 0.931243 0.040801
5012.83 5012.83 0.880000 3.379062 28.2651 0.963253 0.042355
5014.19 5014.18 0.890000 3.372163 28.6379 0.982710 0.043628
5015.55 5015.54 0.900000 3.367281 29.006 1.000219 0.044864
5016.94 5016.93 0.910000 3.364772 29.3846 1.015824 0.046145
5018.33 5018.33 0.930000 3.362302 30.1151 1.043645 0.048008
5019.76 5019.75 0.940000 3.357247 30.541 1.063782 0.048897
5021.2 5021.19 0.950000 3.351084 30.931 1.084022 0.050130
5022.66 5022.65 0.960000 3.345883 31.321 1.103407 0.051201
5024.14 5024.13 0.980000 3.341995 32.107 1.135511 0.052789
5025.64 5025.63 0.990000 3.339678 32.4995 1.152054 0.053422
5027.15 5027.14 1.000000 3.338582 32.8883 1.167118 0.053942
5028.68 5028.68 1.010000 3.337493 33.2843 1.182453 0.054168
5030.24 5030.24 1.030000 3.336552 34.0102 1.209380 0.054786
5031.81 5031.81 1.040000 3.335343 34.4081 1.225008 0.054274
5033.41 5033.4 1.050000 3.334913 34.8128 1.239952 0.054016
5035.01 5035.01 1.060000 3.335000 35.2123 1.254073 0.053749
5036.65 5036.65 1.080000 3.334205 35.9502 1.281373 0.054153
5038.3 5038.3 1.090000 3.332303 36.3507 1.298101 0.054127
5039.96 5039.97 1.100000 3.328413 36.7608 1.317848 0.054893
5041.65 5041.65 1.110000 3.323387 37.1718 1.339327 0.056369
5043.36 5043.36 1.130000 3.318027 37.9198 1.373621 0.058114
5045.09 5045.09 1.140000 3.313006 38.3389 1.395796 0.059832
5046.83 5046.83 1.150000 3.309460 38.7525 1.415861 0.061822
5048.6 5048.6 1.160000 3.307871 39.1709 1.433419 0.063721
5050.38 5050.38 1.180000 3.308265 39.9364 1.460857 0.066592
5052.18 5052.18 1.190000 3.309545 40.3612 1.474509 0.068671
5054 5054 1.200000 3.310607 40.795 1.488776 0.070737
5055.83 5055.84 1.210000 3.310773 41.221 1.504071 0.072281
5057.7 5057.7 1.230000 3.310451 42.0026 1.533084 0.073753
5059.57 5059.58 1.240000 3.308713 42.4415 1.551795 0.074752
5061.48 5061.48 1.250000 3.306871 42.8839 1.570864 0.075893
5063.4 5063.4 1.260000 3.303330 43.3264 1.592700 0.077304
5065.33 5065.33 1.280000 3.298956 44.1288 1.629319 0.079932
5067.29 5067.29 1.290000 3.294190 44.5839 1.653983 0.081902
5069.26 5069.26 1.300000 3.289810 45.0405 1.678257 0.083374
5071.26 5071.26 1.310000 3.285464 45.4966 1.702630 0.084980
5073.27 5073.27 1.330000 3.279615 46.3045 1.743042 0.087279
5075.3 5075.3 1.340000 3.272273 46.7652 1.773339 0.088114
5077.35 5077.35 1.350000 3.264309 47.2318 1.805359 0.089046
5079.42 5079.42 1.360000 3.256136 47.7044 1.838385 0.089773
5081.51 5081.51 1.380000 3.248485 48.5242 1.884336 0.090070
5083.61 5083.61 1.390000 3.240755 49.0006 1.917586 0.090516
5085.74 5085.74 1.400000 3.233348 49.4761 1.950605 0.090619
5087.89 5087.89 1.410000 3.226133 49.9606 1.983963 0.090608
5090.05 5090.05 1.430000 3.218676 50.7997 2.032395 0.092121
5092.23 5092.23 1.440000 3.210892 51.2959 2.068301 0.093863
5094.44 5094.44 1.450000 3.203977 51.8131 2.103650 0.097328
5096.66 5096.66 1.460000 3.197976 52.3107 2.136628 0.101313
5098.9 5098.9 1.480000 3.193727 53.1719 2.181042 0.106579
5101.17 5101.16 1.490000 3.191927 53.6765 2.205715 0.110857
5103.44 5103.44 1.500000 3.190491 54.1901 2.230015 0.114570
5105.74 5105.74 1.510000 3.188708 54.7011 2.255062 0.117615
5108.05 5108.05 1.530000 3.186959 55.5879 2.295633 0.119496
5110.39 5110.39 1.540000 3.184114 56.2269 2.328626 0.121859
5112.74 5112.74 1.550000 3.180337 56.7468 2.359051 0.123681
5115.12 5115.12 1.560000 3.175740 57.2643 2.391540 0.125921
5117.51 5117.51 1.580000 3.169935 58.1592 2.443056 0.128916
5119.92 5119.92 1.590000 3.163694 58.6912 2.480849 0.131070
5122.35 5122.35 1.600000 3.157466 59.2223 2.518937 0.133618
5124.8 5124.8 1.610000 3.151544 59.7587 2.556832 0.136625
5127.27 5127.27 1.630000 3.146224 60.6717 2.609731 0.139914
5129.76 5129.76 1.640000 3.140836 61.2268 2.647856 0.142518
5132.27 5132.27 1.650000 3.135545 61.7754 2.685759 0.145126
5134.79 5134.79 1.660000 3.130177 62.3306 2.724485 0.147228
5137.34 5137.34 1.680000 3.125499 63.3188 2.780639 0.149918
5139.9 5139.9 1.690000 3.120918 63.9828 2.822701 0.151349
5142.49 5142.49 1.700000 3.116279 64.5641 2.861596 0.152694
5145.09 5145.09 1.710000 3.111871 65.1378 2.899774 0.153215
5147.71 5147.71 1.730000 3.106872 66.1051 2.957611 0.155661
5150.35 5150.35 1.740000 3.101272 66.7811 3.004602 0.158566
5153.01 5153.01 1.750000 3.095560 67.4328 3.051310 0.162198
5155.69 5155.69 1.760000 3.090325 68.0197 3.094020 0.166135
5158.39 5158.39 1.780000 3.085108 69.0049 3.155254 0.171404
5161.11 5161.11 1.790000 3.080241 69.5894 3.197502 0.175777
5163.84 5163.84 1.800000 3.075783 70.1945 3.239721 0.179653
5166.6 5166.6 1.810000 3.070882 70.7936 3.283431 0.183760
5169.37 5169.37 1.830000 3.065172 71.7801 3.348243 0.189060
5172.17 5172.17 1.840000 3.059508 72.3766 3.395234 0.194012
5174.98 5174.98 1.850000 3.054215 72.9569 3.440628 0.199062
5177.81 5177.81 1.860000 3.048920 73.5535 3.487183 0.203671
5180.66 5180.66 1.880000 3.043595 74.5663 3.554060 0.208976
5183.53 5183.53 1.890000 3.037640 75.1981 3.605602 0.212913
5186.42 5186.42 1.900000 3.030673 75.8023 3.659982 0.216938
5189.32 5189.32 1.910000 3.023854 76.4171 3.714877 0.220563
5192.25 5192.25 1.930000 3.016782 77.4261 3.790672 0.225745
5195.2 5195.2 1.940000 3.009741 78.027 3.847081 0.229348
5198.16 5198.16 1.950000 3.003228 78.6001 3.900658 0.233081
5201.14 5201.14 1.960000 2.996635 79.2198 3.957426 0.236680
5204.15 5204.15 1.980000 2.990118 80.2802 4.036607 0.241421
5207.17 5207.17 1.990000 2.983469 80.9091 4.095369 0.245267
5210.21 5210.21 2.000000 2.977691 81.5317 4.150780 0.248638
5213.27 5213.27 2.010000 2.972629 82.1547 4.203739 0.252350
5216.35 5216.35 2.030000 2.967889 83.2007 4.277488 0.257906
5219.45 5219.45 2.040000 2.962928 83.8649 4.333084 0.262949
5222.56 5222.56 2.050000 2.957392 84.5393 4.392167 0.267959
5225.7 5225.7 2.060000 2.951081 85.1976 4.454404 0.273540
5228.85 5228.85 2.080000 2.944842 86.274 4.538914 0.279949
5232.03 5232.03 2.090000 2.938991 86.9539 4.601524 0.285604
5235.22 5235.22 2.100000 2.933338 87.6625 4.665329 0.291519
5238.43 5238.43 2.110000 2.928134 88.3569 4.726804 0.297558
5241.66 5241.66 2.130000 2.922592 89.4549 4.812131 0.305273
5244.92 5244.92 2.140000 2.917203 90.095 4.872768 0.311915
5248.18 5248.18 2.150000 2.915703 90.2623 4.889151 0.315209
5251.47 5251.47 2.160000 2.909438 91.0654 4.963659 0.322297
5254.78 5254.78 2.180000 2.901697 92.6799 5.090904 0.333156
5258.11 5258.11 2.190000 2.895143 93.6121 5.175934 0.340581
5261.45 5261.45 2.200000 2.888651 94.3275 5.249450 0.347484
5264.82 5264.82 2.210000 2.882027 95.1264 5.329085 0.354032
5268.2 5268.2 2.230000 2.875468 96.3448 5.432855 0.362391
5271.6 5271.6 2.240000 2.869033 97.0913 5.510314 0.368612
5275.03 5275.03 2.250000 2.861988 97.945 5.598058 0.375383
5278.47 5278.47 2.260000 2.855342 97.5595 5.613216 0.377472
5281.93 5281.93 2.280000 2.848918 99.7201 5.774481 0.389540
5285.4 5285.4 2.290000 2.842808 100.779 5.871553 0.397026
5288.9 5288.9 2.300000 2.836622 101.539 5.952560 0.404171
5292.42 5292.42 2.310000 2.830447 102.414 6.041079 0.412193
5295.96 5295.96 2.330000 2.824698 103.772 6.156418 0.422903
5299.51 5299.51 2.340000 2.818617 104.466 6.235407 0.430662
5303.09 5303.09 2.350000 2.813113 105.225 6.315382 0.439033
5306.68 5306.68 2.360000 2.807051 106.042 6.403106 0.447199
5310.29 5310.29 2.380000 2.801358 107.314 6.516940 0.457555
5313.92 5313.92 2.390000 2.795147 108.089 6.604834 0.466066
5317.57 5317.57 2.400000 2.788697 108.857 6.694818 0.475111
5321.24 5321.24 2.410000 2.781604 109.44 6.778639 0.483397
5324.93 5324.93 2.430000 2.775184 110.516 6.889340 0.494689
5328.64 5328.64 2.440000 2.769150 111.049 6.964510 0.502951
5332.36 5332.36 2.450000 2.761400 111.669 7.057858 0.513591
5336.11 5336.11 2.460000 2.754939 112.494 7.156064 0.523886
5339.87 5339.87 2.480000 2.747216 113.734 7.291042 0.537372
5343.66 5343.66 2.490000 2.740008 114.468 7.391161 0.548782
5347.46 5347.46 2.500000 2.733170 115.061 7.480459 0.558603
5351.28 5351.28 2.510000 2.726109 115.534 7.564390 0.568561
5355.12 5355.12 2.530000 2.719076 115.96 7.645874 0.577536
5358.98 5358.98 2.540000 2.712500 117.62 7.806509 0.592076
5362.86 5362.86 2.550000 2.705532 118.279 7.905116 0.602358
5366.76 5366.76 2.560000 2.698653 118.83 7.996802 0.611462
5370.68 5370.68 2.580000 2.692132 119.821 8.116200 0.622686
5374.61 5374.61 2.590000 2.685583 120.411 8.209834 0.632713
5378.57 5378.57 2.600000 2.678964 120.98 8.303367 0.642865
5382.54 5382.54 2.610000 2.672574 121.573 8.397548 0.654181
5386.54 5386.54 2.630000 2.666266 122.546 8.518344 0.667389
5390.55 5390.55 2.640000 2.660147 122.989 8.601627 0.677865
5394.58 5394.58 2.650000 2.653404 123.556 8.699695 0.689354
5398.63 5398.63 2.660000 2.646976 123.754 8.769881 0.698827
5402.7 5402.7 2.680000 2.640376 124.838 8.905223 0.713821
5406.79 5406.79 2.690000 2.633755 125.2 8.990393 0.725259
5410.9 5410.9 2.700000 2.626729 125.939 9.107240 0.738866
5415.02 5415.02 2.710000 2.619289 126.473 9.214135 0.751918
5419.17 5419.17 2.730000 2.612174 126.813 9.304878 0.763563
5423.33 5423.33 2.740000 2.605234 127.593 9.427305 0.778731
5427.52 5427.52 2.750000 2.597738 128.059 9.532926 0.792171
5431.72 5431.72 2.760000 2.590458 128.519 9.637069 0.805529
5435.94 5435.94 2.780000 2.583385 129.757 9.799009 0.824095
5440.18 5440.18 2.790000 2.576461 130.294 9.907880 0.838355
5444.44 5444.44 2.800000 2.569474 130.837 10.0189 0.852791
5448.72 5448.72 2.810000 2.562476 131.643 10.1515 0.868633
5453.02 5453.02 2.830000 2.555708 132.745 10.306 0.886849
5457.34 5457.34 2.840000 2.548755 133.39 10.4283 0.901759
5461.67 5461.67 2.850000 2.541983 134.064 10.5522 0.917707
5466.03 5466.03 2.860000 2.535271 134.788 10.6807 0.933368
5470.4 5470.4 2.880000 2.528602 135.965 10.846 0.952984
5474.8 5474.8 2.890000 2.521808 136.731 10.9815 0.970051
5479.21 5479.21 2.900000 2.514748 137.494 11.121 0.987428
5483.64 5483.64 2.910000 2.507680 138.251 11.2616 1.005765
5488.09 5488.09 2.930000 2.500657 139.481 11.4418 1.026935
5492.56 5492.56 2.940000 2.493662 140.266 11.587 1.045674
5497.05 5497.05 2.950000 2.486458 141.076 11.7381 1.065761
5501.56 5501.56 2.960000 2.479279 141.896 11.8914 1.085984
5506.08 5506.08 2.980000 2.472103 143.156 12.0834 1.109324
5510.63 5510.63 2.990000 2.464830 143.941 12.2383 1.129944
5515.19 5515.19 3.000000 2.457576 144.814 12.4022 1.151569
5519.78 5519.78 3.010000 2.450211 145.716 12.5717 1.173696
5524.38 5524.38 3.030000 2.442958 147.083 12.782 1.200203
5529 5529 3.040000 2.435787 148.044 12.9582 1.223902
5533.64 5533.64 3.050000 2.428430 148.979 13.1362 1.248640
5538.3 5538.3 3.060000 2.421299 149.895 13.3116 1.272150
5542.98 5542.98 3.080000 2.414253 151.286 13.5302 1.300502
5547.68 5547.68 3.090000 2.407163 152.221 13.7106 1.325835
5552.4 5552.4 3.100000 2.400411 153.214 13.8935 1.350797
5557.13 5557.13 3.110000 2.393489 154.12 14.0728 1.375539
5561.89 5561.89 3.130000 2.386596 155.551 14.3017 1.405607
5566.66 5566.66 3.140000 2.379742 156.553 14.4928 1.432918
5571.46 5571.46 3.150000 2.372843 157.746 14.7044 1.461960
5576.27 5576.27 3.160000 2.365895 158.658 14.8925 1.488479
5581.1 5581.1 3.180000 2.358998 160.34 15.1545 1.523647
5585.95 5585.95 3.190000 2.351889 161.335 15.3573 1.552844
5590.82 5590.82 3.200000 2.344895 162.264 15.5542 1.581264
5595.71 5595.71 3.210000 2.337685 163.168 15.754 1.610779
5600.62 5600.62 3.230000 2.330689 164.581 16.002 1.644875
5605.54 5605.54 3.240000 2.323570 165.671 16.2231 1.677255
5610.49 5610.49 3.250000 2.316548 166.77 16.4458 1.709872
5615.45 5615.45 3.260000 2.309459 167.701 16.6552 1.741195
5620.44 5620.44 3.280000 2.302618 169.063 16.9057 1.778288
5625.44 5625.44 3.290000 2.298655 169.166 16.9832 1.796406
5630.46 5630.46 3.300000 2.288959 169.949 17.2281 1.833370
5635.5 5635.5 3.310000 2.280595 170.475 17.4265 1.866127
5640.56 5640.56 3.330000 2.274714 172.006 17.6868 1.904896
5645.64 5645.64 3.340000 2.267783 172.787 17.8907 1.937983
5650.74 5650.74 3.350000 2.260391 173.502 18.098 1.971969
5655.86 5655.86 3.360000 2.253425 174.433 18.3222 2.007795
5660.99 5660.99 3.380000 2.246642 175.99 18.6116 2.051724
5666.15 5666.15 3.390000 2.239847 177.061 18.8525 2.089923
5671.32 5671.32 3.400000 2.233253 178.206 19.1 2.129456
5676.52 5676.52 3.410000 2.226096 179.528 19.3799 2.172752
5681.73 5681.73 3.430000 2.219165 181.18 19.6943 2.221290
5686.96 5686.96 3.440000 2.212200 182.209 19.9445 2.261989
5692.21 5692.21 3.450000 2.205096 183.124 20.1876 2.303145
5697.48 5697.48 3.460000 2.198183 184.019 20.427 2.344376
5702.77 5702.77 3.480000 2.191104 185.471 20.7344 2.392414
5708.08 5708.08 3.490000 2.183987 186.323 20.9784 2.434605