File: xdidata/Ti/Ti-K-BaTiO3.xdi
# XDI/1.0 BlueSky/1.5.0
# Beamline.name: 6BM
# Beamline.xray_source: NSLS-II three-pole wiggler
# Beamline.collimation: paraboloid mirror, 5 nm Rh on 30 nm Pt
# Beamline.focusing: not in use
# Beamline.harmonic_rejection: flat mirror, Si stripe, pitch = 7.0 mrad relative to beam
# Detector.i0: 10 cm N2
# Detector.i1: 25 cm N2
# Detector.i2: 25 cm N2
# Element.symbol: Ti
# Element.edge: K
# Facility.name: NSLS-II
# Facility.energy: 3.0
# Facility.current: 219.4
# Facility.mode: top-off
# Facility.gup: 301027
# Facility.saf: 304156
# Mono.name: Si(111)
# Mono.d_spacing: 3.13526
# Mono.encoder_resolution: 0.0000050 deg/ct
# Mono.angle_offset: 16.0571 deg
# Mono.scan_mode: pseudo channel cut
# Mono.scan_type: step
# Mono.direction: forward in energy
# Sample.name: BaTiO3
# Sample.prep: Powder in polyethylene glycol pellet
# Sample.x_position: -97.532 mm
# Sample.y_position: 117.543 mm
# Sample.wheel_position: -480.000 mm
# Scan.experimenters: Bruce Ravel, Martin Stennett
# Scan.edge_energy: 4966.0
# Scan.start_time: 2019-05-29T21:55:01
# Scan.end_time: 2019-05-29T22:37:51
# Scan.transient_id: 9764
# Scan.uid: f7b1530b-b5ec-4fc3-9909-05ad30b2423f
# Scan.plot_hint: ln(I0/It)  --  ln($5/$6)
# Scan.sequence: merge of 3 scans
# Column.1: energy eV
# Column.2: requested_energy eV
# Column.3: measurement_time seconds
# Column.4: mutrans
# Column.5: i0
# Column.6: itrans
# Column.7: irefer
# /////
#  sample disk prepared by Martin
# -----
# energy   requested_energy   measurement_time   mutrans   i0   itrans   irefer
4765.98 4766 0.500000 4.425280 10.9565 0.131161 0.011730
4776.01 4776 0.500000 4.393769 11.1739 0.138044 0.012492
4786.01 4786 0.500000 4.362933 11.414 0.145424 0.013161
4796.01 4796 0.500000 4.331510 11.6558 0.153246 0.014187
4806.01 4806 0.500000 4.300430 11.9022 0.161427 0.015106
4816.01 4816 0.500000 4.271265 12.1421 0.169553 0.015536
4826.01 4826 0.500000 4.240275 12.3794 0.178283 0.016536
4836.01 4836 0.500000 4.210309 12.6191 0.187292 0.017727
4846 4846 0.500000 4.180363 12.8608 0.196676 0.018496
4856.01 4856 0.500000 4.150139 13.1039 0.206548 0.019845
4866.01 4866 0.500000 4.120998 13.3348 0.216402 0.020860
4876 4876 0.500000 4.092486 13.5969 0.227037 0.021914
4886.01 4886 0.500000 4.064211 13.8304 0.237562 0.023240
4896.01 4896 0.500000 4.034937 14.0549 0.248587 0.024436
4906.01 4906 0.500000 4.008291 14.2843 0.259469 0.025969
4916 4916 0.500000 3.980094 14.5111 0.271123 0.027087
4926 4926 0.500000 3.952325 14.7366 0.283090 0.028950
4936 4936 0.500000 3.925339 14.9556 0.295157 0.030532
4938 4938 0.500000 3.920506 14.9968 0.297403 0.030477
4940 4940 0.500000 3.914426 15.0369 0.300018 0.030921
4942 4942 0.500000 3.909435 15.0745 0.302274 0.031208
4944 4944 0.500000 3.903652 15.1156 0.304851 0.031589
4946 4946 0.500000 3.898669 15.1524 0.307119 0.031930
4948.01 4948 0.500000 3.892729 15.1866 0.309650 0.032313
4950 4950 0.500000 3.887800 15.2269 0.312004 0.032610
4952.01 4952 0.500000 3.882918 15.261 0.314233 0.032738
4954 4954 0.500000 3.876959 15.293 0.316775 0.033222
4956 4956 0.500000 3.872368 15.3277 0.318954 0.033411
4956.25 4956.25 0.500000 3.872018 15.3329 0.319173 0.033494
4956.5 4956.5 0.500000 3.871585 15.3371 0.319401 0.033488
4956.74 4956.75 0.500000 3.871137 15.3425 0.319655 0.033538
4957 4957 0.500000 3.870372 15.3437 0.319928 0.033363
4957.25 4957.25 0.500000 3.868841 15.349 0.320526 0.033500
4957.49 4957.5 0.500000 3.868728 15.3516 0.320618 0.033449
4957.74 4957.75 0.500000 3.868597 15.3571 0.320774 0.033615
4957.99 4958 0.500000 3.867344 15.3605 0.321247 0.033599
4958.24 4958.25 0.500000 3.867815 15.3659 0.321209 0.033631
4958.49 4958.5 0.500000 3.866395 15.371 0.321768 0.033758
4958.74 4958.75 0.500000 3.866206 15.3739 0.321893 0.033556
4959 4959 0.500000 3.865120 15.3788 0.322346 0.033891
4959.25 4959.25 0.500000 3.864600 15.4177 0.323329 0.033700
4959.5 4959.5 0.500000 3.864096 15.4225 0.323593 0.033669
4959.75 4959.75 0.500000 3.863095 15.4267 0.324005 0.033903
4960 4960 0.500000 3.862876 15.432 0.324187 0.033896
4960.24 4960.25 0.500000 3.862243 15.4357 0.324469 0.033738
4960.5 4960.5 0.500000 3.861592 15.4412 0.324796 0.034118
4960.74 4960.75 0.500000 3.861593 15.4477 0.324934 0.033789
4961 4961 0.500000 3.860969 15.4521 0.325231 0.033850
4961.25 4961.25 0.500000 3.859862 15.4576 0.325703 0.033809
4961.5 4961.5 0.500000 3.860808 15.4624 0.325501 0.033602
4961.75 4961.75 0.500000 3.859494 15.4656 0.325994 0.033613
4962 4962 0.500000 3.859109 15.471 0.326234 0.033787
4962.24 4962.25 0.500000 3.857640 15.5108 0.327550 0.033666
4962.49 4962.5 0.500000 3.857740 15.5174 0.327660 0.033791
4962.75 4962.75 0.500000 3.857136 15.5242 0.328001 0.033504
4963 4963 0.500000 3.856934 15.5289 0.328167 0.033705
4963.25 4963.25 0.500000 3.856408 15.5334 0.328438 0.033179
4963.5 4963.5 0.500000 3.855498 15.5361 0.328791 0.033008
4963.75 4963.75 0.500000 3.855972 15.5429 0.328780 0.032559
4964 4964 0.500000 3.855580 15.5468 0.328991 0.031816
4964.24 4964.25 0.500000 3.855001 15.5524 0.329301 0.030525
4964.5 4964.5 0.500000 3.854427 15.556 0.329565 0.028847
4964.75 4964.75 0.500000 3.853404 15.5608 0.330004 0.026918
4965 4965 0.500000 3.854539 15.5653 0.329725 0.024682
4965.25 4965.25 0.500000 3.854754 15.5675 0.329702 0.023680
4965.5 4965.5 0.500000 3.854333 15.5701 0.329895 0.023605
4965.75 4965.75 0.500000 3.854997 15.5751 0.329782 0.024082
4966 4966 0.500000 3.856449 15.5799 0.329408 0.024837
4966.25 4966.25 0.500000 3.857471 15.5831 0.329141 0.025693
4966.5 4966.5 0.500000 3.860138 15.5871 0.328343 0.026109
4966.75 4966.75 0.500000 3.864807 15.5879 0.326833 0.026504
4967 4967 0.500000 3.870029 15.5903 0.325170 0.026565
4967.25 4967.25 0.500000 3.873726 15.5907 0.323985 0.026368
4967.5 4967.5 0.500000 3.874010 15.5963 0.324007 0.026401
4967.75 4967.75 0.500000 3.875886 15.5991 0.323455 0.026023
4968 4968 0.500000 3.884807 15.6086 0.320793 0.025196
4968.25 4968.25 0.500000 3.901951 15.6125 0.315442 0.024426
4968.5 4968.5 0.500000 3.928106 15.6135 0.307335 0.023362
4968.75 4968.75 0.500000 3.956965 15.6167 0.298632 0.022747
4969 4969 0.500000 3.975820 15.6177 0.293056 0.021728
4969.25 4969.25 0.500000 3.969983 15.6179 0.294776 0.021807
4969.5 4969.5 0.500000 3.949706 15.6174 0.300806 0.022147
4969.75 4969.75 0.500000 3.928653 15.6204 0.307213 0.022257
4970 4970 0.500000 3.913734 15.6252 0.311950 0.022409
4970.25 4970.25 0.500000 3.904591 15.6371 0.315069 0.022594
4970.5 4970.5 0.500000 3.901169 15.6479 0.316366 0.022486
4970.75 4970.75 0.500000 3.900900 15.6608 0.316718 0.022584
4971 4971 0.500000 3.904777 15.6693 0.315659 0.022224
4971.25 4971.25 0.500000 3.913563 15.6752 0.312988 0.022110
4971.5 4971.5 0.500000 3.925232 15.6818 0.309516 0.021111
4971.75 4971.75 0.500000 3.936169 15.6855 0.306232 0.020818
4972 4972 0.500000 3.945400 15.6898 0.303497 0.020334
4972.25 4972.25 0.500000 3.951565 15.6961 0.301772 0.019887
4972.5 4972.5 0.500000 3.954111 15.697 0.301001 0.019309
4972.75 4972.75 0.500000 3.955741 15.6989 0.300547 0.018818
4973 4973 0.500000 3.955224 15.7029 0.300779 0.018610
4973.25 4973.25 0.500000 3.955330 15.7075 0.300837 0.018153
4973.5 4973.5 0.500000 3.952363 15.7119 0.301813 0.018078
4973.75 4973.75 0.500000 3.952606 15.7127 0.301755 0.017563
4974 4974 0.500000 3.950308 15.7147 0.302483 0.017430
4974.25 4974.25 0.500000 3.949370 15.7164 0.302805 0.017247
4974.5 4974.5 0.500000 3.951052 15.7177 0.302317 0.016653
4974.75 4974.75 0.500000 3.952578 15.7203 0.301911 0.016222
4975 4975 0.500000 3.952952 15.7198 0.301789 0.016071
4975.25 4975.25 0.500000 3.952597 15.7199 0.301896 0.015969
4975.5 4975.5 0.500000 3.952130 15.72 0.302042 0.015640
4975.75 4975.75 0.500000 3.950713 15.719 0.302444 0.015270
4976 4976 0.500000 3.950984 15.7206 0.302399 0.015172
4976.25 4976.25 0.500000 3.952445 15.7166 0.301880 0.015033
4976.5 4976.5 0.500000 3.955991 15.7164 0.300809 0.014594
4976.75 4976.75 0.500000 3.959096 15.7203 0.299941 0.014627
4977 4977 0.500000 3.962788 15.7217 0.298857 0.014264
4977.25 4977.25 0.500000 3.966293 15.7233 0.297856 0.014137
4977.5 4977.5 0.500000 3.973201 15.7267 0.295873 0.013904
4977.75 4977.75 0.500000 3.982133 15.7303 0.293327 0.013655
4978 4978 0.500000 3.997921 15.7323 0.288743 0.013208
4978.25 4978.25 0.500000 4.020394 15.7356 0.282378 0.013105
4978.5 4978.5 0.500000 4.053051 15.7376 0.273272 0.012520
4978.75 4978.75 0.500000 4.098901 15.7376 0.261003 0.011876
4979 4979 0.500000 4.157741 15.7375 0.246145 0.011312
4979.25 4979.25 0.500000 4.220173 15.7369 0.231353 0.010831
4979.5 4979.5 0.500000 4.275364 15.7366 0.218916 0.010242
4979.75 4979.75 0.500000 4.312923 15.7325 0.210772 0.009961
4980 4980 0.500000 4.322111 15.7316 0.208802 0.009922
4980.25 4980.25 0.500000 4.312067 15.7299 0.210870 0.009993
4980.5 4980.5 0.500000 4.293631 15.7275 0.214768 0.010084
4980.75 4980.75 0.500000 4.277421 15.7244 0.218216 0.010191
4981 4981 0.500000 4.265612 15.721 0.220776 0.010169
4981.25 4981.25 0.500000 4.262296 15.7592 0.222039 0.010207
4981.5 4981.5 0.500000 4.268008 15.761 0.220820 0.010164
4981.75 4981.75 0.500000 4.282453 15.7651 0.217713 0.009830
4982 4982 0.500000 4.307988 15.7685 0.212210 0.009772
4982.25 4982.25 0.500000 4.338980 15.7737 0.205828 0.009604
4982.5 4982.5 0.500000 4.373914 15.776 0.198734 0.009311
4982.75 4982.75 0.500000 4.413998 15.7765 0.191003 0.008854
4983 4983 0.500000 4.456191 15.7774 0.183062 0.008755
4983.25 4983.25 0.500000 4.504258 15.7756 0.174568 0.008149
4983.5 4983.5 0.500000 4.557515 15.7744 0.165481 0.007847
4983.75 4983.75 0.500000 4.624680 15.7748 0.154758 0.007769
4984 4984 0.500000 4.704964 15.7714 0.142624 0.007470
4984.25 4984.25 0.500000 4.794069 15.7692 0.130520 0.006850
4984.5 4984.5 0.500000 4.884326 15.7695 0.119262 0.006159
4984.75 4984.75 0.500000 4.968561 15.7713 0.109688 0.006084
4985 4985 0.500000 5.041133 15.7721 0.102069 0.005608
4985.25 4985.25 0.500000 5.077798 15.7762 0.098396 0.005575
4985.5 4985.5 0.500000 5.071419 15.7776 0.098980 0.005922
4985.75 4985.75 0.500000 5.026866 15.7756 0.103522 0.005998
4986 4986 0.500000 4.946867 15.7745 0.112138 0.006209
4986.25 4986.25 0.500000 4.846981 15.7751 0.123976 0.006817
4986.5 4986.5 0.500000 4.754906 15.7701 0.135708 0.007156
4986.75 4986.75 0.500000 4.670996 15.7698 0.147653 0.007553
4987 4987 0.500000 4.601634 15.7661 0.158106 0.008261
4987.25 4987.25 0.500000 4.552176 15.7623 0.166150 0.008446
4987.5 4987.5 0.500000 4.520671 15.7629 0.171482 0.008652
4987.75 4987.75 0.500000 4.498803 15.764 0.175351 0.008620
4988 4988 0.500000 4.482585 15.7955 0.178544 0.009003
4988.25 4988.25 0.500000 4.472768 15.8151 0.180551 0.009076
4988.5 4988.5 0.500000 4.464663 15.8262 0.182134 0.009050
4988.75 4988.75 0.500000 4.456205 15.8357 0.183784 0.009036
4989 4989 0.500000 4.447700 15.8485 0.185500 0.008960
4989.25 4989.25 0.500000 4.439592 15.8588 0.187146 0.009089
4989.5 4989.5 0.500000 4.432360 15.87 0.188647 0.009258
4989.75 4989.75 0.500000 4.426833 15.8839 0.189850 0.009394
4990 4990 0.500000 4.426525 15.8952 0.190039 0.009361
4990.25 4990.25 0.500000 4.429832 15.9089 0.189576 0.009355
4990.5 4990.5 0.500000 4.437795 15.9211 0.188211 0.009295
4990.75 4990.75 0.500000 4.452005 15.9314 0.185687 0.009173
4991 4991 0.500000 4.472664 15.9511 0.182130 0.009196
4991.25 4991.25 0.500000 4.495518 15.9905 0.178421 0.008959
4991.5 4991.5 0.500000 4.520851 15.9979 0.174048 0.008844
4991.75 4991.75 0.500000 4.543938 16.0062 0.170154 0.008806
4992 4992 0.500000 4.567025 16.0129 0.166345 0.008442
4992.25 4992.25 0.500000 4.582642 16.0199 0.163853 0.008181
4992.5 4992.5 0.500000 4.592480 16.0272 0.162336 0.008592
4992.75 4992.75 0.500000 4.597908 16.0324 0.161497 0.008410
4993 4993 0.500000 4.598420 16.0376 0.161463 0.008323
4993.25 4993.25 0.500000 4.597273 16.0446 0.161719 0.008377
4993.5 4993.5 0.500000 4.593645 16.0487 0.162349 0.008412
4993.75 4993.75 0.500000 4.588972 16.0522 0.163152 0.008306
4994.01 4994 0.500000 4.582766 16.0562 0.164206 0.008566
4994.25 4994.25 0.500000 4.578361 16.0611 0.164975 0.008473
4994.5 4994.5 0.500000 4.575025 16.064 0.165557 0.008332
4994.75 4994.75 0.500000 4.572479 16.0699 0.166039 0.008408
4995 4995 0.500000 4.569845 16.0715 0.166494 0.008386
4995.25 4995.25 0.500000 4.570706 16.0729 0.166363 0.008420
4995.5 4995.5 0.500000 4.573272 16.073 0.165938 0.008429
4995.75 4995.75 0.500000 4.578563 16.0921 0.165254 0.008082
4996 4996 0.700000 4.585600 22.4828 0.229277 0.011457
4997.09 4997.08 0.710000 4.622789 22.8382 0.224394 0.011144
4998.19 4998.18 0.730000 4.620085 23.4764 0.231288 0.011096
4999.3 4999.29 0.740000 4.587512 23.8152 0.242421 0.011484
5000.44 5000.43 0.750000 4.559659 24.1691 0.252948 0.011743
5001.59 5001.58 0.760000 4.551533 24.5324 0.258840 0.012129
5002.77 5002.76 0.780000 4.549181 25.2286 0.266825 0.012551
5003.95 5003.95 0.790000 4.530910 25.6048 0.275784 0.013045
5005.17 5005.16 0.800000 4.496112 25.9921 0.289863 0.013702
5006.4 5006.39 0.810000 4.462694 26.3895 0.304316 0.014667
5007.65 5007.64 0.830000 4.440509 27.1013 0.319527 0.015608
5008.92 5008.91 0.840000 4.425273 27.4778 0.328932 0.016455
5010.21 5010.2 0.850000 4.402027 27.8627 0.341403 0.017233
5011.52 5011.51 0.860000 4.377766 28.2445 0.354570 0.017901
5012.84 5012.83 0.880000 4.353825 28.9465 0.372175 0.018937
5014.19 5014.18 0.890000 4.333713 29.3225 0.384673 0.019492
5015.55 5015.54 0.900000 4.321255 29.6947 0.394446 0.020233
5016.94 5016.93 0.910000 4.315051 30.0812 0.402059 0.020434
5018.34 5018.33 0.930000 4.309327 30.7988 0.414015 0.021055
5019.76 5019.75 0.940000 4.302730 31.1923 0.422081 0.021950
5021.19 5021.19 0.950000 4.302059 31.5778 0.427583 0.021993
5022.65 5022.65 0.960000 4.303301 31.9652 0.432294 0.022685
5024.14 5024.13 0.980000 4.310459 32.7017 0.439091 0.022760
5025.64 5025.63 0.990000 4.317870 33.0935 0.441077 0.022882
5027.15 5027.14 1.000000 4.319095 33.4824 0.445716 0.023086
5028.69 5028.68 1.010000 4.314501 33.8802 0.453087 0.023593
5030.23 5030.24 1.030000 4.314479 34.6056 0.462797 0.023743
5031.82 5031.81 1.040000 4.314094 35.0065 0.468341 0.023533
5033.4 5033.4 1.050000 4.314824 35.4066 0.473348 0.023325
5035.01 5035.01 1.060000 4.319932 35.8082 0.476283 0.023005
5036.65 5036.65 1.080000 4.327190 36.5467 0.482586 0.023107
5038.29 5038.3 1.090000 4.328269 36.9563 0.487467 0.023162
5039.97 5039.97 1.100000 4.320933 37.3683 0.496527 0.023928
5041.65 5041.65 1.110000 4.308125 37.7723 0.508373 0.024168
5043.36 5043.36 1.130000 4.290677 38.5133 0.527473 0.025152
5045.09 5045.09 1.140000 4.277926 38.9271 0.539975 0.026268
5046.83 5046.83 1.150000 4.272007 39.3352 0.548876 0.026789
5048.6 5048.6 1.160000 4.269933 39.7469 0.555769 0.028059
5050.38 5050.38 1.180000 4.273423 40.5076 0.564433 0.028839
5052.18 5052.18 1.190000 4.283215 40.9282 0.564741 0.029546
5054 5054 1.200000 4.295352 41.4503 0.565043 0.029630
5055.84 5055.84 1.210000 4.299925 41.8637 0.568075 0.030103
5057.7 5057.7 1.230000 4.293162 42.6488 0.582650 0.031192
5059.58 5059.58 1.240000 4.279410 43.0879 0.596792 0.032275
5061.48 5061.48 1.250000 4.264295 43.5193 0.611954 0.032768
5063.4 5063.4 1.260000 4.253813 43.9549 0.624597 0.033449
5065.33 5065.33 1.280000 4.252058 44.7516 0.637028 0.034671
5067.29 5067.29 1.290000 4.255280 45.1941 0.641265 0.035056
5069.26 5069.26 1.300000 4.256530 45.6332 0.646687 0.035265
5071.26 5071.26 1.310000 4.249816 46.0823 0.657451 0.036401
5073.27 5073.27 1.330000 4.238139 46.8977 0.676955 0.037312
5075.3 5075.3 1.340000 4.224392 47.3472 0.692891 0.038259
5077.35 5077.35 1.350000 4.213067 47.8067 0.707593 0.038177
5079.42 5079.42 1.360000 4.202063 48.3391 0.723383 0.038337
5081.51 5081.51 1.380000 4.190304 49.1782 0.744639 0.039324
5083.61 5083.61 1.390000 4.181875 49.6494 0.758132 0.039396
5085.74 5085.74 1.400000 4.175031 50.1169 0.770538 0.039304
5087.89 5087.89 1.410000 4.166393 50.5903 0.784550 0.039404
5090.05 5090.05 1.430000 4.154974 51.4339 0.806807 0.040219
5092.23 5092.23 1.440000 4.144327 51.9434 0.823498 0.041043
5094.44 5094.44 1.450000 4.134268 52.5256 0.841162 0.042618
5096.66 5096.66 1.460000 4.125177 53.0082 0.856649 0.044332
5098.9 5098.9 1.480000 4.117442 53.8523 0.877048 0.046576
5101.16 5101.16 1.490000 4.112147 54.3362 0.889628 0.048369
5103.44 5103.44 1.500000 4.107009 54.8314 0.902360 0.050210
5105.74 5105.74 1.510000 4.101777 55.3217 0.915200 0.051679
5108.05 5108.05 1.530000 4.097052 56.1795 0.933795 0.052868
5110.39 5110.39 1.540000 4.094579 56.673 0.944329 0.053478
5112.74 5112.74 1.550000 4.094007 57.1671 0.953106 0.053971
5115.12 5115.12 1.560000 4.093944 57.6663 0.961490 0.054440
5117.51 5117.51 1.580000 4.092889 58.5433 0.977140 0.055567
5119.92 5119.92 1.590000 4.088783 59.0572 0.989777 0.056311
5122.35 5122.35 1.600000 4.081986 59.5654 1.005098 0.057369
5124.8 5124.8 1.610000 4.072357 60.0831 1.023645 0.058923
5127.27 5127.27 1.630000 4.060304 60.9877 1.051673 0.060801
5129.76 5129.76 1.640000 4.045968 61.52 1.076150 0.062351
5132.27 5132.27 1.650000 4.029857 62.0642 1.103299 0.063782
5134.79 5134.79 1.660000 4.015000 62.6001 1.129486 0.065068
5137.34 5137.34 1.680000 4.006340 63.5318 1.156270 0.066308
5139.9 5139.9 1.690000 4.003727 64.0969 1.169607 0.066923
5142.49 5142.49 1.700000 4.003775 64.6436 1.179526 0.067045
5145.09 5145.09 1.710000 4.000745 65.2004 1.193296 0.067372
5147.71 5147.71 1.730000 3.993471 66.1342 1.219223 0.068697
5150.35 5150.35 1.740000 3.985651 66.6998 1.239307 0.070258
5153.01 5153.01 1.750000 3.982780 67.2636 1.253373 0.070800
5155.69 5155.69 1.760000 3.981433 67.8461 1.265932 0.072738
5158.39 5158.39 1.780000 3.977593 68.798 1.288632 0.074785
5161.11 5161.11 1.790000 3.971085 69.3677 1.307794 0.076730
5163.84 5163.84 1.800000 3.962322 69.9593 1.330554 0.078538
5166.6 5166.6 1.810000 3.952782 70.5212 1.354085 0.080554
5169.37 5169.37 1.830000 3.942507 71.4921 1.386912 0.082625
5172.17 5172.17 1.840000 3.931067 72.0748 1.414310 0.085730
5174.98 5174.98 1.850000 3.920445 72.646 1.440728 0.087871
5177.81 5177.81 1.860000 3.910820 73.214 1.466036 0.090119
5180.66 5180.66 1.880000 3.901826 74.1967 1.499154 0.092971
5183.53 5183.53 1.890000 3.893037 74.8105 1.524882 0.094831
5186.42 5186.42 1.900000 3.883258 75.535 1.554780 0.096830
5189.32 5189.32 1.910000 3.873510 76.1349 1.582498 0.098812
5192.25 5192.25 1.930000 3.865912 77.1111 1.614996 0.100882
5195.2 5195.2 1.940000 3.859527 77.6839 1.637411 0.102720
5198.16 5198.16 1.950000 3.854022 78.24 1.658246 0.103949
5201.14 5201.14 1.960000 3.848062 78.8466 1.681088 0.105680
5204.15 5204.15 1.980000 3.842215 79.8643 1.712771 0.107668
5207.17 5207.17 1.990000 3.836995 80.4767 1.734935 0.109033
5210.21 5210.21 2.000000 3.833221 81.0891 1.754752 0.109996
5213.27 5213.27 2.010000 3.830371 81.7015 1.773050 0.111412
5216.35 5216.35 2.030000 3.826478 82.9531 1.807228 0.114255
5219.45 5219.45 2.040000 3.820332 83.5872 1.832272 0.116491
5222.56 5222.56 2.050000 3.811570 84.2174 1.862333 0.118903
5225.7 5225.7 2.060000 3.802325 84.852 1.893795 0.121746
5228.85 5228.85 2.080000 3.794919 85.8951 1.931318 0.124174
5232.03 5232.03 2.090000 3.793074 86.7441 1.954018 0.126221
5235.22 5235.22 2.100000 3.801475 87.42 1.952771 0.127136
5238.43 5238.43 2.110000 3.828912 88.0983 1.914675 0.126161
5241.66 5241.66 2.130000 3.909950 89.1702 1.787103 0.119393
5244.92 5244.92 2.140000 4.258462 89.7944 1.270381 0.088459
5248.18 5248.18 2.150000 6.088421 89.9296 0.204276 0.021842
5251.47 5251.47 2.160000 5.655484 90.8158 0.317659 0.029277
5254.78 5254.78 2.180000 4.632906 92.2821 0.897596 0.066106
5258.11 5258.11 2.190000 4.541764 93.1319 0.992255 0.072819
5261.45 5261.45 2.200000 4.624325 93.8376 0.920569 0.069133
5264.82 5264.82 2.210000 4.689974 94.6438 0.869490 0.065832
5268.2 5268.2 2.230000 4.775533 95.8446 0.808308 0.062216
5271.6 5271.6 2.240000 4.809068 96.6188 0.787978 0.060811
5275.03 5275.03 2.250000 4.827528 97.489 0.780535 0.061002
5278.47 5278.47 2.260000 4.755435 97.3159 0.837383 0.064366
5281.93 5281.93 2.280000 4.661564 99.3207 0.938754 0.071552
5285.4 5285.4 2.290000 4.574311 100.201 1.033392 0.077758
5288.9 5288.9 2.300000 4.562511 100.998 1.054000 0.079624
5292.42 5292.42 2.310000 4.544183 101.792 1.081927 0.082221
5295.96 5295.96 2.330000 4.543968 103.07 1.095752 0.083671
5299.51 5299.51 2.340000 4.538886 103.746 1.108547 0.085217
5303.09 5303.09 2.350000 4.565604 104.53 1.087477 0.083945
5306.68 5306.68 2.360000 4.614809 105.353 1.043430 0.081760
5310.29 5310.29 2.380000 4.646107 106.624 1.023483 0.080470
5313.92 5313.92 2.390000 4.681523 107.421 0.995256 0.079040
5317.57 5317.57 2.400000 4.670079 108.224 1.014246 0.080827
5321.24 5321.24 2.410000 4.578688 108.818 1.117403 0.088259
5324.93 5324.93 2.430000 4.506312 109.89 1.213076 0.096202
5328.64 5328.64 2.440000 4.470011 110.51 1.265034 0.100184
5332.36 5332.36 2.450000 4.461237 111.426 1.286752 0.102410
5336.11 5336.11 2.460000 4.477286 112.239 1.275510 0.102509
5339.87 5339.87 2.480000 4.487647 113.465 1.276145 0.103106
5343.66 5343.66 2.490000 4.496710 114.153 1.272303 0.103378
5347.46 5347.46 2.500000 4.500394 114.723 1.273959 0.104093
5351.28 5351.28 2.510000 4.488150 115.224 1.295270 0.106498
5355.12 5355.12 2.530000 4.499903 115.85 1.287093 0.106312
5358.98 5358.98 2.540000 4.522188 117.374 1.275294 0.106460
5362.86 5362.86 2.550000 4.510806 118.052 1.297334 0.108170
5366.76 5366.76 2.560000 4.494935 118.721 1.325571 0.110618
5370.68 5370.68 2.580000 4.466730 119.804 1.375916 0.115191
5374.61 5374.61 2.590000 4.426413 120.286 1.438300 0.120455
5378.57 5378.57 2.600000 4.391370 121.046 1.498996 0.125449
5382.54 5382.54 2.610000 4.365098 121.57 1.545559 0.129949
5386.54 5386.54 2.630000 4.350179 122.518 1.581033 0.133310
5390.55 5390.55 2.640000 4.354361 122.929 1.579711 0.133914
5394.58 5394.58 2.650000 4.372976 123.494 1.557704 0.133232
5398.63 5398.63 2.660000 4.386227 123.627 1.538864 0.132527
5402.7 5402.7 2.680000 4.381484 124.584 1.558150 0.134963
5406.79 5406.79 2.690000 4.367465 124.819 1.583118 0.137307
5410.9 5410.9 2.700000 4.359847 125.094 1.598739 0.139350
5415.02 5415.02 2.710000 4.358138 125.491 1.606566 0.140777
5419.17 5419.17 2.730000 4.351454 125.835 1.621772 0.143098
5423.33 5423.33 2.740000 4.334092 126.435 1.658049 0.146843
5427.52 5427.52 2.750000 4.305230 126.758 1.710955 0.152009
5431.72 5431.72 2.760000 4.281006 127.081 1.757379 0.157303
5435.94 5435.94 2.780000 4.265434 127.894 1.796361 0.161171
5440.18 5440.18 2.790000 4.255963 128.241 1.818393 0.164655
5444.44 5444.44 2.800000 4.252134 128.661 1.831336 0.166275
5448.72 5448.72 2.810000 4.251519 129.068 1.838268 0.167649
5453.02 5453.02 2.830000 4.249864 130.033 1.855076 0.170205
5457.34 5457.34 2.840000 4.242150 130.52 1.876434 0.172923
5461.67 5461.67 2.850000 4.232058 131.134 1.904397 0.175990
5466.03 5466.03 2.860000 4.221345 131.711 1.933353 0.179637
5470.4 5470.4 2.880000 4.211021 132.754 1.968893 0.184003
5474.8 5474.8 2.890000 4.199068 133.43 2.002720 0.187692
5479.21 5479.21 2.900000 4.186383 134.03 2.037423 0.191472
5483.64 5483.64 2.910000 4.173260 134.698 2.074609 0.195832
5488.09 5488.09 2.930000 4.161744 136.116 2.120737 0.201418
5492.56 5492.56 2.940000 4.150019 136.82 2.156847 0.205893
5497.05 5497.05 2.950000 4.138732 137.577 2.193410 0.210338
5501.56 5501.56 2.960000 4.131613 138.269 2.220179 0.213651
5506.08 5506.08 2.980000 4.124504 139.502 2.255971 0.218468
5510.63 5510.63 2.990000 4.114131 140.252 2.291737 0.222632
5515.19 5515.19 3.000000 4.103387 141.254 2.333031 0.227678
5519.78 5519.78 3.010000 4.094169 142.054 2.367984 0.232551
5524.38 5524.38 3.030000 4.085799 143.35 2.409670 0.237175
5529 5529 3.040000 4.071923 144.143 2.456873 0.243625
5533.64 5533.64 3.050000 4.055810 145 2.511620 0.249920
5538.3 5538.3 3.060000 4.039917 146.042 2.570188 0.256847
5542.98 5542.98 3.080000 4.025853 147.387 2.630598 0.264285
5547.68 5547.68 3.090000 4.015919 148.162 2.670824 0.269307
5552.4 5552.4 3.100000 4.010684 149.043 2.700812 0.274200
5557.13 5557.13 3.110000 4.006291 149.821 2.726853 0.278037
5561.89 5561.89 3.130000 3.997671 151.221 2.776162 0.284731
5566.66 5566.66 3.140000 3.982735 152.076 2.833880 0.291961
5571.46 5571.46 3.150000 3.966501 153.006 2.897864 0.299769
5576.27 5576.27 3.160000 3.952908 153.876 2.954233 0.307214
5581.1 5581.1 3.180000 3.941908 155.297 3.014490 0.314586
5585.95 5585.95 3.190000 3.932144 156.225 3.062266 0.321428
5590.82 5590.82 3.200000 3.923491 157.128 3.106734 0.327964
5595.71 5595.71 3.210000 3.914964 157.969 3.150106 0.333762
5600.62 5600.62 3.230000 3.906180 159.327 3.205211 0.341854
5605.54 5605.54 3.240000 3.897303 160.19 3.251311 0.348235
5610.49 5610.49 3.250000 3.888791 161.015 3.295994 0.354533
5615.45 5615.45 3.260000 3.891548 161.896 3.304870 0.357946
5620.44 5620.44 3.280000 3.987837 163.19 3.025366 0.331317
5625.44 5625.44 3.290000 5.310391 163.271 0.806911 0.100261
5630.46 5630.46 3.300000 4.331900 164.067 2.156314 0.243097
5635.5 5635.5 3.310000 4.203540 164.366 2.456025 0.276194
5640.56 5640.56 3.330000 4.268349 165.971 2.324410 0.264173
5645.64 5645.64 3.340000 4.317763 166.723 2.222358 0.254784
5650.74 5650.74 3.350000 4.313656 167.606 2.243329 0.258058
5655.86 5655.86 3.360000 4.267500 168.47 2.361401 0.272505
5660.99 5660.99 3.380000 4.203475 169.862 2.538356 0.293645
5666.15 5666.15 3.390000 4.185137 170.81 2.599752 0.302194
5671.32 5671.32 3.400000 4.171389 172.163 2.656610 0.310157
5676.52 5676.52 3.410000 4.170156 173.467 2.680037 0.314192
5681.73 5681.73 3.430000 4.193605 174.97 2.640608 0.312607
5686.96 5686.96 3.440000 4.214003 175.869 2.600589 0.309185
5692.21 5692.21 3.450000 4.226154 176.722 2.581649 0.308967
5697.48 5697.48 3.460000 4.171380 177.782 2.743388 0.328811
5702.77 5702.77 3.480000 4.118649 179.313 2.916790 0.350693
5708.08 5708.08 3.490000 4.096646 180.096 2.994718 0.361739