File: xdidata/Ti/Ti-K-Gd2TiO7.xdi
# XDI/1.0 BlueSky/1.5.0
# Beamline.name: 6BM
# Beamline.xray_source: NSLS-II three-pole wiggler
# Beamline.collimation: paraboloid mirror, 5 nm Rh on 30 nm Pt
# Beamline.focusing: not in use
# Beamline.harmonic_rejection: flat mirror, Si stripe, pitch = 7.0 mrad relative to beam
# Detector.i0: 10 cm N2
# Detector.i1: 25 cm N2
# Detector.i2: 25 cm N2
# Element.symbol: Ti
# Element.edge: K
# Facility.name: NSLS-II
# Facility.energy: 3.0
# Facility.current: 220.7
# Facility.mode: top-off
# Facility.gup: 301027
# Facility.saf: 304156
# Mono.name: Si(111)
# Mono.d_spacing: 3.13526
# Mono.encoder_resolution: 0.0000050 deg/ct
# Mono.angle_offset: 16.0571 deg
# Mono.scan_mode: pseudo channel cut
# Mono.scan_type: step
# Mono.direction: forward in energy
# Sample.name: Gd2TiO7
# Sample.prep: Powder in polyethylene glycol pellet
# Sample.x_position: -97.532 mm
# Sample.y_position: 117.543 mm
# Sample.wheel_position: -540.000 mm
# Scan.experimenters: Bruce Ravel, Martin Stennett
# Scan.edge_energy: 4966.0
# Scan.start_time: 2019-05-30T00:48:23
# Scan.end_time: 2019-05-30T01:31:10
# Scan.transient_id: 9776
# Scan.uid: 1c7c8df0-bf40-4247-b882-4646854c3fcf
# Scan.plot_hint: ln(I0/It)  --  ln($5/$6)
# Scan.sequence: merge of 3 scans
# Column.1: energy eV
# Column.2: requested_energy eV
# Column.3: measurement_time seconds
# Column.4: mutrans
# Column.5: i0
# Column.6: itrans
# Column.7: irefer
# /////
#  sample disk prepared by Martin
# -----
# energy   requested_energy   measurement_time   mutrans   i0   itrans   irefer
4765.99 4766 0.500000 3.614345 11.0791 0.298515 0.024497
4776.01 4776 0.500000 3.620010 11.2677 0.301776 0.024728
4786.01 4786 0.500000 3.594707 11.5079 0.316106 0.026288
4796.01 4796 0.500000 3.570270 11.7438 0.330568 0.027797
4806.01 4806 0.500000 3.545371 11.9764 0.345614 0.029526
4816.01 4816 0.500000 3.521508 12.2036 0.360677 0.030828
4826.01 4826 0.500000 3.498258 12.4321 0.376071 0.032863
4836 4836 0.500000 3.473997 12.6591 0.392340 0.034593
4846 4846 0.500000 3.450265 12.893 0.409179 0.036079
4856 4856 0.500000 3.427125 13.1212 0.426170 0.038153
4866.01 4866 0.500000 3.404003 13.3451 0.443596 0.040627
4876.01 4876 0.500000 3.380260 13.5701 0.461909 0.042562
4886 4886 0.500000 3.357640 13.7912 0.480171 0.044851
4896 4896 0.500000 3.335229 14.0023 0.498569 0.047253
4906 4906 0.500000 3.312221 14.2138 0.517879 0.049713
4916 4916 0.500000 3.289018 14.4223 0.537811 0.052287
4926 4926 0.500000 3.266576 14.6313 0.557988 0.054877
4936 4936 0.500000 3.244014 14.8355 0.578687 0.057432
4938 4938 0.500000 3.239896 14.8737 0.582570 0.058035
4940 4940 0.500000 3.235403 14.911 0.586665 0.058391
4942 4942 0.500000 3.230464 14.9463 0.590967 0.059245
4944 4944 0.500000 3.226706 14.9801 0.594533 0.059452
4946.01 4946 0.500000 3.222130 15.016 0.598687 0.060342
4948.01 4948 0.500000 3.217405 15.0475 0.602786 0.060786
4950 4950 0.500000 3.212811 15.0851 0.607072 0.061478
4952 4952 0.500000 3.208583 15.1145 0.610834 0.061857
4954 4954 0.500000 3.203901 15.1421 0.614824 0.062188
4956 4956 0.500000 3.199337 15.1731 0.618905 0.062740
4956.25 4956.25 0.500000 3.198965 15.1765 0.619268 0.062924
4956.5 4956.5 0.500000 3.198382 15.1793 0.619744 0.062984
4956.74 4956.75 0.500000 3.198122 15.1793 0.619905 0.062719
4956.99 4957 0.500000 3.196783 15.1823 0.620860 0.062960
4957.24 4957.25 0.500000 3.196489 15.1841 0.621111 0.062912
4957.5 4957.5 0.500000 3.196056 15.1881 0.621545 0.062926
4957.75 4957.75 0.500000 3.195622 15.1919 0.621973 0.063259
4957.99 4958 0.500000 3.195122 15.231 0.623886 0.063027
4958.24 4958.25 0.500000 3.194462 15.2315 0.624316 0.063306
4958.49 4958.5 0.500000 3.193629 15.2352 0.624988 0.063444
4958.75 4958.75 0.500000 3.193729 15.2377 0.625029 0.063370
4959 4959 0.500000 3.193058 15.2406 0.625569 0.063476
4959.24 4959.25 0.500000 3.192019 15.2458 0.626428 0.063468
4959.5 4959.5 0.500000 3.191664 15.2458 0.626656 0.063636
4959.75 4959.75 0.500000 3.191429 15.2483 0.626908 0.063435
4959.99 4960 0.500000 3.190794 15.2554 0.627591 0.063475
4960.25 4960.25 0.500000 3.189874 15.2581 0.628283 0.063599
4960.5 4960.5 0.500000 3.189416 15.2592 0.628621 0.063580
4960.74 4960.75 0.500000 3.188757 15.2655 0.629285 0.063614
4961 4961 0.500000 3.188153 15.2672 0.629739 0.063692
4961.25 4961.25 0.500000 3.187685 15.2772 0.630447 0.063709
4961.5 4961.5 0.500000 3.187228 15.2798 0.630841 0.063737
4961.75 4961.75 0.500000 3.186740 15.2825 0.631263 0.063700
4962 4962 0.500000 3.186045 15.2864 0.631868 0.063406
4962.24 4962.25 0.500000 3.185574 15.2867 0.632170 0.063359
4962.5 4962.5 0.500000 3.185673 15.2912 0.632304 0.063131
4962.75 4962.75 0.500000 3.184258 15.2955 0.633371 0.063109
4963 4963 0.500000 3.184138 15.3005 0.633654 0.062796
4963.25 4963.25 0.500000 3.184230 15.3056 0.633806 0.062432
4963.5 4963.5 0.500000 3.182689 15.3103 0.634974 0.061959
4963.75 4963.75 0.500000 3.182466 15.3121 0.635197 0.061167
4964 4964 0.500000 3.181963 15.3166 0.635702 0.059687
4964.25 4964.25 0.500000 3.181870 15.322 0.635984 0.057105
4964.5 4964.5 0.500000 3.180971 15.3257 0.636712 0.053745
4964.74 4964.75 0.500000 3.181136 15.3283 0.636713 0.049581
4965 4965 0.500000 3.180262 15.3326 0.637445 0.046143
4965.25 4965.25 0.500000 3.180106 15.3329 0.637561 0.043989
4965.5 4965.5 0.500000 3.179312 15.3367 0.638223 0.043590
4965.75 4965.75 0.500000 3.178844 15.3408 0.638693 0.044492
4966 4966 0.500000 3.178832 15.3451 0.638883 0.046237
4966.25 4966.25 0.500000 3.178302 15.3469 0.639295 0.047887
4966.5 4966.5 0.500000 3.178293 15.3525 0.639534 0.049085
4966.75 4966.75 0.500000 3.178540 15.3504 0.639289 0.049976
4967 4967 0.500000 3.178700 15.35 0.639173 0.050072
4967.25 4967.25 0.500000 3.178662 15.3528 0.639307 0.050027
4967.5 4967.5 0.500000 3.177726 15.357 0.640087 0.049980
4967.75 4967.75 0.500000 3.177043 15.3619 0.640726 0.049110
4968 4968 0.500000 3.176628 15.3637 0.641063 0.048396
4968.25 4968.25 0.500000 3.176446 15.367 0.641322 0.047691
4968.5 4968.5 0.500000 3.177099 15.3704 0.641047 0.046735
4968.75 4968.75 0.500000 3.177588 15.3795 0.641111 0.046249
4969 4969 0.500000 3.179765 15.3765 0.639596 0.045357
4969.25 4969.25 0.500000 3.180086 15.3763 0.639381 0.044747
4969.5 4969.5 0.500000 3.180638 15.3751 0.638977 0.044481
4969.75 4969.75 0.500000 3.179976 15.3752 0.639400 0.044196
4970 4970 0.500000 3.179135 15.3834 0.640281 0.044137
4970.25 4970.25 0.500000 3.178867 15.3955 0.640957 0.043972
4970.5 4970.5 0.500000 3.177971 15.4055 0.641955 0.043601
4970.75 4970.75 0.500000 3.176446 15.4153 0.643337 0.043585
4971 4971 0.500000 3.175336 15.4233 0.644385 0.043131
4971.25 4971.25 0.500000 3.173627 15.4294 0.645743 0.043094
4971.5 4971.5 0.500000 3.173004 15.4361 0.646426 0.042386
4971.75 4971.75 0.500000 3.172895 15.4407 0.646687 0.041603
4972 4972 0.500000 3.173381 15.4485 0.646703 0.041025
4972.25 4972.25 0.500000 3.173749 15.4499 0.646515 0.039911
4972.5 4972.5 0.500000 3.174977 15.4929 0.647527 0.039081
4972.75 4972.75 0.500000 3.175581 15.4954 0.647240 0.038389
4973 4973 0.500000 3.176370 15.4974 0.646810 0.037533
4973.25 4973.25 0.500000 3.176554 15.5009 0.646841 0.036870
4973.5 4973.5 0.500000 3.177059 15.5037 0.646629 0.035977
4973.75 4973.75 0.500000 3.177025 15.5056 0.646731 0.035323
4974 4974 0.500000 3.178012 15.5081 0.646200 0.034738
4974.25 4974.25 0.500000 3.177259 15.5074 0.646657 0.034342
4974.5 4974.5 0.500000 3.177121 15.5108 0.646887 0.033780
4974.75 4974.75 0.500000 3.176199 15.5124 0.647549 0.033128
4975 4975 0.500000 3.175255 15.5092 0.648029 0.032428
4975.25 4975.25 0.500000 3.174539 15.5116 0.648590 0.031682
4975.5 4975.5 0.500000 3.173497 15.5118 0.649278 0.031189
4975.75 4975.75 0.500000 3.173146 15.5114 0.649487 0.030683
4976 4976 0.500000 3.171796 15.5128 0.650424 0.030199
4976.25 4976.25 0.500000 3.172233 15.5118 0.650096 0.029516
4976.51 4976.5 0.500000 3.172129 15.5103 0.650099 0.029234
4976.75 4976.75 0.500000 3.172526 15.5097 0.649820 0.028617
4977 4977 0.500000 3.173009 15.5192 0.649902 0.028303
4977.25 4977.25 0.500000 3.174433 15.5495 0.650248 0.028133
4977.5 4977.5 0.500000 3.175610 15.5525 0.649605 0.027640
4977.75 4977.75 0.500000 3.176776 15.5579 0.649075 0.027442
4978 4978 0.500000 3.177588 15.5625 0.648740 0.027397
4978.25 4978.25 0.500000 3.178592 15.5643 0.648164 0.026985
4978.5 4978.5 0.500000 3.178818 15.5655 0.648065 0.027198
4978.75 4978.75 0.500000 3.179658 15.5636 0.647441 0.026686
4979 4979 0.500000 3.180636 15.5654 0.646885 0.026462
4979.25 4979.25 0.500000 3.181585 15.5646 0.646241 0.026593
4979.5 4979.5 0.500000 3.183361 15.5634 0.645041 0.026225
4979.75 4979.75 0.500000 3.184577 15.5586 0.644060 0.026110
4980 4980 0.500000 3.186393 15.556 0.642782 0.025980
4980.25 4980.25 0.500000 3.189097 15.5539 0.640978 0.025755
4980.5 4980.5 0.500000 3.191809 15.5488 0.639017 0.025909
4980.75 4980.75 0.500000 3.195078 15.5461 0.636818 0.025426
4981 4981 0.500000 3.198988 15.5475 0.634397 0.025404
4981.25 4981.25 0.500000 3.203275 15.5463 0.631635 0.025182
4981.5 4981.5 0.500000 3.207878 15.5497 0.628846 0.024929
4981.75 4981.75 0.500000 3.213712 15.5497 0.625192 0.024911
4982 4982 0.500000 3.219592 15.5516 0.621589 0.024544
4982.25 4982.25 0.500000 3.226180 15.554 0.617606 0.024545
4982.5 4982.5 0.500000 3.232250 15.5574 0.614027 0.024197
4982.75 4982.75 0.500000 3.237538 15.5587 0.610854 0.024101
4983 4983 0.500000 3.242471 15.5573 0.607799 0.023558
4983.25 4983.25 0.500000 3.246823 15.5578 0.605186 0.023535
4983.5 4983.5 0.500000 3.249437 15.5561 0.603515 0.023679
4983.75 4983.75 0.500000 3.252732 15.5472 0.601189 0.023621
4984 4984 0.500000 3.255695 15.551 0.599557 0.023432
4984.25 4984.25 0.500000 3.257892 15.5508 0.598235 0.023308
4984.5 4984.5 0.500000 3.258761 15.5535 0.597815 0.023633
4984.75 4984.75 0.500000 3.258827 15.552 0.597718 0.023537
4985 4985 0.500000 3.257674 15.5528 0.598439 0.023875
4985.25 4985.25 0.500000 3.255520 15.5524 0.599735 0.024131
4985.5 4985.5 0.500000 3.252289 15.5532 0.601678 0.024334
4985.75 4985.75 0.500000 3.248571 15.5508 0.603845 0.024452
4986 4986 0.500000 3.245014 15.5504 0.605973 0.024746
4986.25 4986.25 0.500000 3.241840 15.5505 0.607905 0.024991
4986.5 4986.5 0.500000 3.238989 15.5486 0.609544 0.025083
4986.75 4986.75 0.500000 3.236187 15.5788 0.612459 0.025030
4987 4987 0.500000 3.233705 15.5774 0.613918 0.025313
4987.25 4987.25 0.500000 3.231217 15.5764 0.615420 0.025527
4987.5 4987.5 0.500000 3.229298 15.5783 0.616669 0.025365
4987.75 4987.75 0.500000 3.227656 15.5802 0.617760 0.025548
4988 4988 0.500000 3.225873 15.5826 0.618951 0.025559
4988.25 4988.25 0.500000 3.224133 15.5877 0.620233 0.025715
4988.5 4988.5 0.500000 3.223065 15.5948 0.621182 0.025695
4988.75 4988.75 0.500000 3.221723 15.6065 0.622487 0.025837
4989 4989 0.500000 3.221785 15.6179 0.622904 0.025661
4989.25 4989.25 0.500000 3.221526 15.6344 0.623720 0.025837
4989.51 4989.5 0.500000 3.221540 15.6448 0.624118 0.025967
4989.75 4989.75 0.500000 3.222485 15.6561 0.623989 0.025844
4990 4990 0.500000 3.223718 15.6659 0.623610 0.026152
4990.25 4990.25 0.500000 3.225837 15.6793 0.622831 0.026028
4990.5 4990.5 0.500000 3.227097 15.6913 0.622518 0.026007
4990.75 4990.75 0.500000 3.228265 15.7026 0.622236 0.026049
4991 4991 0.500000 3.229937 15.7136 0.621630 0.026072
4991.25 4991.25 0.500000 3.231076 15.7228 0.621282 0.025904
4991.5 4991.5 0.500000 3.231802 15.7346 0.621303 0.025935
4991.75 4991.75 0.500000 3.232762 15.7424 0.621017 0.025951
4992 4992 0.500000 3.233381 15.7472 0.620818 0.026014
4992.25 4992.25 0.500000 3.233569 15.7565 0.621070 0.026164
4992.5 4992.5 0.500000 3.233395 15.764 0.621472 0.026238
4992.75 4992.75 0.500000 3.232966 15.7676 0.621880 0.026135
4993 4993 0.500000 3.232292 15.7722 0.622482 0.026086
4993.25 4993.25 0.500000 3.231385 15.7758 0.623193 0.026094
4993.5 4993.5 0.500000 3.230209 15.7795 0.624072 0.026130
4993.75 4993.75 0.500000 3.229459 15.7846 0.624737 0.026076
4994 4994 0.500000 3.228229 15.7903 0.625733 0.026274
4994.25 4994.25 0.500000 3.227201 15.7921 0.626442 0.026312
4994.5 4994.5 0.500000 3.227000 15.7965 0.626747 0.026051
4994.75 4994.75 0.500000 3.226667 15.8009 0.627132 0.026183
4995 4995 0.500000 3.225749 15.8078 0.627982 0.026115
4995.25 4995.25 0.500000 3.225603 15.8114 0.628216 0.025817
4995.5 4995.5 0.500000 3.224872 15.8148 0.628806 0.026068
4995.75 4995.75 0.500000 3.224386 15.8145 0.629103 0.025701
4996 4996 0.700000 3.224355 22.116 0.879809 0.035650
4997.09 4997.08 0.710000 3.221654 22.4662 0.896159 0.035359
4998.18 4998.18 0.730000 3.216615 23.0956 0.925899 0.035840
4999.3 4999.29 0.740000 3.210006 23.4292 0.945510 0.036035
5000.44 5000.43 0.750000 3.204363 23.7852 0.965314 0.036535
5001.59 5001.58 0.760000 3.201042 24.144 0.983135 0.037759
5002.77 5002.76 0.780000 3.201385 24.8273 1.010615 0.038868
5003.96 5003.95 0.790000 3.202333 25.1981 1.024739 0.039689
5005.16 5005.16 0.800000 3.200785 25.5765 1.041735 0.040908
5006.4 5006.39 0.810000 3.193545 25.9705 1.065471 0.042846
5007.65 5007.64 0.830000 3.185656 26.6694 1.102805 0.045460
5008.92 5008.91 0.840000 3.177817 27.0452 1.127142 0.047420
5010.21 5010.2 0.850000 3.169109 27.4307 1.153209 0.049265
5011.52 5011.51 0.860000 3.161644 27.8112 1.177976 0.050767
5012.84 5012.83 0.880000 3.155883 28.5 1.214128 0.052844
5014.18 5014.18 0.890000 3.151953 28.9359 1.237539 0.054295
5015.55 5015.54 0.900000 3.149822 29.3112 1.256276 0.055476
5016.94 5016.93 0.910000 3.148089 29.692 1.274800 0.056830
5018.34 5018.33 0.930000 3.146289 30.4003 1.307562 0.058999
5019.76 5019.75 0.940000 3.142620 30.7834 1.328903 0.060254
5021.2 5021.19 0.950000 3.138404 31.1747 1.351487 0.061494
5022.65 5022.65 0.960000 3.133439 31.5656 1.375231 0.062995
5024.14 5024.13 0.980000 3.129591 32.2931 1.412378 0.064629
5025.63 5025.63 0.990000 3.126454 32.6756 1.433580 0.065652
5027.14 5027.14 1.000000 3.123934 33.067 1.454409 0.066321
5028.68 5028.68 1.010000 3.122464 33.4693 1.474270 0.066861
5030.24 5030.24 1.030000 3.120765 34.1876 1.508463 0.067089
5031.82 5031.81 1.040000 3.118169 34.5898 1.530197 0.066970
5033.4 5033.4 1.050000 3.114655 34.9885 1.553280 0.066747
5035.01 5035.01 1.060000 3.111194 35.3887 1.576486 0.066024
5036.65 5036.65 1.080000 3.107930 36.2162 1.618629 0.066990
5038.3 5038.3 1.090000 3.105164 36.6174 1.641084 0.067245
5039.97 5039.97 1.100000 3.102742 37.0221 1.663250 0.068316
5041.65 5041.65 1.110000 3.100501 37.4376 1.685689 0.069337
5043.36 5043.36 1.130000 3.097489 38.1863 1.724589 0.071912
5045.09 5045.09 1.140000 3.094771 38.5927 1.747692 0.074096
5046.83 5046.83 1.150000 3.092804 39.007 1.769932 0.076441
5048.6 5048.6 1.160000 3.090576 39.4249 1.792884 0.078912
5050.38 5050.38 1.180000 3.088168 40.1866 1.831928 0.082449
5052.18 5052.18 1.190000 3.084179 40.6102 1.858642 0.085552
5053.99 5054 1.200000 3.079607 41.0405 1.886929 0.088653
5055.84 5055.84 1.210000 3.075343 41.4667 1.914670 0.090861
5057.7 5057.7 1.230000 3.071657 42.2386 1.957519 0.093267
5059.58 5059.58 1.240000 3.068914 42.6734 1.983101 0.094225
5061.48 5061.48 1.250000 3.065717 43.1088 2.009760 0.095993
5063.4 5063.4 1.260000 3.061715 43.5374 2.037859 0.097889
5065.33 5065.33 1.280000 3.057479 44.3316 2.083849 0.101160
5067.29 5067.29 1.290000 3.052896 44.7852 2.114861 0.103129
5069.26 5069.26 1.300000 3.047980 45.3153 2.150429 0.105313
5071.26 5071.26 1.310000 3.042960 45.7787 2.183351 0.107540
5073.27 5073.27 1.330000 3.037692 46.5833 2.233464 0.110007
5075.3 5075.3 1.340000 3.032526 47.0379 2.266935 0.111383
5077.35 5077.35 1.350000 3.027874 47.504 2.300080 0.112260
5079.42 5079.42 1.360000 3.023697 47.9713 2.332426 0.112124
5081.51 5081.51 1.380000 3.019120 48.7863 2.382928 0.112814
5083.61 5083.61 1.390000 3.014240 49.2641 2.418035 0.112617
5085.74 5085.74 1.400000 3.008884 49.7439 2.454707 0.112477
5087.89 5087.89 1.410000 3.003456 50.2181 2.491593 0.112487
5090.05 5090.05 1.430000 2.998206 51.0666 2.547036 0.114481
5092.22 5092.23 1.440000 2.993138 51.5694 2.585150 0.116570
5094.44 5094.44 1.450000 2.988240 52.0797 2.623571 0.120247
5096.66 5096.66 1.460000 2.983962 52.5795 2.660107 0.124910
5098.9 5098.9 1.480000 2.980134 53.4403 2.714034 0.131109
5101.16 5101.16 1.490000 2.975960 53.9401 2.750885 0.136994
5103.44 5103.44 1.500000 2.971206 54.4547 2.790357 0.142237
5105.74 5105.74 1.510000 2.966437 54.9621 2.829822 0.145916
5108.05 5108.05 1.530000 2.961735 55.8345 2.888278 0.149660
5110.39 5110.39 1.540000 2.956787 56.3435 2.929054 0.152288
5112.74 5112.74 1.550000 2.951989 56.8561 2.969925 0.154430
5115.12 5115.12 1.560000 2.947404 57.3684 3.010458 0.156566
5117.51 5117.51 1.580000 2.942644 58.2574 3.071693 0.160330
5119.92 5119.92 1.590000 2.938345 58.7909 3.113192 0.163113
5122.35 5122.35 1.600000 2.934145 59.3155 3.154182 0.166004
5124.8 5124.8 1.610000 2.930127 59.8502 3.195426 0.169487
5127.27 5127.27 1.630000 2.926174 60.7663 3.257172 0.173525
5129.76 5129.76 1.640000 2.921386 61.3145 3.302327 0.176514
5132.27 5132.27 1.650000 2.916242 61.8632 3.349078 0.179239
5134.79 5134.79 1.660000 2.911337 62.493 3.399822 0.182399
5137.34 5137.34 1.680000 2.906514 63.4952 3.471042 0.185222
5139.9 5139.9 1.690000 2.902141 64.0754 3.518098 0.186940
5142.49 5142.49 1.700000 2.897286 64.6438 3.566567 0.188181
5145.09 5145.09 1.710000 2.892074 65.2114 3.616705 0.189965
5147.71 5147.71 1.730000 2.886899 66.1624 3.688486 0.193101
5150.35 5150.35 1.740000 2.881826 66.7442 3.739840 0.195657
5153.01 5153.01 1.750000 2.876116 67.3258 3.794029 0.200359
5155.69 5155.69 1.760000 2.870609 67.9141 3.848316 0.205193
5158.39 5158.39 1.780000 2.864693 68.8812 3.926291 0.212143
5161.11 5161.11 1.790000 2.859201 69.4678 3.981506 0.217400
5163.84 5163.84 1.800000 2.853936 70.0627 4.036784 0.222331
5166.6 5166.6 1.810000 2.848705 70.6699 4.093165 0.227539
5169.37 5169.37 1.830000 2.843919 71.643 4.169441 0.234379
5172.17 5172.17 1.840000 2.838555 72.3933 4.235732 0.240771
5174.98 5174.98 1.850000 2.833513 72.9778 4.291531 0.246625
5177.81 5177.81 1.860000 2.828101 73.563 4.349434 0.252591
5180.66 5180.66 1.880000 2.822557 74.572 4.433582 0.259072
5183.53 5183.53 1.890000 2.816537 75.2004 4.497936 0.264029
5186.42 5186.42 1.900000 2.810583 75.8008 4.560949 0.268591
5189.32 5189.32 1.910000 2.805219 76.4077 4.622170 0.272793
5192.25 5192.25 1.930000 2.799816 77.4162 4.708551 0.278700
5195.2 5195.2 1.940000 2.794537 78.014 4.770033 0.283179
5198.16 5198.16 1.950000 2.788855 78.5798 4.832002 0.287292
5201.14 5201.14 1.960000 2.782865 79.1993 4.899367 0.291604
5204.15 5204.15 1.980000 2.777169 80.2456 4.992433 0.296995
5207.17 5207.17 1.990000 2.771359 80.8635 5.060189 0.301132
5210.21 5210.21 2.000000 2.765898 81.6711 5.138734 0.306249
5213.27 5213.27 2.010000 2.760187 82.3064 5.208330 0.310842
5216.35 5216.35 2.030000 2.754725 83.363 5.304091 0.318733
5219.45 5219.45 2.040000 2.749080 84.025 5.376474 0.324527
5222.56 5222.56 2.050000 2.743842 84.6885 5.447387 0.330921
5225.7 5225.7 2.060000 2.738490 85.3369 5.518562 0.336957
5228.85 5228.85 2.080000 2.733234 86.3968 5.616530 0.344740
5232.03 5232.03 2.090000 2.728018 87.0704 5.689928 0.350934
5235.22 5235.22 2.100000 2.722481 87.7613 5.766911 0.358454
5238.43 5238.43 2.110000 2.716933 88.4515 5.844615 0.365661
5241.66 5241.66 2.130000 2.711106 89.5428 5.951311 0.376064
5244.92 5244.92 2.140000 2.705338 90.1845 6.028645 0.383983
5248.18 5248.18 2.150000 2.699763 90.3104 6.070782 0.389697
5251.47 5251.47 2.160000 2.693959 91.2251 6.167982 0.398842
5254.78 5254.78 2.180000 2.688380 92.6964 6.302521 0.410881
5258.11 5258.11 2.190000 2.682340 93.5479 6.398937 0.419553
5261.45 5261.45 2.200000 2.676392 94.2821 6.487628 0.428074
5264.82 5264.82 2.210000 2.670302 95.0929 6.583398 0.436262
5268.2 5268.2 2.230000 2.664053 96.2989 6.708694 0.445613
5271.6 5271.6 2.240000 2.657995 97.0586 6.802713 0.453304
5275.03 5275.03 2.250000 2.652019 97.9157 6.903918 0.461400
5278.47 5278.47 2.260000 2.646025 97.9141 6.945328 0.465542
5281.93 5281.93 2.280000 2.640125 99.9354 7.130636 0.479145
5285.4 5285.4 2.290000 2.634283 100.786 7.233468 0.487687
5288.9 5288.9 2.300000 2.628470 101.556 7.331178 0.495860
5292.42 5292.42 2.310000 2.622553 102.323 7.430384 0.505796
5295.96 5295.96 2.330000 2.616772 103.607 7.567253 0.517769
5299.51 5299.51 2.340000 2.610548 104.301 7.665547 0.528074
5303.09 5303.09 2.350000 2.604141 105.072 7.771825 0.538330
5306.68 5306.68 2.360000 2.598141 105.906 7.880650 0.548806
5310.29 5310.29 2.380000 2.592073 107.172 8.023380 0.561001
5313.92 5313.92 2.390000 2.585903 107.96 8.132427 0.572421
5317.57 5317.57 2.400000 2.579935 108.737 8.240003 0.582793
5321.24 5321.24 2.410000 2.573949 109.495 8.347270 0.594123
5324.93 5324.93 2.430000 2.567523 110.642 8.489084 0.607447
5328.64 5328.64 2.440000 2.561329 111.186 8.583786 0.618864
5332.36 5332.36 2.450000 2.555001 111.875 8.691784 0.630544
5336.11 5336.11 2.460000 2.548528 112.711 8.813633 0.643192
5339.87 5339.87 2.480000 2.542291 113.976 8.968313 0.659246
5343.66 5343.66 2.490000 2.535627 114.714 9.086719 0.672496
5347.46 5347.46 2.500000 2.529833 115.306 9.186654 0.684457
5351.28 5351.28 2.510000 2.523976 115.797 9.279999 0.695728
5355.12 5355.12 2.530000 2.518255 116.458 9.386535 0.707073
5358.98 5358.98 2.540000 2.512399 118.134 9.577508 0.724538
5362.86 5362.86 2.550000 2.506553 118.806 9.688485 0.735812
5366.76 5366.76 2.560000 2.500304 119.379 9.796227 0.747449
5370.68 5370.68 2.580000 2.494220 120.383 9.938915 0.760446
5374.61 5374.61 2.590000 2.488174 120.959 10.047 0.772758
5378.57 5378.57 2.600000 2.482126 121.53 10.1557 0.784921
5382.54 5382.54 2.610000 2.475800 122.092 10.2674 0.798241
5386.54 5386.54 2.630000 2.469362 123.086 10.4179 0.814743
5390.55 5390.55 2.640000 2.463144 123.519 10.5197 0.826923
5394.58 5394.58 2.650000 2.456680 124.1 10.6377 0.841784
5398.63 5398.63 2.660000 2.450334 124.285 10.7214 0.852874
5402.7 5402.7 2.680000 2.443864 125.293 10.8785 0.870545
5406.79 5406.79 2.690000 2.437567 125.594 10.9735 0.883156
5410.9 5410.9 2.700000 2.431340 125.937 11.0722 0.896134
5415.02 5415.02 2.710000 2.425351 126.386 11.1785 0.910566
5419.17 5419.17 2.730000 2.419153 126.73 11.2786 0.924307
5423.33 5423.33 2.740000 2.412930 127.371 11.4064 0.940092
5427.52 5427.52 2.750000 2.406814 128.056 11.5381 0.956980
5431.72 5431.72 2.760000 2.400766 128.43 11.642 0.971114
5435.94 5435.94 2.780000 2.394453 129.324 11.7973 0.990620
5440.18 5440.18 2.790000 2.388200 129.777 11.9128 1.006009
5444.44 5444.44 2.800000 2.382112 130.23 12.0274 1.021232
5448.72 5448.72 2.810000 2.375832 130.689 12.1458 1.037562
5453.02 5453.02 2.830000 2.369348 131.651 12.3148 1.057463
5457.34 5457.34 2.840000 2.362940 132.242 12.4496 1.074931
5461.67 5461.67 2.850000 2.356543 132.842 12.5864 1.092432
5466.03 5466.03 2.860000 2.349971 133.507 12.7328 1.110712
5470.4 5470.4 2.880000 2.343578 134.596 12.919 1.132993
5474.8 5474.8 2.890000 2.337256 135.321 13.071 1.152842
5479.21 5479.21 2.900000 2.330825 136.276 13.2482 1.174717
5483.64 5483.64 2.910000 2.324162 136.935 13.4012 1.194920
5488.09 5488.09 2.930000 2.317448 138.074 13.6037 1.219198
5492.56 5492.56 2.940000 2.310825 138.845 13.7706 1.242305
5497.05 5497.05 2.950000 2.304232 139.605 13.9375 1.263684
5501.56 5501.56 2.960000 2.297603 140.386 14.1088 1.286661
5506.08 5506.08 2.980000 2.291028 141.924 14.3574 1.315951
5510.63 5510.63 2.990000 2.284732 142.759 14.5331 1.339819
5515.19 5515.19 3.000000 2.278226 143.687 14.723 1.364775
5519.78 5519.78 3.010000 2.271467 144.553 14.9122 1.390548
5524.38 5524.38 3.030000 2.264962 145.901 15.1495 1.421091
5529 5529 3.040000 2.258535 146.855 15.3469 1.448087
5533.64 5533.64 3.050000 2.251919 147.823 15.5505 1.475476
5538.3 5538.3 3.060000 2.245150 148.641 15.7429 1.502306
5542.98 5542.98 3.080000 2.238496 150.046 15.9978 1.536048
5547.68 5547.68 3.090000 2.232074 150.93 16.1956 1.563315
5552.4 5552.4 3.100000 2.225457 151.883 16.4061 1.592904
5557.13 5557.13 3.110000 2.218705 152.757 16.6123 1.621812
5561.89 5561.89 3.130000 2.211926 154.2 16.8833 1.657187
5566.66 5566.66 3.140000 2.205168 155.059 17.0925 1.687003
5571.46 5571.46 3.150000 2.198444 155.955 17.3072 1.718201
5576.27 5576.27 3.160000 2.191787 156.866 17.5246 1.749319
5581.1 5581.1 3.180000 2.185097 158.24 17.7967 1.787318
5585.95 5585.95 3.190000 2.178353 159.56 18.0666 1.824120
5590.82 5590.82 3.200000 2.171676 160.433 18.2872 1.856689
5595.71 5595.71 3.210000 2.165072 161.374 18.5163 1.890102
5600.62 5600.62 3.230000 2.158260 162.744 18.8011 1.930545
5605.54 5605.54 3.240000 2.151530 163.619 19.0299 1.965424
5610.49 5610.49 3.250000 2.144845 164.518 19.2628 2.000445
5615.45 5615.45 3.260000 2.138144 165.411 19.4975 2.036718
5620.44 5620.44 3.280000 2.131308 166.727 19.7874 2.079131
5625.44 5625.44 3.290000 2.124741 166.831 19.9302 2.106373
5630.46 5630.46 3.300000 2.118189 167.562 20.1493 2.142406
5635.5 5635.5 3.310000 2.111164 168.071 20.353 2.177169
5640.56 5640.56 3.330000 2.104404 170.04 20.7309 2.229529
5645.64 5645.64 3.340000 2.096806 170.788 20.981 2.270491
5650.74 5650.74 3.350000 2.091223 171.437 21.1787 2.305091
5655.86 5655.86 3.360000 2.084080 172.337 21.4424 2.347435
5660.99 5660.99 3.380000 2.077400 174.223 21.8223 2.402813
5666.15 5666.15 3.390000 2.070997 175.258 22.093 2.446738
5671.32 5671.32 3.400000 2.064217 176.381 22.3859 2.493653
5676.52 5676.52 3.410000 2.057457 177.663 22.7015 2.543721
5681.73 5681.73 3.430000 2.050858 179.31 23.0637 2.598817
5686.96 5686.96 3.440000 2.043941 180.241 23.3444 2.646257
5692.21 5692.21 3.450000 2.037423 181.118 23.6113 2.691801
5697.48 5697.48 3.460000 2.030579 182.009 23.8904 2.739540
5702.77 5702.77 3.480000 2.024110 183.421 24.232 2.794788
5708.08 5708.08 3.490000 2.017481 184.19 24.4954 2.841034