File: xdidata/Ti/Ti-K-SrTiO3.xdi
# XDI/1.0 BlueSky/1.5.0
# Beamline.name: 6BM
# Beamline.xray_source: NSLS-II three-pole wiggler
# Beamline.collimation: paraboloid mirror, 5 nm Rh on 30 nm Pt
# Beamline.focusing: not in use
# Beamline.harmonic_rejection: flat mirror, Si stripe, pitch = 7.0 mrad relative to beam
# Detector.i0: 10 cm N2
# Detector.i1: 25 cm N2
# Detector.i2: 25 cm N2
# Element.symbol: Ti
# Element.edge: K
# Facility.name: NSLS-II
# Facility.energy: 3.0
# Facility.current: 220.5
# Facility.mode: top-off
# Facility.gup: 301027
# Facility.saf: 304156
# Mono.name: Si(111)
# Mono.d_spacing: 3.13526
# Mono.encoder_resolution: 0.0000050 deg/ct
# Mono.angle_offset: 16.0571 deg
# Mono.scan_mode: pseudo channel cut
# Mono.scan_type: step
# Mono.direction: forward in energy
# Sample.name: SrTiO3 tausonite
# Sample.prep: Powder in polyethylene glycol pellet
# Sample.x_position: -97.532 mm
# Sample.y_position: 117.543 mm
# Sample.wheel_position: -465.000 mm
# Scan.experimenters: Bruce Ravel, Martin Stennett
# Scan.edge_energy: 4966.0
# Scan.start_time: 2019-05-29T21:11:43
# Scan.end_time: 2019-05-29T21:54:34
# Scan.transient_id: 9761
# Scan.uid: 7ea20f27-edf3-4f26-8b51-f2fdb84b8ffa
# Scan.plot_hint: ln(I0/It)  --  ln($5/$6)
# Scan.sequence: merge of 3 scans
# Column.1: energy eV
# Column.2: requested_energy eV
# Column.3: measurement_time seconds
# Column.4: mutrans
# Column.5: i0
# Column.6: itrans
# Column.7: irefer
# /////
#  sample disk prepared by Martin
# -----
# energy   requested_energy   measurement_time   mutrans   i0   itrans   irefer
4765.98 4766 0.500000 3.993458 10.9729 0.202322 0.017366
4776.01 4776 0.500000 3.992879 11.1626 0.205911 0.017388
4786.01 4786 0.500000 3.963991 11.4053 0.216554 0.018636
4796.01 4796 0.500000 3.936748 11.6519 0.227347 0.019578
4806.01 4806 0.500000 3.907835 11.9009 0.239016 0.021119
4816.01 4816 0.500000 3.879197 12.1447 0.251001 0.022190
4826.01 4826 0.500000 3.852694 12.3867 0.262878 0.023567
4836.01 4836 0.500000 3.824196 12.6309 0.275811 0.025043
4846 4846 0.500000 3.797343 12.9044 0.289443 0.026263
4856.01 4856 0.500000 3.770220 13.1455 0.302964 0.027981
4866.01 4866 0.500000 3.742069 13.3854 0.317301 0.029630
4876.01 4876 0.500000 3.715897 13.6203 0.331434 0.031169
4886 4886 0.500000 3.689762 13.8516 0.345985 0.032818
4896.01 4896 0.500000 3.663281 14.0802 0.361135 0.034682
4906 4906 0.500000 3.637238 14.3137 0.376809 0.036681
4916 4916 0.500000 3.611115 14.5451 0.393034 0.038806
4926 4926 0.500000 3.585673 14.7742 0.409511 0.040794
4936 4936 0.500000 3.560877 14.9956 0.426084 0.042941
4938 4938 0.500000 3.555557 15.0367 0.429533 0.043650
4940 4940 0.500000 3.550442 15.0783 0.432929 0.043856
4942 4942 0.500000 3.546182 15.1162 0.435871 0.044329
4944 4944 0.500000 3.540004 15.1603 0.439848 0.044903
4946.01 4946 0.500000 3.535689 15.1994 0.442901 0.044968
4948.01 4948 0.500000 3.530652 15.2332 0.446120 0.045474
4950.01 4950 0.500000 3.525536 15.2738 0.449600 0.045940
4952.01 4952 0.500000 3.521139 15.3087 0.452615 0.046294
4954.01 4954 0.500000 3.516515 15.3432 0.455735 0.046489
4956 4956 0.500000 3.511777 15.3782 0.458941 0.047063
4956.25 4956.25 0.500000 3.511132 15.3812 0.459329 0.047169
4956.49 4956.5 0.500000 3.510794 15.3855 0.459612 0.047079
4956.74 4956.75 0.500000 3.510011 15.3885 0.460061 0.047167
4956.99 4957 0.500000 3.509257 15.3932 0.460552 0.047116
4957.25 4957.25 0.500000 3.508361 15.3972 0.461089 0.047491
4957.5 4957.5 0.500000 3.507813 15.4015 0.461467 0.047420
4957.74 4957.75 0.500000 3.507519 15.4062 0.461743 0.047486
4957.99 4958 0.500000 3.506357 15.4097 0.462384 0.047334
4958.24 4958.25 0.500000 3.506035 15.4119 0.462598 0.047447
4958.49 4958.5 0.500000 3.505580 15.4178 0.462986 0.047272
4958.74 4958.75 0.500000 3.505133 15.4224 0.463333 0.047378
4958.99 4959 0.500000 3.504109 15.426 0.463914 0.047636
4959.25 4959.25 0.500000 3.503453 15.4289 0.464307 0.047682
4959.5 4959.5 0.500000 3.503168 15.4362 0.464661 0.047602
4959.75 4959.75 0.500000 3.502433 15.4393 0.465094 0.047804
4960 4960 0.500000 3.502224 15.4439 0.465329 0.047678
4960.25 4960.25 0.500000 3.501466 15.45 0.465864 0.047869
4960.49 4960.5 0.500000 3.501085 15.454 0.466161 0.047392
4960.74 4960.75 0.500000 3.500283 15.4578 0.466655 0.047735
4961 4961 0.500000 3.499916 15.4634 0.466993 0.047901
4961.25 4961.25 0.500000 3.499651 15.4652 0.467173 0.047790
4961.5 4961.5 0.500000 3.499228 15.471 0.467545 0.047639
4961.75 4961.75 0.500000 3.498001 15.4778 0.468327 0.047719
4962 4962 0.500000 3.497378 15.4824 0.468755 0.047717
4962.25 4962.25 0.500000 3.497391 15.4878 0.468912 0.047404
4962.5 4962.5 0.500000 3.497089 15.4921 0.469184 0.047391
4962.75 4962.75 0.500000 3.496221 15.4963 0.469718 0.047367
4963 4963 0.500000 3.496044 15.5004 0.469929 0.047019
4963.25 4963.25 0.500000 3.495521 15.5048 0.470308 0.046752
4963.5 4963.5 0.500000 3.494584 15.5078 0.470838 0.046437
4963.75 4963.75 0.500000 3.494519 15.5137 0.471050 0.045708
4964 4964 0.500000 3.493926 15.52 0.471519 0.044710
4964.25 4964.25 0.500000 3.493852 15.5253 0.471715 0.042858
4964.5 4964.5 0.500000 3.492903 15.529 0.472274 0.040716
4964.75 4964.75 0.500000 3.492665 15.5332 0.472515 0.037341
4965 4965 0.500000 3.492919 15.5336 0.472409 0.034823
4965.25 4965.25 0.500000 3.492086 15.5391 0.472969 0.033169
4965.5 4965.5 0.500000 3.492358 15.5431 0.472960 0.032756
4965.75 4965.75 0.500000 3.491872 15.5486 0.473360 0.033358
4966 4966 0.500000 3.492066 15.5531 0.473406 0.034773
4966.25 4966.25 0.500000 3.492919 15.5554 0.473071 0.035932
4966.5 4966.5 0.500000 3.494157 15.5584 0.472590 0.037021
4966.75 4966.75 0.500000 3.497288 15.56 0.471144 0.037337
4967 4967 0.500000 3.499886 15.5992 0.471112 0.037628
4967.25 4967.25 0.500000 3.501099 15.6027 0.470649 0.037568
4967.5 4967.5 0.500000 3.499329 15.6079 0.471641 0.037345
4967.75 4967.75 0.500000 3.498206 15.6127 0.472305 0.036862
4968 4968 0.500000 3.497923 15.6189 0.472628 0.036441
4968.25 4968.25 0.500000 3.500472 15.6222 0.471535 0.035645
4968.5 4968.5 0.500000 3.506220 15.623 0.468873 0.034673
4968.75 4968.75 0.500000 3.513473 15.6275 0.465581 0.034097
4969 4969 0.500000 3.522263 15.6291 0.461555 0.033642
4969.25 4969.25 0.500000 3.527300 15.6299 0.459273 0.032694
4969.5 4969.5 0.500000 3.526533 15.6329 0.459715 0.032217
4969.75 4969.75 0.500000 3.521426 15.6344 0.462112 0.032427
4970 4970 0.500000 3.516213 15.6407 0.464712 0.032334
4970.25 4970.25 0.500000 3.512675 15.65 0.466616 0.032505
4970.5 4970.5 0.500000 3.510300 15.6636 0.468145 0.032502
4970.75 4970.75 0.500000 3.509253 15.6718 0.468888 0.032438
4971 4971 0.500000 3.509213 15.6799 0.469147 0.032306
4971.25 4971.25 0.500000 3.511395 15.689 0.468393 0.031664
4971.5 4971.5 0.500000 3.516172 15.6961 0.466377 0.031369
4971.75 4971.75 0.500000 3.522506 15.6999 0.463519 0.030496
4972 4972 0.500000 3.528770 15.7033 0.460764 0.029785
4972.25 4972.25 0.500000 3.534602 15.7104 0.458291 0.029044
4972.5 4972.5 0.500000 3.537653 15.7131 0.456974 0.028427
4972.75 4972.75 0.500000 3.539914 15.7135 0.455938 0.027809
4973 4973 0.500000 3.540722 15.7163 0.455653 0.027239
4973.25 4973.25 0.500000 3.541567 15.721 0.455404 0.026435
4973.5 4973.5 0.500000 3.541150 15.7385 0.456104 0.026136
4973.75 4973.75 0.500000 3.540913 15.7638 0.456944 0.025861
4974 4974 0.500000 3.540648 15.766 0.457125 0.025198
4974.25 4974.25 0.500000 3.541449 15.7671 0.456797 0.024783
4974.5 4974.5 0.500000 3.542132 15.7717 0.456614 0.024304
4974.75 4974.75 0.500000 3.541842 15.7714 0.456738 0.023814
4975 4975 0.500000 3.540321 15.7725 0.457472 0.023698
4975.25 4975.25 0.500000 3.538704 15.7729 0.458221 0.023102
4975.5 4975.5 0.500000 3.535376 15.7723 0.459744 0.022656
4975.75 4975.75 0.500000 3.533424 15.7706 0.460573 0.022179
4976 4976 0.500000 3.531447 15.7699 0.461462 0.022036
4976.25 4976.25 0.500000 3.530174 15.7683 0.462006 0.021607
4976.5 4976.5 0.500000 3.529823 15.7692 0.462196 0.021441
4976.75 4976.75 0.500000 3.530959 15.7707 0.461713 0.021352
4977 4977 0.500000 3.533356 15.7712 0.460625 0.020663
4977.25 4977.25 0.500000 3.533804 15.7733 0.460484 0.020574
4977.5 4977.5 0.500000 3.536032 15.7761 0.459537 0.020247
4977.75 4977.75 0.500000 3.537892 15.7768 0.458714 0.019991
4978 4978 0.500000 3.541117 15.7801 0.457328 0.019945
4978.25 4978.25 0.500000 3.545557 15.7822 0.455359 0.019693
4978.5 4978.5 0.500000 3.550598 15.7855 0.453147 0.019499
4978.75 4978.75 0.500000 3.557884 15.8212 0.450870 0.018969
4979 4979 0.500000 3.566513 15.8183 0.446921 0.019023
4979.26 4979.25 0.500000 3.577514 15.8168 0.441964 0.018831
4979.5 4979.5 0.500000 3.590844 15.8161 0.436137 0.018458
4979.75 4979.75 0.500000 3.607113 15.8132 0.429051 0.018387
4980 4980 0.500000 3.627837 15.8089 0.420181 0.017789
4980.25 4980.25 0.500000 3.650177 15.8062 0.410734 0.017472
4980.5 4980.5 0.500000 3.675111 15.8039 0.400486 0.017113
4980.75 4980.75 0.500000 3.703296 15.8016 0.389353 0.016406
4981 4981 0.500000 3.735197 15.8002 0.377177 0.015937
4981.25 4981.25 0.500000 3.768972 15.7991 0.364693 0.015274
4981.5 4981.5 0.500000 3.805272 15.8014 0.351666 0.015066
4981.75 4981.75 0.500000 3.845428 15.8034 0.337907 0.014390
4982 4982 0.500000 3.884708 15.8051 0.324909 0.014229
4982.25 4982.25 0.500000 3.918896 15.8099 0.314015 0.013222
4982.51 4982.5 0.500000 3.942155 15.8104 0.306769 0.013061
4982.75 4982.75 0.500000 3.955248 15.8129 0.302879 0.012839
4983 4983 0.500000 3.957003 15.8128 0.302347 0.013012
4983.25 4983.25 0.500000 3.953937 15.8096 0.303212 0.012920
4983.5 4983.5 0.500000 3.947303 15.8091 0.305219 0.012943
4983.75 4983.75 0.500000 3.941331 15.8084 0.307019 0.013097
4984 4984 0.500000 3.936904 15.8048 0.308327 0.013262
4984.25 4984.25 0.500000 3.935624 15.8039 0.308705 0.013204
4984.5 4984.5 0.500000 3.935724 15.8043 0.308680 0.013347
4984.75 4984.75 0.500000 3.937931 15.8078 0.308073 0.013173
4985 4985 0.500000 3.939011 15.8068 0.307720 0.013423
4985.25 4985.25 0.500000 3.939984 15.8086 0.307459 0.013263
4985.5 4985.5 0.500000 3.938754 15.8093 0.307843 0.013404
4985.75 4985.75 0.500000 3.935064 15.8109 0.309015 0.013446
4986 4986 0.500000 3.929459 15.8102 0.310753 0.013680
4986.26 4986.25 0.500000 3.922483 15.8091 0.312922 0.014288
4986.5 4986.5 0.500000 3.917528 15.8064 0.314388 0.014112
4986.75 4986.75 0.500000 3.914132 15.8045 0.315423 0.013991
4987 4987 0.500000 3.912320 15.7994 0.315892 0.014080
4987.25 4987.25 0.500000 3.912886 15.7988 0.315705 0.014095
4987.5 4987.5 0.500000 3.915123 15.7985 0.314996 0.014003
4987.75 4987.75 0.500000 3.917641 15.7987 0.314201 0.013970
4988 4988 0.500000 3.921658 15.8019 0.312996 0.014218
4988.25 4988.25 0.500000 3.925311 15.8083 0.311992 0.013935
4988.5 4988.5 0.500000 3.928355 15.8173 0.311226 0.013813
4988.75 4988.75 0.500000 3.929419 15.8288 0.311118 0.013752
4989 4989 0.500000 3.929648 15.8409 0.311283 0.014060
4989.25 4989.25 0.500000 3.930681 15.8524 0.311190 0.013904
4989.5 4989.5 0.500000 3.930376 15.8673 0.311575 0.013833
4989.75 4989.75 0.500000 3.934783 15.8775 0.310400 0.013720
4990 4990 0.500000 3.937289 15.8899 0.309866 0.013773
4990.25 4990.25 0.500000 3.940819 15.902 0.309012 0.014140
4990.5 4990.5 0.500000 3.945973 15.9155 0.307672 0.013970
4990.75 4990.75 0.500000 3.951100 15.927 0.306333 0.013803
4991 4991 0.500000 3.954432 15.9378 0.305530 0.013818
4991.25 4991.25 0.500000 3.956712 15.9483 0.305032 0.013913
4991.5 4991.5 0.500000 3.957215 15.9577 0.305051 0.013770
4991.75 4991.75 0.500000 3.957387 15.9652 0.305145 0.013964
4992 4992 0.500000 3.956573 15.9726 0.305534 0.013674
4992.25 4992.25 0.500000 3.955570 15.9811 0.306001 0.014067
4992.5 4992.5 0.500000 3.956154 15.9874 0.305944 0.014021
4992.75 4992.75 0.500000 3.956967 15.9932 0.305808 0.013997
4993 4993 0.500000 3.959271 15.9979 0.305199 0.013830
4993.25 4993.25 0.500000 3.961356 16.0011 0.304618 0.014010
4993.5 4993.5 0.500000 3.963122 16.0074 0.304199 0.013992
4993.75 4993.75 0.500000 3.963178 16.0115 0.304263 0.013929
4994 4994 0.500000 3.962684 16.0156 0.304491 0.014112
4994.25 4994.25 0.500000 3.961339 16.0194 0.304969 0.013720
4994.5 4994.5 0.500000 3.958810 16.0261 0.305874 0.014018
4994.75 4994.75 0.500000 3.955687 16.0291 0.306876 0.013581
4995 4995 0.500000 3.951228 16.0326 0.308321 0.013905
4995.25 4995.25 0.500000 3.947785 16.0351 0.309433 0.013745
4995.5 4995.5 0.500000 3.944782 16.0353 0.310370 0.013775
4995.75 4995.75 0.500000 3.941455 16.0892 0.312456 0.013803
4996 4996 0.700000 3.939666 22.4499 0.436757 0.019390
4997.09 4997.08 0.710000 3.939812 22.7868 0.443247 0.019098
4998.19 4998.18 0.730000 3.928476 23.4828 0.461991 0.019333
4999.3 4999.29 0.740000 3.908504 23.8236 0.478176 0.019760
5000.44 5000.43 0.750000 3.888791 24.1822 0.495004 0.020473
5001.59 5001.58 0.760000 3.878812 24.5506 0.507591 0.020795
5002.77 5002.76 0.780000 3.875718 25.2484 0.523641 0.021936
5003.95 5003.95 0.790000 3.871228 25.627 0.533877 0.022339
5005.17 5005.16 0.800000 3.857182 26.0154 0.549637 0.023322
5006.4 5006.39 0.810000 3.841574 26.4082 0.566719 0.024338
5007.65 5007.64 0.830000 3.827946 27.1189 0.589943 0.025668
5008.92 5008.91 0.840000 3.817720 27.5031 0.604459 0.027255
5010.2 5010.2 0.850000 3.803833 27.8887 0.621505 0.028292
5011.52 5011.51 0.860000 3.792277 28.2715 0.637350 0.029260
5012.84 5012.83 0.880000 3.780051 28.981 0.661385 0.030588
5014.19 5014.18 0.890000 3.764518 29.3557 0.680440 0.031591
5015.55 5015.54 0.900000 3.752554 29.7298 0.697400 0.032540
5016.94 5016.93 0.910000 3.746593 30.1143 0.710631 0.033461
5018.34 5018.33 0.930000 3.742514 30.8356 0.730635 0.034821
5019.76 5019.75 0.940000 3.734354 31.292 0.747528 0.035660
5021.2 5021.19 0.950000 3.722883 31.6837 0.765604 0.036622
5022.66 5022.65 0.960000 3.713930 32.0748 0.782023 0.037663
5024.14 5024.13 0.980000 3.709402 32.8128 0.803665 0.038489
5025.63 5025.63 0.990000 3.706920 33.2065 0.815320 0.039032
5027.15 5027.14 1.000000 3.704734 33.602 0.826837 0.039551
5028.69 5028.68 1.010000 3.700929 34.0038 0.839919 0.039743
5030.25 5030.24 1.030000 3.695767 34.7402 0.862557 0.040587
5031.82 5031.81 1.040000 3.690867 35.1363 0.876682 0.040266
5033.41 5033.4 1.050000 3.686423 35.5393 0.890671 0.040211
5035.02 5035.01 1.060000 3.686239 35.9381 0.900816 0.039789
5036.65 5036.65 1.080000 3.691895 36.6861 0.914383 0.039865
5038.3 5038.3 1.090000 3.700332 37.093 0.916766 0.039833
5039.97 5039.97 1.100000 3.705589 37.5808 0.923954 0.040163
5041.65 5041.65 1.110000 3.706064 37.99 0.933572 0.040627
5043.35 5043.36 1.130000 3.703506 38.7383 0.954396 0.042179
5045.09 5045.09 1.140000 3.699554 39.1551 0.968486 0.043133
5046.83 5046.83 1.150000 3.697432 39.5575 0.980517 0.044424
5048.6 5048.6 1.160000 3.697872 39.9757 0.990445 0.046103
5050.38 5050.38 1.180000 3.700431 40.7478 1.006998 0.047924
5052.18 5052.18 1.190000 3.704717 41.1644 1.012935 0.049250
5054 5054 1.200000 3.709323 41.5878 1.018656 0.050073
5055.84 5055.84 1.210000 3.713276 42.0133 1.025021 0.051192
5057.7 5057.7 1.230000 3.713513 42.7925 1.043784 0.052382
5059.58 5059.58 1.240000 3.707251 43.2314 1.061122 0.053409
5061.48 5061.48 1.250000 3.692751 43.6636 1.087379 0.054479
5063.4 5063.4 1.260000 3.672800 44.0923 1.120174 0.056240
5065.33 5065.33 1.280000 3.652800 44.892 1.163531 0.058879
5067.28 5067.29 1.290000 3.637976 45.3345 1.192525 0.060793
5069.26 5069.26 1.300000 3.630558 45.776 1.213119 0.061851
5071.26 5071.26 1.310000 3.630091 46.2241 1.225576 0.063191
5073.27 5073.27 1.330000 3.635504 47.04 1.240478 0.063772
5075.3 5075.3 1.340000 3.640932 47.4816 1.245341 0.063819
5077.35 5077.35 1.350000 3.641618 47.9385 1.256469 0.063632
5079.42 5079.42 1.360000 3.636051 48.4011 1.275670 0.064196
5081.51 5081.51 1.380000 3.626256 49.221 1.310061 0.064756
5083.61 5083.61 1.390000 3.613765 49.6864 1.339043 0.065001
5085.74 5085.74 1.400000 3.600384 50.155 1.369897 0.065463
5087.89 5087.89 1.410000 3.589006 50.6253 1.398555 0.066054
5090.05 5090.05 1.430000 3.580405 51.4651 1.434030 0.067141
5092.23 5092.23 1.440000 3.574832 51.9494 1.455622 0.068223
5094.44 5094.44 1.450000 3.569764 52.4318 1.476599 0.070248
5096.66 5096.66 1.460000 3.562481 52.9092 1.500941 0.073240
5098.9 5098.9 1.480000 3.552524 53.7548 1.540185 0.077103
5101.16 5101.16 1.490000 3.540772 54.2324 1.572252 0.081162
5103.44 5103.44 1.500000 3.530405 54.7201 1.602920 0.084615
5105.74 5105.74 1.510000 3.521498 55.2073 1.631670 0.086838
5108.05 5108.05 1.530000 3.514758 56.0576 1.667999 0.089543
5110.39 5110.39 1.540000 3.510639 56.5432 1.689391 0.090485
5112.74 5112.74 1.550000 3.508587 57.0389 1.707701 0.091664
5115.12 5115.12 1.560000 3.507248 57.5266 1.724608 0.092778
5117.51 5117.51 1.580000 3.505661 58.5352 1.757632 0.094753
5119.92 5119.92 1.590000 3.504044 59.0444 1.775790 0.095918
5122.35 5122.35 1.600000 3.502984 59.5517 1.792948 0.097078
5124.8 5124.8 1.610000 3.503600 60.061 1.807167 0.098809
5127.27 5127.27 1.630000 3.505099 60.967 1.831686 0.101033
5129.76 5129.76 1.640000 3.503967 61.4932 1.849583 0.102120
5132.27 5132.27 1.650000 3.497786 62.0313 1.877329 0.103949
5134.79 5134.79 1.660000 3.488458 62.5688 1.911336 0.105410
5137.34 5137.34 1.680000 3.478959 63.4929 1.958087 0.107628
5139.9 5139.9 1.690000 3.468783 64.0549 1.995631 0.109191
5142.49 5142.49 1.700000 3.459385 64.6044 2.031750 0.110820
5145.09 5145.09 1.710000 3.450274 65.1451 2.067504 0.111570
5147.71 5147.71 1.730000 3.442484 66.0811 2.113598 0.113775
5150.35 5150.35 1.740000 3.435455 66.6659 2.147374 0.116081
5153.01 5153.01 1.750000 3.428354 67.3746 2.185657 0.118364
5155.69 5155.69 1.760000 3.419556 67.9495 2.223762 0.121910
5158.39 5158.39 1.780000 3.411242 68.9011 2.273748 0.126120
5161.11 5161.11 1.790000 3.405576 69.4729 2.305640 0.129395
5163.84 5163.84 1.800000 3.401683 70.0543 2.334013 0.131775
5166.6 5166.6 1.810000 3.397915 70.6237 2.361860 0.134764
5169.37 5169.37 1.830000 3.393648 71.6392 2.406062 0.139078
5172.17 5172.17 1.840000 3.389071 72.3213 2.440141 0.141989
5174.98 5174.98 1.850000 3.384997 72.8892 2.469327 0.145466
5177.81 5177.81 1.860000 3.380374 73.4588 2.500146 0.148646
5180.66 5180.66 1.880000 3.374095 74.4509 2.549893 0.152619
5183.53 5183.53 1.890000 3.364989 75.0497 2.593902 0.155960
5186.42 5186.42 1.900000 3.354348 75.6528 2.642709 0.159244
5189.32 5189.32 1.910000 3.344233 76.2499 2.690676 0.162525
5192.25 5192.25 1.930000 3.336031 77.2386 2.747991 0.166041
5195.2 5195.2 1.940000 3.328171 77.8174 2.790423 0.168836
5198.16 5198.16 1.950000 3.319034 78.3751 2.836220 0.171963
5201.14 5201.14 1.960000 3.309623 78.9945 2.885663 0.175146
5204.15 5204.15 1.980000 3.300886 80.0296 2.949141 0.179231
5207.17 5207.17 1.990000 3.292854 80.6388 2.995534 0.181977
5210.21 5210.21 2.000000 3.284887 81.2593 3.042743 0.184902
5213.27 5213.27 2.010000 3.277704 81.8808 3.088116 0.188380
5216.35 5216.35 2.030000 3.271878 82.9214 3.145637 0.192219
5219.45 5219.45 2.040000 3.266303 83.5595 3.187564 0.196153
5222.56 5222.56 2.050000 3.260726 84.1977 3.229866 0.199981
5225.7 5225.7 2.060000 3.256647 84.8352 3.267631 0.203117
5228.85 5228.85 2.080000 3.254158 85.8766 3.315991 0.207259
5232.03 5232.03 2.090000 3.251028 86.5196 3.351288 0.210734
5235.22 5235.22 2.100000 3.245418 87.2072 3.396940 0.214950
5238.43 5238.43 2.110000 3.237808 87.8757 3.449112 0.219966
5241.66 5241.66 2.130000 3.228964 88.9367 3.521770 0.226238
5244.92 5244.92 2.140000 3.220299 89.5571 3.577199 0.231821
5248.18 5248.18 2.150000 3.215403 89.6861 3.599948 0.234714
5251.47 5251.47 2.160000 3.205985 90.5741 3.669971 0.241300
5254.78 5254.78 2.180000 3.196508 92.0269 3.764360 0.249306
5258.11 5258.11 2.190000 3.189127 92.8367 3.825606 0.254705
5261.45 5261.45 2.200000 3.182070 93.6154 3.885025 0.260352
5264.82 5264.82 2.210000 3.174280 94.5535 3.954626 0.266177
5268.2 5268.2 2.230000 3.167038 95.7515 4.033849 0.271933
5271.6 5271.6 2.240000 3.159854 96.5002 4.094704 0.277045
5275.03 5275.03 2.250000 3.152899 97.3669 4.160316 0.281853
5278.47 5278.47 2.260000 3.145640 97.1673 4.182021 0.284444
5281.93 5281.93 2.280000 3.138088 99.1773 4.300906 0.293192
5285.4 5285.4 2.290000 3.130726 100.039 4.370339 0.298986
5288.9 5288.9 2.300000 3.123424 100.844 4.437782 0.304716
5292.42 5292.42 2.310000 3.116193 101.616 4.504178 0.310656
5295.96 5295.96 2.330000 3.109159 102.912 4.593835 0.318433
5299.51 5299.51 2.340000 3.101905 103.664 4.661115 0.324952
5303.09 5303.09 2.350000 3.094393 104.572 4.737364 0.331963
5306.68 5306.68 2.360000 3.086910 105.371 4.809423 0.339439
5310.29 5310.29 2.380000 3.078851 106.658 4.907575 0.347388
5313.92 5313.92 2.390000 3.070943 107.611 4.990692 0.355114
5317.57 5317.57 2.400000 3.062886 108.436 5.069645 0.362843
5321.24 5321.24 2.410000 3.054580 109.015 5.139216 0.369798
5324.93 5324.93 2.430000 3.046076 110.083 5.233906 0.378723
5328.64 5328.64 2.440000 3.037804 110.65 5.304551 0.386510
5332.36 5332.36 2.450000 3.029929 111.359 5.380764 0.394167
5336.11 5336.11 2.460000 3.021870 112.138 5.462257 0.403162
5339.87 5339.87 2.480000 3.014597 113.388 5.563419 0.413127
5343.66 5343.66 2.490000 3.007695 114.015 5.632956 0.421650
5347.46 5347.46 2.500000 3.000524 114.609 5.703064 0.429523
5351.28 5351.28 2.510000 2.993540 115.062 5.765716 0.436202
5355.12 5355.12 2.530000 2.985548 115.687 5.843610 0.444674
5358.98 5358.98 2.540000 2.978032 117.164 5.962820 0.455471
5362.86 5362.86 2.550000 2.969864 117.85 6.046899 0.463804
5366.76 5366.76 2.560000 2.962074 118.338 6.119460 0.471324
5370.68 5370.68 2.580000 2.954769 119.292 6.214038 0.480017
5374.61 5374.61 2.590000 2.947617 119.735 6.281841 0.487297
5378.57 5378.57 2.600000 2.939924 120.232 6.356652 0.495661
5382.54 5382.54 2.610000 2.931841 120.691 6.432666 0.504199
5386.54 5386.54 2.630000 2.923705 121.631 6.535778 0.515268
5390.55 5390.55 2.640000 2.915776 122.028 6.609257 0.523907
5394.58 5394.58 2.650000 2.908289 122.545 6.687176 0.533694
5398.63 5398.63 2.660000 2.900984 122.662 6.742591 0.540867
5402.7 5402.7 2.680000 2.893926 123.585 6.841490 0.551925
5406.79 5406.79 2.690000 2.886983 123.82 6.902209 0.559574
5410.9 5410.9 2.700000 2.879631 124.3 6.980109 0.569658
5415.02 5415.02 2.710000 2.871607 124.666 7.057086 0.579131
5419.17 5419.17 2.730000 2.863443 124.972 7.132386 0.589041
5423.33 5423.33 2.740000 2.855452 125.499 7.219918 0.600023
5427.52 5427.52 2.750000 2.847209 125.812 7.297827 0.609954
5431.72 5431.72 2.760000 2.839172 126.138 7.375796 0.620382
5435.94 5435.94 2.780000 2.830903 126.891 7.481417 0.632946
5440.18 5440.18 2.790000 2.822413 127.172 7.561972 0.643647
5444.44 5444.44 2.800000 2.814359 127.584 7.647744 0.654396
5448.72 5448.72 2.810000 2.806663 128.242 7.746574 0.666201
5453.02 5453.02 2.830000 2.799040 129.211 7.864904 0.680204
5457.34 5457.34 2.840000 2.791592 129.673 7.952052 0.691693
5461.67 5461.67 2.850000 2.783755 130.209 8.047713 0.703030
5466.03 5466.03 2.860000 2.775853 130.889 8.153909 0.715806
5470.4 5470.4 2.880000 2.768030 132.078 8.292590 0.731855
5474.8 5474.8 2.890000 2.760099 132.667 8.395944 0.745413
5479.21 5479.21 2.900000 2.752383 133.293 8.500884 0.758623
5483.64 5483.64 2.910000 2.744760 133.913 8.605753 0.771860
5488.09 5488.09 2.930000 2.737287 135.017 8.741776 0.788128
5492.56 5492.56 2.940000 2.729928 135.8 8.857414 0.803755
5497.05 5497.05 2.950000 2.722037 136.475 8.971939 0.818410
5501.56 5501.56 2.960000 2.714075 137.206 9.092126 0.833972
5506.08 5506.08 2.980000 2.706014 138.396 9.245192 0.852230
5510.63 5510.63 2.990000 2.697650 139.122 9.371765 0.868624
5515.19 5515.19 3.000000 2.689450 139.972 9.506677 0.886335
5519.78 5519.78 3.010000 2.681190 140.807 9.642658 0.904236
5524.38 5524.38 3.030000 2.673066 142.04 9.806392 0.924810
5529 5529 3.040000 2.664863 142.903 9.947335 0.942854
5533.64 5533.64 3.050000 2.656991 143.77 10.0868 0.962249
5538.3 5538.3 3.060000 2.649034 144.613 10.227 0.980680
5542.98 5542.98 3.080000 2.641274 145.893 10.3979 1.002927
5547.68 5547.68 3.090000 2.633463 146.774 10.5427 1.022744
5552.4 5552.4 3.100000 2.625699 147.62 10.6861 1.042135
5557.13 5557.13 3.110000 2.618233 148.457 10.8272 1.061513
5561.89 5561.89 3.130000 2.610684 150.116 11.0312 1.087978
5566.66 5566.66 3.140000 2.603147 151.022 11.1817 1.108909
5571.46 5571.46 3.150000 2.595379 151.877 11.3327 1.129924
5576.27 5576.27 3.160000 2.587307 152.758 11.4908 1.151770
5581.1 5581.1 3.180000 2.579156 154.127 11.6887 1.178704
5585.95 5585.95 3.190000 2.571041 155.02 11.8522 1.201960
5590.82 5590.82 3.200000 2.562790 155.833 12.0131 1.224082
5595.71 5595.71 3.210000 2.554583 156.884 12.1937 1.249749
5600.62 5600.62 3.230000 2.546200 158.345 12.4109 1.279758
5605.54 5605.54 3.240000 2.537952 159.195 12.5809 1.304290
5610.49 5610.49 3.250000 2.529680 159.969 12.7471 1.328729
5615.45 5615.45 3.260000 2.521407 160.746 12.9154 1.353444
5620.44 5620.44 3.280000 2.513134 161.997 13.124 1.383811
5625.44 5625.44 3.290000 2.508185 162.345 13.2174 1.402139
5630.46 5630.46 3.300000 2.497893 163.007 13.4086 1.430460
5635.5 5635.5 3.310000 2.489526 163.359 13.5505 1.453971
5640.56 5640.56 3.330000 2.481207 164.798 13.784 1.487386
5645.64 5645.64 3.340000 2.473725 165.44 13.9417 1.513403
5650.74 5650.74 3.350000 2.465726 165.947 14.0967 1.538754
5655.86 5655.86 3.360000 2.457765 166.72 14.2756 1.567943
5660.99 5660.99 3.380000 2.449374 168.097 14.5148 1.603275
5666.15 5666.15 3.390000 2.441083 169.028 14.7166 1.634489
5671.32 5671.32 3.400000 2.432818 170.096 14.9326 1.667734
5676.52 5676.52 3.410000 2.424625 171.255 15.158 1.702343
5681.73 5681.73 3.430000 2.416256 172.616 15.4069 1.740492
5686.96 5686.96 3.440000 2.408074 173.534 15.6161 1.774144
5692.21 5692.21 3.450000 2.399831 174.299 15.8147 1.806943
5697.48 5697.48 3.460000 2.391432 175.087 16.0203 1.841292
5702.77 5702.77 3.480000 2.382845 176.389 16.2786 1.881477
5708.08 5708.08 3.490000 2.374361 177.131 16.4863 1.916910