File: xdidata/Ti/Ti-K-Ni2TiO4.xdi
# XDI/1.0 BlueSky/1.5.0
# Beamline.name: 6BM
# Beamline.xray_source: NSLS-II three-pole wiggler
# Beamline.collimation: paraboloid mirror, 5 nm Rh on 30 nm Pt
# Beamline.focusing: not in use
# Beamline.harmonic_rejection: flat mirror, Si stripe, pitch = 7.0 mrad relative to beam
# Detector.i0: 10 cm N2
# Detector.i1: 25 cm N2
# Detector.i2: 25 cm N2
# Element.symbol: Ti
# Element.edge: K
# Facility.name: NSLS-II
# Facility.energy: 3.0
# Facility.current: 220.5
# Facility.mode: top-off
# Facility.gup: 301027
# Facility.saf: 304156
# Mono.name: Si(111)
# Mono.d_spacing: 3.13526
# Mono.encoder_resolution: 0.0000050 deg/ct
# Mono.angle_offset: 16.0571 deg
# Mono.scan_mode: pseudo channel cut
# Mono.scan_type: step
# Mono.direction: forward in energy
# Sample.name: Ni2TiO4
# Sample.prep: Powder in polyethylene glycol pellet
# Sample.x_position: -97.532 mm
# Sample.y_position: 117.543 mm
# Sample.wheel_position: -675.000 mm
# Scan.experimenters: Bruce Ravel, Martin Stennett
# Scan.edge_energy: 4966.0
# Scan.start_time: 2019-05-30T07:18:31
# Scan.end_time: 2019-05-30T08:01:24
# Scan.transient_id: 9803
# Scan.uid: ed959132-a19c-4420-bc6c-9cf9bcbae12f
# Scan.plot_hint: ln(I0/It)  --  ln($5/$6)
# Scan.sequence: merge of 3 scans
# Column.1: energy eV
# Column.2: requested_energy eV
# Column.3: measurement_time seconds
# Column.4: mutrans
# Column.5: i0
# Column.6: itrans
# Column.7: irefer
# /////
#  sample disk prepared by Martin
# -----
# energy   requested_energy   measurement_time   mutrans   i0   itrans   irefer
4766 4766 0.500000 3.925763 10.9726 0.216501 0.018205
4776.01 4776 0.500000 3.913665 11.1695 0.223024 0.018658
4786.01 4786 0.500000 3.886361 11.3897 0.233715 0.019704
4796.01 4796 0.500000 3.858393 11.6032 0.244851 0.021014
4806.01 4806 0.500000 3.831603 11.8392 0.256613 0.022217
4816.01 4816 0.500000 3.804723 12.0508 0.268317 0.023233
4826.01 4826 0.500000 3.777993 12.262 0.280415 0.024780
4836 4836 0.500000 3.752164 12.4797 0.292857 0.026071
4846 4846 0.500000 3.725390 12.6997 0.306107 0.027598
4856 4856 0.500000 3.699020 12.9158 0.319632 0.029194
4866 4866 0.500000 3.673789 13.1315 0.333276 0.030721
4876.01 4876 0.500000 3.647943 13.3483 0.347652 0.032536
4886.01 4886 0.500000 3.622317 13.5617 0.362379 0.034146
4896.01 4896 0.500000 3.597744 13.7647 0.376952 0.036044
4906 4906 0.500000 3.572870 13.961 0.391956 0.037741
4916 4916 0.500000 3.547484 14.1499 0.407473 0.040065
4926 4926 0.500000 3.524303 14.3419 0.422688 0.041536
4936 4936 0.500000 3.500368 14.5341 0.438730 0.043854
4938 4938 0.500000 3.494908 14.5709 0.442251 0.044236
4940 4940 0.500000 3.490605 14.6086 0.445304 0.044920
4942 4942 0.500000 3.485955 14.6428 0.448427 0.045333
4944.01 4944 0.500000 3.481438 14.6762 0.451488 0.045260
4946 4946 0.500000 3.476734 14.7065 0.454551 0.046111
4948 4948 0.500000 3.472076 14.7398 0.457711 0.046334
4950 4950 0.500000 3.467639 14.7768 0.460898 0.046871
4952 4952 0.500000 3.462866 14.8133 0.464247 0.047371
4954 4954 0.500000 3.458656 14.8418 0.467102 0.047541
4956 4956 0.500000 3.454014 14.8682 0.470109 0.047850
4956.25 4956.25 0.500000 3.453615 14.8709 0.470384 0.048134
4956.49 4956.5 0.500000 3.452776 14.8734 0.470854 0.048090
4956.75 4956.75 0.500000 3.452820 14.8757 0.470910 0.047858
4957 4957 0.500000 3.452134 14.8766 0.471261 0.047819
4957.25 4957.25 0.500000 3.451217 14.8809 0.471828 0.048297
4957.49 4957.5 0.500000 3.450806 14.8843 0.472130 0.047977
4957.75 4957.75 0.500000 3.450566 14.8892 0.472402 0.048131
4958 4958 0.500000 3.449917 14.8897 0.472724 0.048096
4958.24 4958.25 0.500000 3.449537 14.8935 0.473021 0.048392
4958.49 4958.5 0.500000 3.448802 14.8971 0.473484 0.048324
4958.74 4958.75 0.500000 3.448443 14.8993 0.473725 0.048262
4959 4959 0.500000 3.448039 14.9002 0.473945 0.048105
4959.25 4959.25 0.500000 3.447982 14.9101 0.474290 0.048376
4959.5 4959.5 0.500000 3.447542 14.9098 0.474488 0.048277
4959.75 4959.75 0.500000 3.446978 14.9155 0.474936 0.048106
4960 4960 0.500000 3.446530 14.9178 0.475221 0.048370
4960.25 4960.25 0.500000 3.445712 14.9251 0.475842 0.048277
4960.49 4960.5 0.500000 3.445364 14.9271 0.476067 0.048400
4960.75 4960.75 0.500000 3.445089 14.9327 0.476381 0.048237
4960.99 4961 0.500000 3.444563 14.9322 0.476611 0.048624
4961.25 4961.25 0.500000 3.444269 14.9373 0.476918 0.048287
4961.5 4961.5 0.500000 3.444193 14.9386 0.477001 0.047983
4961.75 4961.75 0.500000 3.443358 14.9447 0.477592 0.048079
4962 4962 0.500000 3.443119 14.9475 0.477794 0.048286
4962.25 4962.25 0.500000 3.442571 14.9551 0.478298 0.048174
4962.49 4962.5 0.500000 3.442319 14.9595 0.478561 0.048149
4962.75 4962.75 0.500000 3.442401 14.9631 0.478637 0.047883
4963 4963 0.500000 3.442148 14.9699 0.478974 0.047722
4963.25 4963.25 0.500000 3.442312 14.9708 0.478926 0.047620
4963.5 4963.5 0.500000 3.442081 14.9754 0.479182 0.046982
4963.75 4963.75 0.500000 3.442142 14.9796 0.479290 0.046570
4964 4964 0.500000 3.442139 14.9885 0.479576 0.045771
4964.25 4964.25 0.500000 3.442307 14.9941 0.479675 0.044555
4964.49 4964.5 0.500000 3.442206 14.9958 0.479780 0.042437
4964.75 4964.75 0.500000 3.443433 14.9963 0.479205 0.039137
4964.99 4965 0.500000 3.443373 15.0012 0.479390 0.036389
4965.25 4965.25 0.500000 3.445306 15.0059 0.478608 0.033818
4965.5 4965.5 0.500000 3.447085 15.0077 0.477817 0.033075
4965.75 4965.75 0.500000 3.449463 15.0126 0.476846 0.033140
4966 4966 0.500000 3.453404 15.0192 0.475174 0.033972
4966.25 4966.25 0.500000 3.459040 15.0228 0.472645 0.035205
4966.5 4966.5 0.500000 3.468090 15.0275 0.468527 0.035836
4966.75 4966.75 0.500000 3.481461 15.0301 0.462377 0.036095
4967 4967 0.500000 3.501113 15.0306 0.453417 0.035959
4967.25 4967.25 0.500000 3.532113 15.067 0.440390 0.035113
4967.5 4967.5 0.500000 3.578532 15.071 0.420496 0.033543
4967.75 4967.75 0.500000 3.652716 15.078 0.390631 0.030854
4968 4968 0.500000 3.735536 15.0838 0.359897 0.028097
4968.25 4968.25 0.500000 3.777698 15.09 0.345254 0.026665
4968.5 4968.5 0.500000 3.749781 15.0933 0.355007 0.026871
4968.75 4968.75 0.500000 3.673934 15.0941 0.382844 0.028221
4969 4969 0.500000 3.598737 15.099 0.413079 0.030166
4969.25 4969.25 0.500000 3.549792 15.0993 0.433755 0.030963
4969.5 4969.5 0.500000 3.519665 15.0987 0.447126 0.031501
4969.75 4969.75 0.500000 3.501818 15.0996 0.455129 0.032149
4970 4970 0.500000 3.491099 15.1067 0.460239 0.032154
4970.25 4970.25 0.500000 3.484377 15.1148 0.463580 0.032491
4970.5 4970.5 0.500000 3.481226 15.1233 0.465335 0.032129
4970.75 4970.75 0.500000 3.478970 15.1338 0.466712 0.032061
4971 4971 0.500000 3.477072 15.1455 0.467971 0.031888
4971.25 4971.25 0.500000 3.474840 15.1545 0.469291 0.031914
4971.5 4971.5 0.500000 3.473814 15.1606 0.469965 0.031515
4971.75 4971.75 0.500000 3.471960 15.165 0.470959 0.031287
4972 4972 0.500000 3.470434 15.1703 0.471852 0.030485
4972.25 4972.25 0.500000 3.469105 15.1729 0.472554 0.029911
4972.5 4972.5 0.500000 3.468818 15.1789 0.472882 0.029253
4972.75 4972.75 0.500000 3.468742 15.1818 0.473004 0.028986
4973 4973 0.500000 3.471236 15.204 0.472506 0.028083
4973.25 4973.25 0.500000 3.474087 15.2223 0.471735 0.027638
4973.5 4973.5 0.500000 3.478572 15.2281 0.469823 0.026906
4973.75 4973.75 0.500000 3.485352 15.2325 0.466805 0.026072
4974 4974 0.500000 3.492873 15.2352 0.463370 0.025555
4974.25 4974.25 0.500000 3.501982 15.2363 0.459207 0.024732
4974.5 4974.5 0.500000 3.512343 15.2377 0.454483 0.024174
4974.75 4974.75 0.500000 3.523221 15.245 0.449744 0.023457
4975 4975 0.500000 3.534558 15.2439 0.444672 0.022906
4975.25 4975.25 0.500000 3.545399 15.2453 0.439900 0.022475
4975.5 4975.5 0.500000 3.556745 15.2494 0.435103 0.021564
4975.75 4975.75 0.500000 3.565637 15.2475 0.431214 0.021048
4976 4976 0.500000 3.573470 15.2454 0.427795 0.020484
4976.25 4976.25 0.500000 3.579676 15.2459 0.425118 0.020158
4976.5 4976.5 0.500000 3.583765 15.2489 0.423470 0.019885
4976.75 4976.75 0.500000 3.585354 15.2503 0.422844 0.019303
4977 4977 0.500000 3.586246 15.2841 0.423402 0.019247
4977.25 4977.25 0.500000 3.584459 15.2862 0.424219 0.019122
4977.5 4977.5 0.500000 3.583309 15.2889 0.424778 0.018818
4977.75 4977.75 0.500000 3.583085 15.2943 0.425026 0.018531
4978 4978 0.500000 3.585331 15.2948 0.424083 0.018183
4978.25 4978.25 0.500000 3.587470 15.3012 0.423355 0.018117
4978.5 4978.5 0.500000 3.590982 15.3003 0.421830 0.018076
4978.75 4978.75 0.500000 3.595937 15.3067 0.419938 0.017935
4979 4979 0.500000 3.599981 15.3055 0.418214 0.017680
4979.25 4979.25 0.500000 3.603919 15.3037 0.416524 0.017790
4979.5 4979.5 0.500000 3.608581 15.3039 0.414590 0.017405
4979.75 4979.75 0.500000 3.614409 15.3016 0.412124 0.017274
4980 4980 0.500000 3.621619 15.2977 0.409045 0.016958
4980.25 4980.25 0.500000 3.630114 15.2999 0.405618 0.016926
4980.5 4980.5 0.500000 3.638036 15.2987 0.402380 0.016788
4980.75 4980.75 0.500000 3.646674 15.2936 0.398832 0.016670
4981 4981 0.500000 3.653109 15.2932 0.396268 0.016298
4981.25 4981.25 0.500000 3.656956 15.2901 0.394659 0.016180
4981.5 4981.5 0.500000 3.658731 15.2919 0.394003 0.016251
4981.75 4981.75 0.500000 3.657937 15.298 0.394471 0.016312
4982 4982 0.500000 3.656959 15.3007 0.394933 0.016141
4982.25 4982.25 0.500000 3.653474 15.3018 0.396338 0.016201
4982.5 4982.5 0.500000 3.651148 15.3045 0.397330 0.016253
4982.75 4982.75 0.500000 3.650111 15.3094 0.397858 0.016254
4983 4983 0.500000 3.653211 15.3114 0.396694 0.016117
4983.25 4983.25 0.500000 3.658602 15.3091 0.394506 0.015985
4983.5 4983.5 0.500000 3.668660 15.312 0.390597 0.015844
4983.75 4983.75 0.500000 3.682297 15.3092 0.385215 0.016046
4984 4984 0.500000 3.699625 15.3107 0.378677 0.015502
4984.25 4984.25 0.500000 3.717589 15.3093 0.371893 0.015443
4984.5 4984.5 0.500000 3.736320 15.3112 0.365021 0.015091
4984.75 4984.75 0.500000 3.753153 15.3127 0.359068 0.014925
4985 4985 0.500000 3.770299 15.3158 0.353011 0.014525
4985.25 4985.25 0.500000 3.786527 15.3157 0.347317 0.014673
4985.5 4985.5 0.500000 3.804073 15.3167 0.341254 0.014509
4985.75 4985.75 0.500000 3.821251 15.3191 0.335468 0.014316
4986 4986 0.500000 3.839983 15.3168 0.329183 0.014026
4986.25 4986.25 0.500000 3.857280 15.3169 0.323569 0.014078
4986.5 4986.5 0.500000 3.872386 15.3175 0.318722 0.013832
4986.75 4986.75 0.500000 3.884332 15.3163 0.314980 0.013586
4987 4987 0.500000 3.893393 15.3139 0.312063 0.013896
4987.25 4987.25 0.500000 3.899404 15.3105 0.310103 0.013613
4987.51 4987.5 0.500000 3.901556 15.311 0.309443 0.013713
4987.75 4987.75 0.500000 3.901415 15.3099 0.309468 0.013879
4988 4988 0.500000 3.899228 15.3142 0.310232 0.013628
4988.25 4988.25 0.500000 3.893459 15.3198 0.312137 0.013672
4988.5 4988.5 0.500000 3.884399 15.329 0.315159 0.013861
4988.75 4988.75 0.500000 3.874395 15.3391 0.318511 0.014057
4989 4989 0.500000 3.863133 15.3529 0.322456 0.013888
4989.25 4989.25 0.500000 3.852627 15.364 0.326080 0.014150
4989.5 4989.5 0.500000 3.842141 15.3755 0.329790 0.014746
4989.75 4989.75 0.500000 3.834240 15.3914 0.332724 0.014723
4990 4990 0.500000 3.827368 15.4063 0.335366 0.014912
4990.25 4990.25 0.500000 3.821696 15.4153 0.337450 0.014817
4990.5 4990.5 0.500000 3.815224 15.4268 0.339872 0.014692
4990.75 4990.75 0.500000 3.811141 15.4368 0.341499 0.014778
4991 4991 0.500000 3.805153 15.45 0.343852 0.015013
4991.25 4991.25 0.500000 3.800539 15.4617 0.345717 0.015126
4991.5 4991.5 0.500000 3.796035 15.4738 0.347538 0.015378
4991.75 4991.75 0.500000 3.793045 15.4821 0.348766 0.015401
4992 4992 0.500000 3.790582 15.4892 0.349777 0.015248
4992.25 4992.25 0.500000 3.788296 15.4965 0.350741 0.015560
4992.5 4992.5 0.500000 3.788316 15.504 0.350912 0.015419
4992.75 4992.75 0.500000 3.787422 15.5115 0.351394 0.015599
4993 4993 0.500000 3.788768 15.5168 0.351043 0.015210
4993.25 4993.25 0.500000 3.789352 15.5222 0.350963 0.015542
4993.5 4993.5 0.500000 3.789026 15.5293 0.351233 0.015383
4993.75 4993.75 0.500000 3.789350 15.5352 0.351256 0.015474
4994 4994 0.500000 3.788710 15.5389 0.351575 0.015428
4994.25 4994.25 0.500000 3.785950 15.5423 0.352591 0.015564
4994.5 4994.5 0.500000 3.784642 15.5469 0.353177 0.015650
4994.75 4994.75 0.500000 3.782154 15.5504 0.354135 0.015240
4995 4995 0.500000 3.778187 15.5564 0.355686 0.015500
4995.25 4995.25 0.500000 3.775057 15.5591 0.356863 0.015401
4995.5 4995.5 0.500000 3.771561 15.5606 0.358139 0.015435
4995.75 4995.75 0.500000 3.767480 15.5818 0.360102 0.015554
4995.99 4996 0.700000 3.765711 21.6776 0.501845 0.021199
4997.09 4997.08 0.710000 3.762479 22.1516 0.514495 0.021401
4998.19 4998.18 0.730000 3.775024 22.7797 0.522511 0.021487
4999.3 4999.29 0.740000 3.792777 23.1025 0.520557 0.020915
5000.44 5000.43 0.750000 3.804029 23.4534 0.522563 0.020957
5001.59 5001.58 0.760000 3.803800 23.8113 0.530657 0.021471
5002.77 5002.76 0.780000 3.792591 24.49 0.551937 0.022446
5003.96 5003.95 0.790000 3.781786 24.8656 0.566489 0.022897
5005.16 5005.16 0.800000 3.779484 25.2431 0.576409 0.023800
5006.4 5006.39 0.810000 3.784425 25.6246 0.582238 0.024909
5007.65 5007.64 0.830000 3.789653 26.32 0.594924 0.025557
5008.91 5008.91 0.840000 3.787037 26.6971 0.605024 0.026774
5010.21 5010.2 0.850000 3.782137 27.0724 0.616549 0.027795
5011.52 5011.51 0.860000 3.777358 27.4463 0.628070 0.028292
5012.84 5012.83 0.880000 3.759684 28.1354 0.655300 0.029868
5014.19 5014.18 0.890000 3.734842 28.5052 0.680621 0.031175
5015.55 5015.54 0.900000 3.710339 28.8942 0.707037 0.032269
5016.94 5016.93 0.910000 3.690833 29.3236 0.731657 0.033832
5018.33 5018.33 0.930000 3.677916 30.0258 0.758910 0.035562
5019.76 5019.75 0.940000 3.670418 30.4129 0.774492 0.036342
5021.2 5021.19 0.950000 3.664371 30.803 0.789195 0.037398
5022.65 5022.65 0.960000 3.658438 31.1926 0.803922 0.038138
5024.13 5024.13 0.980000 3.650499 31.9131 0.829032 0.039422
5025.64 5025.63 0.990000 3.640048 32.3072 0.848104 0.040011
5027.15 5027.14 1.000000 3.629321 32.7007 0.867696 0.040854
5028.69 5028.68 1.010000 3.619830 33.1036 0.886758 0.041527
5030.24 5030.24 1.030000 3.612752 33.8231 0.912457 0.041873
5031.81 5031.81 1.040000 3.606995 34.3037 0.930767 0.042245
5033.4 5033.4 1.050000 3.606601 34.7065 0.942070 0.041802
5035.02 5035.01 1.060000 3.610474 35.1077 0.949273 0.041443
5036.66 5036.65 1.080000 3.614218 35.8449 0.965589 0.041427
5038.3 5038.3 1.090000 3.614622 36.2579 0.976321 0.041500
5039.98 5039.97 1.100000 3.613692 36.667 0.988255 0.041960
5041.65 5041.65 1.110000 3.613674 37.0783 0.999356 0.042685
5043.36 5043.36 1.130000 3.614947 37.826 1.018213 0.043822
5045.09 5045.09 1.140000 3.619720 38.2481 1.024679 0.044962
5046.82 5046.83 1.150000 3.626781 38.6651 1.028553 0.045897
5048.6 5048.6 1.160000 3.630557 39.0849 1.035808 0.047052
5050.38 5050.38 1.180000 3.627931 39.8553 1.059001 0.048777
5052.18 5052.18 1.190000 3.621381 40.2835 1.077400 0.051047
5054 5054 1.200000 3.614765 40.7173 1.096240 0.052501
5055.83 5055.84 1.210000 3.608989 41.1563 1.114470 0.054301
5057.69 5057.7 1.230000 3.601309 41.9362 1.144356 0.055886
5059.57 5059.58 1.240000 3.592310 42.3745 1.166749 0.057049
5061.48 5061.48 1.250000 3.582575 42.8186 1.190539 0.058563
5063.39 5063.4 1.260000 3.573445 43.2613 1.213846 0.060121
5065.33 5065.33 1.280000 3.565957 44.0675 1.245786 0.061951
5067.29 5067.29 1.290000 3.560961 44.5206 1.264898 0.063619
5069.26 5069.26 1.300000 3.559881 44.976 1.279213 0.064646
5071.26 5071.26 1.310000 3.562028 45.4369 1.289551 0.065346
5073.27 5073.27 1.330000 3.567259 46.2464 1.305678 0.066420
5075.3 5075.3 1.340000 3.572976 46.7087 1.311212 0.066333
5077.35 5077.35 1.350000 3.575931 47.1804 1.320550 0.066203
5079.42 5079.42 1.360000 3.574913 47.6498 1.335044 0.066034
5081.51 5081.51 1.380000 3.571559 48.4734 1.362687 0.066406
5083.61 5083.61 1.390000 3.566156 48.9496 1.383526 0.066490
5085.74 5085.74 1.400000 3.557887 49.4326 1.408781 0.066682
5087.89 5087.89 1.410000 3.550574 49.9147 1.432962 0.066641
5090.05 5090.05 1.430000 3.542537 50.7556 1.468868 0.067964
5092.23 5092.23 1.440000 3.533724 51.257 1.496502 0.069347
5094.44 5094.44 1.450000 3.524666 51.7623 1.525017 0.071767
5096.66 5096.66 1.460000 3.513296 52.2519 1.557021 0.074944
5098.9 5098.9 1.480000 3.499485 53.1167 1.604848 0.079541
5101.16 5101.16 1.490000 3.484565 53.6151 1.644239 0.083325
5103.44 5103.44 1.500000 3.471828 54.1313 1.681329 0.087510
5105.74 5105.74 1.510000 3.462311 54.6519 1.713735 0.090116
5108.05 5108.05 1.530000 3.454624 55.5308 1.754717 0.092532
5110.39 5110.39 1.540000 3.447518 56.0495 1.783742 0.094661
5112.74 5112.74 1.550000 3.441693 56.5789 1.811121 0.095857
5115.12 5115.12 1.560000 3.438037 57.266 1.839824 0.097492
5117.51 5117.51 1.580000 3.435563 58.1634 1.873286 0.099606
5119.92 5119.92 1.590000 3.435142 58.7028 1.891451 0.100833
5122.35 5122.35 1.600000 3.436000 59.2401 1.907131 0.101974
5124.8 5124.8 1.610000 3.435410 59.7732 1.925425 0.103501
5127.27 5127.27 1.630000 3.431205 60.6846 1.963015 0.106570
5129.76 5129.76 1.640000 3.425758 61.2413 1.991855 0.108148
5132.27 5132.27 1.650000 3.421879 61.7916 2.017559 0.109937
5134.79 5134.79 1.660000 3.420378 62.3489 2.038815 0.111247
5137.34 5137.34 1.680000 3.416908 63.2892 2.076753 0.113097
5139.9 5139.9 1.690000 3.410292 63.8815 2.110100 0.114225
5142.49 5142.49 1.700000 3.401651 64.458 2.147633 0.115732
5145.09 5145.09 1.710000 3.392234 65.0308 2.187225 0.117126
5147.71 5147.71 1.730000 3.382471 66.0728 2.244056 0.119476
5150.35 5150.35 1.740000 3.374134 66.7319 2.285413 0.122123
5153.01 5153.01 1.750000 3.367651 67.3192 2.320525 0.124346
5155.69 5155.69 1.760000 3.361489 67.917 2.355614 0.127648
5158.39 5158.39 1.780000 3.355205 68.8896 2.404395 0.131956
5161.11 5161.11 1.790000 3.350144 69.4717 2.437012 0.134907
5163.84 5163.84 1.800000 3.345309 70.0765 2.470156 0.137914
5166.6 5166.6 1.810000 3.338832 70.8388 2.513248 0.141530
5169.37 5169.37 1.830000 3.331927 71.8176 2.565625 0.145765
5172.17 5172.17 1.840000 3.326849 72.417 2.600208 0.149333
5174.98 5174.98 1.850000 3.323982 73.01 2.629030 0.152948
5177.81 5177.81 1.860000 3.321858 73.6003 2.655918 0.155753
5180.66 5180.66 1.880000 3.318732 74.6283 2.701450 0.160011
5183.53 5183.53 1.890000 3.314792 75.2566 2.734949 0.162363
5186.42 5186.42 1.900000 3.310670 75.8558 2.768103 0.165372
5189.32 5189.32 1.910000 3.305800 76.4735 2.804278 0.167958
5192.25 5192.25 1.930000 3.299450 77.4797 2.859264 0.170869
5195.2 5195.2 1.940000 3.291675 78.082 2.903979 0.174216
5198.16 5198.16 1.950000 3.284662 78.6533 2.945819 0.177569
5201.14 5201.14 1.960000 3.276844 79.2685 2.992164 0.180350
5204.15 5204.15 1.980000 3.266408 80.323 3.063777 0.184339
5207.17 5207.17 1.990000 3.254013 80.9584 3.126533 0.188051
5210.21 5210.21 2.000000 3.242525 81.5845 3.187112 0.191800
5213.27 5213.27 2.010000 3.233572 82.1979 3.239939 0.194979
5216.35 5216.35 2.030000 3.225308 83.2319 3.307927 0.200394
5219.45 5219.45 2.040000 3.218002 83.8848 3.358325 0.204808
5222.56 5222.56 2.050000 3.211955 84.5538 3.405633 0.209184
5225.7 5225.7 2.060000 3.207343 85.2145 3.448121 0.212613
5228.85 5228.85 2.080000 3.203523 86.2828 3.504702 0.216396
5232.03 5232.03 2.090000 3.198743 86.9376 3.548228 0.221107
5235.22 5235.22 2.100000 3.193383 87.6257 3.595523 0.225708
5238.43 5238.43 2.110000 3.187218 88.3255 3.646642 0.230604
5241.66 5241.66 2.130000 3.180247 89.4142 3.717434 0.236682
5244.92 5244.92 2.140000 3.173307 90.0487 3.769877 0.241934
5248.18 5248.18 2.150000 3.167294 90.2093 3.799388 0.245936
5251.47 5251.47 2.160000 3.162073 90.9826 3.852003 0.250840
5254.78 5254.78 2.180000 3.156865 92.6688 3.943887 0.259085
5258.11 5258.11 2.190000 3.150837 93.4945 4.003079 0.264337
5261.45 5261.45 2.200000 3.144331 94.1956 4.059439 0.269882
5264.82 5264.82 2.210000 3.137260 94.9775 4.122174 0.274871
5268.2 5268.2 2.230000 3.129622 96.1879 4.206715 0.281748
5271.6 5271.6 2.240000 3.121434 96.9395 4.274439 0.286821
5275.03 5275.03 2.250000 3.112354 97.7794 4.350798 0.292942
5278.47 5278.47 2.260000 3.103876 97.3358 4.367939 0.294663
5281.93 5281.93 2.280000 3.095622 99.5434 4.504021 0.304441
5285.4 5285.4 2.290000 3.088180 100.606 4.586102 0.311258
5288.9 5288.9 2.300000 3.081470 101.357 4.651453 0.316600
5292.42 5292.42 2.310000 3.075088 102.1 4.715549 0.322908
5295.96 5295.96 2.330000 3.069440 103.329 4.799354 0.330523
5299.51 5299.51 2.340000 3.064554 104.004 4.854329 0.336122
5303.09 5303.09 2.350000 3.059267 104.737 4.914472 0.342328
5306.68 5306.68 2.360000 3.054013 105.532 4.977862 0.348564
5310.29 5310.29 2.380000 3.048902 106.761 5.061605 0.355947
5313.92 5313.92 2.390000 3.043145 107.651 5.133285 0.362690
5317.57 5317.57 2.400000 3.036382 108.52 5.209826 0.370713
5321.24 5321.24 2.410000 3.029093 109.052 5.273727 0.377416
5324.93 5324.93 2.430000 3.020757 110.152 5.371436 0.386397
5328.64 5328.64 2.440000 3.012395 110.715 5.444250 0.394090
5332.36 5332.36 2.450000 3.003974 111.285 5.518588 0.402161
5336.11 5336.11 2.460000 2.995308 112.083 5.606536 0.411214
5339.87 5339.87 2.480000 2.987796 113.314 5.710809 0.421746
5343.66 5343.66 2.490000 2.980246 114.034 5.790687 0.430742
5347.46 5347.46 2.500000 2.971840 114.64 5.870607 0.439488
5351.28 5351.28 2.510000 2.963192 115.115 5.946118 0.447119
5355.12 5355.12 2.530000 2.955335 115.473 6.011655 0.454940
5358.98 5358.98 2.540000 2.947812 117.202 6.147741 0.467028
5362.86 5362.86 2.550000 2.940810 117.85 6.225203 0.474863
5366.76 5366.76 2.560000 2.933881 118.413 6.298422 0.482044
5370.68 5370.68 2.580000 2.926766 119.419 6.397264 0.491422
5374.61 5374.61 2.590000 2.919295 120.03 6.478237 0.499787
5378.57 5378.57 2.600000 2.912013 120.618 6.557523 0.508611
5382.54 5382.54 2.610000 2.905288 121.226 6.635095 0.517502
5386.54 5386.54 2.630000 2.898864 122.231 6.733177 0.528065
5390.55 5390.55 2.640000 2.892140 122.69 6.804028 0.536717
5394.58 5394.58 2.650000 2.885104 123.264 6.884142 0.546263
5398.63 5398.63 2.660000 2.878231 123.475 6.943507 0.554180
5402.7 5402.7 2.680000 2.871000 124.885 7.073776 0.567214
5406.79 5406.79 2.690000 2.863234 125.311 7.153205 0.577560
5410.9 5410.9 2.700000 2.854751 125.818 7.243321 0.587991
5415.02 5415.02 2.710000 2.846531 126.407 7.337318 0.598945
5419.17 5419.17 2.730000 2.838384 126.795 7.420054 0.609611
5423.33 5423.33 2.740000 2.830411 127.651 7.529978 0.622301
5427.52 5427.52 2.750000 2.822308 128.19 7.623276 0.633847
5431.72 5431.72 2.760000 2.814897 128.929 7.724224 0.646144
5435.94 5435.94 2.780000 2.807579 130.004 7.845884 0.660443
5440.18 5440.18 2.790000 2.800347 130.588 7.938318 0.672049
5444.44 5444.44 2.800000 2.792745 131.201 8.036417 0.683644
5448.72 5448.72 2.810000 2.785633 131.803 8.130910 0.695555
5453.02 5453.02 2.830000 2.778441 132.907 8.258217 0.710717
5457.34 5457.34 2.840000 2.771218 133.586 8.360587 0.723637
5461.67 5461.67 2.850000 2.764080 134.294 8.465102 0.736031
5466.03 5466.03 2.860000 2.757189 135.036 8.570723 0.749320
5470.4 5470.4 2.880000 2.749843 136.463 8.725180 0.767129
5474.8 5474.8 2.890000 2.742433 137.345 8.846861 0.781344
5479.21 5479.21 2.900000 2.734946 138.144 8.965208 0.796174
5483.64 5483.64 2.910000 2.727463 138.935 9.084310 0.811409
5488.09 5488.09 2.930000 2.719968 140.209 9.236543 0.829125
5492.56 5492.56 2.940000 2.711714 141.021 9.366999 0.845922
5497.05 5497.05 2.950000 2.703164 141.875 9.504691 0.863281
5501.56 5501.56 2.960000 2.695420 142.683 9.633102 0.879432
5506.08 5506.08 2.980000 2.687158 143.996 9.802448 0.899964
5510.63 5510.63 2.990000 2.678916 144.806 9.939177 0.917283
5515.19 5515.19 3.000000 2.670817 145.726 10.0835 0.935921
5519.78 5519.78 3.010000 2.662877 146.609 10.2256 0.954498
5524.38 5524.38 3.030000 2.655188 148.015 10.4033 0.976515
5529 5529 3.040000 2.647377 148.966 10.5523 0.996401
5533.64 5533.64 3.050000 2.639643 149.877 10.6992 1.016480
5538.3 5538.3 3.060000 2.632081 150.778 10.8453 1.035861
5542.98 5542.98 3.080000 2.624229 152.18 11.0324 1.060268
5547.68 5547.68 3.090000 2.616448 153.101 11.1859 1.080397
5552.4 5552.4 3.100000 2.608896 154.054 11.3408 1.101988
5557.13 5557.13 3.110000 2.601334 154.971 11.4949 1.122945
5561.89 5561.89 3.130000 2.593618 156.678 11.7115 1.150715
5566.66 5566.66 3.140000 2.585906 157.628 11.8737 1.172907
5571.46 5571.46 3.150000 2.578340 158.518 12.0315 1.194984
5576.27 5576.27 3.160000 2.570412 159.444 12.1981 1.218805
5581.1 5581.1 3.180000 2.562397 160.882 12.4072 1.246636
5585.95 5585.95 3.190000 2.554422 161.855 12.5822 1.270776
5590.82 5590.82 3.200000 2.546372 163.008 12.7742 1.297236
5595.71 5595.71 3.210000 2.538562 164.054 12.9569 1.323424
5600.62 5600.62 3.230000 2.530616 165.443 13.1709 1.353377
5605.54 5605.54 3.240000 2.522728 166.344 13.3475 1.378314
5610.49 5610.49 3.250000 2.514999 167.269 13.5258 1.404701
5615.45 5615.45 3.260000 2.507070 168.253 13.7138 1.432909
5620.44 5620.44 3.280000 2.499183 169.616 13.9343 1.464002
5625.44 5625.44 3.290000 2.491615 170.124 14.0822 1.488519
5630.46 5630.46 3.300000 2.484240 170.786 14.2417 1.514321
5635.5 5635.5 3.310000 2.476196 171.488 14.4158 1.541503
5640.56 5640.56 3.330000 2.468268 172.967 14.6558 1.577078
5645.64 5645.64 3.340000 2.460735 173.722 14.8311 1.605113
5650.74 5650.74 3.350000 2.452758 174.52 15.0185 1.634204
5655.86 5655.86 3.360000 2.444804 175.419 15.2164 1.665365
5660.99 5660.99 3.380000 2.436942 177.028 15.4772 1.704025
5666.15 5666.15 3.390000 2.429196 178.168 15.698 1.738551
5671.32 5671.32 3.400000 2.421500 179.33 15.9225 1.773590
5676.52 5676.52 3.410000 2.413803 180.629 16.1617 1.810040
5681.73 5681.73 3.430000 2.406072 182.381 16.4451 1.852293
5686.96 5686.96 3.440000 2.398431 183.442 16.6676 1.888751
5692.21 5692.21 3.450000 2.390388 184.356 16.886 1.923699
5697.48 5697.48 3.460000 2.382517 185.377 17.1137 1.961908
5702.77 5702.77 3.480000 2.374596 186.853 17.3871 2.004695
5708.08 5708.08 3.490000 2.366559 187.783 17.6146 2.042437