File: xdidata/Ti/Ti-K-Na2Ti3O7.xdi
# XDI/1.0 BlueSky/1.5.0
# Beamline.name: 6BM
# Beamline.xray_source: NSLS-II three-pole wiggler
# Beamline.collimation: paraboloid mirror, 5 nm Rh on 30 nm Pt
# Beamline.focusing: not in use
# Beamline.harmonic_rejection: flat mirror, Si stripe, pitch = 7.0 mrad relative to beam
# Detector.i0: 10 cm N2
# Detector.i1: 25 cm N2
# Detector.i2: 25 cm N2
# Element.symbol: Ti
# Element.edge: K
# Facility.name: NSLS-II
# Facility.energy: 3.0
# Facility.current: 219.4
# Facility.mode: top-off
# Facility.gup: 301027
# Facility.saf: 304156
# Mono.name: Si(111)
# Mono.d_spacing: 3.13526
# Mono.encoder_resolution: 0.0000050 deg/ct
# Mono.angle_offset: 16.0571 deg
# Mono.scan_mode: pseudo channel cut
# Mono.scan_type: step
# Mono.direction: forward in energy
# Sample.name: Na2Ti3O7
# Sample.prep: Powder in polyethylene glycol pellet
# Sample.x_position: -97.532 mm
# Sample.y_position: 117.543 mm
# Sample.wheel_position: -615.000 mm
# Scan.experimenters: Bruce Ravel, Martin Stennett
# Scan.edge_energy: 4966.0
# Scan.start_time: 2019-05-30T04:25:08
# Scan.end_time: 2019-05-30T05:08:07
# Scan.transient_id: 9791
# Scan.uid: 6c66a15e-738a-41e9-b3f1-0ee07b22b28b
# Scan.plot_hint: ln(I0/It)  --  ln($5/$6)
# Scan.sequence: merge of 3 scans
# Column.1: energy eV
# Column.2: requested_energy eV
# Column.3: measurement_time seconds
# Column.4: mutrans
# Column.5: i0
# Column.6: itrans
# Column.7: irefer
# /////
#  sample disk prepared by Martin
# -----
# energy   requested_energy   measurement_time   mutrans   i0   itrans   irefer
4766 4766 0.500000 3.272722 10.9583 0.415357 0.032736
4776.01 4776 0.500000 3.249270 11.1803 0.433822 0.034523
4786.01 4786 0.500000 3.225452 11.3984 0.452945 0.036482
4796.01 4796 0.500000 3.202833 11.6435 0.473275 0.038550
4806.01 4806 0.500000 3.179611 11.8667 0.493678 0.041190
4816.01 4816 0.500000 3.156811 12.083 0.514267 0.043159
4826.01 4826 0.500000 3.134156 12.294 0.535243 0.045560
4836 4836 0.500000 3.111761 12.5208 0.557456 0.048029
4846 4846 0.500000 3.089524 12.7496 0.580409 0.050866
4856 4856 0.500000 3.067892 12.9705 0.603364 0.053188
4866.01 4866 0.500000 3.045887 13.1865 0.627072 0.056413
4876.01 4876 0.500000 3.024228 13.4044 0.651395 0.059145
4886 4886 0.500000 3.002622 13.6194 0.676294 0.062354
4896 4896 0.500000 2.981134 13.824 0.701364 0.065440
4906 4906 0.500000 2.959883 14.0254 0.726867 0.068844
4916 4916 0.500000 2.938232 14.2184 0.752996 0.072388
4926 4926 0.500000 2.917091 14.4157 0.779757 0.075689
4936 4936 0.500000 2.896831 14.6107 0.806482 0.079293
4938 4938 0.500000 2.891858 14.6458 0.812449 0.080115
4940 4940 0.500000 2.888523 14.6832 0.817245 0.080442
4942 4942 0.500000 2.884574 14.7164 0.822345 0.081504
4944 4944 0.500000 2.880024 14.7797 0.829629 0.082148
4946.01 4946 0.500000 2.876857 14.8185 0.834458 0.082921
4948.01 4948 0.500000 2.872577 14.8474 0.839663 0.083875
4950.01 4950 0.500000 2.869304 14.8847 0.844534 0.084003
4952 4952 0.500000 2.864733 14.9145 0.850102 0.085111
4954 4954 0.500000 2.861567 14.9432 0.854440 0.085591
4956 4956 0.500000 2.858013 14.9717 0.859113 0.086030
4956.25 4956.25 0.500000 2.858160 14.974 0.859119 0.086096
4956.49 4956.5 0.500000 2.857483 14.9762 0.859828 0.086393
4956.74 4956.75 0.500000 2.857457 14.9792 0.860028 0.086253
4956.99 4957 0.500000 2.856745 14.982 0.860799 0.086354
4957.25 4957.25 0.500000 2.856412 14.9844 0.861223 0.086469
4957.5 4957.5 0.500000 2.856137 14.9883 0.861682 0.086532
4957.74 4957.75 0.500000 2.855639 14.9892 0.862166 0.086729
4957.99 4958 0.500000 2.855092 14.9931 0.862859 0.086374
4958.25 4958.25 0.500000 2.854421 14.9977 0.863707 0.086801
4958.49 4958.5 0.500000 2.854411 14.9986 0.863765 0.086636
4958.74 4958.75 0.500000 2.854177 15.0027 0.864201 0.086661
4958.99 4959 0.500000 2.853858 15.0063 0.864686 0.086762
4959.25 4959.25 0.500000 2.853429 15.0085 0.865184 0.086752
4959.5 4959.5 0.500000 2.853361 15.0111 0.865396 0.086828
4959.75 4959.75 0.500000 2.852739 15.0133 0.866055 0.086664
4960 4960 0.500000 2.852386 15.0511 0.868545 0.087005
4960.25 4960.25 0.500000 2.852386 15.0546 0.868748 0.086819
4960.49 4960.5 0.500000 2.851683 15.0575 0.869521 0.087066
4960.74 4960.75 0.500000 2.851776 15.0605 0.869620 0.086913
4961 4961 0.500000 2.851059 15.0642 0.870457 0.086912
4961.24 4961.25 0.500000 2.850805 15.0688 0.870937 0.087048
4961.5 4961.5 0.500000 2.850595 15.0744 0.871448 0.086912
4961.75 4961.75 0.500000 2.850223 15.0792 0.872053 0.087077
4962 4962 0.500000 2.850690 15.0812 0.871759 0.086569
4962.25 4962.25 0.500000 2.850175 15.0855 0.872458 0.086675
4962.49 4962.5 0.500000 2.850510 15.0886 0.872346 0.086256
4962.74 4962.75 0.500000 2.849920 15.0936 0.873147 0.086376
4963 4963 0.500000 2.849913 15.0992 0.873481 0.086009
4963.25 4963.25 0.500000 2.850074 15.1038 0.873607 0.085490
4963.5 4963.5 0.500000 2.850387 15.1106 0.873721 0.084692
4963.75 4963.75 0.500000 2.850477 15.1137 0.873826 0.083613
4964 4964 0.500000 2.850846 15.1152 0.873589 0.082195
4964.25 4964.25 0.500000 2.850994 15.1217 0.873833 0.079118
4964.49 4964.5 0.500000 2.851696 15.1235 0.873334 0.075174
4964.75 4964.75 0.500000 2.852509 15.1278 0.872863 0.069594
4965 4965 0.500000 2.853328 15.132 0.872393 0.064159
4965.24 4965.25 0.500000 2.854513 15.1339 0.871478 0.060217
4965.5 4965.5 0.500000 2.856059 15.1362 0.870258 0.058584
4965.75 4965.75 0.500000 2.858560 15.1391 0.868245 0.059199
4966 4966 0.500000 2.862282 15.1431 0.865241 0.060499
4966.25 4966.25 0.500000 2.868359 15.15 0.860407 0.062486
4966.5 4966.5 0.500000 2.876749 15.15 0.853228 0.063988
4966.75 4966.75 0.500000 2.890329 15.153 0.841815 0.064638
4967 4967 0.500000 2.907333 15.1542 0.827761 0.064256
4967.25 4967.25 0.500000 2.923012 15.1565 0.814936 0.063176
4967.5 4967.5 0.500000 2.932655 15.1609 0.807382 0.062249
4967.75 4967.75 0.500000 2.934990 15.1665 0.805812 0.061919
4968 4968 0.500000 2.939689 15.1729 0.802258 0.060548
4968.25 4968.25 0.500000 2.956119 15.1757 0.789545 0.058562
4968.5 4968.5 0.500000 2.991496 15.1772 0.761837 0.055604
4968.74 4968.75 0.500000 3.042242 15.1773 0.724975 0.052172
4969 4969 0.500000 3.093265 15.1799 0.688482 0.048816
4969.25 4969.25 0.500000 3.123149 15.1807 0.668255 0.046910
4969.5 4969.5 0.500000 3.122206 15.1826 0.668942 0.046398
4969.75 4969.75 0.500000 3.097907 15.1818 0.685473 0.047410
4970 4970 0.500000 3.068675 15.1856 0.705756 0.048196
4970.25 4970.25 0.500000 3.045934 15.1945 0.722561 0.049270
4970.5 4970.5 0.500000 3.029746 15.1999 0.734466 0.049873
4970.75 4970.75 0.500000 3.016530 15.2145 0.745127 0.050491
4971 4971 0.500000 3.006075 15.225 0.753425 0.050532
4971.25 4971.25 0.500000 2.998154 15.2323 0.759800 0.050581
4971.5 4971.5 0.500000 2.993273 15.2325 0.763496 0.050240
4971.75 4971.75 0.500000 2.992117 15.2399 0.764745 0.049457
4972 4972 0.500000 2.994153 15.2458 0.763498 0.048557
4972.25 4972.25 0.500000 2.997468 15.2508 0.761212 0.047277
4972.5 4972.5 0.500000 3.000186 15.2569 0.759470 0.045950
4972.75 4972.75 0.500000 3.000757 15.2611 0.759234 0.045149
4973 4973 0.500000 2.998514 15.2631 0.761045 0.044373
4973.25 4973.25 0.500000 2.993417 15.2643 0.764991 0.043654
4973.5 4973.5 0.500000 2.987044 15.2658 0.769911 0.042994
4973.75 4973.75 0.500000 2.979505 15.2692 0.775952 0.042358
4974 4974 0.500000 2.973071 15.2711 0.781048 0.041831
4974.25 4974.25 0.500000 2.968191 15.2754 0.785102 0.041254
4974.5 4974.5 0.500000 2.965483 15.2753 0.787216 0.040374
4974.75 4974.75 0.500000 2.965897 15.2755 0.786898 0.039786
4975 4975 0.500000 2.969784 15.2771 0.783920 0.038938
4975.25 4975.25 0.500000 2.976001 15.2789 0.779166 0.038083
4975.5 4975.5 0.500000 2.984826 15.2768 0.772223 0.037267
4975.75 4975.75 0.500000 2.995981 15.2766 0.763749 0.036080
4976 4976 0.500000 3.009509 15.2776 0.753361 0.034641
4976.25 4976.25 0.500000 3.026185 15.2788 0.741094 0.033841
4976.51 4976.5 0.500000 3.046385 15.2771 0.725909 0.032579
4976.75 4976.75 0.500000 3.069416 15.2767 0.709640 0.031457
4977 4977 0.500000 3.094619 15.2757 0.691803 0.030143
4977.25 4977.25 0.500000 3.120063 15.3146 0.676276 0.029338
4977.5 4977.5 0.500000 3.144331 15.3137 0.659953 0.028270
4977.75 4977.75 0.500000 3.166888 15.3182 0.645584 0.027604
4978 4978 0.500000 3.188518 15.32 0.631742 0.026625
4978.25 4978.25 0.500000 3.207234 15.3245 0.620144 0.025942
4978.5 4978.5 0.500000 3.223332 15.328 0.610380 0.025461
4978.75 4978.75 0.500000 3.238997 15.3322 0.601058 0.024774
4979 4979 0.500000 3.254453 15.3343 0.591959 0.024478
4979.25 4979.25 0.500000 3.269282 15.3309 0.583067 0.023888
4979.5 4979.5 0.500000 3.284306 15.3277 0.574269 0.023718
4979.75 4979.75 0.500000 3.301430 15.3286 0.564584 0.023123
4980 4980 0.500000 3.320356 15.3269 0.553926 0.022556
4980.25 4980.25 0.500000 3.338534 15.3222 0.543779 0.022154
4980.5 4980.5 0.500000 3.356930 15.3217 0.533824 0.021860
4980.75 4980.75 0.500000 3.376249 15.3221 0.523639 0.021299
4981 4981 0.500000 3.395830 15.3203 0.513437 0.020768
4981.25 4981.25 0.500000 3.416952 15.3201 0.502769 0.020284
4981.5 4981.5 0.500000 3.438378 15.3224 0.492133 0.020165
4981.75 4981.75 0.500000 3.461595 15.3223 0.480759 0.019677
4982 4982 0.500000 3.486922 15.3256 0.468749 0.019029
4982.26 4982.25 0.500000 3.511461 15.327 0.457443 0.018453
4982.5 4982.5 0.500000 3.535431 15.3294 0.446794 0.018204
4982.75 4982.75 0.500000 3.558690 15.3658 0.437609 0.017598
4983 4983 0.500000 3.579794 15.3713 0.428633 0.017309
4983.25 4983.25 0.500000 3.599643 15.3707 0.420177 0.017030
4983.5 4983.5 0.500000 3.616823 15.3707 0.412960 0.016918
4983.75 4983.75 0.500000 3.632207 15.3655 0.406521 0.016597
4984 4984 0.500000 3.645583 15.3628 0.401058 0.016405
4984.25 4984.25 0.500000 3.657111 15.3656 0.396545 0.016213
4984.5 4984.5 0.500000 3.665634 15.365 0.393167 0.016267
4984.75 4984.75 0.500000 3.671406 15.364 0.390887 0.015995
4985 4985 0.500000 3.676407 15.3676 0.389017 0.016063
4985.25 4985.25 0.500000 3.679663 15.3697 0.387801 0.016149
4985.5 4985.5 0.500000 3.679895 15.3716 0.387759 0.016206
4985.76 4985.75 0.500000 3.679556 15.3708 0.387866 0.016344
4986 4986 0.500000 3.680286 15.375 0.387696 0.016400
4986.25 4986.25 0.500000 3.678545 15.3738 0.388335 0.016653
4986.5 4986.5 0.500000 3.677558 15.3704 0.388632 0.016717
4986.75 4986.75 0.500000 3.676686 15.3686 0.388926 0.016775
4987 4987 0.500000 3.676455 15.3691 0.389028 0.016815
4987.25 4987.25 0.500000 3.676615 15.3697 0.388985 0.016960
4987.5 4987.5 0.500000 3.675830 15.3657 0.389186 0.016815
4987.76 4987.75 0.500000 3.676323 15.3684 0.389059 0.016919
4988 4988 0.500000 3.678079 15.37 0.388426 0.016566
4988.25 4988.25 0.500000 3.679548 15.378 0.388056 0.016755
4988.5 4988.5 0.500000 3.681627 15.387 0.387484 0.016806
4988.75 4988.75 0.500000 3.683368 15.3986 0.387092 0.016971
4989 4989 0.500000 3.687667 15.447 0.386649 0.016545
4989.25 4989.25 0.500000 3.690239 15.4608 0.385988 0.016734
4989.5 4989.5 0.500000 3.692328 15.4738 0.385513 0.016854
4989.75 4989.75 0.500000 3.694965 15.4848 0.384768 0.016786
4990 4990 0.500000 3.695840 15.4962 0.384721 0.016957
4990.25 4990.25 0.500000 3.696550 15.5102 0.384792 0.016722
4990.5 4990.5 0.500000 3.696687 15.5215 0.385020 0.016568
4990.75 4990.75 0.500000 3.694599 15.5346 0.386149 0.016766
4991 4991 0.500000 3.691022 15.5464 0.387830 0.016910
4991.25 4991.25 0.500000 3.685024 15.5575 0.390437 0.016855
4991.5 4991.5 0.500000 3.679283 15.5702 0.393030 0.017234
4991.75 4991.75 0.500000 3.671481 15.5779 0.396252 0.017448
4992 4992 0.500000 3.663803 15.5876 0.399565 0.017378
4992.25 4992.25 0.500000 3.655129 15.5921 0.403145 0.017593
4992.5 4992.5 0.500000 3.648130 15.6036 0.406329 0.017755
4992.75 4992.75 0.500000 3.640231 15.6114 0.409720 0.018028
4993 4993 0.500000 3.633518 15.6187 0.412710 0.018033
4993.25 4993.25 0.500000 3.627363 15.6229 0.415356 0.018271
4993.51 4993.5 0.500000 3.621902 15.6295 0.417820 0.018224
4993.75 4993.75 0.500000 3.617900 15.6363 0.419651 0.018242
4994 4994 0.500000 3.613870 15.6419 0.421502 0.018287
4994.25 4994.25 0.500000 3.611595 15.6454 0.422559 0.018400
4994.5 4994.5 0.500000 3.609937 15.6514 0.423425 0.018452
4994.75 4994.75 0.500000 3.608190 15.6552 0.424272 0.018274
4995 4995 0.500000 3.607615 15.6602 0.424649 0.018091
4995.25 4995.25 0.500000 3.606454 15.6627 0.425209 0.018076
4995.5 4995.5 0.500000 3.606596 15.6668 0.425262 0.018164
4995.75 4995.75 0.500000 3.605737 15.6693 0.425692 0.018248
4996 4996 0.700000 3.606695 21.9287 0.595175 0.025135
4997.09 4997.08 0.710000 3.608550 22.2692 0.603297 0.024660
4998.19 4998.18 0.730000 3.610619 22.8959 0.618992 0.024790
4999.3 4999.29 0.740000 3.613712 23.2302 0.626092 0.024715
5000.44 5000.43 0.750000 3.620946 23.5814 0.630967 0.025000
5001.59 5001.58 0.760000 3.628173 23.9376 0.635896 0.025342
5002.77 5002.76 0.780000 3.629274 24.6172 0.653228 0.026063
5003.96 5003.95 0.790000 3.621827 24.9869 0.668015 0.026941
5005.17 5005.16 0.800000 3.607265 25.3641 0.688028 0.027920
5006.4 5006.39 0.810000 3.586301 25.7469 0.713203 0.029307
5007.64 5007.64 0.830000 3.563430 26.4446 0.749482 0.031407
5008.91 5008.91 0.840000 3.537499 26.8216 0.780064 0.033750
5010.21 5010.2 0.850000 3.508147 27.2032 0.814807 0.035391
5011.52 5011.51 0.860000 3.482730 27.58 0.847348 0.037557
5012.83 5012.83 0.880000 3.468655 28.2678 0.880779 0.039035
5014.18 5014.18 0.890000 3.462034 28.6394 0.898292 0.040101
5015.55 5015.54 0.900000 3.461445 29.0121 0.910527 0.040907
5016.94 5016.93 0.910000 3.464095 29.3941 0.920072 0.042041
5018.34 5018.33 0.930000 3.467517 30.0971 0.938862 0.042984
5019.76 5019.75 0.940000 3.464527 30.4801 0.953654 0.044292
5021.2 5021.19 0.950000 3.457906 30.8718 0.972339 0.045299
5022.66 5022.65 0.960000 3.449845 31.26 0.992530 0.046467
5024.14 5024.13 0.980000 3.442479 31.9774 1.022813 0.047965
5025.64 5025.63 0.990000 3.437834 32.3702 1.040196 0.048135
5027.14 5027.14 1.000000 3.434197 32.7619 1.056609 0.049131
5028.69 5028.68 1.010000 3.432638 33.1628 1.071215 0.049647
5030.25 5030.24 1.030000 3.432334 33.8848 1.094866 0.050142
5031.81 5031.81 1.040000 3.433794 34.2812 1.106064 0.049497
5033.41 5033.4 1.050000 3.435642 34.7586 1.119393 0.049286
5035.02 5035.01 1.060000 3.435387 35.1569 1.132513 0.048771
5036.66 5036.65 1.080000 3.434092 35.8932 1.157734 0.049230
5038.29 5038.3 1.090000 3.432327 36.3046 1.173064 0.049326
5039.97 5039.97 1.100000 3.429519 36.7078 1.189420 0.049962
5041.65 5041.65 1.110000 3.425627 37.1227 1.207558 0.050953
5043.35 5043.36 1.130000 3.420871 37.8639 1.237542 0.052596
5045.09 5045.09 1.140000 3.415783 38.2788 1.257493 0.054271
5046.83 5046.83 1.150000 3.410768 38.6963 1.277596 0.056265
5048.6 5048.6 1.160000 3.406793 39.1195 1.296713 0.058379
5050.38 5050.38 1.180000 3.404536 39.8835 1.325022 0.060899
5052.18 5052.18 1.190000 3.403924 40.3094 1.339991 0.062685
5054 5054 1.200000 3.405344 40.7435 1.352500 0.064316
5055.84 5055.84 1.210000 3.407784 41.1765 1.363545 0.066001
5057.7 5057.7 1.230000 3.411266 42.039 1.387265 0.066940
5059.58 5059.58 1.240000 3.412854 42.4815 1.399641 0.067897
5061.48 5061.48 1.250000 3.414013 42.9206 1.412467 0.068736
5063.4 5063.4 1.260000 3.413046 43.3601 1.428312 0.069998
5065.33 5065.33 1.280000 3.410396 44.1615 1.458570 0.071881
5067.29 5067.29 1.290000 3.405807 44.6162 1.480375 0.073495
5069.26 5069.26 1.300000 3.400101 45.0697 1.503975 0.075195
5071.26 5071.26 1.310000 3.393186 45.527 1.529778 0.076681
5073.27 5073.27 1.330000 3.385164 46.3408 1.569655 0.079101
5075.3 5075.3 1.340000 3.376538 46.801 1.598982 0.079942
5077.35 5077.35 1.350000 3.367831 47.2734 1.629236 0.080701
5079.42 5079.42 1.360000 3.359387 47.8153 1.661898 0.081327
5081.51 5081.51 1.380000 3.351342 48.6594 1.704896 0.082043
5083.6 5083.61 1.390000 3.342957 49.1335 1.735970 0.082194
5085.74 5085.74 1.400000 3.334037 49.6075 1.768446 0.082520
5087.89 5087.89 1.410000 3.324373 50.0842 1.802778 0.082832
5090.05 5090.05 1.430000 3.315513 50.929 1.849509 0.084369
5092.23 5092.23 1.440000 3.307513 51.4241 1.882496 0.086055
5094.44 5094.44 1.450000 3.300513 51.9384 1.914682 0.088655
5096.66 5096.66 1.460000 3.295633 52.4304 1.942273 0.092307
5098.9 5098.9 1.480000 3.292931 53.294 1.979604 0.097397
5101.16 5101.16 1.490000 3.291253 53.7933 2.001505 0.100865
5103.44 5103.44 1.500000 3.289422 54.3047 2.024233 0.104384
5105.74 5105.74 1.510000 3.286448 54.819 2.049489 0.106929
5108.05 5108.05 1.530000 3.282339 55.6937 2.090763 0.109510
5110.39 5110.39 1.540000 3.276969 56.2068 2.121388 0.111211
5112.74 5112.74 1.550000 3.271435 56.7324 2.153095 0.113609
5115.12 5115.12 1.560000 3.266081 57.2529 2.184516 0.115372
5117.51 5117.51 1.580000 3.260922 58.1463 2.230088 0.118121
5119.92 5119.92 1.590000 3.256532 58.6787 2.260412 0.120072
5122.35 5122.35 1.600000 3.253097 59.201 2.288383 0.121681
5124.8 5124.8 1.610000 3.249049 59.733 2.318311 0.124107
5127.27 5127.27 1.630000 3.245224 60.6448 2.362705 0.127246
5129.76 5129.76 1.640000 3.241167 61.1961 2.393890 0.129863
5132.27 5132.27 1.650000 3.235920 61.7479 2.428179 0.131901
5134.79 5134.79 1.660000 3.230224 62.2987 2.463833 0.133838
5137.34 5137.34 1.680000 3.224067 63.2331 2.516227 0.136050
5139.9 5139.9 1.690000 3.218054 63.8273 2.555191 0.137430
5142.49 5142.49 1.700000 3.212426 64.4003 2.592674 0.138465
5145.09 5145.09 1.710000 3.206942 64.9756 2.630244 0.139686
5147.71 5147.71 1.730000 3.201659 65.9369 2.683290 0.141951
5150.35 5150.35 1.740000 3.196446 66.5301 2.721551 0.143916
5153.01 5153.01 1.750000 3.190664 67.1244 2.761802 0.147229
5155.69 5155.69 1.760000 3.185440 67.7295 2.801308 0.151001
5158.39 5158.39 1.780000 3.179888 68.6971 2.857142 0.155734
5161.11 5161.11 1.790000 3.174347 69.2895 2.897774 0.159853
5163.84 5163.84 1.800000 3.168759 70.0308 2.945213 0.163840
5166.6 5166.6 1.810000 3.162723 70.6381 2.988732 0.167611
5169.37 5169.37 1.830000 3.157474 71.6252 3.046432 0.172463
5172.17 5172.17 1.840000 3.152809 72.2329 3.086646 0.176970
5174.98 5174.98 1.850000 3.148082 72.8303 3.126931 0.181147
5177.81 5177.81 1.860000 3.143623 73.429 3.166723 0.185332
5180.66 5180.66 1.880000 3.138520 74.4399 3.226731 0.190396
5183.53 5183.53 1.890000 3.133259 75.0946 3.272300 0.193804
5186.42 5186.42 1.900000 3.127442 75.8597 3.324902 0.197576
5189.32 5189.32 1.910000 3.121631 76.4789 3.371594 0.200914
5192.25 5192.25 1.930000 3.115309 77.4942 3.438018 0.205499
5195.2 5195.2 1.940000 3.108827 78.0986 3.487368 0.208364
5198.16 5198.16 1.950000 3.101937 78.677 3.537476 0.211410
5201.14 5201.14 1.960000 3.095128 79.3127 3.590425 0.215164
5204.15 5204.15 1.980000 3.088602 80.3769 3.662412 0.219696
5207.17 5207.17 1.990000 3.082513 81.0187 3.714221 0.222406
5210.21 5210.21 2.000000 3.076113 81.6495 3.767159 0.226057
5213.27 5213.27 2.010000 3.070360 82.2772 3.818028 0.229535
5216.35 5216.35 2.030000 3.064497 83.5104 3.898050 0.235804
5219.45 5219.45 2.040000 3.058531 84.1808 3.952835 0.240219
5222.56 5222.56 2.050000 3.052728 84.8659 4.008215 0.245211
5225.7 5225.7 2.060000 3.046564 85.538 4.064925 0.250128
5228.85 5228.85 2.080000 3.040530 86.6259 4.141551 0.255755
5232.03 5232.03 2.090000 3.034349 87.2989 4.199600 0.261337
5235.22 5235.22 2.100000 3.028694 88.0088 4.257761 0.266023
5238.43 5238.43 2.110000 3.022875 88.7158 4.317012 0.271915
5241.66 5241.66 2.130000 3.017801 89.8174 4.392845 0.279134
5244.92 5244.92 2.140000 3.012862 90.4591 4.446133 0.284590
5248.18 5248.18 2.150000 3.008217 90.6287 4.475212 0.289008
5251.47 5251.47 2.160000 3.003538 91.4337 4.536132 0.294825
5254.78 5254.78 2.180000 2.998655 92.9156 4.632218 0.303448
5258.11 5258.11 2.190000 2.993504 93.749 4.697910 0.309734
5261.45 5261.45 2.200000 2.988035 94.4583 4.759397 0.315417
5264.82 5264.82 2.210000 2.981997 95.258 4.828771 0.321500
5268.2 5268.2 2.230000 2.975209 96.4744 4.923748 0.328992
5271.6 5271.6 2.240000 2.968025 97.2335 4.998248 0.334862
5275.03 5275.03 2.250000 2.960331 98.0867 5.081066 0.341514
5278.47 5278.47 2.260000 2.953449 97.6923 5.095575 0.343024
5281.93 5281.93 2.280000 2.946592 99.8614 5.244566 0.354059
5285.4 5285.4 2.290000 2.940102 100.707 5.323413 0.360950
5288.9 5288.9 2.300000 2.933390 101.456 5.399142 0.367528
5292.42 5292.42 2.310000 2.926917 102.196 5.473838 0.374252
5295.96 5295.96 2.330000 2.920763 103.433 5.574280 0.383169
5299.51 5299.51 2.340000 2.915032 104.111 5.643008 0.390165
5303.09 5303.09 2.350000 2.908918 104.856 5.718305 0.397636
5306.68 5306.68 2.360000 2.902749 105.659 5.797749 0.405071
5310.29 5310.29 2.380000 2.896682 107.163 5.916031 0.415580
5313.92 5313.92 2.390000 2.890714 107.923 5.993699 0.423562
5317.57 5317.57 2.400000 2.884518 108.682 6.073357 0.431651
5321.24 5321.24 2.410000 2.878957 109.247 6.138967 0.438944
5324.93 5324.93 2.430000 2.872695 110.32 6.238163 0.448513
5328.64 5328.64 2.440000 2.865704 110.85 6.312144 0.456572
5332.36 5332.36 2.450000 2.858666 111.445 6.390870 0.465177
5336.11 5336.11 2.460000 2.852117 112.502 6.493865 0.475921
5339.87 5339.87 2.480000 2.845705 113.72 6.606350 0.487647
5343.66 5343.66 2.490000 2.838622 114.449 6.696009 0.497640
5347.46 5347.46 2.500000 2.832438 115.041 6.772388 0.506811
5351.28 5351.28 2.510000 2.824481 115.51 6.854286 0.515269
5355.12 5355.12 2.530000 2.817952 115.922 6.923797 0.522997
5358.98 5358.98 2.540000 2.809992 117.59 7.079567 0.537763
5362.86 5362.86 2.550000 2.802791 118.238 7.170029 0.546504
5366.76 5366.76 2.560000 2.795442 119.065 7.273414 0.556529
5370.68 5370.68 2.580000 2.788359 120.069 7.386876 0.567637
5374.61 5374.61 2.590000 2.781198 120.648 7.475878 0.576817
5378.57 5378.57 2.600000 2.774057 121.223 7.565319 0.586446
5382.54 5382.54 2.610000 2.767095 121.818 7.655600 0.596652
5386.54 5386.54 2.630000 2.760262 122.821 7.771475 0.609542
5390.55 5390.55 2.640000 2.753485 123.268 7.852842 0.619489
5394.58 5394.58 2.650000 2.746658 123.836 7.943069 0.630456
5398.63 5398.63 2.660000 2.739771 124.049 8.011767 0.639075
5402.7 5402.7 2.680000 2.732852 125.151 8.139050 0.652478
5406.79 5406.79 2.690000 2.725802 125.545 8.222388 0.663618
5410.9 5410.9 2.700000 2.718768 125.996 8.310219 0.674367
5415.02 5415.02 2.710000 2.711688 126.547 8.405851 0.686353
5419.17 5419.17 2.730000 2.704310 126.924 8.493298 0.697633
5423.33 5423.33 2.740000 2.696659 127.734 8.613157 0.712133
5427.52 5427.52 2.750000 2.689426 128.228 8.709259 0.724032
5431.72 5431.72 2.760000 2.681967 128.71 8.807389 0.737238
5435.94 5435.94 2.780000 2.674591 129.725 8.942612 0.752758
5440.18 5440.18 2.790000 2.667065 130.286 9.049074 0.766378
5444.44 5444.44 2.800000 2.659356 130.884 9.161038 0.779449
5448.72 5448.72 2.810000 2.651905 131.463 9.270323 0.793862
5453.02 5453.02 2.830000 2.644607 132.565 9.416534 0.810869
5457.34 5457.34 2.840000 2.637243 133.31 9.539436 0.825217
5461.67 5461.67 2.850000 2.629747 134.275 9.680814 0.841736
5466.03 5466.03 2.860000 2.622432 134.99 9.803760 0.856937
5470.4 5470.4 2.880000 2.615430 136.214 9.962153 0.875866
5474.8 5474.8 2.890000 2.608319 137.005 10.0916 0.891799
5479.21 5479.21 2.900000 2.600992 137.771 10.2226 0.908459
5483.64 5483.64 2.910000 2.593379 138.595 10.3623 0.925766
5488.09 5488.09 2.930000 2.586240 140.142 10.5531 0.947296
5492.56 5492.56 2.940000 2.578924 140.961 10.6928 0.965347
5497.05 5497.05 2.950000 2.571130 141.822 10.8422 0.984600
5501.56 5501.56 2.960000 2.564134 142.641 10.9814 1.002599
5506.08 5506.08 2.980000 2.556795 143.933 11.1625 1.024857
5510.63 5510.63 2.990000 2.549630 145.044 11.3295 1.045683
5515.19 5515.19 3.000000 2.542504 146.029 11.488 1.067228
5519.78 5519.78 3.010000 2.535190 146.962 11.6462 1.087652
5524.38 5524.38 3.030000 2.527953 148.333 11.8403 1.112337
5529 5529 3.040000 2.520568 149.317 12.0072 1.134179
5533.64 5533.64 3.050000 2.513493 150.239 12.1671 1.155998
5538.3 5538.3 3.060000 2.506130 151.192 12.3348 1.178668
5542.98 5542.98 3.080000 2.498670 152.623 12.5448 1.205522
5547.68 5547.68 3.090000 2.491314 153.586 12.7171 1.229334
5552.4 5552.4 3.100000 2.484048 154.605 12.8949 1.253344
5557.13 5557.13 3.110000 2.476733 155.573 13.0708 1.277659
5561.89 5561.89 3.130000 2.469476 157.053 13.2913 1.306331
5566.66 5566.66 3.140000 2.462054 158.028 13.4735 1.331749
5571.46 5571.46 3.150000 2.454639 158.96 13.6538 1.357191
5576.27 5576.27 3.160000 2.447477 159.895 13.8328 1.382682
5581.1 5581.1 3.180000 2.440157 161.357 14.0618 1.413106
5585.95 5585.95 3.190000 2.433013 162.314 14.2467 1.439890
5590.81 5590.82 3.200000 2.425985 163.15 14.421 1.466037
5595.71 5595.71 3.210000 2.418792 164.039 14.6043 1.492598
5600.62 5600.62 3.230000 2.411607 165.411 14.8326 1.524902
5605.54 5605.54 3.240000 2.404704 166.251 15.0112 1.551652
5610.49 5610.49 3.250000 2.397655 167.147 15.1989 1.580195
5615.45 5615.45 3.260000 2.390645 168.11 15.394 1.609073
5620.44 5620.44 3.280000 2.383288 169.73 15.6571 1.645704
5625.44 5625.44 3.290000 2.376493 169.794 15.7698 1.667633
5630.46 5630.46 3.300000 2.369852 170.488 15.9398 1.695870
5635.5 5635.5 3.310000 2.361398 171.063 16.1293 1.726245
5640.56 5640.56 3.330000 2.353650 172.5 16.3913 1.764635
5645.64 5645.64 3.340000 2.348057 173.457 16.5747 1.794698
5650.74 5650.74 3.350000 2.340211 174.462 16.8021 1.830005
5655.86 5655.86 3.360000 2.333585 175.4 17.0047 1.862143
5660.99 5660.99 3.380000 2.327045 176.998 17.2722 1.903182
5666.15 5666.15 3.390000 2.319590 178.221 17.5217 1.941739
5671.32 5671.32 3.400000 2.312517 179.73 17.7955 1.983206
5676.52 5676.52 3.410000 2.305310 181.219 18.0727 2.025986
5681.73 5681.73 3.430000 2.298036 182.936 18.3771 2.071827
5686.96 5686.96 3.440000 2.290900 183.971 18.6134 2.110601
5692.21 5692.21 3.450000 2.283594 184.848 18.8393 2.148833
5697.48 5697.48 3.460000 2.276261 185.802 19.0759 2.187796
5702.77 5702.77 3.480000 2.269200 187.243 19.36 2.233577
5708.08 5708.08 3.490000 2.262316 188.071 19.5799 2.271675