File: xdidata/Ti/Ti-K-CeTi2O6.xdi
# XDI/1.0 BlueSky/1.5.0
# Beamline.name: 6BM
# Beamline.xray_source: NSLS-II three-pole wiggler
# Beamline.collimation: paraboloid mirror, 5 nm Rh on 30 nm Pt
# Beamline.focusing: not in use
# Beamline.harmonic_rejection: flat mirror, Si stripe, pitch = 7.0 mrad relative to beam
# Detector.i0: 10 cm N2
# Detector.i1: 25 cm N2
# Detector.i2: 25 cm N2
# Element.symbol: Ti
# Element.edge: K
# Facility.name: NSLS-II
# Facility.energy: 3.0
# Facility.current: 219.3
# Facility.mode: top-off
# Facility.gup: 301027
# Facility.saf: 304156
# Mono.name: Si(111)
# Mono.d_spacing: 3.13526
# Mono.encoder_resolution: 0.0000050 deg/ct
# Mono.angle_offset: 16.0571 deg
# Mono.scan_mode: pseudo channel cut
# Mono.scan_type: step
# Mono.direction: forward in energy
# Sample.name: CeTi2O6
# Sample.prep: Powder in polyethylene glycol pellet
# Sample.x_position: -113.290 mm
# Sample.y_position: 117.505 mm
# Sample.wheel_position: 255.000 mm
# Scan.experimenters: Bruce Ravel, Martin Stennett
# Scan.edge_energy: 4966.0
# Scan.start_time: 2019-05-30T18:02:41
# Scan.end_time: 2019-05-30T18:46:13
# Scan.transient_id: 9846
# Scan.uid: 4a81d723-ebb2-4d6b-b3a6-4cdd5b77bdce
# Scan.plot_hint: (DTC1 + DTC2 + DTC3 + DTC4) / I0  --  ($8+$9+$10+$11) / $5
# Scan.sequence: merge of 3 scans
# Column.1: energy eV
# Column.2: requested_energy eV
# Column.3: measurement_time seconds
# Column.4: mutrans
# Column.5: i0
# Column.6: itrans
# Column.7: irefer
# /////
#  sample disk prepared by Martin
# -----
# energy   requested_energy   measurement_time   mutrans   i0   itrans   irefer
4766 4766 0.500000 80.1444 10.235 0.046409 0.006237
4776.01 4776 0.500000 73.5348 10.4818 0.048515 0.006571
4786.01 4786 0.500000 71.8536 10.7308 0.051334 0.006940
4796.01 4796 0.500000 69.0862 10.994 0.054700 0.007111
4806.01 4806 0.500000 64.6526 11.2602 0.058016 0.007638
4816 4816 0.500000 64.501 11.4828 0.061128 0.008016
4826.01 4826 0.500000 56.461 11.7839 0.065276 0.008493
4836 4836 0.500000 54.187 12.0241 0.069232 0.009119
4846 4846 0.500000 54.3996 12.2853 0.073432 0.009793
4856 4856 0.500000 48.36 12.5833 0.077393 0.009869
4866.01 4866 0.500000 45.4737 12.8553 0.082141 0.010774
4876.01 4876 0.500000 40.5621 13.1298 0.086997 0.011450
4886 4886 0.500000 40.3855 13.4072 0.092032 0.012304
4896 4896 0.500000 37.8392 13.6749 0.097059 0.012734
4906.01 4906 0.500000 35.2648 13.9449 0.102546 0.013626
4916 4916 0.500000 33.5175 14.2215 0.108038 0.014309
4926 4926 0.500000 28.9597 14.5339 0.114078 0.015060
4936 4936 0.500000 28.5384 14.8089 0.120203 0.016230
4938 4938 0.500000 30.8001 14.8527 0.121244 0.016338
4940 4940 0.500000 30.6671 14.9032 0.122514 0.016451
4941.99 4942 0.500000 32.1093 14.9536 0.123935 0.016751
4943.99 4944 0.500000 31.9154 15.0043 0.124876 0.016855
4946 4946 0.500000 31.6306 15.0459 0.126097 0.017008
4948 4948 0.500000 31.9823 15.09 0.127526 0.017328
4950 4950 0.500000 33.8856 15.1417 0.128728 0.017566
4952 4952 0.500000 34.9654 15.1929 0.130043 0.017575
4954 4954 0.500000 35.5335 15.2405 0.131407 0.017961
4956 4956 0.500000 37.5709 15.2847 0.132443 0.017990
4956.25 4956.25 0.500000 35.9392 15.2884 0.132533 0.018241
4956.49 4956.5 0.500000 36.3659 15.2942 0.132370 0.017802
4956.74 4956.75 0.500000 36.7201 15.2997 0.132665 0.018105
4956.99 4957 0.500000 37.541 15.3079 0.132847 0.018050
4957.24 4957.25 0.500000 38.3186 15.3157 0.132944 0.018004
4957.49 4957.5 0.500000 37.8221 15.3184 0.133134 0.017954
4957.74 4957.75 0.500000 37.8169 15.3179 0.133180 0.017962
4957.99 4958 0.500000 38.317 15.327 0.133566 0.018096
4958.24 4958.25 0.500000 39.1766 15.3351 0.133632 0.018175
4958.5 4958.5 0.500000 38.6219 15.3357 0.133820 0.018170
4958.75 4958.75 0.500000 38.3314 15.3416 0.133942 0.018105
4958.99 4959 0.500000 41.0004 15.3515 0.133988 0.018014
4959.24 4959.25 0.500000 41.6105 15.3573 0.134196 0.018075
4959.49 4959.5 0.500000 42.1992 15.3621 0.134268 0.018122
4959.74 4959.75 0.500000 41.4371 15.3654 0.134642 0.018265
4960 4960 0.500000 41.2388 15.3748 0.134591 0.018104
4960.25 4960.25 0.500000 44.9188 15.3816 0.134755 0.018151
4960.5 4960.5 0.500000 42.5151 15.3843 0.134722 0.018099
4960.75 4960.75 0.500000 42.8766 15.3938 0.135011 0.018117
4961 4961 0.500000 45.1799 15.3988 0.135083 0.018149
4961.24 4961.25 0.500000 44.4764 15.4062 0.135429 0.018322
4961.49 4961.5 0.500000 44.3719 15.4074 0.135388 0.018202
4961.75 4961.75 0.500000 46.0251 15.4106 0.135626 0.018282
4962 4962 0.500000 46.4825 15.4171 0.135783 0.018304
4962.25 4962.25 0.500000 49.4267 15.4287 0.135727 0.018223
4962.5 4962.5 0.500000 48.4601 15.4325 0.136082 0.018200
4962.74 4962.75 0.500000 48.4234 15.4357 0.136149 0.018090
4963 4963 0.500000 49.5265 15.445 0.136240 0.018117
4963.25 4963.25 0.500000 50.3932 15.4544 0.136249 0.017842
4963.49 4963.5 0.500000 52.9534 15.4619 0.136384 0.017992
4963.75 4963.75 0.500000 53.1867 15.4664 0.136480 0.017652
4964 4964 0.500000 52.7426 15.4682 0.136798 0.017597
4964.25 4964.25 0.500000 55.9737 15.4735 0.136771 0.017170
4964.5 4964.5 0.500000 58.5512 15.4815 0.136774 0.016445
4964.75 4964.75 0.500000 61.275 15.4869 0.137035 0.015681
4965 4965 0.500000 63.8259 15.4908 0.137050 0.014516
4965.25 4965.25 0.500000 65.1558 15.4906 0.136845 0.013543
4965.5 4965.5 0.500000 68.5056 15.4974 0.137194 0.013003
4965.75 4965.75 0.500000 76.7534 15.5059 0.136786 0.012785
4966 4966 0.500000 82.0904 15.5107 0.136866 0.013011
4966.25 4966.25 0.500000 93.5304 15.5135 0.136458 0.013471
4966.5 4966.5 0.500000 109.391 15.5164 0.135979 0.013837
4966.75 4966.75 0.500000 137.766 15.5205 0.135067 0.014075
4967 4967 0.500000 179.398 15.5313 0.133588 0.014217
4967.25 4967.25 0.500000 233.757 15.5336 0.131446 0.014022
4967.5 4967.5 0.500000 270.232 15.5358 0.130108 0.013996
4967.75 4967.75 0.500000 270.076 15.5416 0.130090 0.013784
4968 4968 0.500000 260.445 15.5465 0.130757 0.013477
4968.25 4968.25 0.500000 254.14 15.5515 0.131302 0.013603
4968.5 4968.5 0.500000 286.55 15.5572 0.130271 0.013136
4968.75 4968.75 0.500000 353.658 15.5608 0.127782 0.012772
4969 4969 0.500000 424.754 15.5635 0.124774 0.012324
4969.25 4969.25 0.500000 489.12 15.5675 0.122746 0.012153
4969.5 4969.5 0.500000 514.768 15.5656 0.121552 0.011850
4969.75 4969.75 0.500000 521.965 15.5673 0.121192 0.011626
4970 4970 0.500000 516.243 15.571 0.121988 0.011793
4970.25 4970.25 0.500000 481.399 15.5799 0.122951 0.011758
4970.5 4970.5 0.500000 449.449 15.5955 0.124610 0.011900
4970.75 4970.75 0.500000 417.48 15.6052 0.126167 0.012213
4971 4971 0.500000 387.213 15.618 0.127217 0.011750
4971.25 4971.25 0.500000 365.864 15.62 0.128572 0.012165
4971.5 4971.5 0.500000 339.368 15.6281 0.129859 0.012111
4971.75 4971.75 0.500000 325.985 15.6339 0.130563 0.011740
4972 4972 0.500000 323.862 15.6405 0.130766 0.011742
4972.25 4972.25 0.500000 339.119 15.6451 0.130209 0.011517
4972.5 4972.5 0.500000 361.788 15.6528 0.129601 0.011182
4972.75 4972.75 0.500000 381.301 15.6593 0.128983 0.011055
4973 4973 0.500000 389.734 15.66 0.128592 0.010760
4973.25 4973.25 0.500000 396.232 15.6623 0.128543 0.010437
4973.5 4973.5 0.500000 390.919 15.6664 0.129059 0.010419
4973.75 4973.75 0.500000 385.397 15.7083 0.129402 0.010025
4974 4974 0.500000 382.986 15.7107 0.129923 0.010122
4974.25 4974.25 0.500000 373.898 15.7117 0.130224 0.009959
4974.5 4974.5 0.500000 369.795 15.7146 0.130534 0.009796
4974.75 4974.75 0.500000 380.433 15.7191 0.130524 0.009465
4975 4975 0.500000 384.591 15.7233 0.130418 0.009434
4975.25 4975.25 0.500000 397.85 15.7228 0.129883 0.009258
4975.5 4975.5 0.500000 420.271 15.7222 0.129225 0.009260
4975.75 4975.75 0.500000 456.32 15.7234 0.128324 0.009105
4976 4976 0.500000 472.774 15.7252 0.127108 0.008776
4976.26 4976.25 0.500000 508.777 15.7235 0.125938 0.008506
4976.5 4976.5 0.500000 543.096 15.7233 0.124655 0.008051
4976.75 4976.75 0.500000 585.213 15.7264 0.123284 0.008160
4977 4977 0.500000 630.879 15.7246 0.121861 0.008063
4977.25 4977.25 0.500000 669.713 15.7237 0.120358 0.007786
4977.5 4977.5 0.500000 703.898 15.7284 0.119180 0.007666
4977.75 4977.75 0.500000 742.483 15.7331 0.117851 0.007587
4978 4978 0.500000 784.985 15.7371 0.116545 0.007622
4978.26 4978.25 0.500000 820.778 15.7421 0.115355 0.007437
4978.5 4978.5 0.500000 850.246 15.7802 0.114324 0.007265
4978.75 4978.75 0.500000 903.086 15.7813 0.112865 0.007251
4979 4979 0.500000 943.153 15.7839 0.111656 0.006994
4979.25 4979.25 0.500000 977.487 15.7863 0.110401 0.007150
4979.5 4979.5 0.500000 1014.1 15.7842 0.109102 0.006877
4979.76 4979.75 0.500000 1069.76 15.7837 0.107797 0.006917
4980 4980 0.500000 1116.22 15.7818 0.106021 0.006763
4980.25 4980.25 0.500000 1178.49 15.8193 0.104288 0.006703
4980.5 4980.5 0.500000 1242.49 15.82 0.102298 0.006502
4980.75 4980.75 0.500000 1300.3 15.8177 0.100066 0.006356
4981 4981 0.500000 1375.56 15.8175 0.098010 0.006215
4981.25 4981.25 0.500000 1469.51 15.8156 0.095643 0.006189
4981.5 4981.5 0.500000 1538.28 15.8202 0.093192 0.006005
4981.75 4981.75 0.500000 1633.44 15.8264 0.090614 0.005882
4982 4982 0.500000 1733 15.8305 0.087980 0.005782
4982.25 4982.25 0.500000 1836.11 15.8315 0.084750 0.005557
4982.5 4982.5 0.500000 1927.3 15.8347 0.082042 0.005681
4982.75 4982.75 0.500000 2046.21 15.8431 0.079109 0.005389
4983 4983 0.500000 2154.31 15.8461 0.076659 0.005261
4983.25 4983.25 0.500000 2229.15 15.8474 0.074421 0.005185
4983.5 4983.5 0.500000 2313.55 15.8482 0.072384 0.005011
4983.75 4983.75 0.500000 2376.42 15.8506 0.070723 0.004956
4984 4984 0.500000 2428.18 15.8534 0.069604 0.005022
4984.25 4984.25 0.500000 2467.72 15.8553 0.068452 0.004778
4984.5 4984.5 0.500000 2516.64 15.8566 0.067689 0.004886
4984.75 4984.75 0.500000 2537.25 15.8565 0.066902 0.004835
4985 4985 0.500000 2563.61 15.8628 0.066585 0.005014
4985.26 4985.25 0.500000 2569.31 15.8634 0.065958 0.004776
4985.5 4985.5 0.500000 2601.07 15.8665 0.065968 0.004902
4985.75 4985.75 0.500000 2587.85 15.8702 0.065762 0.004924
4986 4986 0.500000 2603.95 15.8735 0.065762 0.004987
4986.25 4986.25 0.500000 2600.78 15.8742 0.065849 0.004922
4986.5 4986.5 0.500000 2606.57 15.8748 0.065990 0.005059
4986.75 4986.75 0.500000 2614.8 15.8737 0.065930 0.004957
4987 4987 0.500000 2610.15 15.8757 0.065778 0.005029
4987.26 4987.25 0.500000 2631.54 15.8741 0.065648 0.004924
4987.5 4987.5 0.500000 2609.61 15.8759 0.065575 0.004885
4987.75 4987.75 0.500000 2620.54 15.876 0.065715 0.005000
4988 4988 0.500000 2622.72 15.8822 0.066088 0.004841
4988.25 4988.25 0.500000 2608.86 15.8905 0.066455 0.005035
4988.5 4988.5 0.500000 2582.43 15.9025 0.066934 0.005092
4988.75 4988.75 0.500000 2574.11 15.9134 0.067494 0.005146
4989 4989 0.500000 2562.09 15.9277 0.068053 0.005147
4989.25 4989.25 0.500000 2527.24 15.9393 0.068555 0.005128
4989.5 4989.5 0.500000 2519.02 15.9567 0.068949 0.005013
4989.75 4989.75 0.500000 2506.16 15.9714 0.069558 0.005170
4990 4990 0.500000 2488.85 15.985 0.070091 0.005258
4990.25 4990.25 0.500000 2484.92 15.9982 0.070441 0.005225
4990.5 4990.5 0.500000 2480.06 16.0096 0.071008 0.005343
4990.75 4990.75 0.500000 2446.4 16.027 0.071145 0.005269
4991.01 4991 0.500000 2440.94 16.0414 0.071769 0.005307
4991.25 4991.25 0.500000 2432.5 16.0518 0.072193 0.005374
4991.5 4991.5 0.500000 2418.86 16.0634 0.072531 0.005294
4991.75 4991.75 0.500000 2416.28 16.0739 0.072878 0.005362
4992 4992 0.500000 2393.61 16.0875 0.073213 0.005392
4992.25 4992.25 0.500000 2403.85 16.0982 0.073357 0.005087
4992.5 4992.5 0.500000 2395.47 16.1111 0.073962 0.005355
4992.75 4992.75 0.500000 2369.81 16.1163 0.074284 0.005440
4993 4993 0.500000 2393.92 16.1225 0.074500 0.005539
4993.25 4993.25 0.500000 2374.04 16.1285 0.074651 0.005492
4993.5 4993.5 0.500000 2370.4 16.1384 0.074863 0.005506
4993.75 4993.75 0.500000 2379.84 16.1466 0.075104 0.005674
4994 4994 0.500000 2366 16.1532 0.074779 0.005321
4994.25 4994.25 0.500000 2390.44 16.1608 0.074965 0.005445
4994.5 4994.5 0.500000 2390.75 16.1647 0.074702 0.005483
4994.75 4994.75 0.500000 2399.2 16.1698 0.074403 0.005331
4995 4995 0.500000 2416.71 16.1759 0.074521 0.005443
4995.25 4995.25 0.500000 2436.51 16.1818 0.073959 0.005431
4995.5 4995.5 0.500000 2455.7 16.1836 0.073675 0.005245
4995.75 4995.75 0.500000 2459.43 16.1892 0.073171 0.005357
4996 4996 0.700000 2478.81 22.6592 0.101874 0.007309
4997.09 4997.08 0.710000 2578.96 23.016 0.100937 0.007159
4998.19 4998.18 0.730000 2627.36 23.6722 0.102045 0.007103
4999.3 4999.29 0.740000 2643.63 24.0193 0.103487 0.007146
5000.44 5000.43 0.750000 2622.36 24.3857 0.106190 0.007180
5001.59 5001.58 0.760000 2612.86 24.7655 0.109185 0.007662
5002.77 5002.76 0.780000 2582.82 25.4778 0.113619 0.007869
5003.96 5003.95 0.790000 2518.87 25.875 0.119209 0.008080
5005.17 5005.16 0.800000 2425.98 26.2736 0.125855 0.008587
5006.4 5006.39 0.810000 2312.37 26.6753 0.133215 0.009091
5007.65 5007.64 0.830000 2237.05 27.4025 0.140352 0.009427
5008.92 5008.91 0.840000 2200.89 27.7999 0.145523 0.009834
5010.2 5010.2 0.850000 2138.91 28.1984 0.151110 0.010642
5011.51 5011.51 0.860000 2111.43 28.5911 0.156443 0.011047
5012.84 5012.83 0.880000 2081.46 29.3101 0.162056 0.011283
5014.19 5014.18 0.890000 2075.89 29.6984 0.165426 0.011351
5015.54 5015.54 0.900000 2061.99 30.1163 0.169073 0.011866
5016.93 5016.93 0.910000 2071.41 30.5445 0.171893 0.012029
5018.34 5018.33 0.930000 2093.77 31.2778 0.176005 0.012662
5019.75 5019.75 0.940000 2084.6 31.6809 0.179366 0.013057
5021.19 5021.19 0.950000 2067.82 32.0814 0.184004 0.013467
5022.65 5022.65 0.960000 2044.13 32.4885 0.188411 0.013433
5024.14 5024.13 0.980000 2046.38 33.2381 0.194393 0.014024
5025.64 5025.63 0.990000 2054.37 33.6497 0.197004 0.014135
5027.15 5027.14 1.000000 2071.03 34.0607 0.200046 0.014400
5028.69 5028.68 1.010000 2081.24 34.5499 0.203242 0.014654
5030.24 5030.24 1.030000 2094.9 35.3073 0.207775 0.014792
5031.81 5031.81 1.040000 2104.48 35.7285 0.210129 0.014544
5033.4 5033.4 1.050000 2116.21 36.1385 0.213627 0.014658
5035.02 5035.01 1.060000 2125.24 36.5516 0.216429 0.014364
5036.66 5036.65 1.080000 2147.68 37.3182 0.222073 0.014735
5038.31 5038.3 1.090000 2151.06 37.7427 0.225058 0.014796
5039.98 5039.97 1.100000 2150.35 38.208 0.228108 0.014984
5041.65 5041.65 1.110000 2179.73 38.6691 0.231850 0.015265
5043.36 5043.36 1.130000 2185.06 39.4405 0.237250 0.015846
5045.09 5045.09 1.140000 2189.39 39.8565 0.240631 0.016128
5046.83 5046.83 1.150000 2205.75 40.2777 0.243451 0.016180
5048.6 5048.6 1.160000 2227.07 40.7109 0.245902 0.016821
5050.38 5050.38 1.180000 2268.21 41.4889 0.250465 0.017534
5052.18 5052.18 1.190000 2284.07 41.9207 0.253010 0.017730
5053.99 5054 1.200000 2303.6 42.3602 0.255266 0.018406
5055.84 5055.84 1.210000 2329.59 42.7942 0.258108 0.018711
5057.69 5057.7 1.230000 2345.68 43.5909 0.263500 0.019123
5059.57 5059.58 1.240000 2353.26 44.0338 0.266440 0.019294
5061.47 5061.48 1.250000 2371.95 44.4664 0.269570 0.019662
5063.4 5063.4 1.260000 2386.72 44.9171 0.273582 0.019976
5065.32 5065.33 1.280000 2394.5 45.7255 0.280322 0.020739
5067.28 5067.29 1.290000 2385.6 46.1697 0.285333 0.021067
5069.26 5069.26 1.300000 2378.01 46.612 0.290843 0.021796
5071.26 5071.26 1.310000 2378.82 47.0625 0.296222 0.021966
5073.27 5073.27 1.330000 2358.59 47.8689 0.304562 0.022572
5075.3 5075.3 1.340000 2346.85 48.3079 0.311654 0.023054
5077.35 5077.35 1.350000 2329.59 48.7524 0.318352 0.023191
5079.42 5079.42 1.360000 2319.89 49.1985 0.325029 0.023493
5081.51 5081.51 1.380000 2312.77 49.9974 0.333830 0.023759
5083.61 5083.61 1.390000 2306.43 50.433 0.339065 0.023652
5085.74 5085.74 1.400000 2306.85 50.8899 0.345092 0.023789
5087.89 5087.89 1.410000 2308.66 51.3211 0.351482 0.024275
5090.05 5090.05 1.430000 2292.25 52.1263 0.360405 0.024634
5092.23 5092.23 1.440000 2288.64 52.5608 0.368031 0.024914
5094.44 5094.44 1.450000 2269.23 53.006 0.374605 0.025631
5096.66 5096.66 1.460000 2266.15 53.4536 0.382477 0.026638
5098.9 5098.9 1.480000 2264.24 54.2576 0.391840 0.027771
5101.16 5101.16 1.490000 2269.47 54.6974 0.397408 0.028746
5103.44 5103.44 1.500000 2278.54 55.1449 0.402775 0.029751
5105.74 5105.74 1.510000 2290.98 55.5866 0.407362 0.030565
5108.05 5108.05 1.530000 2299.08 56.3906 0.415305 0.031270
5110.39 5110.39 1.540000 2314.19 56.842 0.421535 0.031747
5112.74 5112.74 1.550000 2315.21 57.2927 0.427809 0.032047
5115.12 5115.12 1.560000 2319.82 57.7274 0.434478 0.032654
5117.51 5117.51 1.580000 2331.34 58.5501 0.443424 0.033380
5119.92 5119.92 1.590000 2334.88 58.9969 0.449815 0.033772
5122.35 5122.35 1.600000 2346.35 59.4604 0.456185 0.034411
5124.8 5124.8 1.610000 2353.52 59.9103 0.462527 0.034981
5127.27 5127.27 1.630000 2374.84 60.7373 0.471575 0.035584
5129.76 5129.76 1.640000 2376.8 61.1992 0.477938 0.036325
5132.27 5132.27 1.650000 2379.48 61.6598 0.485127 0.036891
5134.79 5134.79 1.660000 2388.88 62.1197 0.492456 0.037651
5137.34 5137.34 1.680000 2385.22 62.9675 0.503178 0.038346
5139.9 5139.9 1.690000 2400.93 63.4462 0.510332 0.038422
5142.49 5142.49 1.700000 2405.01 63.9206 0.517405 0.038780
5145.09 5145.09 1.710000 2415.54 64.572 0.525296 0.038663
5147.71 5147.71 1.730000 2426.13 65.4243 0.536539 0.039840
5150.35 5150.35 1.740000 2423.33 66.0717 0.546654 0.040410
5153.01 5153.01 1.750000 2430.73 66.5445 0.554775 0.040944
5155.69 5155.69 1.760000 2427.39 67.0755 0.564362 0.042380
5158.39 5158.39 1.780000 2432.11 67.9486 0.577373 0.043391
5161.11 5161.11 1.790000 2424.9 68.4303 0.587817 0.044767
5163.84 5163.84 1.800000 2427.32 68.9566 0.598297 0.045748
5166.6 5166.6 1.810000 2431.43 69.4573 0.608151 0.046522
5169.37 5169.37 1.830000 2440.65 70.5255 0.622284 0.048316
5172.17 5172.17 1.840000 2443.04 71.016 0.631858 0.049529
5174.98 5174.98 1.850000 2454.79 71.5372 0.640393 0.050296
5177.81 5177.81 1.860000 2459.02 72.0218 0.650037 0.052113
5180.66 5180.66 1.880000 2464.9 72.9528 0.663439 0.052941
5183.53 5183.53 1.890000 2467.92 73.4935 0.674008 0.054074
5186.42 5186.42 1.900000 2474.14 74.0141 0.684901 0.054781
5189.32 5189.32 1.910000 2482.27 74.538 0.695585 0.055638
5192.25 5192.25 1.930000 2479.06 75.4518 0.710375 0.056869
5195.2 5195.2 1.940000 2486.23 75.9802 0.723047 0.058370
5198.16 5198.16 1.950000 2482.21 76.4797 0.735672 0.059408
5201.14 5201.14 1.960000 2488.88 77.0115 0.747981 0.060278
5204.15 5204.15 1.980000 2479.94 77.9283 0.764249 0.061303
5207.17 5207.17 1.990000 2479.79 78.524 0.777931 0.062811
5210.21 5210.21 2.000000 2482.58 79.07 0.790649 0.063453
5213.27 5213.27 2.010000 2488.18 79.5874 0.803152 0.064073
5216.35 5216.35 2.030000 2499.55 80.5061 0.819971 0.066116
5219.45 5219.45 2.040000 2506.8 81.009 0.831630 0.067155
5222.56 5222.56 2.050000 2514.5 81.5634 0.845524 0.068632
5225.7 5225.7 2.060000 2511.33 82.0496 0.858672 0.070070
5228.85 5228.85 2.080000 2515.97 82.9366 0.875996 0.071726
5232.03 5232.03 2.090000 2518.24 83.4645 0.890087 0.073110
5235.22 5235.22 2.100000 2535.19 84.0003 0.903728 0.074502
5238.43 5238.43 2.110000 2536.1 84.5507 0.916798 0.075929
5241.66 5241.66 2.130000 2548.32 85.4792 0.935362 0.078155
5244.92 5244.92 2.140000 2545.95 85.9711 0.949174 0.079779
5248.18 5248.18 2.150000 2560.64 86.0329 0.957815 0.081037
5251.47 5251.47 2.160000 2566.08 86.5892 0.971412 0.082578
5254.78 5254.78 2.180000 2577.39 87.9155 0.995008 0.085317
5258.11 5258.11 2.190000 2588.04 88.5689 1.010185 0.086474
5261.45 5261.45 2.200000 2601.88 89.1014 1.025502 0.088604
5264.82 5264.82 2.210000 2607.65 89.7339 1.042116 0.090356
5268.2 5268.2 2.230000 2607.57 90.7444 1.064757 0.092267
5271.6 5271.6 2.240000 2620.9 91.3583 1.082773 0.094342
5275.03 5275.03 2.250000 2620.7 92.0901 1.103026 0.095912
5278.47 5278.47 2.260000 2617.78 91.3846 1.105373 0.096366
5281.93 5281.93 2.280000 2621.95 93.552 1.143878 0.100104
5285.4 5285.4 2.290000 2618.92 94.3106 1.165270 0.101844
5288.9 5288.9 2.300000 2628.58 95.06 1.186509 0.103733
5292.42 5292.42 2.310000 2637.17 95.7985 1.206839 0.106146
5295.96 5295.96 2.330000 2648.36 97.135 1.235635 0.109302
5299.51 5299.51 2.340000 2646.78 97.7307 1.254943 0.111238
5303.09 5303.09 2.350000 2658.42 98.3122 1.273984 0.113442
5306.68 5306.68 2.360000 2668.14 99.0037 1.295872 0.115712
5310.29 5310.29 2.380000 2676.16 100.061 1.321846 0.118298
5313.92 5313.92 2.390000 2676.07 100.731 1.344542 0.121117
5317.57 5317.57 2.400000 2681.68 101.599 1.370062 0.123817
5321.24 5321.24 2.410000 2687.68 102.039 1.390028 0.125887
5324.93 5324.93 2.430000 2695.96 103.025 1.417510 0.129199
5328.64 5328.64 2.440000 2702.81 103.528 1.438930 0.131599
5332.36 5332.36 2.450000 2705.61 104.099 1.462009 0.134465
5336.11 5336.11 2.460000 2718.14 104.692 1.485189 0.137261
5339.87 5339.87 2.480000 2715.56 105.734 1.516045 0.141489
5343.66 5343.66 2.490000 2718.17 106.294 1.539655 0.143853
5347.46 5347.46 2.500000 2725.42 106.816 1.564603 0.147317
5351.28 5351.28 2.510000 2727.63 107.178 1.586058 0.149943
5355.12 5355.12 2.530000 2734.54 107.476 1.608051 0.152322
5358.98 5358.98 2.540000 2740.32 109.073 1.647893 0.156452
5362.86 5362.86 2.550000 2749.25 109.7 1.673756 0.159397
5366.76 5366.76 2.560000 2757.44 110.192 1.698440 0.162304
5370.68 5370.68 2.580000 2760.63 111.047 1.729250 0.165660
5374.61 5374.61 2.590000 2766.13 111.525 1.754201 0.168837
5378.57 5378.57 2.600000 2774.24 111.937 1.778167 0.171850
5382.54 5382.54 2.610000 2787.28 112.448 1.804284 0.174871
5386.54 5386.54 2.630000 2793.77 113.241 1.834565 0.178617
5390.55 5390.55 2.640000 2803.99 113.565 1.858565 0.182178
5394.58 5394.58 2.650000 2812.25 113.952 1.882993 0.184929
5398.63 5398.63 2.660000 2818.95 114.027 1.903090 0.188445
5402.7 5402.7 2.680000 2831.69 114.757 1.934468 0.192027
5406.79 5406.79 2.690000 2840.92 114.756 1.953616 0.195072
5410.9 5410.9 2.700000 2846.97 114.79 1.973801 0.197906
5415.02 5415.02 2.710000 2856.79 115.067 1.998163 0.201230
5419.17 5419.17 2.730000 2869.45 115.077 2.017501 0.204165
5423.33 5423.33 2.740000 2880.08 115.463 2.044614 0.207636
5427.52 5427.52 2.750000 2882.57 115.436 2.065176 0.210710
5431.72 5431.72 2.760000 2892.6 115.44 2.084472 0.213986
5435.94 5435.94 2.780000 2899.31 115.875 2.113854 0.218292
5440.18 5440.18 2.790000 2909.81 115.874 2.133905 0.221036
5444.44 5444.44 2.800000 2918.6 116.246 2.162275 0.224876
5448.72 5448.72 2.810000 2930.78 116.396 2.187028 0.229162
5453.02 5453.02 2.830000 2942.97 116.954 2.219262 0.233733
5457.34 5457.34 2.840000 2947.57 117.067 2.243491 0.237286
5461.67 5461.67 2.850000 2957.33 117.094 2.266110 0.240590
5466.03 5466.03 2.860000 2963.09 117.467 2.295585 0.244428
5470.4 5470.4 2.880000 2982.95 118.158 2.332873 0.249393
5474.8 5474.8 2.890000 2985.87 118.234 2.358311 0.253447
5479.21 5479.21 2.900000 2999.26 118.37 2.384595 0.257524
5483.64 5483.64 2.910000 3010.83 118.607 2.413026 0.261455
5488.09 5488.09 2.930000 3020.4 119.264 2.450189 0.266358
5492.56 5492.56 2.940000 3026.83 119.545 2.480922 0.271061
5497.05 5497.05 2.950000 3035.55 119.788 2.512860 0.276109
5501.56 5501.56 2.960000 3049.41 120.215 2.547251 0.280864
5506.08 5506.08 2.980000 3055.34 120.982 2.590068 0.286948
5510.63 5510.63 2.990000 3064.04 121.437 2.626207 0.292340
5515.19 5515.19 3.000000 3077.22 121.992 2.665950 0.298409
5519.78 5519.78 3.010000 3079.42 122.583 2.706332 0.304170
5524.38 5524.38 3.030000 3097.25 123.466 2.753601 0.310694
5529 5529 3.040000 3104.46 124.108 2.796653 0.317666
5533.64 5533.64 3.050000 3108.05 124.732 2.839927 0.323596
5538.3 5538.3 3.060000 3121.7 125.461 2.886286 0.330361
5542.98 5542.98 3.080000 3131.29 126.601 2.942693 0.338259
5547.68 5547.68 3.090000 3148.27 127.331 2.990270 0.345627
5552.4 5552.4 3.100000 3153.84 128.13 3.040757 0.353412
5557.13 5557.13 3.110000 3171.88 128.799 3.087910 0.360289
5561.89 5561.89 3.130000 3173.9 130.091 3.152219 0.369150
5566.66 5566.66 3.140000 3183.78 130.86 3.204216 0.377198
5571.46 5571.46 3.150000 3190.97 131.641 3.256934 0.385061
5576.27 5576.27 3.160000 3196.6 132.435 3.311615 0.393589
5581.1 5581.1 3.180000 3221.97 133.604 3.375480 0.402296
5585.95 5585.95 3.190000 3226.74 134.609 3.437108 0.412268
5590.82 5590.82 3.200000 3243.76 135.25 3.489712 0.419825
5595.71 5595.71 3.210000 3247.66 136.036 3.547635 0.429564
5600.62 5600.62 3.230000 3258.31 137.427 3.622316 0.440162
5605.54 5605.54 3.240000 3272.44 138.518 3.689775 0.450691
5610.49 5610.49 3.250000 3280.98 139.45 3.753431 0.460024
5615.45 5615.45 3.260000 3291.3 140.407 3.819152 0.470675
5620.44 5620.44 3.280000 3298.54 141.87 3.901193 0.483647
5625.44 5625.44 3.290000 3317.25 142.01 3.944824 0.491356
5630.46 5630.46 3.300000 3326.26 142.175 3.990183 0.499723
5635.5 5635.5 3.310000 3331.84 143.228 4.064080 0.511258
5640.56 5640.56 3.330000 3345.17 144.468 4.143082 0.524130
5645.64 5645.64 3.340000 3358.88 145.066 4.205095 0.534143
5650.74 5650.74 3.350000 3360.85 145.726 4.269931 0.545213
5655.86 5655.86 3.360000 3375.05 146.465 4.337200 0.556684
5660.99 5660.99 3.380000 3390.09 147.769 4.423720 0.570680
5666.15 5666.15 3.390000 3397.9 148.669 4.498730 0.582740
5671.32 5671.32 3.400000 3410.89 149.735 4.579627 0.596670
5676.52 5676.52 3.410000 3420.56 150.645 4.654840 0.608811
5681.73 5681.73 3.430000 3432.03 152.042 4.746966 0.624250
5686.96 5686.96 3.440000 3438.89 152.781 4.818169 0.636941
5692.21 5692.21 3.450000 3451.59 153.541 4.890473 0.649938
5697.48 5697.48 3.460000 3463.39 154.272 4.960939 0.662091
5702.77 5702.77 3.480000 3478.64 155.458 5.040106 0.676365
5708.08 5708.08 3.490000 3496.21 156.187 5.098122 0.687475