File: xdidata/Ti/Ti-K-Ce2Ti2O7.xdi
# XDI/1.0 BlueSky/1.5.0
# Beamline.name: 6BM
# Beamline.xray_source: NSLS-II three-pole wiggler
# Beamline.collimation: paraboloid mirror, 5 nm Rh on 30 nm Pt
# Beamline.focusing: not in use
# Beamline.harmonic_rejection: flat mirror, Si stripe, pitch = 7.0 mrad relative to beam
# Detector.i0: 10 cm N2
# Detector.i1: 25 cm N2
# Detector.i2: 25 cm N2
# Element.symbol: Ti
# Element.edge: K
# Facility.name: NSLS-II
# Facility.energy: 3.0
# Facility.current: 220.8
# Facility.mode: top-off
# Facility.gup: 301027
# Facility.saf: 304156
# Mono.name: Si(111)
# Mono.d_spacing: 3.13526
# Mono.encoder_resolution: 0.0000050 deg/ct
# Mono.angle_offset: 16.0571 deg
# Mono.scan_mode: pseudo channel cut
# Mono.scan_type: step
# Mono.direction: forward in energy
# Sample.name: Ce2Ti2O7
# Sample.prep: Powder in polyethylene glycol pellet
# Sample.x_position: -113.290 mm
# Sample.y_position: 117.505 mm
# Sample.wheel_position: 270.000 mm
# Scan.experimenters: Bruce Ravel, Martin Stennett
# Scan.edge_energy: 4966.0
# Scan.start_time: 2019-05-30T17:18:38
# Scan.end_time: 2019-05-30T18:02:14
# Scan.transient_id: 9843
# Scan.uid: 2b4b57ed-a9de-46fb-9814-9095f5ba7e96
# Scan.plot_hint: (DTC1 + DTC2 + DTC3 + DTC4) / I0  --  ($8+$9+$10+$11) / $5
# Scan.sequence: merge of 3 scans
# Column.1: energy eV
# Column.2: requested_energy eV
# Column.3: measurement_time seconds
# Column.4: mutrans
# Column.5: i0
# Column.6: itrans
# Column.7: irefer
# /////
#  sample disk prepared by Martin
# -----
# energy   requested_energy   measurement_time   mutrans   i0   itrans   irefer
4765.99 4766 0.500000 79.8578 10.4096 0.036491 0.005320
4776.01 4776 0.500000 75.5672 10.6306 0.037871 0.005479
4786.01 4786 0.500000 70.3584 10.8803 0.040218 0.005728
4796.01 4796 0.500000 69.9237 11.1421 0.042863 0.006218
4806.01 4806 0.500000 62.9369 11.4363 0.045457 0.006344
4816.36 4816 0.500000 60.4349 11.7007 0.048461 0.006708
4826 4826 0.500000 57.3872 11.9511 0.051585 0.007257
4836.01 4836 0.500000 55.0445 12.2164 0.054115 0.007081
4846.01 4846 0.500000 49.6215 12.4817 0.057725 0.007741
4856.01 4856 0.500000 47.8415 12.7443 0.061244 0.008462
4866 4866 0.500000 44.0815 13.0111 0.064916 0.008837
4876 4876 0.500000 39.7367 13.277 0.068679 0.009482
4886 4886 0.500000 37.7736 13.5438 0.072737 0.009957
4896 4896 0.500000 35.6927 13.8079 0.076837 0.010444
4906 4906 0.500000 31.3092 14.0771 0.081128 0.011229
4916 4916 0.500000 31.1155 14.3433 0.085532 0.011682
4926 4926 0.500000 28.3245 14.6143 0.090252 0.012610
4936 4936 0.500000 27.8422 14.8728 0.095084 0.013339
4937.99 4938 0.500000 27.5169 14.9223 0.096164 0.013566
4939.99 4940 0.500000 25.6112 14.9718 0.096584 0.013285
4941.99 4942 0.500000 27.933 15.0195 0.097928 0.013577
4944 4944 0.500000 25.3132 15.0628 0.098736 0.013597
4946.01 4946 0.500000 26.1545 15.1037 0.099624 0.013766
4948 4948 0.500000 25.9374 15.1471 0.100697 0.014010
4950 4950 0.500000 25.4865 15.1973 0.101540 0.013920
4952 4952 0.500000 26.6699 15.2418 0.102494 0.014177
4954 4954 0.500000 26.3794 15.2884 0.103679 0.014513
4956.01 4956 0.500000 27.8581 15.3313 0.104582 0.014457
4956.25 4956.25 0.500000 26.5239 15.3361 0.104743 0.014552
4956.49 4956.5 0.500000 28.6335 15.3407 0.104919 0.014551
4956.74 4956.75 0.500000 26.2025 15.3464 0.104760 0.014340
4956.99 4957 0.500000 26.6313 15.3469 0.104944 0.014469
4957.24 4957.25 0.500000 28.0664 15.3491 0.105013 0.014438
4957.49 4957.5 0.500000 26.9528 15.3523 0.105127 0.014491
4957.74 4957.75 0.500000 28.281 15.3556 0.105455 0.014709
4958 4958 0.500000 27.1377 15.3628 0.105520 0.014645
4958.24 4958.25 0.500000 27.5216 15.3679 0.105479 0.014505
4958.49 4958.5 0.500000 27.0384 15.3712 0.105725 0.014638
4958.75 4958.75 0.500000 27.2842 15.3735 0.105863 0.014679
4959 4959 0.500000 28.1676 15.3838 0.105867 0.014509
4959.25 4959.25 0.500000 29.1688 15.3856 0.106049 0.014743
4959.5 4959.5 0.500000 29.3199 15.392 0.106242 0.014929
4959.75 4959.75 0.500000 29.7726 15.3933 0.106247 0.014662
4959.99 4960 0.500000 29.6892 15.3967 0.106449 0.014641
4960.25 4960.25 0.500000 29.5459 15.4043 0.106409 0.014744
4960.5 4960.5 0.500000 28.3931 15.411 0.106721 0.014717
4960.75 4960.75 0.500000 29.0593 15.4153 0.106855 0.014690
4961 4961 0.500000 29.9908 15.4205 0.106854 0.014750
4961.25 4961.25 0.500000 30.9148 15.4246 0.106946 0.014763
4961.5 4961.5 0.500000 30.5252 15.4295 0.107017 0.014668
4961.74 4961.75 0.500000 32.1006 15.4341 0.107041 0.014902
4961.99 4962 0.500000 31.4991 15.4411 0.107183 0.014669
4962.25 4962.25 0.500000 30.1919 15.4453 0.107234 0.014750
4962.5 4962.5 0.500000 30.898 15.4498 0.107466 0.014827
4962.75 4962.75 0.500000 31.8394 15.4534 0.107618 0.014707
4963 4963 0.500000 32.1748 15.4597 0.107818 0.014733
4963.25 4963.25 0.500000 33.9013 15.4679 0.107763 0.014603
4963.5 4963.5 0.500000 32.4728 15.4744 0.107730 0.014334
4963.75 4963.75 0.500000 33.9594 15.4799 0.108026 0.014357
4963.99 4964 0.500000 34.098 15.4816 0.108476 0.014275
4964.25 4964.25 0.500000 36.2773 15.4876 0.108215 0.013776
4964.5 4964.5 0.500000 36.3106 15.4935 0.108343 0.013215
4964.75 4964.75 0.500000 36.3728 15.4993 0.108673 0.012662
4965 4965 0.500000 38.5703 15.5047 0.108780 0.011936
4965.25 4965.25 0.500000 39.8345 15.5094 0.108547 0.010966
4965.5 4965.5 0.500000 41.1271 15.5129 0.108659 0.010520
4965.75 4965.75 0.500000 41.8324 15.5181 0.108893 0.010602
4966 4966 0.500000 45.135 15.5255 0.108856 0.010835
4966.25 4966.25 0.500000 49.057 15.529 0.108864 0.011008
4966.5 4966.5 0.500000 54.5372 15.5342 0.108504 0.011279
4966.75 4966.75 0.500000 64.5801 15.5376 0.108775 0.011836
4967 4967 0.500000 78.4024 15.5411 0.108160 0.011783
4967.25 4967.25 0.500000 92.8889 15.5425 0.107961 0.011736
4967.5 4967.5 0.500000 101.708 15.5459 0.107855 0.011887
4967.75 4967.75 0.500000 103.477 15.5537 0.107809 0.011524
4968 4968 0.500000 106.9 15.5617 0.107768 0.011669
4968.25 4968.25 0.500000 121.661 15.5672 0.107332 0.011356
4968.5 4968.5 0.500000 148.882 15.5708 0.106630 0.011243
4968.75 4968.75 0.500000 204.425 15.5728 0.104874 0.010978
4969 4969 0.500000 262.624 15.5769 0.102898 0.010488
4969.25 4969.25 0.500000 305.902 15.5787 0.101797 0.010209
4969.5 4969.5 0.500000 301.078 15.5819 0.101916 0.010393
4969.75 4969.75 0.500000 271.248 15.5821 0.102950 0.010228
4970 4970 0.500000 227.936 15.5814 0.104450 0.010266
4970.25 4970.25 0.500000 196.763 15.5901 0.105937 0.010535
4970.5 4970.5 0.500000 174.998 15.6136 0.106702 0.010484
4970.75 4970.75 0.500000 165.891 15.6341 0.106993 0.010140
4971 4971 0.500000 157.973 15.6455 0.107701 0.010352
4971.25 4971.25 0.500000 151.597 15.6562 0.107996 0.010282
4971.5 4971.5 0.500000 151.725 15.6677 0.108295 0.010475
4971.75 4971.75 0.500000 158.281 15.6745 0.107979 0.010096
4972 4972 0.500000 177.816 15.6774 0.107661 0.010130
4972.25 4972.25 0.500000 191.239 15.682 0.107277 0.009752
4972.5 4972.5 0.500000 208.788 15.6851 0.106783 0.009678
4972.75 4972.75 0.500000 226.343 15.6918 0.106254 0.009454
4973 4973 0.500000 231.47 15.6972 0.106246 0.009018
4973.25 4973.25 0.500000 225.141 15.7014 0.106455 0.009092
4973.5 4973.5 0.500000 223.715 15.7029 0.106595 0.008818
4973.75 4973.75 0.500000 222.259 15.7411 0.106990 0.008652
4974 4974 0.500000 219.691 15.744 0.107446 0.008699
4974.25 4974.25 0.500000 210.527 15.7487 0.107704 0.008318
4974.5 4974.5 0.500000 206.549 15.7521 0.108064 0.008408
4974.75 4974.75 0.500000 205.299 15.754 0.108345 0.008339
4975 4975 0.500000 206.225 15.7555 0.108096 0.008031
4975.25 4975.25 0.500000 202.746 15.7562 0.108249 0.007923
4975.5 4975.5 0.500000 210.315 15.7576 0.108493 0.008051
4975.75 4975.75 0.500000 210.96 15.759 0.108447 0.007876
4976 4976 0.500000 218.033 15.7582 0.108493 0.007960
4976.25 4976.25 0.500000 218.024 15.7557 0.108240 0.007740
4976.5 4976.5 0.500000 221.82 15.7579 0.108218 0.007404
4976.75 4976.75 0.500000 232.697 15.7582 0.108118 0.007503
4977 4977 0.500000 241.561 15.7947 0.108245 0.007416
4977.25 4977.25 0.500000 260.851 15.7966 0.107795 0.007227
4977.5 4977.5 0.500000 273.995 15.8023 0.107124 0.007140
4977.75 4977.75 0.500000 295.671 15.8038 0.106728 0.006909
4978 4978 0.500000 326.189 15.8072 0.105816 0.006908
4978.25 4978.25 0.500000 348.283 15.8089 0.105090 0.006873
4978.5 4978.5 0.500000 378.464 15.8128 0.104150 0.006824
4978.75 4978.75 0.500000 402.225 15.817 0.103476 0.006606
4979 4979 0.500000 442.562 15.8196 0.102348 0.006545
4979.25 4979.25 0.500000 481.08 15.8177 0.101456 0.006653
4979.5 4979.5 0.500000 517.721 15.8174 0.100121 0.006434
4979.75 4979.75 0.500000 566.637 15.8129 0.098853 0.006387
4980 4980 0.500000 623.2 15.8128 0.097048 0.006265
4980.25 4980.25 0.500000 678.621 15.8108 0.095596 0.006337
4980.5 4980.5 0.500000 734.903 15.8083 0.093814 0.006078
4980.75 4980.75 0.500000 797.347 15.8083 0.092110 0.006021
4981 4981 0.500000 861.863 15.8037 0.090432 0.005972
4981.25 4981.25 0.500000 914.284 15.8044 0.088778 0.005853
4981.5 4981.5 0.500000 976.973 15.8056 0.087242 0.005807
4981.75 4981.75 0.500000 1024.03 15.8084 0.085862 0.005651
4982 4982 0.500000 1082.76 15.814 0.084537 0.005741
4982.25 4982.25 0.500000 1130.05 15.8174 0.082864 0.005382
4982.51 4982.5 0.500000 1171.05 15.8169 0.081880 0.005468
4982.75 4982.75 0.500000 1225.39 15.8207 0.080608 0.005341
4983 4983 0.500000 1280.06 15.8222 0.079363 0.005324
4983.25 4983.25 0.500000 1328.15 15.8271 0.078607 0.005511
4983.5 4983.5 0.500000 1356.29 15.8279 0.077728 0.005337
4983.75 4983.75 0.500000 1384.47 15.8276 0.076861 0.005124
4984 4984 0.500000 1399.21 15.8249 0.076683 0.005209
4984.25 4984.25 0.500000 1407.15 15.8232 0.076552 0.005251
4984.5 4984.5 0.500000 1407.28 15.8238 0.076627 0.005317
4984.75 4984.75 0.500000 1389.56 15.8268 0.076883 0.005233
4985 4985 0.500000 1378.18 15.8312 0.077489 0.005362
4985.25 4985.25 0.500000 1361.65 15.8357 0.077845 0.005177
4985.5 4985.5 0.500000 1333.09 15.8353 0.078621 0.005398
4985.75 4985.75 0.500000 1312.9 15.8392 0.079463 0.005598
4986 4986 0.500000 1287.03 15.8401 0.080092 0.005580
4986.25 4986.25 0.500000 1269.77 15.8373 0.080735 0.005571
4986.5 4986.5 0.500000 1251.67 15.8388 0.081553 0.005594
4986.75 4986.75 0.500000 1225.36 15.8399 0.082218 0.005725
4987 4987 0.500000 1201.95 15.8397 0.082839 0.005722
4987.25 4987.25 0.500000 1187.77 15.8359 0.083176 0.005802
4987.5 4987.5 0.500000 1183.25 15.8315 0.083481 0.005972
4987.75 4987.75 0.500000 1164.78 15.8333 0.083862 0.005714
4988 4988 0.500000 1157.49 15.837 0.084133 0.005701
4988.26 4988.25 0.500000 1143.78 15.845 0.084742 0.005877
4988.5 4988.5 0.500000 1134.38 15.8528 0.084912 0.005880
4988.75 4988.75 0.500000 1137.28 15.8639 0.085226 0.005704
4989 4989 0.500000 1125.24 15.8759 0.085343 0.005744
4989.25 4989.25 0.500000 1123.95 15.8894 0.085952 0.006015
4989.5 4989.5 0.500000 1122.29 15.9007 0.085845 0.005802
4989.75 4989.75 0.500000 1117.43 15.9168 0.085927 0.005806
4990 4990 0.500000 1123.54 15.9342 0.086466 0.005939
4990.25 4990.25 0.500000 1123.62 15.9454 0.086277 0.005819
4990.5 4990.5 0.500000 1122.67 15.9576 0.086455 0.005844
4990.75 4990.75 0.500000 1131.03 15.972 0.086281 0.005873
4991 4991 0.500000 1133.43 15.9844 0.086348 0.005905
4991.25 4991.25 0.500000 1144.53 15.9991 0.086286 0.005804
4991.5 4991.5 0.500000 1162.36 16.0091 0.086067 0.005989
4991.75 4991.75 0.500000 1166.69 16.0194 0.085873 0.005766
4992 4992 0.500000 1182.16 16.0304 0.085635 0.005868
4992.25 4992.25 0.500000 1191.57 16.0401 0.085644 0.006015
4992.5 4992.5 0.500000 1219.79 16.0495 0.085064 0.005768
4992.75 4992.75 0.500000 1222.99 16.0602 0.085099 0.005758
4993 4993 0.500000 1249.29 16.0667 0.084857 0.005959
4993.25 4993.25 0.500000 1261.07 16.0721 0.084383 0.005897
4993.5 4993.5 0.500000 1268.98 16.0787 0.084243 0.006051
4993.75 4993.75 0.500000 1279.52 16.0819 0.084111 0.005964
4994 4994 0.500000 1293.37 16.089 0.083705 0.005912
4994.25 4994.25 0.500000 1312.75 16.0963 0.083426 0.005756
4994.5 4994.5 0.500000 1324.18 16.0998 0.083096 0.005759
4994.75 4994.75 0.500000 1334.98 16.1069 0.083128 0.005754
4995 4995 0.500000 1340.04 16.1114 0.082806 0.005670
4995.25 4995.25 0.500000 1356.9 16.1159 0.082513 0.005618
4995.5 4995.5 0.500000 1354.8 16.1177 0.082660 0.005663
4995.75 4995.75 0.500000 1368.29 16.1741 0.082736 0.005598
4996 4996 0.700000 1367.9 22.5799 0.115832 0.008128
4997.09 4997.08 0.710000 1372.69 22.9152 0.117390 0.007693
4998.19 4998.18 0.730000 1368.35 23.5725 0.121890 0.007880
4999.29 4999.29 0.740000 1333.71 23.9097 0.125071 0.008118
5000.43 5000.43 0.750000 1306.4 24.274 0.128783 0.008337
5001.59 5001.58 0.760000 1272.67 24.6525 0.132821 0.008798
5002.77 5002.76 0.780000 1243.95 25.3617 0.138171 0.008732
5003.95 5003.95 0.790000 1226.48 25.7514 0.142130 0.009076
5005.17 5005.16 0.800000 1198.52 26.1582 0.145919 0.009346
5006.39 5006.39 0.810000 1184.46 26.6264 0.150175 0.009666
5007.64 5007.64 0.830000 1170.87 27.3556 0.155678 0.010328
5008.92 5008.91 0.840000 1149.59 27.7465 0.159143 0.010666
5010.2 5010.2 0.850000 1122.83 28.1444 0.163861 0.010948
5011.51 5011.51 0.860000 1088.06 28.5381 0.168811 0.011440
5012.84 5012.83 0.880000 1056.33 29.2598 0.175487 0.011896
5014.18 5014.18 0.890000 1039.6 29.6506 0.179777 0.012406
5015.54 5015.54 0.900000 1035.54 30.0401 0.183385 0.012485
5016.93 5016.93 0.910000 1030.24 30.4933 0.187257 0.013110
5018.34 5018.33 0.930000 1031.48 31.2375 0.192202 0.013487
5019.76 5019.75 0.940000 1042.51 31.6427 0.195953 0.013918
5021.19 5021.19 0.950000 1048.31 32.0503 0.199175 0.014103
5022.65 5022.65 0.960000 1041.21 32.4523 0.202854 0.014353
5024.14 5024.13 0.980000 1050.07 33.1989 0.207844 0.014599
5025.64 5025.63 0.990000 1061.65 33.6099 0.211015 0.014889
5027.14 5027.14 1.000000 1059.57 34.1005 0.214889 0.014858
5028.68 5028.68 1.010000 1059.08 34.5141 0.218333 0.014994
5030.25 5030.24 1.030000 1052.93 35.2684 0.224874 0.015194
5031.82 5031.81 1.040000 1060.88 35.6785 0.229067 0.015477
5033.41 5033.4 1.050000 1057.41 36.0901 0.232605 0.015335
5035.02 5035.01 1.060000 1071.25 36.507 0.236332 0.015338
5036.65 5036.65 1.080000 1083.7 37.2744 0.241581 0.015649
5038.31 5038.3 1.090000 1087 37.6998 0.244667 0.015757
5039.98 5039.97 1.100000 1104.25 38.1146 0.248195 0.015555
5041.66 5041.65 1.110000 1107.18 38.5395 0.252498 0.016253
5043.36 5043.36 1.130000 1105.35 39.3034 0.258829 0.016776
5045.09 5045.09 1.140000 1107.6 39.7367 0.262783 0.016677
5046.83 5046.83 1.150000 1114.51 40.1552 0.267042 0.017409
5048.6 5048.6 1.160000 1122.09 40.5793 0.271058 0.018165
5050.38 5050.38 1.180000 1130.67 41.3638 0.276785 0.018547
5052.17 5052.18 1.190000 1139.56 41.7897 0.280901 0.019376
5053.99 5054 1.200000 1147.09 42.2289 0.284274 0.019643
5055.84 5055.84 1.210000 1167.02 42.6604 0.288182 0.020207
5057.7 5057.7 1.230000 1175.85 43.4644 0.294064 0.020343
5059.57 5059.58 1.240000 1186.17 43.9082 0.298495 0.021058
5061.48 5061.48 1.250000 1189.15 44.3448 0.303407 0.021303
5063.4 5063.4 1.260000 1194.33 44.7895 0.307929 0.021666
5065.33 5065.33 1.280000 1196.19 45.596 0.315788 0.022746
5067.29 5067.29 1.290000 1196.71 46.0377 0.320435 0.022831
5069.26 5069.26 1.300000 1191 46.4939 0.326155 0.023091
5071.26 5071.26 1.310000 1189.57 46.9367 0.331538 0.023791
5073.27 5073.27 1.330000 1193.4 47.7453 0.339828 0.024568
5075.3 5075.3 1.340000 1188.88 48.1906 0.345563 0.024888
5077.35 5077.35 1.350000 1188.66 48.632 0.351945 0.025168
5079.41 5079.42 1.360000 1181.99 49.069 0.358027 0.024862
5081.51 5081.51 1.380000 1165.59 49.8741 0.367888 0.025266
5083.61 5083.61 1.390000 1158.87 50.3086 0.374623 0.025450
5085.73 5085.74 1.400000 1149.14 50.7478 0.381443 0.025441
5087.89 5087.89 1.410000 1147.25 51.1824 0.388025 0.025651
5090.05 5090.05 1.430000 1140.08 51.9834 0.396937 0.025873
5092.23 5092.23 1.440000 1147.32 52.4217 0.403294 0.026512
5094.44 5094.44 1.450000 1149.06 52.867 0.409446 0.027256
5096.66 5096.66 1.460000 1149.45 53.3087 0.415446 0.027860
5098.89 5098.9 1.480000 1147.67 54.1164 0.424824 0.029347
5101.16 5101.16 1.490000 1157.85 54.5523 0.431554 0.030708
5103.44 5103.44 1.500000 1155.01 55.0084 0.438116 0.031340
5105.74 5105.74 1.510000 1154.36 55.4485 0.444564 0.032392
5108.05 5108.05 1.530000 1159.24 56.256 0.454175 0.033287
5110.39 5110.39 1.540000 1164.33 56.7126 0.460933 0.034111
5112.74 5112.74 1.550000 1162.9 57.1652 0.467726 0.034384
5115.12 5115.12 1.560000 1167.93 57.6147 0.474584 0.034767
5117.51 5117.51 1.580000 1172.1 58.4381 0.484880 0.035654
5119.92 5119.92 1.590000 1171.11 58.9066 0.492141 0.035779
5122.35 5122.35 1.600000 1174.48 59.359 0.500165 0.036547
5124.8 5124.8 1.610000 1174.31 59.8201 0.507398 0.037159
5127.27 5127.27 1.630000 1181.74 60.6614 0.518891 0.038206
5129.76 5129.76 1.640000 1179.57 61.1293 0.526789 0.038836
5132.27 5132.27 1.650000 1181.93 61.6853 0.535600 0.039695
5134.79 5134.79 1.660000 1183.73 62.238 0.543998 0.040143
5137.34 5137.34 1.680000 1191.97 63.0808 0.555517 0.040981
5139.9 5139.9 1.690000 1196.93 63.6248 0.564067 0.041661
5142.49 5142.49 1.700000 1206.69 64.3531 0.574427 0.041972
5145.09 5145.09 1.710000 1207.09 64.8367 0.583192 0.042423
5147.71 5147.71 1.730000 1212.15 65.7134 0.595084 0.042680
5150.35 5150.35 1.740000 1216.05 66.2128 0.604177 0.043457
5153.01 5153.01 1.750000 1218.49 66.7172 0.613491 0.044308
5155.69 5155.69 1.760000 1219.82 67.2363 0.623532 0.045867
5158.39 5158.39 1.780000 1218.97 68.1113 0.636977 0.047155
5161.11 5161.11 1.790000 1224.8 68.6137 0.646199 0.047746
5163.84 5163.84 1.800000 1224.43 69.1373 0.656675 0.049322
5166.6 5166.6 1.810000 1229.89 69.6362 0.666959 0.050408
5169.37 5169.37 1.830000 1226.72 70.5469 0.681653 0.051482
5172.17 5172.17 1.840000 1225.11 71.0657 0.693016 0.053091
5174.98 5174.98 1.850000 1226.83 71.5651 0.704157 0.054577
5177.81 5177.81 1.860000 1228.71 72.0855 0.715831 0.056078
5180.66 5180.66 1.880000 1228.08 73.0096 0.730693 0.057160
5183.53 5183.53 1.890000 1229.3 73.532 0.742508 0.058392
5186.42 5186.42 1.900000 1228.23 74.0724 0.755014 0.059615
5189.32 5189.32 1.910000 1238.06 74.6004 0.766452 0.060764
5192.25 5192.25 1.930000 1234.89 75.5166 0.782797 0.062092
5195.2 5195.2 1.940000 1233.88 76.0361 0.794818 0.062556
5198.16 5198.16 1.950000 1242.97 76.5454 0.807823 0.063761
5201.14 5201.14 1.960000 1240.07 77.0726 0.820267 0.064949
5204.15 5204.15 1.980000 1237.04 78.0246 0.837768 0.066866
5207.17 5207.17 1.990000 1248.9 78.601 0.850594 0.067059
5210.21 5210.21 2.000000 1253.12 79.1364 0.863861 0.068323
5213.27 5213.27 2.010000 1255.5 79.6512 0.877018 0.069438
5216.35 5216.35 2.030000 1254.89 80.5853 0.895234 0.070714
5219.45 5219.45 2.040000 1254.28 81.0924 0.908598 0.072211
5222.56 5222.56 2.050000 1261.16 81.6175 0.922765 0.073942
5225.7 5225.7 2.060000 1263.74 82.1291 0.936258 0.074868
5228.85 5228.85 2.080000 1267.65 83.0319 0.955618 0.076994
5232.03 5232.03 2.090000 1272.48 83.554 0.970654 0.078782
5235.22 5235.22 2.100000 1266.6 84.1118 0.985138 0.079821
5238.43 5238.43 2.110000 1273.08 84.6374 1.000950 0.081916
5241.66 5241.66 2.130000 1272.03 85.5709 1.020879 0.084032
5244.92 5244.92 2.140000 1279.43 86.0518 1.035780 0.085720
5248.18 5248.18 2.150000 1283.57 86.1531 1.046202 0.087348
5251.47 5251.47 2.160000 1283.71 86.7364 1.062823 0.089289
5254.78 5254.78 2.180000 1286.4 88.0291 1.088178 0.091919
5258.11 5258.11 2.190000 1288.72 88.7087 1.106218 0.093674
5261.45 5261.45 2.200000 1298.43 89.2713 1.123286 0.095144
5264.82 5264.82 2.210000 1303.48 89.8905 1.141044 0.097118
5268.2 5268.2 2.230000 1305.66 90.9586 1.165507 0.099818
5271.6 5271.6 2.240000 1310.78 91.5909 1.183963 0.101486
5275.03 5275.03 2.250000 1312.87 92.3403 1.204648 0.103593
5278.47 5278.47 2.260000 1318.61 91.8115 1.208396 0.104126
5281.93 5281.93 2.280000 1316.38 94.0628 1.250112 0.107474
5285.4 5285.4 2.290000 1321.31 94.961 1.273891 0.109927
5288.9 5288.9 2.300000 1329.03 95.9813 1.299604 0.112600
5292.42 5292.42 2.310000 1332.81 96.6729 1.321874 0.114517
5295.96 5295.96 2.330000 1332.29 97.8234 1.350407 0.117512
5299.51 5299.51 2.340000 1332.82 98.4071 1.372809 0.120745
5303.09 5303.09 2.350000 1330.53 99.0514 1.395254 0.122682
5306.68 5306.68 2.360000 1336.01 99.7742 1.419616 0.125438
5310.29 5310.29 2.380000 1331.52 100.906 1.450003 0.128788
5313.92 5313.92 2.390000 1339.73 101.594 1.474252 0.131276
5317.57 5317.57 2.400000 1343.27 102.282 1.499243 0.133954
5321.24 5321.24 2.410000 1346.21 102.746 1.520763 0.136708
5324.93 5324.93 2.430000 1348.58 103.8 1.551292 0.140043
5328.64 5328.64 2.440000 1351.56 104.335 1.574995 0.143050
5332.36 5332.36 2.450000 1356.15 104.94 1.599193 0.145848
5336.11 5336.11 2.460000 1362.59 105.549 1.623191 0.148823
5339.87 5339.87 2.480000 1360.68 106.604 1.656080 0.153230
5343.66 5343.66 2.490000 1367.6 107.227 1.681828 0.155799
5347.46 5347.46 2.500000 1373.67 107.732 1.706342 0.158917
5351.28 5351.28 2.510000 1376.33 108.153 1.729074 0.161852
5355.12 5355.12 2.530000 1381.2 108.466 1.751687 0.164937
5358.98 5358.98 2.540000 1382.69 110.131 1.796562 0.169728
5362.86 5362.86 2.550000 1389.62 110.774 1.824314 0.172609
5366.76 5366.76 2.560000 1393.44 111.266 1.851037 0.175976
5370.68 5370.68 2.580000 1394.17 112.172 1.885598 0.179287
5374.61 5374.61 2.590000 1395.03 112.596 1.912864 0.182573
5378.57 5378.57 2.600000 1400.65 113.056 1.940164 0.185991
5382.54 5382.54 2.610000 1399.94 113.582 1.968393 0.189709
5386.54 5386.54 2.630000 1400.99 114.4 2.003004 0.193900
5390.55 5390.55 2.640000 1408.26 114.75 2.029710 0.197622
5394.58 5394.58 2.650000 1413.66 115.106 2.057087 0.201013
5398.63 5398.63 2.660000 1412.1 115.215 2.078929 0.203636
5402.7 5402.7 2.680000 1418.38 115.969 2.113974 0.208398
5406.79 5406.79 2.690000 1423.1 115.975 2.135307 0.211129
5410.9 5410.9 2.700000 1428.38 116.037 2.157764 0.214770
5415.02 5415.02 2.710000 1428.3 116.282 2.184251 0.218666
5419.17 5419.17 2.730000 1439.14 116.287 2.204846 0.221920
5423.33 5423.33 2.740000 1445.32 116.676 2.234085 0.226081
5427.52 5427.52 2.750000 1452.57 116.953 2.261367 0.229466
5431.72 5431.72 2.760000 1453.7 116.93 2.283177 0.233068
5435.94 5435.94 2.780000 1459.97 117.397 2.316563 0.237970
5440.18 5440.18 2.790000 1465.51 117.739 2.346587 0.242169
5444.44 5444.44 2.800000 1467.29 117.953 2.375698 0.246440
5448.72 5448.72 2.810000 1472.04 117.953 2.399867 0.249899
5453.02 5453.02 2.830000 1475.68 118.448 2.434582 0.255232
5457.34 5457.34 2.840000 1474.91 118.599 2.463279 0.258878
5461.67 5461.67 2.850000 1481.07 118.678 2.490380 0.263089
5466.03 5466.03 2.860000 1484.2 118.868 2.519907 0.267267
5470.4 5470.4 2.880000 1488.36 119.447 2.558295 0.272612
5474.8 5474.8 2.890000 1491.36 119.72 2.590567 0.277376
5479.21 5479.21 2.900000 1499.38 119.984 2.623161 0.281936
5483.64 5483.64 2.910000 1505.29 120.308 2.656522 0.286662
5488.09 5488.09 2.930000 1513 120.973 2.698673 0.292888
5492.56 5492.56 2.940000 1516.2 121.301 2.733149 0.297921
5497.05 5497.05 2.950000 1520.3 121.747 2.771495 0.303391
5501.56 5501.56 2.960000 1523.62 122.183 2.810165 0.309144
5506.08 5506.08 2.980000 1529.67 123.079 2.859663 0.316238
5510.64 5510.63 2.990000 1538.88 123.634 2.901853 0.322241
5515.19 5515.19 3.000000 1545.99 124.196 2.944003 0.328237
5519.78 5519.78 3.010000 1551.26 124.763 2.988539 0.334886
5524.38 5524.38 3.030000 1556.96 125.787 3.043555 0.342562
5529 5529 3.040000 1557.91 126.496 3.092473 0.349920
5533.64 5533.64 3.050000 1568.1 127.229 3.142957 0.356515
5538.3 5538.3 3.060000 1571.84 127.789 3.190589 0.364816
5542.98 5542.98 3.080000 1576 128.969 3.253712 0.373840
5547.68 5547.68 3.090000 1577.53 129.698 3.306793 0.381470
5552.4 5552.4 3.100000 1584.44 130.476 3.361192 0.388945
5557.13 5557.13 3.110000 1590.71 131.228 3.416578 0.397462
5561.89 5561.89 3.130000 1594.8 132.494 3.485578 0.407516
5566.66 5566.66 3.140000 1598.28 133.246 3.542997 0.415813
5571.46 5571.46 3.150000 1603.5 134.36 3.609979 0.425840
5576.27 5576.27 3.160000 1607.29 135.273 3.672776 0.435291
5581.1 5581.1 3.180000 1615.32 136.454 3.743435 0.446179
5585.95 5585.95 3.190000 1617.23 137.365 3.807314 0.455401
5590.82 5590.82 3.200000 1628.75 138.22 3.872129 0.465323
5595.71 5595.71 3.210000 1631.52 138.97 3.934535 0.474984
5600.62 5600.62 3.230000 1637.84 140.932 4.032204 0.489089
5605.54 5605.54 3.240000 1643.75 141.733 4.097191 0.499229
5610.49 5610.49 3.250000 1647.5 142.515 4.164481 0.510308
5615.45 5615.45 3.260000 1654.4 143.319 4.231397 0.520640
5620.44 5620.44 3.280000 1661.81 144.453 4.310325 0.532980
5625.44 5625.44 3.290000 1665.3 144.503 4.357581 0.541478
5630.46 5630.46 3.300000 1676.98 144.791 4.410930 0.551090
5635.5 5635.5 3.310000 1676.44 145.686 4.487243 0.563337
5640.56 5640.56 3.330000 1677.87 146.896 4.572444 0.577261
5645.64 5645.64 3.340000 1684.14 147.407 4.634924 0.588230
5650.74 5650.74 3.350000 1691.07 147.903 4.701472 0.599971
5655.86 5655.86 3.360000 1698.03 148.613 4.774081 0.612037
5660.99 5660.99 3.380000 1700.15 149.795 4.864848 0.626277
5666.15 5666.15 3.390000 1705.71 150.465 4.938072 0.639514
5671.32 5671.32 3.400000 1713.2 151.447 5.020930 0.653123
5676.52 5676.52 3.410000 1721.62 152.338 5.103876 0.666792
5681.73 5681.73 3.430000 1725.39 153.523 5.194462 0.682464
5686.96 5686.96 3.440000 1732.64 154.342 5.272282 0.695973
5692.21 5692.21 3.450000 1746.51 154.912 5.341619 0.709016
5697.48 5697.48 3.460000 1751.14 155.53 5.408001 0.721481
5702.77 5702.77 3.480000 1764.79 156.502 5.478412 0.734088
5708.08 5708.08 3.490000 1776.72 157.124 5.517767 0.743945