File: xdidata/Data/Bi/Bi-L1-BismuthMetal.xdi
# XDI/1.0 BlueSky/1.10.0 BMM/2023-1.0-py310-tiled
# Beamline.name: BMM (06BM) -- Beamline for Materials Measurement (NIST)
# Beamline.xray_source: NSLS-II three-pole wiggler
# Beamline.collimation: paraboloid mirror, 5 nm Rh on 30 nm Pt
# Beamline.focusing: not in use
# Beamline.harmonic_rejection: flat mirror, Pt stripe, pitch = 7.0 mrad relative to beam
# Beamline.software: Bluesky 1.10.0, Ophyd 1.7.0, DataBroker 2.0.0b13, Python 3.10.8, 2023-1.0-py310-tiled
# Detector.I0: 10 cm N2
# Detector.I1: 25 cm N2
# Detector.I2: 25 cm N2
# Element.symbol: Bi
# Element.edge: L1
# Element.reference: Bi
# Element.reference_material: BiO2
# Facility.name: NSLS-II
# Facility.energy: 3.0
# Facility.current: 399.9
# Facility.mode: top-off
# Facility.GUP: 301027
# Facility.SAF: 310583
# Facility.cycle: 2023-2
# Mono.name: Si(111)
# Mono.d_spacing: 3.13519
# Mono.encoder_resolution: 0.0000050 deg/ct
# Mono.angle_offset: 16.0754 deg
# Mono.scan_mode: pseudo channel cut
# Mono.scan_type: step
# Mono.direction: forward in energy
# Sample.name: Bi
# Sample.prep: powder in PEG pellet
# Sample.x: 143.785 mm
# Sample.y: 114.695 mm
# Sample.SDD_position: 205.000 mm
# Scan.experimenters: Bruce Ravel
# Scan.edge_energy: 16387.5
# Scan.start_time: 2023-06-23T18:50:08
# Scan.end_time: 2023-06-23T18:57:34
# Scan.transient_id: 84948
# Scan.uid: f21fda1c-aac2-4082-9c27-df7740e031d7
# Scan.plot_hint: ln(I0/It)  --  ln($5/$6)
# Column.1: energy eV
# Column.2: requested_energy eV
# Column.3: measurement_time seconds
# Column.4: xmu
# Column.5: I0 nA
# Column.6: It nA
# Column.7: Ir nA
# ///////////
# BMM standards collection
# -----------
# energy  requested_energy  measurement_time  xmu  I0  It  Ir
  16187.472  16187.500  0.500  0.406384  20.2826  13.5093  5.109276
  16197.476  16197.500  0.500  0.405684  20.2651  13.5071  5.115158
  16207.492  16207.500  0.500  0.404720  20.2274  13.495  5.115899
  16217.440  16217.500  0.500  0.404090  20.1962  13.4826  5.119461
  16227.873  16227.500  0.500  0.403236  20.1518  13.4645  5.118369
  16237.604  16237.500  0.500  0.402369  20.1259  13.4589  5.124166
  16247.450  16247.500  0.500  0.401735  20.1296  13.4699  5.133581
  16257.436  16257.500  0.500  0.401034  20.0861  13.4502  5.131834
  16267.434  16267.500  0.500  0.400334  20.0643  13.445  5.136707
  16277.456  16277.500  0.500  0.399799  20.005  13.4124  5.129780
  16287.444  16287.500  0.500  0.399221  19.9558  13.3872  5.127045
  16297.445  16297.500  0.500  0.398514  19.9071  13.364  5.123043
  16307.469  16307.500  0.500  0.397864  19.8423  13.3291  5.115329
  16317.460  16317.500  0.500  0.397265  19.838  13.3342  5.120263
  16327.462  16327.500  0.500  0.396736  19.7858  13.3062  5.112884
  16337.466  16337.500  0.500  0.396095  19.7402  13.284  5.104518
  16347.470  16347.500  0.500  0.395992  19.7082  13.2639  5.096022
  16357.486  16357.500  0.500  0.396289  19.666  13.2315  5.075681
  16359.432  16359.500  0.500  0.396361  19.6685  13.2323  5.072903
  16361.426  16361.500  0.500  0.396533  19.6469  13.2155  5.063602
  16363.432  16363.500  0.500  0.396734  19.6333  13.2037  5.055377
  16365.414  16365.500  0.500  0.396947  19.6274  13.1969  5.046363
  16367.409  16367.500  0.500  0.397555  19.6184  13.1828  5.036039
  16369.405  16369.500  0.500  0.397724  19.5892  13.161  5.019110
  16371.389  16371.500  0.500  0.398433  19.5524  13.1269  4.995501
  16373.409  16373.500  0.500  0.399544  19.519  13.09  4.970580
  16375.418  16375.500  0.500  0.400566  19.5422  13.0921  4.953857
  16377.438  16377.500  0.500  0.401810  19.5734  13.0967  4.933354
  16377.732  16377.800  0.500  0.402060  19.5689  13.0904  4.928064
  16378.026  16378.100  0.500  0.402410  19.5657  13.0837  4.922603
  16378.320  16378.400  0.500  0.402800  19.5692  13.0809  4.916439
  16378.637  16378.700  0.500  0.403019  19.5646  13.075  4.909960
  16378.907  16379.000  0.500  0.403352  19.5626  13.0693  4.902599
  16379.237  16379.300  0.500  0.403688  19.562  13.0645  4.895934
  16379.554  16379.600  0.500  0.404002  19.5571  13.0572  4.888612
  16379.848  16379.900  0.500  0.404235  19.5541  13.0521  4.881561
  16380.153  16380.200  0.500  0.404768  19.5488  13.0416  4.870898
  16380.436  16380.500  0.500  0.405151  19.551  13.0381  4.864885
  16380.729  16380.800  0.500  0.405554  19.5543  13.035  4.856420
  16381.059  16381.100  0.500  0.406066  19.5494  13.0251  4.845917
  16381.353  16381.400  0.500  0.406313  19.5437  13.0181  4.836052
  16381.670  16381.700  0.500  0.406926  19.5426  13.0094  4.825468
  16381.952  16382.000  0.500  0.407594  19.5377  12.9974  4.812921
  16382.234  16382.300  0.500  0.408090  19.5383  12.9914  4.802329
  16382.552  16382.600  0.500  0.408560  19.5365  12.9841  4.790849
  16382.881  16382.900  0.500  0.408989  19.5297  12.974  4.776954
  16383.199  16383.200  0.500  0.410115  19.5277  12.9581  4.761565
  16383.504  16383.500  0.500  0.410825  19.5317  12.9515  4.748607
  16383.775  16383.800  0.500  0.411286  19.5383  12.9499  4.736112
  16384.069  16384.100  0.500  0.412222  19.5331  12.9344  4.721967
  16384.363  16384.400  0.500  0.413171  19.5138  12.9094  4.699988
  16384.669  16384.700  0.500  0.413867  19.5228  12.9063  4.686060
  16384.974  16385.000  0.500  0.414859  19.5136  12.8874  4.664593
  16385.292  16385.300  0.500  0.415705  19.5272  12.8855  4.649422
  16385.574  16385.600  0.500  0.416536  19.5121  12.8648  4.626460
  16385.857  16385.900  0.500  0.417649  19.5021  12.844  4.606595
  16386.162  16386.200  0.500  0.418374  19.5026  12.835  4.587202
  16386.480  16386.500  0.500  0.419533  19.5054  12.8219  4.565699
  16386.798  16386.800  0.500  0.420549  19.502  12.8067  4.543423
  16387.092  16387.100  0.500  0.421679  19.4947  12.7875  4.518471
  16387.386  16387.400  0.500  0.422598  19.4961  12.7766  4.498247
  16387.668  16387.700  0.500  0.423530  19.5042  12.77  4.478025
  16387.974  16388.000  0.500  0.424570  19.5068  12.7585  4.458214
  16388.268  16388.300  0.500  0.425647  19.4867  12.7316  4.429787
  16388.563  16388.600  0.500  0.426445  19.4861  12.721  4.409064
  16388.869  16388.900  0.500  0.427407  19.4829  12.7067  4.385086
  16389.175  16389.200  0.500  0.428555  19.489  12.6961  4.364903
  16389.457  16389.500  0.500  0.429419  19.4812  12.6801  4.341432
  16389.763  16389.800  0.500  0.430051  19.4816  12.6723  4.322113
  16390.045  16390.100  0.500  0.430853  19.4862  12.6651  4.304604
  16390.363  16390.400  0.500  0.431725  19.4749  12.6468  4.282790
  16390.669  16390.700  0.500  0.432604  19.476  12.6364  4.263606
  16390.987  16391.000  0.500  0.433058  19.4704  12.627  4.246719
  16391.258  16391.300  0.500  0.433586  19.4699  12.62  4.234165
  16391.564  16391.600  0.500  0.433993  19.4703  12.6152  4.220671
  16391.858  16391.900  0.500  0.434244  19.471  12.6124  4.211221
  16392.176  16392.200  0.500  0.434673  19.4613  12.6008  4.199074
  16392.470  16392.500  0.500  0.434715  19.4608  12.5999  4.191281
  16392.765  16392.800  0.500  0.434975  19.4668  12.6005  4.186955
  16393.071  16393.100  0.500  0.435042  19.4592  12.5947  4.182013
  16393.341  16393.400  0.500  0.435112  19.453  12.5899  4.178353
  16393.659  16393.700  0.500  0.435274  19.4561  12.5898  4.178604
  16393.989  16394.000  0.500  0.435079  19.4431  12.5838  4.177075
  16394.307  16394.300  0.500  0.435095  19.4448  12.5847  4.180458
  16394.590  16394.600  0.500  0.435178  19.4608  12.5941  4.186385
  16394.872  16394.900  0.500  0.434812  19.4589  12.5975  4.191364
  16395.178  16395.200  0.500  0.434894  19.442  12.5855  4.194325
  16395.485  16395.500  0.500  0.434685  19.4403  12.587  4.200394
  16395.803  16395.800  0.500  0.434454  19.4365  12.5874  4.206936
  16396.097  16396.100  0.500  0.434202  19.4509  12.6  4.219413
  16396.403  16396.400  0.500  0.434004  19.428  12.5876  4.221161
  16396.651  16396.700  0.500  0.433972  19.4308  12.5898  4.230428
  16396.980  16397.000  0.500  0.433723  19.427  12.5905  4.239912
  16397.299  16397.300  0.500  0.433434  19.4374  12.6009  4.251697
  16397.628  16397.600  0.500  0.433382  19.4115  12.5848  4.254820
  16397.911  16397.900  0.500  0.433241  19.4243  12.5948  4.265027
  16398.206  16398.200  0.500  0.432837  19.4107  12.591  4.270822
  16398.500  16398.500  0.500  0.432774  19.4093  12.591  4.278562
  16398.795  16398.800  0.500  0.432556  19.4084  12.5931  4.286205
  16399.101  16399.100  0.500  0.432477  19.408  12.5939  4.292738
  16399.419  16399.400  0.500  0.432440  19.4076  12.594  4.300806
  16399.702  16399.700  0.500  0.432141  19.3992  12.5923  4.304746
  16399.973  16400.000  0.500  0.432064  19.4028  12.5957  4.313045
  16400.303  16400.300  0.500  0.431988  19.3956  12.5919  4.316822
  16400.609  16400.600  0.500  0.432028  19.3988  12.5935  4.322687
  16400.928  16400.900  0.500  0.432024  19.3892  12.5874  4.326160
  16401.222  16401.200  0.500  0.431762  19.3871  12.5893  4.330876
  16401.493  16401.500  0.500  0.431756  19.3797  12.5846  4.333556
  16401.776  16401.800  0.500  0.431740  19.3757  12.5822  4.335469
  16402.106  16402.100  0.500  0.431700  19.3735  12.5813  4.339422
  16402.413  16402.400  0.500  0.431765  19.3684  12.5771  4.341584
  16402.707  16402.700  0.500  0.431567  19.3635  12.5764  4.344924
  16403.002  16403.000  0.500  0.431788  19.3735  12.5801  4.350069
  16403.297  16403.300  0.500  0.431570  19.3617  12.5752  4.349159
  16403.603  16403.600  0.500  0.431779  19.3587  12.5706  4.352020
  16403.910  16403.900  0.500  0.431861  19.3736  12.5793  4.358047
  16404.228  16404.200  0.500  0.431625  19.367  12.5779  4.359562
  16404.511  16404.500  0.500  0.431758  19.3616  12.5728  4.360290
  16404.817  16404.800  0.500  0.431603  19.3675  12.5786  4.363658
  16405.100  16405.100  0.500  0.431684  19.363  12.5746  4.365458
  16405.383  16405.400  0.500  0.431739  19.3732  12.5805  4.368017
  16405.678  16405.700  0.500  0.431662  19.3828  12.5878  4.372486
  16406.008  16406.000  0.500  0.431671  19.3551  12.5697  4.367917
  16406.303  16406.300  0.500  0.431723  19.3544  12.5685  4.370362
  16406.563  16406.600  0.500  0.431807  19.364  12.5737  4.374564
  16406.881  16406.900  0.500  0.431885  19.3618  12.5713  4.374443
  16407.200  16407.200  0.500  0.431840  19.3672  12.5754  4.377018
  16407.506  16407.500  0.500  0.432073  19.3739  12.5768  4.379067
  16407.801  16407.800  0.500  0.431747  19.3494  12.565  4.377003
  16408.084  16408.100  0.500  0.431916  19.3492  12.5628  4.378025
  16408.379  16408.400  0.500  0.431781  19.3517  12.5661  4.380670
  16408.698  16408.700  0.500  0.431838  19.3611  12.5714  4.383261
  16408.992  16409.000  0.500  0.431936  19.3405  12.5568  4.380109
  16409.299  16409.300  0.500  0.431872  19.3451  12.5606  4.382586
  16409.571  16409.600  0.500  0.431664  19.351  12.5671  4.385453
  16409.865  16409.900  0.500  0.431755  19.3442  12.5615  4.384553
  16410.184  16410.200  0.500  0.431747  19.3386  12.558  4.387008
  16410.514  16410.500  0.500  0.431805  19.336  12.5556  4.386961
  16410.798  16410.800  0.500  0.431663  19.341  12.5606  4.389342
  16411.081  16411.100  0.500  0.431740  19.3427  12.5607  4.390789
  16411.376  16411.400  0.500  0.431642  19.3354  12.5572  4.392004
  16411.694  16411.700  0.500  0.431411  19.3244  12.553  4.390159
  16411.989  16412.000  0.500  0.431402  19.3225  12.5518  4.391569
  16412.308  16412.300  0.500  0.431522  19.3305  12.5555  4.395310
  16412.497  16412.500  0.500  0.431448  19.3232  12.5517  4.392972
  16413.512  16413.490  0.500  0.431041  19.3183  12.5537  4.397915
  16414.492  16414.490  0.500  0.430833  19.3157  12.5546  4.400088
  16415.554  16415.510  0.500  0.430626  19.3204  12.5602  4.403620
  16416.581  16416.560  0.500  0.430175  19.3071  12.5572  4.403117
  16417.632  16417.620  0.500  0.430270  19.3033  12.5536  4.400571
  16418.742  16418.700  0.500  0.430145  19.3734  12.6008  4.416702
  16419.853  16419.800  0.500  0.429874  19.3669  12.5999  4.412377
  16420.940  16420.920  0.500  0.429787  19.3596  12.5963  4.408272
  16422.086  16422.060  0.500  0.429657  19.3436  12.5875  4.399778
  16423.232  16423.210  0.500  0.430054  19.3638  12.5957  4.400632
  16424.425  16424.390  0.500  0.429998  19.3642  12.5966  4.396863
  16425.584  16425.580  0.500  0.429862  19.3583  12.5945  4.392831
  16426.790  16426.800  0.500  0.429727  19.348  12.5895  4.388228
  16428.019  16428.030  0.500  0.430086  19.3538  12.5887  4.386551
  16429.285  16429.280  0.500  0.429887  19.34  12.5823  4.382137
  16430.562  16430.550  0.500  0.429910  19.3412  12.5827  4.379739
  16431.875  16431.840  0.500  0.429893  19.3245  12.5721  4.376182
  16433.164  16433.150  0.500  0.429990  19.3367  12.5789  4.377965
  16434.525  16434.480  0.500  0.429773  19.3127  12.566  4.372473
  16435.862  16435.830  0.500  0.429668  19.2956  12.5561  4.368532
  16437.224  16437.200  0.500  0.429734  19.2909  12.5522  4.367136
  16438.585  16438.580  0.500  0.429606  19.2744  12.5431  4.364667
  16439.982  16439.990  0.500  0.429623  19.2608  12.534  4.361501
  16441.427  16441.410  0.500  0.429567  19.2682  12.5396  4.365258
  16442.849  16442.850  0.500  0.429490  19.2471  12.5268  4.359808
  16444.318  16444.310  0.500  0.429286  19.2323  12.5197  4.358277
  16445.799  16445.790  0.500  0.429245  19.2318  12.5199  4.358772
  16447.292  16447.290  0.500  0.428804  19.2482  12.5361  4.364538
  16448.857  16448.810  0.500  0.428594  19.2438  12.5359  4.366533
  16450.386  16450.350  0.500  0.428481  19.2443  12.5377  4.368695
  16451.927  16451.910  0.500  0.428138  19.2468  12.5435  4.372939
  16453.505  16453.480  0.500  0.428048  19.227  12.5318  4.371044
  16455.094  16455.080  0.500  0.427795  19.2214  12.5313  4.373775
  16456.732  16456.690  0.500  0.427678  19.2119  12.5266  4.376135
  16458.334  16458.330  0.500  0.427716  19.1989  12.5176  4.375673
  16459.996  16459.980  0.500  0.427309  19.1915  12.5179  4.380450
  16461.634  16461.650  0.500  0.427404  19.1682  12.5015  4.377994
  16463.332  16463.340  0.500  0.427131  19.1796  12.5123  4.383953
  16465.042  16465.050  0.500  0.427057  19.1778  12.5121  4.387149
  16466.812  16466.780  0.500  0.427098  19.1717  12.5076  4.388105
  16468.559  16468.530  0.500  0.427103  19.1621  12.5013  4.388349
  16470.318  16470.290  0.500  0.426894  19.1559  12.4999  4.390143
  16472.125  16472.080  0.500  0.427045  19.1434  12.4898  4.387944
  16473.932  16473.880  0.500  0.426645  19.141  12.4933  4.388323
  16475.728  16475.710  0.500  0.426442  19.1365  12.4928  4.389963
  16477.536  16477.550  0.500  0.426407  19.1194  12.4821  4.386968
  16479.392  16479.410  0.500  0.426275  19.1166  12.4819  4.388444
  16481.308  16481.290  0.500  0.426052  19.0996  12.4736  4.386037
  16483.212  16483.190  0.500  0.425999  19.1062  12.4786  4.388586
  16485.153  16485.110  0.500  0.425735  19.0803  12.4649  4.382831
  16487.034  16487.050  0.500  0.425546  19.0815  12.4681  4.385171
  16489.047  16489.010  0.500  0.425303  19.084  12.4728  4.387578
  16491.001  16490.980  0.500  0.425335  19.0568  12.4546  4.382964
  16493.015  16492.980  0.500  0.425052  19.0527  12.4554  4.384001
  16495.006  16494.990  0.500  0.425099  19.0466  12.4509  4.382974
  16497.021  16497.020  0.500  0.424713  19.0578  12.463  4.387908
  16499.084  16499.080  0.500  0.424471  19.0224  12.4428  4.380635
  16501.184  16501.150  0.500  0.424461  19.0165  12.4391  4.380606
  16503.272  16503.240  0.500  0.424095  19.0037  12.4353  4.380434
  16505.384  16505.350  0.500  0.424289  19.0005  12.4308  4.379706
  16507.533  16507.480  0.500  0.424015  18.9941  12.43  4.380462
  16509.635  16509.620  0.500  0.423679  19.004  12.4407  4.384960
  16511.797  16511.790  0.500  0.423760  18.9772  12.4221  4.380770
  16513.971  16513.980  0.500  0.423441  18.9659  12.4187  4.380157
  16516.170  16516.180  0.500  0.423233  18.9587  12.4166  4.379380
  16518.442  16518.400  0.500  0.423052  18.9384  12.4055  4.378158
  16520.654  16520.650  0.500  0.423063  18.9265  12.3976  4.376690
  16522.938  16522.910  0.500  0.422547  18.9212  12.4005  4.378701
  16525.211  16525.190  0.500  0.422506  18.9228  12.4021  4.381532
  16527.485  16527.490  0.500  0.422304  18.9144  12.399  4.384710
  16529.831  16529.810  0.500  0.422234  18.8995  12.3902  4.383289
  16532.131  16532.150  0.500  0.421861  18.8843  12.3848  4.381654
  16534.514  16534.500  0.500  0.421898  18.8897  12.3879  4.385932
  16536.910  16536.880  0.500  0.421640  18.8696  12.3779  4.384370
  16539.319  16539.270  0.500  0.421386  18.8554  12.3717  4.384654
  16541.729  16541.690  0.500  0.421112  18.8582  12.3769  4.387702
  16544.151  16544.120  0.500  0.420987  18.8425  12.3682  4.386749
  16546.562  16546.570  0.500  0.420949  18.8025  12.3424  4.380629
  16549.046  16549.050  0.500  0.420534  18.7962  12.3434  4.381143
  16551.566  16551.540  0.500  0.420465  18.8008  12.3473  4.385180
  16554.087  16554.050  0.500  0.420454  18.7952  12.3437  4.387483
  16556.609  16556.570  0.500  0.420057  18.7808  12.3391  4.386515
  16559.144  16559.120  0.500  0.419821  18.7691  12.3344  4.387252
  16561.704  16561.690  0.500  0.419495  18.7519  12.3271  4.384695
  16564.288  16564.270  0.500  0.419467  18.7532  12.3283  4.389124
  16566.898  16566.880  0.500  0.419322  18.7412  12.3222  4.389449
  16569.472  16569.500  0.500  0.418906  18.7307  12.3204  4.390013
  16572.179  16572.150  0.500  0.418611  18.7153  12.3139  4.389044
  16574.839  16574.810  0.500  0.418368  18.71  12.3135  4.390460
  16577.512  16577.490  0.500  0.418206  18.6923  12.3037  4.390184
  16580.210  16580.190  0.500  0.417991  18.6864  12.3025  4.390763
  16582.933  16582.910  0.500  0.417892  18.679  12.2989  4.389974
  16585.693  16585.650  0.500  0.417577  18.666  12.2942  4.390722
  16588.429  16588.400  0.500  0.417372  18.6515  12.2871  4.389641
  16591.215  16591.180  0.500  0.417108  18.6325  12.2779  4.387092
  16594.014  16593.970  0.500  0.417009  18.6393  12.2836  4.388635
  16596.814  16596.790  0.500  0.416850  18.631  12.2801  4.389252
  16599.639  16599.620  0.500  0.416833  18.6085  12.2654  4.384582
  16602.489  16602.470  0.500  0.416502  18.5881  12.2561  4.383622
  16605.376  16605.350  0.500  0.416352  18.5769  12.2505  4.383640
  16608.265  16608.240  0.500  0.416214  18.5711  12.2484  4.384891
  16611.178  16611.150  0.500  0.415903  18.5553  12.2418  4.383992
  16614.081  16614.070  0.500  0.415750  18.542  12.2349  4.384587
  16617.032  16617.020  0.500  0.415525  18.5223  12.2246  4.382047
  16620.022  16619.990  0.500  0.415451  18.5213  12.2249  4.386323
  16623.024  16622.970  0.500  0.415195  18.5158  12.2244  4.387625
  16626.016  16625.980  0.500  0.414683  18.4968  12.218  4.387278
  16629.044  16629.000  0.500  0.414597  18.5023  12.2227  4.391983
  16632.074  16632.050  0.500  0.414037  18.4754  12.2118  4.389862
  16635.130  16635.110  0.500  0.413980  18.4672  12.2071  4.390876
  16638.235  16638.190  0.500  0.413795  18.4494  12.1976  4.388953
  16641.353  16641.290  0.500  0.413568  18.4293  12.187  4.386904
  16644.472  16644.410  0.500  0.413173  18.4201  12.1858  4.387607
  16647.557  16647.550  0.500  0.413025  18.4185  12.1865  4.390621
  16650.715  16650.700  0.500  0.412748  18.3922  12.1725  4.386723
  16653.899  16653.880  0.500  0.412440  18.3903  12.175  4.390216
  16657.132  16657.070  0.500  0.412207  18.38  12.171  4.390382
  16660.318  16660.290  0.500  0.412036  18.3609  12.1604  4.389347
  16663.555  16663.520  0.500  0.411821  18.3443  12.152  4.388881
  16666.768  16666.770  0.500  0.411592  18.3329  12.1473  4.390186
  16670.043  16670.050  0.500  0.411290  18.3243  12.1453  4.391045
  16673.380  16673.340  0.500  0.411181  18.3033  12.1327  4.389862
  16676.707  16676.650  0.500  0.410962  18.2905  12.1268  4.390307
  16679.986  16679.970  0.500  0.410638  18.2734  12.1194  4.390029
  16683.340  16683.320  0.500  0.410334  18.2586  12.1133  4.389219
  16686.695  16686.690  0.500  0.410378  18.2452  12.1039  4.387117
  16690.100  16690.070  0.500  0.410060  18.2394  12.1039  4.391539
  16693.506  16693.480  0.500  0.409750  18.2136  12.0905  4.387365
  16696.963  16696.900  0.500  0.409371  18.1885  12.0784  4.384693
  16700.385  16700.350  0.500  0.409102  18.1665  12.067  4.383371
  16703.832  16703.810  0.500  0.408725  18.1382  12.0528  4.378758
  16707.330  16707.290  0.500  0.408387  18.1041  12.0342  4.374038
  16710.842  16710.790  0.500  0.408161  17.9976  11.9661  4.352157
  16714.355  16714.310  0.500  0.407871  17.3348  11.5288  4.195806
  16717.845  16717.850  0.500  0.408294  15.6632  10.4126  3.789515
  16721.422  16721.400  0.500  0.407215  18.0224  11.9939  4.369019
  16725.037  16724.980  0.500  0.406869  18.1294  12.0693  4.399208
  16728.642  16728.580  0.500  0.406804  18.119  12.0632  4.399691
  16732.237  16732.190  0.500  0.406352  18.0993  12.0555  4.397569
  16735.820  16735.820  0.500  0.406471  18.0804  12.0415  4.397751
  16739.503  16739.480  0.500  0.406082  18.063  12.0346  4.397095
  16743.188  16743.150  0.500  0.405829  18.0566  12.0333  4.398218
  16746.887  16746.840  0.500  0.405245  18.0294  12.0223  4.396384
  16750.624  16750.550  0.500  0.405169  18.0107  12.0107  4.394415
  16754.290  16754.280  0.500  0.404779  17.9969  12.0062  4.395897
  16758.080  16758.020  0.500  0.404663  17.9777  11.9948  4.394745
  16761.847  16761.790  0.500  0.404339  17.9631  11.9889  4.394200
  16765.615  16765.580  0.500  0.403884  17.943  11.9809  4.393080
  16769.373  16769.380  0.500  0.403618  17.9259  11.9727  4.394365
  16773.257  16773.210  0.500  0.403174  17.9086  11.9665  4.392793
  16777.092  16777.050  0.500  0.403013  17.8955  11.9596  4.393056
  16780.954  16780.910  0.500  0.402785  17.8787  11.9511  4.392968
  16784.843  16784.790  0.500  0.402292  17.8608  11.9451  4.393599
  16788.696  16788.690  0.500  0.402036  17.8328  11.9294  4.390441
  16792.625  16792.610  0.500  0.401973  17.8289  11.9275  4.393247
  16796.606  16796.550  0.500  0.401362  17.7931  11.9108  4.389603
  16800.551  16800.510  0.500  0.401083  17.7733  11.9009  4.386944
  16804.510  16804.480  0.500  0.400734  17.5787  11.7747  4.343457
  16808.521  16808.480  0.500  0.400413  17.7158  11.8703  4.381580
  16812.485  16812.490  0.500  0.400386  17.7074  11.865  4.383227
  16816.586  16816.530  0.500  0.400054  17.6807  11.8511  4.381352
  16820.653  16820.580  0.500  0.399697  17.6283  11.8202  4.371908
  16824.659  16824.650  0.500  0.399284  17.568  11.7846  4.362013
  16828.754  16828.740  0.500  0.398901  17.4415  11.7043  4.334031
  16832.864  16832.850  0.500  0.398463  16.9482  11.3782  4.215651
  16837.025  16836.980  0.500  0.398898  14.8734  9.980926  3.698020
  16841.163  16841.130  0.500  0.398279  17.7621  11.9268  4.423685
  16845.292  16845.290  0.500  0.397876  17.7807  11.9441  4.432953
  16849.496  16849.480  0.500  0.397558  17.7372  11.9187  4.425684
  16853.691  16853.680  0.500  0.397180  17.6847  11.8879  4.417163
  16857.975  16857.910  0.500  0.396901  17.6514  11.8688  4.411842
  16862.211  16862.150  0.500  0.396310  17.5917  11.8356  4.402147
  16866.424  16866.410  0.500  0.396025  17.4307  11.7307  4.366772
  16870.739  16870.690  0.500  0.395836  17.5915  11.8411  4.410170
  16875.032  16874.990  0.500  0.395655  17.5387  11.8077  4.401491
  16879.376  16879.310  0.500  0.395356  17.5542  11.8217  4.409683
  16883.673  16883.650  0.500  0.394808  17.5188  11.8043  4.405386
  16888.047  16888.010  0.500  0.394347  17.4995  11.7968  4.403717
  16892.424  16892.390  0.500  0.393938  17.4749  11.785  4.403605
  16896.827  16896.780  0.500  0.393711  17.4531  11.773  4.401758
  16901.246  16901.200  0.500  0.393431  17.4326  11.7625  4.400641
  16905.629  16905.630  0.500  0.393190  17.4163  11.7542  4.400322
  16910.115  16910.080  0.500  0.392830  17.402  11.7489  4.402547
  16914.603  16914.550  0.500  0.392479  17.3482  11.7166  4.392528
  16919.081  16919.040  0.500  0.392281  17.3045  11.6894  4.385043
  16923.600  16923.550  0.500  0.391914  17.1288  11.575  4.344399
  16928.120  16928.080  0.500  0.391516  17.2978  11.6938  4.392168
  16932.668  16932.630  0.500  0.391120  17.3059  11.704  4.398561
  16937.257  16937.200  0.500  0.390670  17.2777  11.6901  4.396719
  16941.847  16941.780  0.500  0.390294  17.1694  11.6212  4.373190
  16946.416  16946.390  0.500  0.389866  16.8692  11.4229  4.301805
  16951.049  16951.010  0.500  0.390305  14.6555  9.919591  3.737212
  16955.748  16955.660  0.500  0.389546  17.3513  11.7532  4.431797
  16960.438  16960.320  0.500  0.389145  17.4324  11.8128  4.456783
  16965.092  16965.000  0.500  0.388689  17.3808  11.7832  4.450099
  16969.786  16969.700  0.500  0.388302  17.3436  11.7626  4.444404
  16974.496  16974.420  0.500  0.387982  17.3063  11.741  4.439371
  16979.258  16979.160  0.500  0.387762  17.2751  11.7224  4.436141
  16984.024  16983.910  0.500  0.387192  17.0411  11.5703  4.381760
  16988.792  16988.690  0.500  0.386946  17.2288  11.7005  4.433114
  16993.563  16993.490  0.500  0.386516  17.2142  11.6956  4.434763
  16998.362  16998.300  0.500  0.385893  17.1844  11.6827  4.432162
  17003.214  17003.130  0.500  0.385935  17.1655  11.6693  4.431012
  17008.032  17007.990  0.500  0.385371  17.1482  11.6641  4.430604
  17012.928  17012.860  0.500  0.385011  17.1275  11.6543  4.430430
  17017.814  17017.750  0.500  0.384753  17.114  11.6481  4.430915
  17022.715  17022.660  0.500  0.384615  17.075  11.6232  4.424754
  17027.620  17027.590  0.500  0.384133  17.0707  11.6258  4.428758
  17032.591  17032.530  0.500  0.383600  17.0354  11.608  4.423990
  17037.539  17037.500  0.500  0.383302  17.0112  11.595  4.422876
  17042.529  17042.490  0.500  0.382997  16.9923  11.5856  4.422367
  17047.508  17047.490  0.500  0.382570  16.9603  11.5687  4.419179
  17052.568  17052.520  0.500  0.382071  16.9382  11.5594  4.417892
  17057.604  17057.560  0.500  0.381721  16.9083  11.5431  4.415262
  17062.669  17062.620  0.500  0.381321  16.8708  11.5221  4.410882
  17067.738  17067.700  0.500  0.381090  16.7875  11.4679  4.393076
  17072.834  17072.800  0.500  0.380813  16.138  11.0272  4.228946
  17077.960  17077.920  0.500  0.380014  15.8376  10.8306  4.154524
  17083.114  17083.060  0.500  0.379694  16.8855  11.5508  4.433864
  17088.284  17088.220  0.500  0.379276  16.8621  11.5397  4.432988
  17093.470  17093.400  0.500  0.378965  16.8239  11.5171  4.427702
  17098.633  17098.590  0.500  0.378429  16.8072  11.5119  4.428586
  17103.826  17103.810  0.500  0.378010  16.7822  11.4996  4.425288
  17109.098  17109.040  0.500  0.377715  16.7712  11.4954  4.428223
  17114.323  17114.290  0.500  0.377319  16.7419  11.4799  4.425756
  17119.614  17119.560  0.500  0.377085  16.7233  11.4698  4.425159
  17124.884  17124.850  0.500  0.376523  16.6951  11.4569  4.423462
  17130.182  17130.160  0.500  0.376217  16.6738  11.4458  4.423263
  17135.536  17135.490  0.500  0.375790  16.6541  11.4371  4.422265
  17140.879  17140.840  0.500  0.375421  16.6297  11.4246  4.421425
  17146.252  17146.210  0.500  0.375141  16.6123  11.4159  4.421110
  17151.615  17151.590  0.500  0.374690  16.5787  11.3979  4.417364
  17157.021  17157.000  0.500  0.374174  16.5771  11.4027  4.421516
  17162.468  17162.420  0.500  0.373718  16.5454  11.3861  4.420204
  17167.920  17167.870  0.500  0.373637  16.5375  11.3815  4.420819
  17173.387  17173.330  0.500  0.372949  16.5045  11.3667  4.416794
  17178.845  17178.810  0.500  0.372827  16.4893  11.3576  4.419016
  17184.333  17184.310  0.500  0.372120  16.4737  11.3548  4.419618
  17189.888  17189.830  0.500  0.371657  16.4492  11.3432  4.419000
  17195.409  17195.370  0.500  0.371418  16.4295  11.3323  4.417588
  17200.985  17200.920  0.500  0.370854  16.406  11.3225  4.417578
  17206.525  17206.500  0.500  0.370511  16.3853  11.3121  4.414996
  17212.135  17212.100  0.500  0.370132  16.3621  11.3004  4.414202
  17217.761  17217.710  0.500  0.369846  16.3351  11.2849  4.412432
  17223.390  17223.350  0.500  0.369416  16.3251  11.2829  4.414718
  17229.023  17229.000  0.500  0.368951  16.2987  11.2699  4.412183
  17234.712  17234.670  0.500  0.368480  16.2658  11.2524  4.409795
  17240.379  17240.360  0.500  0.368109  16.2527  11.2476  4.411667