File: xdidata/Data/Bi/Bi-L1-Bi2Ce2Ti4O12.xdi
# XDI/1.0 BlueSky/1.10.0 BMM/2023-1.0-py310-tiled
# Beamline.name: BMM (06BM) -- Beamline for Materials Measurement (NIST)
# Beamline.xray_source: NSLS-II three-pole wiggler
# Beamline.collimation: paraboloid mirror, 5 nm Rh on 30 nm Pt
# Beamline.focusing: not in use
# Beamline.harmonic_rejection: flat mirror, Pt stripe, pitch = 7.0 mrad relative to beam
# Beamline.software: Bluesky 1.10.0, Ophyd 1.7.0, DataBroker 2.0.0b13, Python 3.10.8, 2023-1.0-py310-tiled
# Detector.I0: 10 cm N2
# Detector.I1: 25 cm N2
# Detector.I2: 25 cm N2
# Element.symbol: Bi
# Element.edge: L1
# Element.reference: Bi
# Element.reference_material: BiO2
# Facility.name: NSLS-II
# Facility.energy: 3.0
# Facility.current: 399.5
# Facility.mode: top-off
# Facility.GUP: 301027
# Facility.SAF: 310583
# Facility.cycle: 2023-2
# Mono.name: Si(111)
# Mono.d_spacing: 3.13519
# Mono.encoder_resolution: 0.0000050 deg/ct
# Mono.angle_offset: 16.0754 deg
# Mono.scan_mode: pseudo channel cut
# Mono.scan_type: step
# Mono.direction: forward in energy
# Sample.name: Bi2Ce2Ti4O12
# Sample.prep: Powder in PEG pellet
# Sample.x: 145.711 mm
# Sample.y: 114.376 mm
# Sample.SDD_position: 205.000 mm
# Scan.experimenters: Bruce Ravel
# Scan.edge_energy: 16387.5
# Scan.start_time: 2023-06-27T14:09:15
# Scan.end_time: 2023-06-27T14:15:59
# Scan.transient_id: 85146
# Scan.uid: 42c52521-970d-427b-a5f2-51b2dc4054de
# Scan.plot_hint: ln(I0/It)  --  ln($5/$6)
# Column.1: energy eV
# Column.2: requested_energy eV
# Column.3: measurement_time seconds
# Column.4: xmu
# Column.5: I0 nA
# Column.6: It nA
# Column.7: Ir nA
# ///////////
# sample courtesy Martin Stennett, University of Sheffield
# -----------
# energy  requested_energy  measurement_time  xmu  I0  It  Ir
  16187.495  16187.500  0.500  -0.104576  21.5958  23.9766  9.129152
  16197.522  16197.500  0.500  -0.105278  21.5579  23.9512  9.130406
  16207.515  16207.500  0.500  -0.106166  21.5148  23.9246  9.132393
  16217.486  16217.500  0.500  -0.106902  21.4657  23.8876  9.131055
  16227.515  16227.500  0.500  -0.107705  21.4173  23.8528  9.129767
  16237.534  16237.500  0.500  -0.108373  21.3155  23.7553  9.105457
  16247.612  16247.500  0.500  -0.109324  21.3086  23.7702  9.119888
  16257.494  16257.500  0.500  -0.110181  21.2452  23.7198  9.111629
  16267.515  16267.500  0.500  -0.110730  21.2122  23.696  9.113487
  16277.526  16277.500  0.500  -0.111301  21.1638  23.6554  9.109266
  16287.491  16287.500  0.500  -0.112355  21.1142  23.6249  9.105749
  16297.538  16297.500  0.500  -0.112959  21.0611  23.5798  9.098493
  16307.481  16307.500  0.500  -0.113652  20.9686  23.4924  9.072350
  16317.495  16317.500  0.500  -0.114208  20.9617  23.4977  9.080357
  16327.521  16327.500  0.500  -0.114612  20.9174  23.4576  9.072521
  16337.466  16337.500  0.500  -0.115066  20.8716  23.4169  9.058817
  16347.540  16347.500  0.500  -0.115384  20.8191  23.3653  9.036079
  16357.498  16357.500  0.500  -0.115287  20.7699  23.3078  9.003237
  16359.444  16359.500  0.500  -0.115171  20.7573  23.291  8.989574
  16361.461  16361.500  0.500  -0.114984  20.7476  23.2758  8.978321
  16363.455  16363.500  0.500  -0.114902  20.7388  23.264  8.964996
  16365.449  16365.500  0.500  -0.114680  20.73  23.249  8.949301
  16367.456  16367.500  0.500  -0.114334  20.721  23.2308  8.931829
  16369.463  16369.500  0.500  -0.113835  20.7043  23.2005  8.908182
  16371.436  16371.500  0.500  -0.113258  20.6588  23.1362  8.867148
  16373.432  16373.500  0.500  -0.112560  20.6045  23.0593  8.815686
  16375.441  16375.500  0.500  -0.111475  20.6254  23.0576  8.788802
  16377.450  16377.500  0.500  -0.110447  20.6549  23.0669  8.754564
  16377.709  16377.800  0.500  -0.110044  20.6589  23.0621  8.747185
  16378.026  16378.100  0.500  -0.110081  20.6579  23.0619  8.739626
  16378.332  16378.400  0.500  -0.109517  20.734  23.1337  8.760378
  16378.649  16378.700  0.500  -0.109304  20.7319  23.1265  8.750653
  16378.931  16379.000  0.500  -0.108967  20.7303  23.1169  8.738941
  16379.248  16379.300  0.500  -0.108881  20.7254  23.1094  8.728051
  16379.554  16379.600  0.500  -0.108404  20.7251  23.0981  8.714662
  16379.860  16379.900  0.500  -0.108206  20.7246  23.0929  8.703332
  16380.177  16380.200  0.500  -0.107734  20.7256  23.0831  8.690590
  16380.483  16380.500  0.500  -0.107312  20.7235  23.0711  8.675349
  16380.753  16380.800  0.500  -0.107091  20.7162  23.0578  8.659237
  16381.059  16381.100  0.500  -0.106379  20.7222  23.0481  8.646126
  16381.353  16381.400  0.500  -0.106179  20.713  23.0333  8.627367
  16381.670  16381.700  0.500  -0.105654  20.7117  23.0197  8.610967
  16381.976  16382.000  0.500  -0.104966  20.7124  23.0047  8.590479
  16382.281  16382.300  0.500  -0.104488  20.7082  22.989  8.571370
  16382.587  16382.600  0.500  -0.103848  20.7093  22.9755  8.553230
  16382.869  16382.900  0.500  -0.103510  20.7062  22.9643  8.532340
  16383.175  16383.200  0.500  -0.102837  20.705  22.9475  8.509889
  16383.481  16383.500  0.500  -0.102130  20.7029  22.9291  8.484138
  16383.787  16383.800  0.500  -0.101322  20.6995  22.9067  8.458171
  16384.104  16384.100  0.500  -0.100722  20.6989  22.8924  8.431112
  16384.398  16384.400  0.500  -0.099734  20.7002  22.8712  8.406237
  16384.680  16384.700  0.500  -0.099027  20.6915  22.8455  8.375803
  16384.986  16385.000  0.500  -0.098032  20.693  22.8244  8.345167
  16385.304  16385.300  0.500  -0.097186  20.6876  22.7991  8.311564
  16385.598  16385.600  0.500  -0.096217  20.6905  22.7802  8.279436
  16385.892  16385.900  0.500  -0.095119  20.6884  22.7529  8.246245
  16386.174  16386.200  0.500  -0.094033  20.6875  22.7272  8.211691
  16386.480  16386.500  0.500  -0.093042  20.6801  22.6965  8.171714
  16386.786  16386.800  0.500  -0.091927  20.6816  22.673  8.134471
  16387.104  16387.100  0.500  -0.090645  20.6805  22.6427  8.092957
  16387.374  16387.400  0.500  -0.089356  20.6753  22.6078  8.052257
  16387.680  16387.700  0.500  -0.088220  20.6704  22.5768  8.009396
  16387.974  16388.000  0.500  -0.086831  20.6729  22.5482  7.970211
  16388.280  16388.300  0.500  -0.085588  20.6703  22.5173  7.927901
  16388.574  16388.600  0.500  -0.084217  20.6684  22.4845  7.883546
  16388.880  16388.900  0.500  -0.082734  20.6663  22.4488  7.839310
  16389.186  16389.200  0.500  -0.081531  20.6663  22.4219  7.795502
  16389.457  16389.500  0.500  -0.080303  20.662  22.3896  7.754877
  16389.763  16389.800  0.500  -0.078820  20.6635  22.3581  7.713639
  16390.057  16390.100  0.500  -0.077642  20.6583  22.3261  7.670540
  16390.375  16390.400  0.500  -0.076343  20.6579  22.2968  7.630654
  16390.693  16390.700  0.500  -0.075068  20.6559  22.2662  7.593578
  16390.987  16391.000  0.500  -0.073862  20.655  22.2384  7.556452
  16391.269  16391.300  0.500  -0.072955  20.6528  22.2158  7.525468
  16391.564  16391.600  0.500  -0.072074  20.6501  22.1934  7.497338
  16391.870  16391.900  0.500  -0.071134  20.6505  22.1729  7.470474
  16392.176  16392.200  0.500  -0.070778  20.6429  22.1569  7.445397
  16392.482  16392.500  0.500  -0.069956  20.6458  22.1418  7.428465
  16392.776  16392.800  0.500  -0.069598  20.6418  22.1296  7.411115
  16393.071  16393.100  0.500  -0.069360  20.638  22.1203  7.397939
  16393.365  16393.400  0.500  -0.068994  20.639  22.1132  7.389056
  16393.683  16393.700  0.500  -0.068990  20.6344  22.1082  7.384994
  16394.001  16394.000  0.500  -0.069042  20.635  22.1101  7.381224
  16394.283  16394.300  0.500  -0.069392  20.6299  22.1122  7.382363
  16394.590  16394.600  0.500  -0.069476  20.6264  22.1104  7.387074
  16394.884  16394.900  0.500  -0.069964  20.6227  22.1172  7.393438
  16395.190  16395.200  0.500  -0.070425  20.6221  22.1267  7.403671
  16395.496  16395.500  0.500  -0.071129  20.6177  22.1377  7.417531
  16395.803  16395.800  0.500  -0.071690  20.6191  22.1516  7.430160
  16396.074  16396.100  0.500  -0.072451  20.6148  22.1638  7.447429
  16396.403  16396.400  0.500  -0.072869  20.6147  22.1729  7.463885
  16396.710  16396.700  0.500  -0.073533  20.6142  22.1871  7.483203
  16397.016  16397.000  0.500  -0.074337  20.6124  22.2031  7.502486
  16397.322  16397.300  0.500  -0.075203  20.6093  22.219  7.522996
  16397.605  16397.600  0.500  -0.075876  20.6073  22.2318  7.540265
  16397.899  16397.900  0.500  -0.076586  20.5994  22.239  7.556196
  16398.194  16398.200  0.500  -0.077223  20.6064  22.2608  7.576741
  16398.524  16398.500  0.500  -0.077709  20.599  22.2636  7.593572
  16398.842  16398.800  0.500  -0.078417  20.5954  22.2754  7.612156
  16399.101  16399.100  0.500  -0.079179  20.5935  22.2904  7.627940
  16399.407  16399.400  0.500  -0.079548  20.5941  22.2992  7.643040
  16399.702  16399.700  0.500  -0.080089  20.5911  22.3081  7.658575
  16400.008  16400.000  0.500  -0.080628  20.5886  22.3173  7.672792
  16400.326  16400.300  0.500  -0.081143  20.5829  22.3227  7.686518
  16400.609  16400.600  0.500  -0.081467  20.5791  22.3258  7.695617
  16400.904  16400.900  0.500  -0.081972  20.575  22.3327  7.709296
  16401.199  16401.200  0.500  -0.082364  20.5703  22.3363  7.717946
  16401.517  16401.500  0.500  -0.082742  20.5658  22.3399  7.727707
  16401.823  16401.800  0.500  -0.083003  20.5573  22.3364  7.734453
  16402.118  16402.100  0.500  -0.083351  20.5529  22.3394  7.741531
  16402.413  16402.400  0.500  -0.083577  20.545  22.3358  7.749540
  16402.695  16402.700  0.500  -0.083845  20.5445  22.3413  7.756964
  16402.990  16403.000  0.500  -0.084159  20.5381  22.3414  7.763288
  16403.320  16403.300  0.500  -0.084551  20.5326  22.3442  7.770739
  16403.615  16403.600  0.500  -0.084722  20.533  22.3484  7.775635
  16403.910  16403.900  0.500  -0.084758  20.5341  22.3504  7.783602
  16404.204  16404.200  0.500  -0.085274  20.5317  22.3593  7.791115
  16404.499  16404.500  0.500  -0.085434  20.5308  22.3619  7.795488
  16404.806  16404.800  0.500  -0.085594  20.5343  22.3693  7.803662
  16405.100  16405.100  0.500  -0.085871  20.5349  22.3761  7.809798
  16405.395  16405.400  0.500  -0.085961  20.5382  22.3818  7.813521
  16405.678  16405.700  0.500  -0.086123  20.5418  22.3893  7.819851
  16405.985  16406.000  0.500  -0.086353  20.5338  22.3857  7.824588
  16406.291  16406.300  0.500  -0.086479  20.538  22.3931  7.831039
  16406.610  16406.600  0.500  -0.086518  20.5391  22.3953  7.834862
  16406.893  16406.900  0.500  -0.086810  20.5329  22.395  7.837990
  16407.176  16407.200  0.500  -0.086987  20.5359  22.4022  7.842209
  16407.471  16407.500  0.500  -0.087168  20.5325  22.4026  7.846026
  16407.789  16407.800  0.500  -0.087333  20.5295  22.403  7.848800
  16408.072  16408.100  0.500  -0.087406  20.5324  22.4078  7.852755
  16408.403  16408.400  0.500  -0.087577  20.5264  22.4051  7.854645
  16408.650  16408.700  0.500  -0.087669  20.5225  22.4029  7.856005
  16408.957  16409.000  0.500  -0.087789  20.5203  22.4031  7.859397
  16409.276  16409.300  0.500  -0.087966  20.5198  22.4066  7.862247
  16409.582  16409.600  0.500  -0.088078  20.5178  22.407  7.863964
  16409.901  16409.900  0.500  -0.088137  20.5166  22.407  7.867634
  16410.184  16410.200  0.500  -0.088113  20.5141  22.4036  7.870140
  16410.491  16410.500  0.500  -0.088178  20.5135  22.4045  7.872599
  16410.786  16410.800  0.500  -0.088327  20.5124  22.4066  7.875368
  16411.093  16411.100  0.500  -0.088342  20.5121  22.4067  7.878297
  16411.399  16411.400  0.500  -0.088705  20.5071  22.4094  7.880719
  16411.683  16411.700  0.500  -0.088541  20.5056  22.404  7.882182
  16412.001  16412.000  0.500  -0.088837  20.5033  22.4081  7.883493
  16412.284  16412.300  0.500  -0.088861  20.5046  22.4101  7.886540
  16412.473  16412.500  0.500  -0.088758  20.4988  22.4014  7.885956
  16413.500  16413.490  0.500  -0.089003  20.4926  22.4002  7.892061
  16414.515  16414.490  0.500  -0.088998  20.4926  22.4  7.897498
  16415.542  16415.510  0.500  -0.089105  20.4848  22.3939  7.898558
  16416.581  16416.560  0.500  -0.089049  20.4785  22.3858  7.897737
  16417.632  16417.620  0.500  -0.088908  20.4729  22.3765  7.893490
  16418.742  16418.700  0.500  -0.088820  20.4635  22.3642  7.886586
  16419.853  16419.800  0.500  -0.088443  20.4597  22.3517  7.878130
  16420.951  16420.920  0.500  -0.088100  20.4388  22.3211  7.861733
  16422.086  16422.060  0.500  -0.087773  20.4278  22.3019  7.846755
  16423.220  16423.210  0.500  -0.087414  20.4354  22.3022  7.841229
  16424.402  16424.390  0.500  -0.087203  20.438  22.3002  7.834042
  16425.596  16425.580  0.500  -0.087080  20.4319  22.2909  7.824228
  16426.790  16426.800  0.500  -0.086709  20.4357  22.2868  7.819025
  16428.031  16428.030  0.500  -0.086733  20.4225  22.2729  7.809037
  16429.273  16429.280  0.500  -0.086697  20.4133  22.262  7.799557
  16430.585  16430.550  0.500  -0.086702  20.4098  22.2584  7.796757
  16431.887  16431.840  0.500  -0.086797  20.4021  22.252  7.791143
  16433.188  16433.150  0.500  -0.086762  20.3967  22.2454  7.788287
  16434.525  16434.480  0.500  -0.086846  20.389  22.2388  7.785612
  16435.886  16435.830  0.500  -0.087129  20.3732  22.2279  7.782230
  16437.224  16437.200  0.500  -0.087133  20.3607  22.2143  7.775880
  16438.609  16438.580  0.500  -0.087309  20.3511  22.2078  7.774960
  16439.994  16439.990  0.500  -0.087058  20.3437  22.1942  7.768006
  16441.427  16441.410  0.500  -0.087296  20.3321  22.1868  7.767461
  16442.849  16442.850  0.500  -0.087283  20.3189  22.1721  7.763272
  16444.329  16444.310  0.500  -0.087391  20.2897  22.1427  7.754656
  16445.822  16445.790  0.500  -0.087550  20.2939  22.1507  7.758753
  16447.316  16447.290  0.500  -0.087495  20.3155  22.173  7.768146
  16448.845  16448.810  0.500  -0.088039  20.3137  22.1831  7.774503
  16450.374  16450.350  0.500  -0.088358  20.3079  22.184  7.775298
  16451.951  16451.910  0.500  -0.088764  20.3018  22.1863  7.780724
  16453.529  16453.480  0.500  -0.089049  20.2943  22.1844  7.785028
  16455.083  16455.080  0.500  -0.089510  20.2898  22.1898  7.790918
  16456.684  16456.690  0.500  -0.090057  20.2753  22.186  7.795803
  16458.310  16458.330  0.500  -0.090338  20.2711  22.1876  7.802298
  16459.960  16459.980  0.500  -0.090523  20.2502  22.1688  7.802652
  16461.646  16461.650  0.500  -0.090856  20.2391  22.164  7.808233
  16463.356  16463.340  0.500  -0.091116  20.2466  22.1781  7.817618
  16465.078  16465.050  0.500  -0.091278  20.2389  22.1732  7.822229
  16466.812  16466.780  0.500  -0.091496  20.2334  22.172  7.824655
  16468.571  16468.530  0.500  -0.091494  20.2228  22.1604  7.825556
  16470.294  16470.290  0.500  -0.091442  20.2171  22.1529  7.823788
  16472.065  16472.080  0.500  -0.091576  20.2067  22.1446  7.824766
  16473.872  16473.880  0.500  -0.091334  20.2  22.1318  7.821967
  16475.692  16475.710  0.500  -0.091590  20.1903  22.1268  7.821886
  16477.571  16477.550  0.500  -0.091712  20.1795  22.1178  7.820968
  16479.404  16479.410  0.500  -0.091697  20.1693  22.1062  7.817231
  16481.296  16481.290  0.500  -0.091848  20.1572  22.0963  7.816133
  16483.224  16483.190  0.500  -0.091995  20.1533  22.0952  7.815672
  16485.129  16485.110  0.500  -0.091907  20.1474  22.0869  7.816794
  16487.046  16487.050  0.500  -0.092060  20.1378  22.0797  7.812262
  16489.024  16489.010  0.500  -0.092119  20.1245  22.0664  7.810910
  16490.966  16490.980  0.500  -0.092264  20.1174  22.0618  7.808978
  16492.968  16492.980  0.500  -0.092526  20.1077  22.0569  7.808991
  16495.018  16494.990  0.500  -0.092657  20.097  22.0481  7.807854
  16497.045  16497.020  0.500  -0.092890  20.0885  22.0439  7.806404
  16499.096  16499.080  0.500  -0.092993  20.0774  22.034  7.804142
  16501.184  16501.150  0.500  -0.093152  20.0715  22.0311  7.805090
  16503.248  16503.240  0.500  -0.093287  20.0509  22.0114  7.799839
  16505.337  16505.350  0.500  -0.093534  20.0362  22.0008  7.798440
  16507.474  16507.480  0.500  -0.093698  20.0325  22.0003  7.798591
  16509.611  16509.620  0.500  -0.093731  20.0271  21.9951  7.798441
  16511.809  16511.790  0.500  -0.093982  20.016  21.9884  7.797561
  16513.995  16513.980  0.500  -0.094156  20.0026  21.9775  7.796051
  16516.218  16516.180  0.500  -0.094520  19.9923  21.9741  7.798465
  16518.406  16518.400  0.500  -0.094622  19.9897  21.9736  7.801756
  16520.666  16520.650  0.500  -0.094761  20.043  22.0352  7.825699
  16522.902  16522.910  0.500  -0.095105  20.0292  22.0275  7.826183
  16525.188  16525.190  0.500  -0.095311  20.0156  22.0171  7.825411
  16527.485  16527.490  0.500  -0.095461  20.0091  22.0133  7.830476
  16529.820  16529.810  0.500  -0.095749  19.9975  22.0069  7.829090
  16532.178  16532.150  0.500  -0.096010  19.978  21.9912  7.829465
  16534.502  16534.500  0.500  -0.096224  19.9645  21.981  7.828860
  16536.886  16536.880  0.500  -0.096449  19.9591  21.98  7.833778
  16539.271  16539.270  0.500  -0.096612  19.9496  21.9732  7.834695
  16541.669  16541.690  0.500  -0.096965  19.9362  21.9661  7.833265
  16544.151  16544.120  0.500  -0.097192  19.9292  21.9634  7.836715
  16546.586  16546.570  0.500  -0.097506  19.8907  21.9278  7.825856
  16549.070  16549.050  0.500  -0.097694  19.8704  21.9097  7.824412
  16551.542  16551.540  0.500  -0.098016  19.8847  21.9325  7.836266
  16554.051  16554.050  0.500  -0.098159  19.8749  21.9247  7.836169
  16556.585  16556.570  0.500  -0.098368  19.8673  21.9209  7.837779
  16559.120  16559.120  0.500  -0.098453  19.8527  21.9067  7.837989
  16561.692  16561.690  0.500  -0.098566  19.8356  21.8903  7.835993
  16564.288  16564.270  0.500  -0.098802  19.8264  21.8854  7.836670
  16566.922  16566.880  0.500  -0.098961  19.8183  21.8799  7.839262
  16569.508  16569.500  0.500  -0.099156  19.801  21.865  7.836649
  16572.143  16572.150  0.500  -0.099599  19.7912  21.8639  7.840629
  16574.815  16574.810  0.500  -0.099657  19.7789  21.8515  7.838046
  16577.524  16577.490  0.500  -0.099681  19.7686  21.8407  7.837180
  16580.198  16580.190  0.500  -0.100146  19.7499  21.8302  7.836104
  16582.909  16582.910  0.500  -0.100276  19.7345  21.816  7.833255
  16585.644  16585.650  0.500  -0.100307  19.73  21.8117  7.834612
  16588.381  16588.400  0.500  -0.100484  19.7131  21.7969  7.830796
  16591.215  16591.180  0.500  -0.100843  19.6908  21.78  7.826210
  16594.002  16593.970  0.500  -0.101059  19.6829  21.7761  7.826985
  16596.826  16596.790  0.500  -0.101298  19.6715  21.7686  7.827362
  16599.615  16599.620  0.500  -0.101501  19.6602  21.7605  7.826456
  16602.489  16602.470  0.500  -0.101748  19.6449  21.749  7.825237
  16605.340  16605.350  0.500  -0.102037  19.6291  21.7378  7.824276
  16608.253  16608.240  0.500  -0.102356  19.6179  21.7322  7.825042
  16611.166  16611.150  0.500  -0.102577  19.6037  21.7213  7.824279
  16614.081  16614.070  0.500  -0.102819  19.5864  21.7074  7.824636
  16617.008  16617.020  0.500  -0.102996  19.5591  21.681  7.819662
  16619.997  16619.990  0.500  -0.103345  19.5584  21.6878  7.825846
  16623.012  16622.970  0.500  -0.103522  19.5456  21.6775  7.824896
  16626.016  16625.980  0.500  -0.103661  19.5324  21.6658  7.826314
  16629.020  16629.000  0.500  -0.103923  19.5124  21.6493  7.825988
  16632.050  16632.050  0.500  -0.104341  19.5005  21.6452  7.826228
  16635.118  16635.110  0.500  -0.104440  19.4861  21.6313  7.826566
  16638.210  16638.190  0.500  -0.104815  19.4707  21.6223  7.824810
  16641.304  16641.290  0.500  -0.105016  19.4541  21.6083  7.823716
  16644.448  16644.410  0.500  -0.105301  19.4429  21.602  7.823398
  16647.569  16647.550  0.500  -0.105697  19.4233  21.5887  7.822026
  16650.715  16650.700  0.500  -0.105740  19.4091  21.5739  7.821317
  16653.911  16653.880  0.500  -0.106047  19.3915  21.5609  7.821233
  16657.096  16657.070  0.500  -0.106352  19.3798  21.5545  7.821260
  16660.331  16660.290  0.500  -0.106667  19.3612  21.5405  7.821939
  16663.542  16663.520  0.500  -0.107020  19.345  21.5301  7.821056
  16666.792  16666.770  0.500  -0.107158  19.329  21.5153  7.820451
  16670.079  16670.050  0.500  -0.107356  19.313  21.5017  7.818286
  16673.380  16673.340  0.500  -0.107714  19.2939  21.4882  7.817634
  16676.682  16676.650  0.500  -0.107927  19.278  21.475  7.818991
  16679.986  16679.970  0.500  -0.108078  19.2599  21.4581  7.817195
  16683.340  16683.320  0.500  -0.108609  19.24  21.4474  7.815270
  16686.743  16686.690  0.500  -0.108619  19.2214  21.4269  7.815269
  16690.124  16690.070  0.500  -0.109000  19.2012  21.4124  7.811425
  16693.518  16693.480  0.500  -0.109263  19.1765  21.3906  7.807320
  16696.914  16696.900  0.500  -0.109530  19.1533  21.3703  7.803597
  16700.372  16700.350  0.500  -0.109708  19.1254  21.343  7.796336
  16703.844  16703.810  0.500  -0.110153  19.09  21.313  7.788963
  16707.342  16707.290  0.500  -0.110339  19.0341  21.2545  7.771395
  16710.842  16710.790  0.500  -0.110611  18.9177  21.1303  7.731483
  16714.318  16714.310  0.500  -0.110773  18.3669  20.5184  7.509879
  16717.857  16717.850  0.500  -0.111355  16.1538  18.0566  6.612054
  16721.434  16721.400  0.500  -0.111553  18.9665  21.2048  7.768937
  16725.013  16724.980  0.500  -0.111840  19.1394  21.4042  7.844844
  16728.606  16728.580  0.500  -0.111985  19.119  21.3845  7.843898
  16732.200  16732.190  0.500  -0.112376  19.0888  21.3591  7.838128
  16735.845  16735.820  0.500  -0.112634  19.0655  21.3386  7.836561
  16739.503  16739.480  0.500  -0.113009  19.0429  21.3212  7.832879
  16743.188  16743.150  0.500  -0.113217  19.0196  21.2996  7.829721
  16746.875  16746.840  0.500  -0.113552  18.9982  21.2828  7.828286
  16750.575  16750.550  0.500  -0.113949  18.9759  21.2662  7.827734
  16754.290  16754.280  0.500  -0.114222  18.9567  21.2504  7.823441
  16758.043  16758.020  0.500  -0.114629  18.9346  21.2343  7.824259
  16761.834  16761.790  0.500  -0.114788  18.9151  21.2158  7.822204
  16765.603  16765.580  0.500  -0.115152  18.8929  21.1987  7.819982
  16769.398  16769.380  0.500  -0.115425  18.8719  21.1808  7.816564
  16773.244  16773.210  0.500  -0.115817  18.8545  21.1696  7.817226
  16777.092  16777.050  0.500  -0.116165  18.8333  21.1532  7.815774
  16780.979  16780.910  0.500  -0.116352  18.8132  21.1346  7.813437
  16784.793  16784.790  0.500  -0.116464  18.7949  21.1164  7.812543
  16788.696  16788.690  0.500  -0.116932  18.7741  21.1029  7.809810
  16792.662  16792.610  0.500  -0.117271  18.7479  21.0806  7.807255
  16796.606  16796.550  0.500  -0.117615  18.7208  21.0574  7.803498
  16800.539  16800.510  0.500  -0.118019  18.6921  21.0336  7.798171
  16804.498  16804.480  0.500  -0.118139  18.5011  20.8211  7.726069
  16808.497  16808.480  0.500  -0.118563  18.62  20.9639  7.782090
  16812.547  16812.490  0.500  -0.118901  18.6302  20.9824  7.793920
  16816.586  16816.530  0.500  -0.119357  18.5964  20.954  7.787381
  16820.603  16820.580  0.500  -0.119501  18.5586  20.9143  7.776658
  16824.659  16824.650  0.500  -0.119894  18.5021  20.8588  7.762725
  16828.767  16828.740  0.500  -0.120161  18.4003  20.7497  7.727128
  16832.889  16832.850  0.500  -0.120564  18.0149  20.3232  7.571205
  16837.037  16836.980  0.500  -0.120797  15.6068  17.6106  6.564513
  16841.139  16841.130  0.500  -0.121261  18.4896  20.8733  7.786160
  16845.329  16845.290  0.500  -0.121447  18.6245  21.0295  7.848145
  16849.496  16849.480  0.500  -0.121809  18.5828  20.9899  7.838966
  16853.728  16853.680  0.500  -0.122223  18.5379  20.9479  7.826666
  16857.937  16857.910  0.500  -0.122498  18.5112  20.9236  7.821996
  16862.161  16862.150  0.500  -0.122798  18.4598  20.8717  7.808280
  16866.436  16866.410  0.500  -0.123106  18.2401  20.6297  7.722536
  16870.752  16870.690  0.500  -0.123624  18.4377  20.8639  7.815355
  16875.069  16874.990  0.500  -0.123799  18.3822  20.8047  7.797346
  16879.351  16879.310  0.500  -0.124251  18.3962  20.8301  7.811482
  16883.686  16883.650  0.500  -0.124608  18.3665  20.8038  7.806179
  16888.047  16888.010  0.500  -0.124658  18.3432  20.7785  7.802900
  16892.436  16892.390  0.500  -0.125160  18.3201  20.7627  7.802764
  16896.827  16896.780  0.500  -0.125536  18.2942  20.7411  7.798436
  16901.208  16901.200  0.500  -0.125908  18.2673  20.7184  7.793865
  16905.679  16905.630  0.500  -0.126201  18.2475  20.702  7.793330
  16910.115  16910.080  0.500  -0.126548  18.2191  20.6769  7.790402
  16914.616  16914.550  0.500  -0.127011  18.1681  20.6286  7.775828
  16919.081  16919.040  0.500  -0.127156  18.1476  20.6083  7.772783
  16923.600  16923.550  0.500  -0.127528  17.9189  20.3562  7.683533
  16928.158  16928.080  0.500  -0.127919  18.1247  20.598  7.780224
  16932.681  16932.630  0.500  -0.128241  18.0846  20.5591  7.769309
  16937.244  16937.200  0.500  -0.128555  18.0371  20.5115  7.754759
  16941.860  16941.780  0.500  -0.129166  17.9534  20.4288  7.730163
  16946.441  16946.390  0.500  -0.129203  17.7231  20.1675  7.638471
  16951.100  16951.010  0.500  -0.129555  15.5422  17.692  6.703191
  16955.723  16955.660  0.500  -0.130120  17.8732  20.357  7.718899
  16960.425  16960.320  0.500  -0.130388  18.1105  20.6327  7.828631
  16965.079  16965.000  0.500  -0.130806  18.0673  20.5921  7.818762
  16969.799  16969.700  0.500  -0.131082  18.0323  20.5579  7.811981
  16974.521  16974.420  0.500  -0.131335  17.999  20.5252  7.804355
  16979.360  16979.160  0.500  -0.131908  17.9618  20.4945  7.795565
  16984.024  16983.910  0.500  -0.132139  17.7363  20.2419  7.706089
  16988.868  16988.690  0.500  -0.132537  17.919  20.4585  7.793628
  16993.550  16993.490  0.500  -0.132816  17.9031  20.446  7.794526
  16998.375  16998.300  0.500  -0.133198  17.8732  20.4197  7.789712
  17003.189  17003.130  0.500  -0.133801  17.8465  20.4015  7.787245
  17008.082  17007.990  0.500  -0.134136  17.8228  20.3812  7.783258
  17012.928  17012.860  0.500  -0.134419  17.799  20.3597  7.781183
  17017.826  17017.750  0.500  -0.134784  17.7713  20.3356  7.778923
  17022.665  17022.660  0.500  -0.135022  17.7443  20.3094  7.772285
  17027.633  17027.590  0.500  -0.135721  17.7188  20.2945  7.772401