File: xdidata/Nd/Nd-L1-NeodymiumOxide.xdi
# XDI/1.0 BlueSky/1.10.0 BMM/2023-1.0-py310-tiled
# Beamline.name: BMM (06BM) -- Beamline for Materials Measurement (NIST)
# Beamline.xray_source: NSLS-II three-pole wiggler
# Beamline.collimation: paraboloid mirror, 5 nm Rh on 30 nm Pt
# Beamline.focusing: not in use
# Beamline.harmonic_rejection: flat mirror, Si stripe, pitch = 7.0 mrad relative to beam
# Beamline.software: Bluesky 1.10.0, Ophyd 1.7.0, DataBroker 2.0.0b13, Python 3.10.8, 2023-1.0-py310-tiled
# Detector.I0: 10 cm N2
# Detector.I1: 25 cm N2
# Detector.I2: 25 cm N2
# Element.symbol: Nd
# Element.edge: L1
# Element.reference: Nd
# Element.reference_material: Nd2O3
# Facility.name: NSLS-II
# Facility.energy: 3.0
# Facility.current: 400.4
# Facility.mode: top-off
# Facility.GUP: 301027
# Facility.SAF: 310583
# Facility.cycle: 2023-2
# Mono.name: Si(111)
# Mono.d_spacing: 3.13519
# Mono.encoder_resolution: 0.0000050 deg/ct
# Mono.angle_offset: 16.0754 deg
# Mono.scan_mode: pseudo channel cut
# Mono.scan_type: step
# Mono.direction: forward in energy
# Sample.name: Nd2O3
# Sample.prep: PEG pellet
# Sample.x: 109.138 mm
# Sample.y: 153.150 mm
# Sample.SDD_position: 205.000 mm
# Scan.experimenters: Bruce Ravel
# Scan.edge_energy: 7126.0
# Scan.start_time: 2023-05-28T13:28:20
# Scan.end_time: 2023-05-28T13:36:36
# Scan.transient_id: 78721
# Scan.uid: 20212404-7afd-4361-88be-f6cd3da5e71a
# Scan.plot_hint: ln(It/Ir)  --  ln($6/$7)
# Column.1: energy eV
# Column.2: requested_energy eV
# Column.3: measurement_time seconds
# Column.4: xmu
# Column.5: I0 nA
# Column.6: It nA
# Column.7: Ir nA
# ///////////
# sample courtesy Martin Stennett, University of Sheffield
# -----------
# energy  requested_energy  measurement_time  xmu  I0  It  Ir
  6926.002  6926.000  0.500  1.966616  152.074  141.653  19.8214
  6936.012  6936.000  0.500  1.959133  152.126  142.151  20.0405
  6946.017  6946.000  0.500  1.951783  152.203  142.702  20.2667
  6956.008  6956.000  0.500  1.944803  152.257  143.243  20.486
  6966.010  6966.000  0.500  1.937778  152.322  143.731  20.7006
  6975.991  6976.000  0.500  1.929047  152.365  144.194  20.9495
  6985.995  6986.000  0.500  1.920845  152.383  144.664  21.1909
  6996.005  6996.000  0.500  1.913564  152.449  145.158  21.4186
  7006.005  7006.000  0.500  1.906890  152.503  145.711  21.6441
  7016.014  7016.000  0.500  1.899889  152.511  146.172  21.8651
  7026.021  7026.000  0.500  1.892209  152.566  146.653  22.1062
  7036.006  7036.000  0.500  1.884851  152.572  147.129  22.3417
  7046.017  7046.000  0.500  1.877610  152.635  147.634  22.5813
  7056.008  7056.000  0.500  1.870793  152.688  148.128  22.812
  7066.019  7066.000  0.500  1.864027  152.65  148.529  23.029
  7076.015  7076.000  0.500  1.856877  151.66  148.008  23.1129
  7086.010  7086.000  0.500  1.849607  152.593  149.36  23.4942
  7096.009  7096.000  0.500  1.842424  152.627  149.857  23.7423
  7098.016  7098.000  0.500  1.841108  152.639  149.94  23.7868
  7100.001  7100.000  0.500  1.839763  152.64  150.009  23.8297
  7102.003  7102.000  0.500  1.838464  152.643  150.12  23.8782
  7104.003  7104.000  0.500  1.837218  152.63  150.207  23.9219
  7106.000  7106.000  0.500  1.835973  152.637  150.294  23.9656
  7108.002  7108.000  0.500  1.834628  152.621  150.364  24.009
  7110.001  7110.000  0.500  1.833409  152.581  150.442  24.0508
  7111.998  7112.000  0.500  1.832082  152.461  150.384  24.0734
  7114.006  7114.000  0.500  1.830941  152.342  150.371  24.0988
  7116.004  7116.000  0.500  1.829847  152.332  150.44  24.1363
  7116.288  7116.300  0.500  1.829601  152.315  150.396  24.1352
  7116.582  7116.600  0.500  1.829484  152.311  150.442  24.1454
  7116.885  7116.900  0.500  1.829250  152.295  150.466  24.1548
  7117.185  7117.200  0.500  1.829230  152.277  150.443  24.1517
  7117.486  7117.500  0.500  1.829019  152.266  150.422  24.1534
  7117.784  7117.800  0.500  1.828806  152.243  150.369  24.15
  7118.085  7118.100  0.500  1.828759  152.228  150.387  24.154
  7118.386  7118.400  0.500  1.828621  152.213  150.376  24.1556
  7118.685  7118.700  0.500  1.828328  152.2  150.376  24.1627
  7118.985  7119.000  0.500  1.828277  152.181  150.342  24.1585
  7119.282  7119.300  0.500  1.828136  152.164  150.329  24.1599
  7119.583  7119.600  0.500  1.827918  152.156  150.335  24.166
  7119.884  7119.900  0.500  1.827830  152.145  150.36  24.1721
  7120.187  7120.200  0.500  1.827585  152.148  150.366  24.179
  7120.488  7120.500  0.500  1.827529  152.13  150.371  24.1812
  7120.786  7120.800  0.500  1.827409  152.115  150.379  24.1855
  7121.090  7121.100  0.500  1.827231  152.105  150.412  24.195
  7121.391  7121.400  0.500  1.827146  152.097  150.414  24.1974
  7121.700  7121.700  0.500  1.826985  152.073  150.417  24.2017
  7121.993  7122.000  0.500  1.826908  152.067  150.368  24.1957
  7122.292  7122.300  0.500  1.826762  152.054  150.357  24.1976
  7122.595  7122.600  0.500  1.826628  152.034  150.343  24.1985
  7122.890  7122.900  0.500  1.826558  152.021  150.35  24.2013
  7123.195  7123.200  0.500  1.826508  152.005  150.367  24.2053
  7123.494  7123.500  0.500  1.826461  151.988  150.346  24.203
  7123.789  7123.800  0.500  1.826299  151.982  150.364  24.2098
  7124.090  7124.100  0.500  1.826220  151.973  150.381  24.2145
  7124.398  7124.400  0.500  1.826150  151.955  150.437  24.2253
  7124.697  7124.700  0.500  1.826057  151.949  150.459  24.231
  7124.994  7125.000  0.500  1.826023  151.926  150.432  24.2275
  7125.295  7125.300  0.500  1.825971  151.915  150.412  24.2255
  7125.597  7125.600  0.500  1.825915  151.892  150.404  24.2256
  7125.896  7125.900  0.500  1.825941  151.877  150.382  24.2214
  7126.200  7126.200  0.500  1.825831  151.858  150.36  24.2205
  7126.497  7126.500  0.500  1.825866  151.84  150.351  24.2182
  7126.798  7126.800  0.500  1.825835  151.815  150.33  24.2156
  7127.093  7127.100  0.500  1.825846  151.803  150.385  24.2242
  7127.393  7127.400  0.500  1.825942  151.794  150.332  24.2133
  7127.694  7127.700  0.500  1.826010  151.785  150.348  24.2143
  7127.992  7128.000  0.500  1.826107  151.758  150.338  24.2104
  7128.295  7128.300  0.500  1.826288  151.738  150.347  24.2074
  7128.595  7128.600  0.500  1.826499  151.715  150.356  24.2037
  7128.899  7128.900  0.500  1.826762  151.7  150.351  24.1966
  7129.200  7129.200  0.500  1.827127  151.679  150.345  24.1868
  7129.496  7129.500  0.500  1.827531  151.658  150.339  24.1761
  7129.800  7129.800  0.500  1.828065  151.632  150.344  24.164
  7130.104  7130.100  0.500  1.828586  151.607  150.307  24.1453
  7130.397  7130.400  0.500  1.828991  151.57  150.271  24.1299
  7130.701  7130.700  0.500  1.829671  151.545  150.28  24.1149
  7131.001  7131.000  0.500  1.830238  151.52  150.263  24.0984
  7131.296  7131.300  0.500  1.830911  151.495  150.259  24.0816
  7131.598  7131.600  0.500  1.831384  151.482  150.204  24.0615
  7131.900  7131.900  0.500  1.832001  151.459  150.192  24.0446
  7132.200  7132.200  0.500  1.832493  151.446  150.197  24.0337
  7132.499  7132.500  0.500  1.832758  151.43  150.19  24.0261
  7132.799  7132.800  0.500  1.833229  151.421  150.24  24.0228
  7133.095  7133.100  0.500  1.833581  151.41  150.243  24.0149
  7133.397  7133.400  0.500  1.833938  151.41  150.287  24.0133
  7133.697  7133.700  0.500  1.834229  151.415  150.297  24.008
  7133.993  7134.000  0.500  1.834634  151.41  150.299  23.9985
  7134.297  7134.300  0.500  1.835086  151.416  150.314  23.99
  7134.593  7134.600  0.500  1.835742  151.414  150.305  23.9729
  7134.899  7134.900  0.500  1.836194  151.416  150.337  23.9672
  7135.206  7135.200  0.500  1.837034  151.398  150.369  23.9522
  7135.495  7135.500  0.500  1.837732  151.408  150.402  23.9406
  7135.799  7135.800  0.500  1.838601  151.404  150.383  23.9169
  7136.097  7136.100  0.500  1.839614  151.398  150.379  23.892
  7136.426  7136.400  0.500  1.840718  151.397  150.368  23.864
  7136.681  7136.700  0.500  1.841651  151.848  150.849  23.918
  7136.987  7137.000  0.500  1.842945  151.845  150.846  23.8865
  7137.298  7137.300  0.500  1.844268  151.845  150.875  23.8596
  7137.620  7137.600  0.500  1.845951  151.851  150.865  23.8178
  7137.933  7137.900  0.500  1.847523  151.859  150.882  23.7831
  7138.197  7138.200  0.500  1.849181  151.843  150.906  23.7474
  7138.534  7138.500  0.500  1.851177  151.849  150.887  23.6972
  7138.798  7138.800  0.500  1.853036  151.823  150.881  23.6522
  7139.105  7139.100  0.500  1.855055  151.808  150.928  23.6118
  7139.405  7139.400  0.500  1.857286  151.82  150.889  23.5532
  7139.703  7139.700  0.500  1.859627  151.812  150.944  23.5067
  7140.006  7140.000  0.500  1.862016  151.802  150.965  23.4538
  7140.302  7140.300  0.500  1.864445  151.8  150.934  23.3921
  7140.603  7140.600  0.500  1.866932  151.802  150.931  23.3336
  7140.901  7140.900  0.500  1.869356  151.801  150.98  23.2846
  7141.206  7141.200  0.500  1.871793  151.82  150.989  23.2292
  7141.505  7141.500  0.500  1.874061  151.813  150.979  23.1751
  7141.792  7141.800  0.500  1.876270  151.815  151.019  23.1301
  7142.093  7142.100  0.500  1.878516  151.815  151.037  23.081
  7142.405  7142.400  0.500  1.880674  151.81  151.024  23.0292
  7142.699  7142.700  0.500  1.882581  151.816  151.045  22.9885
  7143.000  7143.000  0.500  1.884225  151.81  151.074  22.9552
  7143.300  7143.300  0.500  1.885680  151.812  151.052  22.9185
  7143.599  7143.600  0.500  1.886876  151.817  151.06  22.8923
  7143.906  7143.900  0.500  1.887893  151.817  151.087  22.8732
  7144.205  7144.200  0.500  1.888633  151.812  151.105  22.8589
  7144.497  7144.500  0.500  1.889195  151.813  151.121  22.8486
  7144.803  7144.800  0.500  1.889281  151.814  151.204  22.8591
  7145.110  7145.100  0.500  1.889142  151.809  151.132  22.8513
  7145.407  7145.400  0.500  1.888987  151.813  151.151  22.8578
  7145.701  7145.700  0.500  1.888447  151.81  151.158  22.8712
  7145.993  7146.000  0.500  1.887858  151.811  151.196  22.8904
  7146.295  7146.300  0.500  1.886939  151.822  151.208  22.9133
  7146.596  7146.600  0.500  1.886056  151.824  151.218  22.935
  7146.895  7146.900  0.500  1.884986  151.824  151.259  22.9658
  7147.196  7147.200  0.500  1.883768  151.833  151.292  22.9989
  7147.497  7147.500  0.500  1.882542  151.82  151.301  23.0285
  7147.804  7147.800  0.500  1.881174  151.817  151.273  23.0557
  7148.099  7148.100  0.500  1.879921  151.821  151.281  23.0858
  7148.400  7148.400  0.500  1.878493  151.806  151.274  23.1177
  7148.704  7148.700  0.500  1.877028  151.803  151.289  23.1539
  7148.999  7149.000  0.500  1.875821  151.805  151.283  23.181
  7149.304  7149.300  0.500  1.874427  151.812  151.306  23.2168
  7149.603  7149.600  0.500  1.873130  151.813  151.362  23.2556
  7149.896  7149.900  0.500  1.871912  151.812  151.358  23.2833
  7150.195  7150.200  0.500  1.870739  151.811  151.355  23.3101
  7150.497  7150.500  0.500  1.869690  151.799  151.383  23.339
  7150.800  7150.800  0.500  1.868587  151.793  151.429  23.3718
  7150.996  7151.000  0.500  1.867860  151.813  151.431  23.3891
  7152.004  7151.990  0.500  1.865042  151.806  151.482  23.463
  7153.005  7152.990  0.500  1.862716  151.803  151.504  23.5211
  7154.027  7154.010  0.500  1.861022  151.805  151.531  23.5652
  7155.069  7155.060  0.500  1.859340  151.794  151.54  23.6062
  7156.144  7156.120  0.500  1.857730  151.801  151.616  23.6561
  7157.215  7157.200  0.500  1.855969  151.787  151.668  23.7059
  7158.315  7158.300  0.500  1.854019  151.789  151.731  23.7621
  7159.426  7159.420  0.500  1.851615  151.787  151.785  23.8278
  7160.576  7160.560  0.500  1.849260  151.771  151.788  23.8844
  7161.722  7161.710  0.500  1.846773  151.746  151.804  23.9463
  7162.897  7162.890  0.500  1.844532  151.722  151.87  24.0105
  7164.090  7164.080  0.500  1.842339  151.703  151.916  24.0705
  7165.312  7165.300  0.500  1.840593  151.675  151.889  24.1084
  7166.545  7166.530  0.500  1.839156  151.638  151.867  24.1395
  7167.789  7167.780  0.500  1.837918  151.618  151.93  24.1794
  7169.056  7169.050  0.500  1.836881  151.6  151.978  24.2122
  7170.349  7170.340  0.500  1.836080  151.588  151.998  24.2348
  7171.655  7171.650  0.500  1.835814  151.574  152.041  24.248
  7172.989  7172.980  0.500  1.835743  151.554  152.087  24.2571
  7174.338  7174.330  0.500  1.836175  151.539  152.097  24.2483
  7175.708  7175.700  0.500  1.837085  151.515  152.162  24.2366
  7177.084  7177.080  0.500  1.837936  151.531  152.256  24.2308
  7178.509  7178.490  0.500  1.838615  151.542  152.296  24.2208
  7179.915  7179.910  0.500  1.838925  151.531  152.332  24.219
  7181.355  7181.350  0.500  1.839074  151.522  152.368  24.2211
  7182.817  7182.810  0.500  1.839015  151.507  152.43  24.2323
  7184.292  7184.290  0.500  1.838721  151.487  152.516  24.2532
  7185.795  7185.790  0.500  1.838173  151.48  152.6  24.2798
  7187.314  7187.310  0.500  1.837505  151.477  152.626  24.3002
  7188.859  7188.850  0.500  1.836706  151.482  152.692  24.3302
  7190.419  7190.410  0.500  1.835949  151.493  152.764  24.36
  7191.988  7191.980  0.500  1.835174  149.478  150.777  24.0618
  7193.595  7193.580  0.500  1.834095  151.001  152.415  24.3495
  7195.196  7195.190  0.500  1.832924  151.246  152.722  24.4271
  7196.840  7196.830  0.500  1.831425  151.261  152.842  24.483
  7198.484  7198.480  0.500  1.829841  151.265  152.86  24.5247
  7200.173  7200.150  0.500  1.828019  151.236  152.906  24.5768
  7201.828  7201.840  0.500  1.825868  151.197  152.974  24.6407
  7203.534  7203.550  0.500  1.823580  151.169  153.042  24.7081
  7205.268  7205.280  0.500  1.821023  151.15  153.106  24.7817
  7207.022  7207.030  0.500  1.818528  151.118  153.143  24.8496
  7208.786  7208.790  0.500  1.816234  151.08  153.164  24.9102
  7210.578  7210.580  0.500  1.814135  151.055  153.159  24.9617
  7212.379  7212.380  0.500  1.812398  151.03  153.245  25.0191
  7214.205  7214.210  0.500  1.810809  151.007  153.34  25.0745
  7216.057  7216.050  0.500  1.809503  150.975  153.333  25.106
  7217.911  7217.910  0.500  1.808050  150.935  153.401  25.1538
  7219.800  7219.790  0.500  1.807042  150.906  153.432  25.1841
  7221.697  7221.690  0.500  1.805984  150.88  153.445  25.213
  7223.624  7223.610  0.500  1.805151  150.845  153.486  25.2407
  7225.551  7225.550  0.500  1.804343  150.797  153.513  25.2656
  7227.513  7227.510  0.500  1.803579  150.096  152.88  25.1807
  7229.485  7229.480  0.500  1.802893  150.891  153.797  25.349
  7231.478  7231.480  0.500  1.802147  150.867  153.846  25.376
  7233.492  7233.490  0.500  1.801222  150.834  153.874  25.4041
  7235.523  7235.520  0.500  1.800037  150.801  153.919  25.4418
  7237.582  7237.580  0.500  1.798473  150.791  153.99  25.4932
  7239.657  7239.650  0.500  1.796957  150.766  154.068  25.5449
  7241.743  7241.740  0.500  1.795492  150.732  154.146  25.5953
  7243.854  7243.850  0.500  1.793882  150.617  154.138  25.6352
  7245.987  7245.980  0.500  1.792385  149.858  153.443  25.5578
  7248.126  7248.120  0.500  1.791097  150.62  154.308  25.735
  7250.297  7250.290  0.500  1.789718  150.602  154.371  25.7811
  7252.483  7252.480  0.500  1.788499  150.477  154.339  25.8072
  7254.690  7254.680  0.500  1.787121  147.986  151.898  25.4341
  7256.901  7256.900  0.500  1.785807  150.684  154.762  25.9477
  7259.154  7259.150  0.500  1.784360  150.547  154.72  25.9782
  7261.421  7261.410  0.500  1.782959  150.184  154.451  25.9693
  7263.699  7263.690  0.500  1.782045  145.77  150.04  25.2507
  7266.003  7265.990  0.500  1.779942  148.565  152.976  25.799
  7268.311  7268.310  0.500  1.778397  150.956  155.5  26.2653
  7270.652  7270.650  0.500  1.776522  150.952  155.59  26.3298
  7273.008  7273.000  0.500  1.774628  150.754  155.508  26.3659
  7275.386  7275.380  0.500  1.772644  150.685  155.536  26.4229
  7277.785  7277.770  0.500  1.770908  151.014  155.987  26.5456
  7280.193  7280.190  0.500  1.768920  150.969  156.02  26.6042
  7282.632  7282.620  0.500  1.767065  150.914  156.062  26.6606
  7285.075  7285.070  0.500  1.764971  148.323  153.481  26.2746
  7287.556  7287.550  0.500  1.763322  150.767  156.086  26.7648
  7290.047  7290.040  0.500  1.761776  150.802  156.209  26.8272
  7292.552  7292.550  0.500  1.760203  150.787  156.37  26.8972
  7295.078  7295.070  0.500  1.758864  150.762  156.449  26.9468
  7297.634  7297.620  0.500  1.757468  150.71  156.465  26.9872
  7300.203  7300.190  0.500  1.756160  150.563  156.42  27.0149
  7302.780  7302.770  0.500  1.754773  150.711  156.687  27.0984
  7305.396  7305.380  0.500  1.753361  150.761  156.848  27.1646
  7308.012  7308.000  0.500  1.751807  150.703  156.881  27.2126
  7310.658  7310.650  0.500  1.750236  150.674  156.993  27.2748
  7313.325  7313.310  0.500  1.748621  150.639  157.05  27.3288
  7316.004  7315.990  0.500  1.746921  150.597  157.127  27.3888
  7318.702  7318.690  0.500  1.745026  150.557  157.149  27.4445
  7321.427  7321.410  0.500  1.743292  150.821  157.511  27.5555
  7324.171  7324.150  0.500  1.741356  150.936  157.788  27.6574
  7326.912  7326.900  0.500  1.739543  150.927  157.898  27.727
  7329.694  7329.680  0.500  1.737630  150.914  157.987  27.7958
  7332.488  7332.470  0.500  1.735820  150.9  158.098  27.8657
  7335.308  7335.290  0.500  1.734004  150.891  158.191  27.9327
  7338.134  7338.120  0.500  1.732256  150.808  158.224  27.9875
  7340.982  7340.970  0.500  1.730417  150.52  158.049  28.0079
  7343.869  7343.850  0.500  1.728571  150.658  158.334  28.1103
  7346.761  7346.740  0.500  1.726779  150.667  158.406  28.1735
  7349.667  7349.650  0.500  1.724982  150.648  158.522  28.2448
  7352.582  7352.570  0.500  1.723164  150.62  158.614  28.3127
  7355.536  7355.520  0.500  1.721306  150.592  158.69  28.3788
  7358.511  7358.490  0.500  1.719352  150.546  158.751  28.4454
  7361.488  7361.470  0.500  1.717305  150.498  158.844  28.5204
  7364.496  7364.480  0.500  1.715215  150.456  158.887  28.5878
  7367.513  7367.500  0.500  1.713167  150.417  158.984  28.6638
  7370.566  7370.550  0.500  1.711021  150.393  159.063  28.7398
  7373.634  7373.610  0.500  1.708998  150.345  159.137  28.8113
  7376.710  7376.690  0.500  1.706953  150.275  159.159  28.8742
  7379.805  7379.790  0.500  1.704976  150.226  159.259  28.9495
  7382.928  7382.910  0.500  1.703007  150.175  159.358  29.0247
  7386.058  7386.050  0.500  1.701243  150.117  159.403  29.0841
  7389.210  7389.200  0.500  1.699473  150.082  159.514  29.156
  7392.392  7392.380  0.500  1.697511  150.049  159.614  29.2316
  7395.584  7395.570  0.500  1.695657  149.993  159.649  29.2921
  7398.807  7398.790  0.500  1.693738  149.945  159.699  29.3576
  7402.033  7402.020  0.500  1.691999  149.884  159.774  29.4226
  7405.276  7405.270  0.500  1.690072  149.833  159.865  29.4961
  7408.562  7408.550  0.500  1.688041  149.779  159.955  29.5728
  7411.845  7411.840  0.500  1.686076  149.74  160.041  29.6468
  7415.160  7415.150  0.500  1.684035  149.664  160.053  29.7096
  7418.483  7418.470  0.500  1.681850  149.608  160.148  29.7922
  7421.830  7421.820  0.500  1.679590  149.554  160.252  29.8791
  7425.201  7425.190  0.500  1.677466  149.494  160.31  29.9534
  7428.571  7428.570  0.500  1.675112  149.444  160.363  30.0338
  7431.986  7431.980  0.500  1.673147  149.368  160.417  30.1032
  7435.406  7435.400  0.500  1.670864  149.325  160.482  30.1842
  7438.859  7438.850  0.500  1.668778  149.247  160.527  30.2557
  7442.324  7442.310  0.500  1.666676  149.131  160.538  30.3214
  7445.801  7445.790  0.500  1.664742  147.966  159.407  30.1661
  7449.299  7449.290  0.500  1.662636  149.086  160.753  30.485
  7452.821  7452.810  0.500  1.660528  148.665  160.453  30.4923
  7456.359  7456.350  0.500  1.658376  149.006  160.979  30.6581
  7459.907  7459.900  0.500  1.656192  144.856  156.605  29.8903
  7463.490  7463.480  0.500  1.654158  148.906  161.141  30.8187
  7467.090  7467.080  0.500  1.651925  148.41  160.74  30.8108
  7470.701  7470.690  0.500  1.649744  148.845  161.367  30.9985
  7474.332  7474.320  0.500  1.647503  148.74  161.398  31.074
  7477.984  7477.980  0.500  1.645112  148.665  161.432  31.1548
  7481.656  7481.650  0.500  1.642947  148.598  161.527  31.2408
  7485.351  7485.340  0.500  1.640655  148.51  161.517  31.3105
  7489.062  7489.050  0.500  1.638469  148.434  161.595  31.3943
  7492.800  7492.780  0.500  1.636273  148.366  161.694  31.4825
  7496.537  7496.520  0.500  1.634109  148.306  161.785  31.5685
  7500.300  7500.290  0.500  1.631938  148.248  161.864  31.6526
  7504.098  7504.080  0.500  1.629761  148.161  161.919  31.7323
  7507.891  7507.880  0.500  1.627580  148.068  162.012  31.8199
  7511.725  7511.710  0.500  1.625276  147.994  162.034  31.8975
  7515.567  7515.550  0.500  1.623052  147.933  162.084  31.9786
  7519.421  7519.410  0.500  1.620742  147.853  162.144  32.0643
  7523.300  7523.290  0.500  1.618530  147.762  162.2  32.1463
  7527.209  7527.190  0.500  1.616297  147.695  162.278  32.2337
  7531.127  7531.110  0.500  1.613969  147.604  162.288  32.3108
  7535.066  7535.050  0.500  1.611675  147.518  162.338  32.395
  7539.041  7539.010  0.500  1.609305  147.436  162.404  32.485
  7542.996  7542.980  0.500  1.607035  147.346  162.498  32.5777
  7547.014  7546.980  0.500  1.604617  147.26  162.536  32.6643
  7551.009  7550.990  0.500  1.602305  147.175  162.557  32.7441
  7555.052  7555.030  0.500  1.599874  147.085  162.593  32.8311
  7559.095  7559.080  0.500  1.597548  146.99  162.652  32.9194
  7563.162  7563.150  0.500  1.595187  146.911  162.716  33.0103
  7567.261  7567.240  0.500  1.592959  146.824  162.797  33.1004
  7571.371  7571.350  0.500  1.590649  146.738  162.868  33.1915
  7575.506  7575.480  0.500  1.588327  146.648  162.893  33.2737
  7579.645  7579.630  0.500  1.585995  146.545  162.93  33.3589
  7583.811  7583.790  0.500  1.583515  146.436  162.982  33.4524
  7587.997  7587.980  0.500  1.581111  146.308  163.001  33.5369
  7592.202  7592.180  0.500  1.578830  146.178  163.011  33.6156
  7596.441  7596.410  0.500  1.576365  146.011  162.98  33.692
  7600.673  7600.650  0.500  1.573978  145.759  162.849  33.7454
  7604.920  7604.910  0.500  1.571514  145.31  162.478  33.7516
  7609.203  7609.190  0.500  1.569093  145.12  162.393  33.8157
  7613.502  7613.490  0.500  1.566770  145.03  162.457  33.9077
  7617.820  7617.810  0.500  1.564369  145.042  162.658  34.0313
  7622.166  7622.150  0.500  1.561861  145.214  163.006  34.1897
  7626.519  7626.510  0.500  1.559441  145.276  163.182  34.3097
  7630.900  7630.890  0.500  1.556995  145.223  163.283  34.4148
  7635.294  7635.280  0.500  1.554501  145.137  163.372  34.5196
  7639.715  7639.700  0.500  1.552068  145.037  163.432  34.6165
  7644.162  7644.130  0.500  1.549661  144.922  163.523  34.7191
  7648.604  7648.580  0.500  1.547149  144.822  163.544  34.8109
  7653.073  7653.050  0.500  1.544776  144.725  163.572  34.8996
  7657.571  7657.540  0.500  1.542278  144.619  163.618  34.9969
  7662.066  7662.050  0.500  1.539871  144.511  163.656  35.0892
  7666.603  7666.580  0.500  1.537415  144.402  163.684  35.1817
  7671.149  7671.130  0.500  1.534800  144.286  163.707  35.2787
  7675.719  7675.700  0.500  1.532269  144.153  163.716  35.37
  7680.297  7680.280  0.500  1.529906  144.038  163.741  35.4591
  7684.921  7684.890  0.500  1.527469  143.866  163.696  35.5359
  7689.528  7689.510  0.500  1.524972  143.921  163.869  35.6623
  7694.179  7694.160  0.500  1.522366  143.761  163.88  35.7579
  7698.833  7698.820  0.500  1.519901  143.613  163.899  35.8501
  7703.510  7703.500  0.500  1.517284  143.418  163.856  35.9347
  7708.214  7708.200  0.500  1.514759  143.479  164.087  36.0764
  7712.936  7712.920  0.500  1.512306  143.258  163.993  36.1442
  7717.675  7717.660  0.500  1.509841  143.061  163.935  36.2206
  7722.425  7722.410  0.500  1.507278  142.881  163.865  36.298
  7727.201  7727.190  0.500  1.504718  142.864  164.035  36.4288
  7732.003  7731.990  0.500  1.502185  142.711  164.014  36.5166
  7736.807  7736.800  0.500  1.499364  142.521  163.927  36.6003
  7741.640  7741.630  0.500  1.497094  142.344  163.853  36.6668
  7746.492  7746.490  0.500  1.494454  142.336  164.037  36.8051
  7751.370  7751.360  0.500  1.491911  142.18  164.035  36.8984
  7756.253  7756.250  0.500  1.489495  142.028  164.028  36.986
  7761.165  7761.160  0.500  1.486927  141.883  164.012  37.0775
  7766.091  7766.090  0.500  1.484442  141.726  164.012  37.1698
  7771.039  7771.030  0.500  1.481931  141.572  163.992  37.2587
  7776.004  7776.000  0.500  1.479417  141.418  163.997  37.3537
  7780.996  7780.990  0.500  1.476851  141.289  164.028  37.4567
  7785.995  7785.990  0.500  1.474281  141.144  164.025  37.5524
  7791.024  7791.020  0.500  1.471709  140.999  164.037  37.652
  7796.065  7796.060  0.500  1.469206  140.851  164.02  37.7423
  7801.125  7801.120  0.500  1.466585  140.683  163.987  37.8338
  7806.205  7806.200  0.500  1.464002  140.535  163.961  37.9255
  7811.305  7811.300  0.500  1.461506  140.351  163.951  38.0181
  7816.426  7816.420  0.500  1.458766  140.203  163.891  38.1085
  7821.568  7821.560  0.500  1.456115  140.041  163.889  38.209
  7826.734  7826.720  0.500  1.453472  139.873  163.851  38.3013
  7831.917  7831.900  0.500  1.450862  138.744  162.701  38.132
  7837.099  7837.090  0.500  1.448177  139.528  163.779  38.4878
  7842.314  7842.310  0.500  1.445545  139.313  163.706  38.5721
  7847.550  7847.540  0.500  1.442993  138.984  163.506  38.6233
  7852.809  7852.790  0.500  1.440442  138.972  163.669  38.7605
  7858.081  7858.060  0.500  1.437815  138.786  163.62  38.8508
  7863.362  7863.350  0.500  1.435159  138.603  163.585  38.946
  7868.675  7868.660  0.500  1.432533  138.425  163.486  39.0247
  7874.008  7873.990  0.500  1.429952  138.247  163.436  39.1137
  7879.359  7879.340  0.500  1.427282  138.062  163.389  39.2068
  7884.729  7884.710  0.500  1.424606  137.878  163.367  39.3067
  7890.132  7890.090  0.500  1.421971  137.684  163.324  39.3999
  7895.528  7895.500  0.500  1.419323  137.497  163.28  39.4937
  7900.909  7900.920  0.500  1.416741  136.989  162.837  39.4885
  7906.419  7906.370  0.500  1.414077  137.064  163.094  39.6563
  7911.872  7911.830  0.500  1.411451  136.866  163.023  39.7433
  7917.330  7917.310  0.500  1.408666  136.649  162.933  39.832
  7922.826  7922.810  0.500  1.406121  136.428  162.869  39.9179
  7928.318  7928.330  0.500  1.403313  135.357  161.735  39.7514
  7933.892  7933.870  0.500  1.400751  135.956  162.607  40.0682
  7939.403  7939.420  0.500  1.398324  131.197  157.063  38.7963
  7945.017  7945.000  0.500  1.395438  135.654  162.576  40.2741
  7950.574  7950.600  0.500  1.392773  134.805  161.742  40.1745
  7956.214  7956.210  0.500  1.390040  135.165  162.338  40.4328
  7961.874  7961.850  0.500  1.387371  134.904  162.173  40.4996
  7967.477  7967.500  0.500  1.384713  134.659  162.028  40.5712
  7973.181  7973.170  0.500  1.382126  134.322  161.799  40.6188
  7978.833  7978.860  0.500  1.379468  134.307  161.95  40.7649