File: xdidata/Nd/Nd-L1-Nd2Zr2O7.xdi
# XDI/1.0 BlueSky/1.10.0 BMM/2023-1.0-py310-tiled
# Beamline.name: BMM (06BM) -- Beamline for Materials Measurement (NIST)
# Beamline.xray_source: NSLS-II three-pole wiggler
# Beamline.collimation: paraboloid mirror, 5 nm Rh on 30 nm Pt
# Beamline.focusing: not in use
# Beamline.harmonic_rejection: flat mirror, Si stripe, pitch = 7.0 mrad relative to beam
# Beamline.software: Bluesky 1.10.0, Ophyd 1.7.0, DataBroker 2.0.0b13, Python 3.10.8, 2023-1.0-py310-tiled
# Detector.I0: 10 cm N2
# Detector.I1: 25 cm N2
# Detector.I2: 25 cm N2
# Element.symbol: Nd
# Element.edge: L1
# Element.reference: Nd
# Element.reference_material: Nd2O3
# Facility.name: NSLS-II
# Facility.energy: 3.0
# Facility.current: 400.7
# Facility.mode: top-off
# Facility.GUP: 123456
# Facility.SAF: 301027
# Facility.cycle: 2023-2
# Mono.name: Si(111)
# Mono.d_spacing: 3.13519
# Mono.encoder_resolution: 0.0000050 deg/ct
# Mono.angle_offset: 16.0754 deg
# Mono.scan_mode: pseudo channel cut
# Mono.scan_type: step
# Mono.direction: forward in energy
# Sample.name: Nd2Zr2O7
# Sample.prep: Powder in PEG pellet
# Sample.x: 149.848 mm
# Sample.y: 114.690 mm
# Sample.SDD_position: 205.000 mm
# Scan.experimenters: Bruce Ravel
# Scan.edge_energy: 7126.0
# Scan.start_time: 2023-05-08T20:17:57
# Scan.end_time: 2023-05-08T20:23:47
# Scan.transient_id: 75576
# Scan.uid: 004f7de9-96d1-459a-8691-6101d5db2955
# Scan.plot_hint: ln(I0/It)  --  ln($5/$6)
# Column.1: energy eV
# Column.2: requested_energy eV
# Column.3: measurement_time seconds
# Column.4: xmu
# Column.5: I0 nA
# Column.6: It nA
# Column.7: Ir nA
# ///////////
# sample courtesy Martin Stennett, University of Sheffield
# -----------
# energy  requested_energy  measurement_time  xmu  I0  It  Ir
  6926.012  6926.000  0.500  2.005286  150.492  20.2595  3.927851
  6936.012  6936.000  0.500  1.995289  150.489  20.4627  3.991121
  6946.015  6946.000  0.500  1.984687  150.572  20.6922  4.059974
  6955.998  6956.000  0.500  1.974934  150.622  20.9018  4.122734
  6966.012  6966.000  0.500  1.965861  150.671  21.0992  4.185448
  6976.030  6976.000  0.500  1.956116  150.692  21.3088  4.256284
  6986.012  6986.000  0.500  1.946221  150.67  21.5176  4.327773
  6996.011  6996.000  0.500  1.936309  150.681  21.7335  4.396764
  7006.023  7006.000  0.500  1.926743  150.668  21.9405  4.463029
  7016.022  7016.000  0.500  1.917529  150.617  22.1361  4.527036
  7026.015  7026.000  0.500  1.908175  150.593  22.3406  4.597469
  7036.019  7036.000  0.500  1.898375  150.523  22.5501  4.668752
  7046.014  7046.000  0.500  1.888874  150.497  22.7615  4.739653
  7056.015  7056.000  0.500  1.879631  150.45  22.9657  4.807948
  7066.015  7066.000  0.500  1.870605  150.356  23.1595  4.875353
  7076.301  7076.000  0.500  1.861600  149.677  23.2633  4.924509
  7085.980  7086.000  0.500  1.852623  150.096  23.5388  5.013847
  7095.984  7096.000  0.500  1.843210  150.026  23.7503  5.088515
  7097.984  7098.000  0.500  1.841522  150.006  23.7873  5.102098
  7099.984  7100.000  0.500  1.839789  150.024  23.8315  5.115991
  7101.988  7102.000  0.500  1.837974  149.957  23.8642  5.129108
  7103.988  7104.000  0.500  1.836338  149.948  23.9018  5.142127
  7105.987  7106.000  0.500  1.834742  149.926  23.9363  5.154995
  7107.987  7108.000  0.500  1.833119  149.911  23.9728  5.167915
  7109.988  7110.000  0.500  1.831522  149.841  24  5.178774
  7111.990  7112.000  0.500  1.829867  149.733  24.0225  5.189141
  7113.989  7114.000  0.500  1.828508  149.589  24.032  5.195787
  7115.987  7116.000  0.500  1.827268  149.568  24.0584  5.205434
  7116.481  7116.500  0.500  1.827003  149.553  24.0623  5.207079
  7116.983  7117.000  0.500  1.826651  149.509  24.0638  5.208620
  7117.479  7117.500  0.500  1.826148  149.446  24.0658  5.211284
  7117.982  7118.000  0.500  1.825539  149.462  24.083  5.214459
  7118.487  7118.500  0.500  1.825236  149.404  24.0808  5.216600
  7118.983  7119.000  0.500  1.824565  149.372  24.0919  5.218807
  7119.480  7119.500  0.500  1.824827  149.349  24.0819  5.217149
  7119.982  7120.000  0.500  1.824506  149.334  24.0872  5.220078
  7120.488  7120.500  0.500  1.824041  149.302  24.0932  5.222107
  7120.984  7121.000  0.500  1.824178  149.269  24.0847  5.220793
  7121.485  7121.500  0.500  1.823818  149.25  24.0902  5.222773
  7121.988  7122.000  0.500  1.823525  149.23  24.0941  5.224168
  7122.487  7122.500  0.500  1.823124  149.205  24.0996  5.226735
  7122.989  7123.000  0.500  1.822816  149.165  24.1007  5.226661
  7123.488  7123.500  0.500  1.822653  149.143  24.101  5.227558
  7123.985  7124.000  0.500  1.822382  149.1  24.1005  5.227527
  7124.486  7124.500  0.500  1.822396  149.09  24.0987  5.227508
  7124.992  7125.000  0.500  1.822383  149.053  24.093  5.227489
  7125.491  7125.500  0.500  1.822268  149.033  24.0924  5.226477
  7125.995  7126.000  0.500  1.822204  148.969  24.0837  5.223918
  7126.497  7126.500  0.500  1.822223  148.961  24.0819  5.223954
  7126.992  7127.000  0.500  1.822888  148.914  24.0584  5.218102
  7127.494  7127.500  0.500  1.823257  148.889  24.0455  5.214203
  7127.990  7128.000  0.500  1.823861  148.86  24.0262  5.208551
  7128.487  7128.500  0.500  1.824406  148.827  24.0077  5.202540
  7128.991  7129.000  0.500  1.825266  148.791  23.9814  5.194184
  7129.496  7129.500  0.500  1.826093  148.734  23.9524  5.183626
  7129.994  7130.000  0.500  1.827711  148.695  23.9073  5.169399
  7130.500  7130.500  0.500  1.829081  148.646  23.8668  5.154684
  7130.994  7131.000  0.500  1.830512  148.619  23.8283  5.140798
  7131.494  7131.500  0.500  1.832146  148.561  23.7802  5.125931
  7131.990  7132.000  0.500  1.833795  148.541  23.7377  5.112168
  7132.495  7132.500  0.500  1.835249  148.522  23.7002  5.100798
  7133.000  7133.000  0.500  1.836673  148.493  23.6618  5.088806
  7133.498  7133.500  0.500  1.838128  148.51  23.6301  5.079923
  7133.997  7134.000  0.500  1.839515  148.49  23.5942  5.066741
  7134.495  7134.500  0.500  1.840857  148.517  23.5669  5.057328
  7134.992  7135.000  0.500  1.842312  148.495  23.5291  5.042081
  7135.497  7135.500  0.500  1.844250  148.512  23.4862  5.026098
  7135.998  7136.000  0.500  1.845926  148.504  23.4457  5.009935
  7136.503  7136.500  0.500  1.847881  148.42  23.3866  4.987637
  7136.998  7137.000  0.500  1.849834  148.497  23.3532  4.969231
  7137.499  7137.500  0.500  1.852040  148.521  23.3054  4.947831
  7137.994  7138.000  0.500  1.854477  148.499  23.2452  4.920063
  7138.497  7138.500  0.500  1.857094  148.473  23.1804  4.891435
  7138.997  7139.000  0.500  1.859790  148.471  23.1177  4.860675
  7139.502  7139.500  0.500  1.862840  148.467  23.0467  4.827830
  7140.000  7140.000  0.500  1.866050  148.477  22.9744  4.794148
  7140.510  7140.500  0.500  1.869316  148.455  22.896  4.757823
  7141.003  7141.000  0.500  1.872011  148.454  22.8344  4.725675
  7141.503  7141.500  0.500  1.874753  148.451  22.7713  4.694231
  7142.002  7142.000  0.500  1.877189  148.446  22.7151  4.665582
  7142.500  7142.500  0.500  1.879510  148.441  22.6618  4.638966
  7143.004  7143.000  0.500  1.881377  148.456  22.6217  4.617883
  7143.506  7143.500  0.500  1.882903  148.458  22.5875  4.601400
  7144.002  7144.000  0.500  1.883670  148.447  22.5686  4.591532
  7144.506  7144.500  0.500  1.884056  148.462  22.5622  4.586436
  7145.004  7145.000  0.500  1.883936  148.455  22.5638  4.588209
  7145.498  7145.500  0.500  1.883065  148.438  22.5808  4.594471
  7145.998  7146.000  0.500  1.882182  148.43  22.5995  4.602888
  7146.496  7146.500  0.500  1.880976  148.413  22.6243  4.614903
  7146.996  7147.000  0.500  1.879614  148.41  22.6547  4.629957
  7147.499  7147.500  0.500  1.878177  148.41  22.6872  4.645816
  7148.000  7148.000  0.500  1.876730  148.398  22.7182  4.662104
  7148.504  7148.500  0.500  1.875393  148.402  22.7492  4.678501
  7149.001  7149.000  0.500  1.873717  148.389  22.7855  4.695880
  7149.499  7149.500  0.500  1.872179  148.411  22.8239  4.713022
  7149.998  7150.000  0.500  1.870511  148.385  22.8579  4.729636
  7150.497  7150.500  0.500  1.868831  148.375  22.8948  4.745284
  7151.002  7151.000  0.500  1.867090  148.386  22.9365  4.762068
  7151.996  7151.990  0.500  1.864158  148.358  22.9995  4.787815
  7152.994  7152.990  0.500  1.861971  148.363  23.0506  4.806115
  7154.023  7154.010  0.500  1.860762  148.334  23.074  4.820745
  7155.067  7155.060  0.500  1.859668  148.341  23.1003  4.832592
  7156.129  7156.120  0.500  1.858945  148.339  23.1168  4.843106
  7157.204  7157.200  0.500  1.858192  148.324  23.1318  4.854196
  7158.313  7158.300  0.500  1.856920  148.334  23.1627  4.870206
  7159.432  7159.420  0.500  1.854724  148.296  23.2078  4.890218
  7160.569  7160.560  0.500  1.851976  148.283  23.2695  4.913811
  7161.724  7161.710  0.500  1.848982  148.237  23.3322  4.938825
  7162.906  7162.890  0.500  1.845890  148.237  23.4044  4.963919
  7164.090  7164.080  0.500  1.842680  148.17  23.469  4.987402
  7165.307  7165.300  0.500  1.839616  148.126  23.5341  5.008453
  7166.543  7166.530  0.500  1.837079  148.104  23.5903  5.027207
  7167.787  7167.780  0.500  1.834785  148.063  23.638  5.041714
  7169.060  7169.050  0.500  1.832817  148.044  23.6815  5.055678
  7170.353  7170.340  0.500  1.831640  148.03  23.7071  5.063422
  7171.655  7171.650  0.500  1.830875  148.004  23.7211  5.067381
  7172.985  7172.980  0.500  1.830710  147.964  23.7186  5.064113
  7174.345  7174.330  0.500  1.830933  147.946  23.7103  5.060355
  7175.703  7175.700  0.500  1.831678  147.925  23.6894  5.050437
  7177.088  7177.080  0.500  1.832247  147.88  23.6688  5.041171
  7178.500  7178.490  0.500  1.833062  147.883  23.6499  5.033450
  7179.920  7179.910  0.500  1.834125  147.867  23.6223  5.025168
  7181.359  7181.350  0.500  1.834017  147.854  23.6226  5.024407
  7182.815  7182.810  0.500  1.833339  147.835  23.6356  5.026749
  7184.303  7184.290  0.500  1.831893  147.798  23.6639  5.032503
  7185.802  7185.790  0.500  1.829913  147.76  23.7047  5.042321
  7187.312  7187.310  0.500  1.828014  147.761  23.7499  5.055724
  7188.864  7188.850  0.500  1.825966  147.696  23.7882  5.066747
  7190.417  7190.410  0.500  1.824299  147.704  23.8292  5.078891
  7191.992  7191.980  0.500  1.822993  145.205  23.4566  5.003325
  7193.593  7193.580  0.500  1.821961  147.403  23.8363  5.087662
  7195.200  7195.190  0.500  1.820631  147.497  23.8832  5.102468
  7196.842  7196.830  0.500  1.819040  147.482  23.9189  5.117354
  7198.484  7198.480  0.500  1.817251  147.452  23.9569  5.132212
  7200.164  7200.150  0.500  1.815465  147.408  23.9924  5.147862
  7201.848  7201.840  0.500  1.813592  147.381  24.033  5.166772
  7203.561  7203.550  0.500  1.811669  147.338  24.0723  5.186493
  7205.292  7205.280  0.500  1.810029  147.298  24.1052  5.206459
  7207.042  7207.030  0.500  1.808114  147.264  24.1459  5.226283
  7208.797  7208.790  0.500  1.806255  147.219  24.1834  5.244780
  7210.600  7210.580  0.500  1.804580  147.151  24.2127  5.260351
  7212.394  7212.380  0.500  1.802968  147.105  24.2442  5.275605
  7214.218  7214.210  0.500  1.801149  147.093  24.2863  5.292010
  7216.068  7216.050  0.500  1.799131  147.046  24.3277  5.307344
  7217.918  7217.910  0.500  1.797434  146.979  24.358  5.318102
  7219.805  7219.790  0.500  1.795630  147.504  24.489  5.351613
  7221.702  7221.690  0.500  1.793840  147.456  24.525  5.363536
  7223.624  7223.610  0.500  1.791803  147.427  24.57  5.377298
  7225.560  7225.550  0.500  1.789983  147.326  24.598  5.386404
  7227.522  7227.510  0.500  1.788087  145.654  24.365  5.339174
  7229.501  7229.480  0.500  1.786285  147.486  24.7159  5.416845
  7231.494  7231.480  0.500  1.784657  147.408  24.7431  5.425489
  7233.508  7233.490  0.500  1.782935  147.364  24.7783  5.437784
  7235.532  7235.520  0.500  1.780924  147.317  24.8203  5.451957
  7237.600  7237.580  0.500  1.778911  147.279  24.8639  5.467710
  7239.657  7239.650  0.500  1.777087  147.233  24.9015  5.482485
  7241.754  7241.740  0.500  1.775335  147.217  24.9424  5.499676
  7243.863  7243.850  0.500  1.773771  147.052  24.9536  5.508827
  7245.992  7245.980  0.500  1.772218  146.503  24.8989  5.502613
  7248.137  7248.120  0.500  1.770517  147.002  25.0263  5.537207
  7250.301  7250.290  0.500  1.768518  146.986  25.0737  5.553059
  7252.492  7252.480  0.500  1.766793  146.855  25.0946  5.564152
  7254.692  7254.680  0.500  1.764895  144.614  24.7586  5.493920
  7256.905  7256.900  0.500  1.762970  147.025  25.2199  5.603462
  7259.167  7259.150  0.500  1.761306  146.853  25.2323  5.613941
  7261.423  7261.410  0.500  1.759357  146.457  25.2135  5.614779
  7263.706  7263.690  0.500  1.757535  139.348  24.0332  5.361882
  7266.008  7265.990  0.500  1.755835  146.079  25.2371  5.633827
  7268.320  7268.310  0.500  1.753923  147.24  25.4862  5.697549
  7270.663  7270.650  0.500  1.751866  147.214  25.5342  5.717283
  7273.017  7273.000  0.500  1.749645  146.992  25.5525  5.731503
  7275.390  7275.380  0.500  1.747401  147.219  25.6495  5.761243
  7277.783  7277.770  0.500  1.745153  147.212  25.7059  5.783306
  7280.214  7280.190  0.500  1.742828  147.176  25.7595  5.805095
  7282.632  7282.620  0.500  1.740693  147.114  25.8035  5.824938
  7285.080  7285.070  0.500  1.738398  145.239  25.5333  5.771689
  7287.565  7287.550  0.500  1.736284  146.872  25.875  5.857581
  7290.056  7290.040  0.500  1.734507  146.897  25.9254  5.876657
  7292.561  7292.550  0.500  1.732265  146.86  25.9771  5.895978
  7295.081  7295.070  0.500  1.730012  146.83  26.0303  5.914124
  7297.639  7297.620  0.500  1.728037  146.744  26.0665  5.929368
  7300.205  7300.190  0.500  1.726041  146.521  26.0789  5.938433
  7302.783  7302.770  0.500  1.723949  146.868  26.1954  5.971424
  7305.396  7305.380  0.500  1.722042  146.783  26.2302  5.986313
  7308.016  7308.000  0.500  1.719826  146.678  26.2697  6.002473
  7310.665  7310.650  0.500  1.717334  146.704  26.3398  6.025555
  7313.321  7313.310  0.500  1.715191  146.643  26.3853  6.043084
  7316.006  7315.990  0.500  1.712696  146.535  26.4318  6.063344
  7318.706  7318.690  0.500  1.710299  146.541  26.4963  6.086866
  7321.425  7321.410  0.500  1.707764  146.462  26.5493  6.108769
  7324.160  7324.150  0.500  1.705347  146.431  26.6078  6.133398
  7326.919  7326.900  0.500  1.702959  146.382  26.6626  6.153990
  7329.690  7329.680  0.500  1.700839  146.341  26.7116  6.174740
  7332.488  7332.470  0.500  1.698586  146.272  26.7593  6.195624
  7335.306  7335.290  0.500  1.696045  146.197  26.8136  6.217119
  7338.129  7338.120  0.500  1.693430  145.932  26.8351  6.230215
  7340.987  7340.970  0.500  1.691050  145.952  26.9027  6.256186
  7343.862  7343.850  0.500  1.688717  145.988  26.9723  6.281348
  7346.745  7346.740  0.500  1.686448  145.964  27.029  6.304136
  7349.653  7349.650  0.500  1.684239  145.917  27.0801  6.326079
  7352.584  7352.570  0.500  1.682170  145.832  27.1204  6.345611
  7355.529  7355.520  0.500  1.679794  145.825  27.1836  6.369671
  7358.497  7358.490  0.500  1.677483  145.756  27.2335  6.391856
  7361.477  7361.470  0.500  1.675027  145.675  27.2854  6.415325
  7364.489  7364.480  0.500  1.672629  145.593  27.3356  6.437291
  7367.507  7367.500  0.500  1.669919  145.551  27.4018  6.464807
  7370.561  7370.550  0.500  1.667321  145.49  27.4616  6.490004
  7373.623  7373.610  0.500  1.664742  145.382  27.5119  6.512206
  7376.696  7376.690  0.500  1.662451  145.35  27.5691  6.537477
  7379.800  7379.790  0.500  1.659655  145.292  27.6353  6.562936
  7382.916  7382.910  0.500  1.657038  145.234  27.6965  6.587842
  7386.060  7386.050  0.500  1.654449  145.179  27.7578  6.612541
  7389.210  7389.200  0.500  1.651952  145.114  27.8148  6.634496
  7392.388  7392.380  0.500  1.649331  145.069  27.8792  6.660362
  7395.582  7395.570  0.500  1.646448  145.004  27.947  6.686189
  7398.803  7398.790  0.500  1.644218  144.924  27.994  6.707885
  7402.038  7402.020  0.500  1.641735  144.829  28.0453  6.730440
  7405.281  7405.270  0.500  1.639285  144.791  28.1066  6.755178
  7408.559  7408.550  0.500  1.636346  144.704  28.1724  6.781435
  7411.855  7411.840  0.500  1.633612  144.644  28.2379  6.809434
  7415.160  7415.150  0.500  1.630663  144.549  28.3027  6.837043
  7418.483  7418.470  0.500  1.627967  144.48  28.3655  6.864263
  7421.832  7421.820  0.500  1.625350  144.408  28.4257  6.891966
  7425.210  7425.190  0.500  1.622477  144.318  28.4898  6.918274
  7428.578  7428.570  0.500  1.619750  144.219  28.5479  6.946003
  7431.990  7431.980  0.500  1.616967  144.128  28.6094  6.973107
  7435.418  7435.400  0.500  1.614344  144.049  28.6688  6.999693
  7438.863  7438.850  0.500  1.611504  143.916  28.7237  7.024774
  7442.331  7442.310  0.500  1.608881  143.776  28.7712  7.049005
  7445.808  7445.790  0.500  1.606191  140.965  28.2848  6.943514
  7449.304  7449.290  0.500  1.603572  143.711  28.9113  7.107957
  7452.826  7452.810  0.500  1.600888  143.264  28.8989  7.117025
  7456.364  7456.350  0.500  1.598125  143.551  29.0367  7.161910
  7459.933  7459.900  0.500  1.595406  140.12  28.42  7.019927
  7463.511  7463.480  0.500  1.592638  143.344  29.1545  7.217220
  7467.102  7467.080  0.500  1.589655  142.294  29.0274  7.197338
  7470.706  7470.690  0.500  1.586675  143.298  29.3194  7.281909
  7474.340  7474.320  0.500  1.583920  143.169  29.3738  7.309858
  7477.998  7477.980  0.500  1.581043  143.046  29.4332  7.338331
  7481.668  7481.650  0.500  1.578155  142.931  29.4945  7.366977
  7485.358  7485.340  0.500  1.575050  142.817  29.5626  7.397704
  7489.069  7489.050  0.500  1.572400  142.714  29.6198  7.425058
  7492.802  7492.780  0.500  1.569357  142.633  29.6933  7.455552
  7496.540  7496.520  0.500  1.566582  142.53  29.7542  7.484815
  7500.303  7500.290  0.500  1.563489  142.432  29.826  7.516157
  7504.098  7504.080  0.500  1.560796  142.315  29.8816  7.543505
  7507.893  7507.880  0.500  1.557748  142.212  29.9513  7.574805
  7511.730  7511.710  0.500  1.554635  142.088  30.0184  7.604982
  7515.567  7515.550  0.500  1.551665  141.935  30.0752  7.632900
  7519.424  7519.410  0.500  1.548573  141.857  30.1519  7.667757
  7523.314  7523.290  0.500  1.545775  141.722  30.2075  7.695654
  7527.211  7527.190  0.500  1.543204  141.607  30.2608  7.723513
  7531.129  7531.110  0.500  1.540469  141.465  30.3132  7.752124
  7535.042  7535.050  0.500  1.537380  141.327  30.3774  7.782028
  7539.031  7539.010  0.500  1.534453  141.203  30.4397  7.811908
  7542.991  7542.980  0.500  1.531153  141.093  30.5164  7.848274
  7546.965  7546.980  0.500  1.527962  140.953  30.5836  7.881158
  7550.987  7550.990  0.500  1.524560  140.823  30.6596  7.915547
  7555.026  7555.030  0.500  1.521736  140.694  30.7182  7.945788
  7559.071  7559.080  0.500  1.518614  140.537  30.7797  7.977549
  7563.172  7563.150  0.500  1.515562  140.434  30.8511  8.011515
  7567.239  7567.240  0.500  1.512444  140.308  30.9199  8.044556
  7571.384  7571.350  0.500  1.509396  140.144  30.9779  8.073485
  7575.508  7575.480  0.500  1.506385  139.982  31.0354  8.104975
  7579.650  7579.630  0.500  1.503341  139.812  31.0922  8.134972
  7583.811  7583.790  0.500  1.500390  139.647  31.1472  8.166101
  7587.957  7587.980  0.500  1.497132  139.488  31.2134  8.199354
  7592.177  7592.180  0.500  1.494038  139.29  31.2655  8.228235
  7596.392  7596.410  0.500  1.491318  139.126  31.3139  8.257839
  7600.641  7600.650  0.500  1.488388  138.679  31.3048  8.271280
  7604.934  7604.910  0.500  1.485311  138.293  31.3139  8.290058
  7609.211  7609.190  0.500  1.482009  138.053  31.363  8.319954
  7613.494  7613.490  0.500  1.478440  137.945  31.4505  8.359663
  7617.823  7617.810  0.500  1.475191  137.901  31.5429  8.400016
  7622.169  7622.150  0.500  1.472044  137.99  31.6625  8.449984
  7626.517  7626.510  0.500  1.468935  137.951  31.7524  8.490150
  7630.908  7630.890  0.500  1.465607  137.839  31.8322  8.528884
  7635.299  7635.280  0.500  1.462386  137.671  31.896  8.564086
  7639.713  7639.700  0.500  1.459590  137.544  31.9559  8.597185
  7644.144  7644.130  0.500  1.456299  137.381  32.0231  8.631081
  7648.596  7648.580  0.500  1.452943  137.216  32.0922  8.666844
  7653.068  7653.050  0.500  1.449644  137.04  32.157  8.702416
  7657.558  7657.540  0.500  1.446667  136.84  32.2059  8.733433
  7662.066  7662.050  0.500  1.443465  136.678  32.2709  8.768156
  7666.593  7666.580  0.500  1.440206  136.512  32.3367  8.802853
  7671.142  7671.130  0.500  1.437131  136.347  32.3972  8.838390