File: xdidata/Nd/Nd-L3-NeodymiumOxide.xdi
# XDI/1.0 BlueSky/1.10.0 BMM/2023-1.0-py310-tiled
# Beamline.name: BMM (06BM) -- Beamline for Materials Measurement (NIST)
# Beamline.xray_source: NSLS-II three-pole wiggler
# Beamline.collimation: paraboloid mirror, 5 nm Rh on 30 nm Pt
# Beamline.focusing: not in use
# Beamline.harmonic_rejection: flat mirror, Si stripe, pitch = 7.0 mrad relative to beam
# Beamline.software: Bluesky 1.10.0, Ophyd 1.7.0, DataBroker 2.0.0b13, Python 3.10.8, 2023-1.0-py310-tiled
# Detector.I0: 10 cm N2
# Detector.I1: 25 cm N2
# Detector.I2: 25 cm N2
# Element.symbol: Nd
# Element.edge: L3
# Element.reference: Nd
# Element.reference_material: Nd2O3
# Facility.name: NSLS-II
# Facility.energy: 3.0
# Facility.current: 399.3
# Facility.mode: top-off
# Facility.GUP: 301027
# Facility.SAF: 310583
# Facility.cycle: 2023-2
# Mono.name: Si(111)
# Mono.d_spacing: 3.13519
# Mono.encoder_resolution: 0.0000050 deg/ct
# Mono.angle_offset: 16.0754 deg
# Mono.scan_mode: pseudo channel cut
# Mono.scan_type: step
# Mono.direction: forward in energy
# Sample.name: Nd2O3
# Sample.prep: PEG pellet
# Sample.x: 109.138 mm
# Sample.y: 153.150 mm
# Sample.SDD_position: 205.000 mm
# Scan.experimenters: Bruce Ravel
# Scan.edge_energy: 6207.9
# Scan.start_time: 2023-05-28T12:05:48
# Scan.end_time: 2023-05-28T12:12:27
# Scan.transient_id: 78665
# Scan.uid: 5ee119b5-a419-41d0-89a6-3679bcaa33e3
# Scan.plot_hint: ln(It/Ir)  --  ln($6/$7)
# Column.1: energy eV
# Column.2: requested_energy eV
# Column.3: measurement_time seconds
# Column.4: xmu
# Column.5: I0 nA
# Column.6: It nA
# Column.7: Ir nA
# ///////////
# sample courtesy Martin Stennett, University of Sheffield
# -----------
# energy  requested_energy  measurement_time  xmu  I0  It  Ir
  6007.905  6007.900  0.500  2.469902  145.563  90.9783  7.696142
  6017.912  6017.900  0.500  2.457475  146.307  91.9549  7.876025
  6027.911  6027.900  0.500  2.445144  146.659  92.7559  8.043207
  6037.929  6037.900  0.500  2.433148  146.974  93.4202  8.198567
  6047.901  6047.900  0.500  2.421018  147.31  94.1297  8.361649
  6057.903  6057.900  0.500  2.409115  147.349  94.6992  8.512969
  6067.913  6067.900  0.500  2.397357  147.438  95.286  8.667021
  6077.910  6077.900  0.500  2.385430  147.789  96.0413  8.840550
  6087.910  6087.900  0.500  2.373819  148.041  96.7291  9.007844
  6097.912  6097.900  0.500  2.362062  148.391  97.4946  9.186493
  6107.913  6107.900  0.500  2.350490  148.707  98.2263  9.363170
  6117.913  6117.900  0.500  2.339146  148.993  98.9388  9.538684
  6127.908  6127.900  0.500  2.327715  149.298  99.623  9.715065
  6137.891  6137.900  0.500  2.316558  149.599  100.371  9.897801
  6147.893  6147.900  0.500  2.306347  149.539  100.908  10.0529
  6157.892  6157.900  0.500  2.295577  149.711  101.511  10.2225
  6167.890  6167.900  0.500  2.285082  149.893  102.128  10.3931
  6177.899  6177.900  0.500  2.275226  150.207  102.93  10.5785
  6179.896  6179.900  0.500  2.273520  150.257  103.067  10.6106
  6181.891  6181.900  0.500  2.271681  150.311  103.172  10.641
  6183.896  6183.900  0.500  2.270087  150.364  103.314  10.6727
  6185.891  6185.900  0.500  2.268506  150.401  103.486  10.7073
  6187.893  6187.900  0.500  2.267129  150.43  103.616  10.7356
  6189.897  6189.900  0.500  2.266029  150.493  103.766  10.763
  6191.891  6191.900  0.500  2.265037  150.519  103.885  10.786
  6193.899  6193.900  0.500  2.264703  150.564  104.032  10.8049
  6195.899  6195.900  0.500  2.264851  150.612  104.185  10.8191
  6197.896  6197.900  0.500  2.265791  150.64  104.281  10.819
  6198.187  6198.200  0.500  2.266067  150.619  104.237  10.8113
  6198.489  6198.500  0.500  2.266391  150.639  104.391  10.8238
  6198.789  6198.800  0.500  2.266858  150.631  104.35  10.8146
  6199.085  6199.100  0.500  2.267165  150.627  104.358  10.812
  6199.389  6199.400  0.500  2.267642  150.636  104.341  10.8051
  6199.688  6199.700  0.500  2.268149  150.639  104.341  10.7996
  6199.987  6200.000  0.500  2.268591  150.648  104.374  10.7983
  6200.289  6200.300  0.500  2.269110  150.672  104.433  10.7988
  6200.590  6200.600  0.500  2.269890  150.646  104.384  10.7854
  6200.888  6200.900  0.500  2.270631  150.67  104.474  10.7866
  6201.188  6201.200  0.500  2.271344  150.656  104.481  10.7797
  6201.491  6201.500  0.500  2.272186  150.676  104.492  10.7717
  6201.790  6201.800  0.500  2.273330  150.673  104.486  10.7588
  6202.091  6202.100  0.500  2.274449  150.679  104.476  10.7457
  6202.394  6202.400  0.500  2.275831  150.66  104.476  10.7309
  6202.693  6202.700  0.500  2.277258  150.656  104.483  10.7163
  6202.994  6203.000  0.500  2.278838  150.692  104.513  10.7024
  6203.295  6203.300  0.500  2.280718  150.687  104.532  10.6843
  6203.594  6203.600  0.500  2.282890  150.672  104.582  10.6662
  6203.895  6203.900  0.500  2.285268  150.696  104.631  10.6459
  6204.193  6204.200  0.500  2.287772  150.695  104.668  10.623
  6204.493  6204.500  0.500  2.290715  150.7  104.688  10.5938
  6204.794  6204.800  0.500  2.293804  150.715  104.709  10.5632
  6205.097  6205.100  0.500  2.296834  150.727  104.787  10.5392
  6205.398  6205.400  0.500  2.299984  150.727  104.705  10.4978
  6205.696  6205.700  0.500  2.303379  150.731  104.733  10.465
  6205.996  6206.000  0.500  2.306813  150.753  104.749  10.4307
  6206.297  6206.300  0.500  2.310703  150.739  104.784  10.3937
  6206.595  6206.600  0.500  2.314800  150.751  104.855  10.3582
  6206.896  6206.900  0.500  2.319347  150.755  104.9  10.3157
  6207.193  6207.200  0.500  2.324055  150.746  104.862  10.2634
  6207.493  6207.500  0.500  2.328759  150.75  104.873  10.2164
  6207.796  6207.800  0.500  2.334203  150.74  104.885  10.162
  6208.094  6208.100  0.500  2.339968  150.747  104.87  10.1022
  6208.397  6208.400  0.500  2.346586  150.752  104.868  10.0354
  6208.697  6208.700  0.500  2.354169  150.764  104.944  9.966739
  6208.999  6209.000  0.500  2.362943  150.768  104.959  9.881163
  6209.299  6209.300  0.500  2.373290  150.773  104.995  9.782728
  6209.600  6209.600  0.500  2.385804  150.765  104.987  9.660410
  6209.901  6209.900  0.500  2.400735  150.773  104.978  9.516398
  6210.199  6210.200  0.500  2.418600  150.756  104.977  9.347796
  6210.494  6210.500  0.500  2.438976  150.762  104.987  9.160161
  6210.794  6210.800  0.500  2.463115  150.785  105.013  8.943874
  6211.093  6211.100  0.500  2.492344  150.784  105.051  8.689362
  6211.400  6211.400  0.500  2.528203  150.781  105.037  8.382216
  6211.700  6211.700  0.500  2.570005  150.77  105.061  8.040888
  6212.000  6212.000  0.500  2.616683  150.777  105.126  7.678928
  6212.301  6212.300  0.500  2.668445  150.793  105.222  7.298227
  6212.601  6212.600  0.500  2.725607  150.801  105.206  6.891698
  6212.898  6212.900  0.500  2.785211  150.802  105.21  6.493129
  6213.200  6213.200  0.500  2.846387  150.804  105.203  6.107422
  6213.496  6213.500  0.500  2.902160  150.827  105.234  5.777805
  6213.795  6213.800  0.500  2.950969  150.809  105.24  5.502882
  6214.100  6214.100  0.500  2.989633  150.805  105.222  5.293306
  6214.402  6214.400  0.500  3.017173  150.799  105.245  5.150637
  6214.703  6214.700  0.500  3.030681  150.809  105.277  5.083046
  6214.998  6215.000  0.500  3.030189  150.804  105.311  5.087215
  6215.301  6215.300  0.500  3.017470  150.779  105.271  5.150348
  6215.600  6215.600  0.500  2.994489  150.803  105.332  5.273148
  6215.900  6215.900  0.500  2.963929  150.786  105.368  5.438648
  6216.198  6216.200  0.500  2.928088  150.812  105.357  5.636533
  6216.494  6216.500  0.500  2.889745  150.822  105.354  5.856682
  6216.799  6216.800  0.500  2.850487  150.827  105.384  6.092911
  6217.105  6217.100  0.500  2.812995  150.831  105.426  6.328180
  6217.401  6217.400  0.500  2.777549  150.85  105.471  6.559293
  6217.702  6217.700  0.500  2.743084  150.858  105.495  6.790896
  6217.998  6218.000  0.500  2.711288  150.855  105.497  7.010421
  6218.296  6218.300  0.500  2.681905  150.838  105.457  7.216718
  6218.603  6218.600  0.500  2.655173  150.852  105.48  7.413858
  6218.894  6218.900  0.500  2.631659  150.873  105.503  7.591862
  6219.200  6219.200  0.500  2.609608  150.863  105.534  7.763444
  6219.501  6219.500  0.500  2.589413  150.856  105.6  7.926799
  6219.801  6219.800  0.500  2.571127  150.881  105.65  8.076870
  6220.102  6220.100  0.500  2.555172  150.881  105.645  8.206380
  6220.401  6220.400  0.500  2.541018  150.87  105.661  8.324608
  6220.699  6220.700  0.500  2.528209  150.884  105.66  8.431829
  6221.000  6221.000  0.500  2.516486  150.883  105.639  8.529573
  6221.298  6221.300  0.500  2.506255  150.874  105.704  8.622651
  6221.598  6221.600  0.500  2.497503  150.899  105.76  8.702989
  6221.896  6221.900  0.500  2.490165  150.898  105.719  8.763682
  6222.199  6222.200  0.500  2.483933  150.9  105.738  8.820084
  6222.502  6222.500  0.500  2.478560  150.903  105.783  8.871379
  6222.799  6222.800  0.500  2.474581  150.891  105.788  8.907155
  6223.100  6223.100  0.500  2.471489  150.877  105.778  8.933904
  6223.397  6223.400  0.500  2.469063  150.907  105.821  8.959241
  6223.701  6223.700  0.500  2.467324  150.929  105.835  8.976023
  6224.000  6224.000  0.500  2.466097  150.911  105.882  8.991078
  6224.295  6224.300  0.500  2.465241  150.903  105.884  8.998888
  6224.599  6224.600  0.500  2.464708  150.916  105.885  9.003769
  6224.901  6224.900  0.500  2.464236  150.911  105.882  9.007820
  6225.206  6225.200  0.500  2.463730  150.935  105.933  9.016697
  6225.503  6225.500  0.500  2.463381  150.919  105.939  9.020362
  6225.803  6225.800  0.500  2.462892  150.929  105.96  9.026510
  6226.101  6226.100  0.500  2.462320  150.946  106.01  9.035995
  6226.401  6226.400  0.500  2.461705  150.923  105.974  9.038433
  6226.698  6226.700  0.500  2.460746  150.928  105.96  9.045930
  6227.002  6227.000  0.500  2.459649  150.957  106.01  9.060161
  6227.299  6227.300  0.500  2.458362  150.958  106.034  9.073897
  6227.602  6227.600  0.500  2.456784  150.951  106.06  9.090381
  6227.902  6227.900  0.500  2.455028  150.958  106.043  9.104920
  6228.201  6228.200  0.500  2.453186  150.956  106.056  9.122809
  6228.502  6228.500  0.500  2.451399  150.965  106.079  9.141150
  6228.800  6228.800  0.500  2.449423  150.948  106.08  9.159294
  6229.099  6229.100  0.500  2.447405  150.972  106.105  9.179967
  6229.398  6229.400  0.500  2.445524  150.979  106.119  9.198436
  6229.698  6229.700  0.500  2.443805  150.977  106.131  9.215365
  6229.999  6230.000  0.500  2.442234  150.959  106.14  9.230651
  6230.299  6230.300  0.500  2.440817  150.963  106.171  9.246401
  6230.600  6230.600  0.500  2.439552  150.963  106.186  9.259390
  6230.905  6230.900  0.500  2.438483  150.966  106.204  9.270868
  6231.201  6231.200  0.500  2.437746  150.972  106.215  9.278680
  6231.502  6231.500  0.500  2.437187  150.962  106.224  9.284626
  6231.801  6231.800  0.500  2.436895  150.962  106.259  9.290395
  6232.098  6232.100  0.500  2.436790  150.978  106.31  9.295897
  6232.401  6232.400  0.500  2.437074  151.004  106.341  9.295897
  6232.700  6232.700  0.500  2.437492  150.995  106.369  9.294510
  6232.900  6232.900  0.500  2.438034  151.423  106.704  9.318704
  6233.898  6233.890  0.500  2.442067  151.465  106.783  9.288089
  6234.900  6234.890  0.500  2.448692  151.493  106.842  9.231884
  6235.921  6235.910  0.500  2.456850  151.504  106.874  9.159614
  6236.971  6236.960  0.500  2.465193  151.489  106.91  9.086520
  6238.028  6238.020  0.500  2.473305  151.555  107.021  9.022473
  6239.114  6239.100  0.500  2.481296  151.584  107.111  8.958202
  6240.210  6240.200  0.500  2.488676  151.586  107.184  8.898410
  6241.335  6241.320  0.500  2.496089  151.64  107.238  8.837082
  6242.479  6242.460  0.500  2.502814  151.63  107.329  8.785349
  6243.604  6243.610  0.500  2.508118  151.596  107.391  8.743924
  6244.784  6244.790  0.500  2.511598  151.617  107.453  8.718582
  6245.976  6245.980  0.500  2.512714  151.593  107.498  8.712470
  6247.194  6247.200  0.500  2.511673  151.647  107.625  8.731879
  6248.433  6248.430  0.500  2.508447  151.642  107.657  8.762705
  6249.681  6249.680  0.500  2.503560  151.692  107.743  8.812658
  6250.953  6250.950  0.500  2.497506  151.695  107.833  8.873546
  6252.239  6252.240  0.500  2.490472  151.703  107.9  8.941749
  6253.547  6253.550  0.500  2.482903  151.712  108.001  9.018099
  6254.887  6254.880  0.500  2.474478  151.729  108.069  9.100200
  6256.232  6256.230  0.500  2.465725  151.748  108.169  9.188673
  6257.603  6257.600  0.500  2.456838  151.76  108.224  9.275381
  6258.983  6258.980  0.500  2.448975  151.772  108.311  9.356138
  6260.395  6260.390  0.500  2.442365  151.763  108.334  9.420202
  6261.811  6261.810  0.500  2.437250  151.785  108.419  9.475877
  6263.250  6263.250  0.500  2.433907  151.827  108.51  9.515621
  6264.712  6264.710  0.500  2.431488  151.839  108.603  9.546853
  6266.194  6266.190  0.500  2.429884  151.869  108.708  9.571388
  6267.692  6267.690  0.500  2.428777  151.867  108.827  9.592496
  6269.216  6269.210  0.500  2.427627  151.909  108.95  9.614362
  6270.750  6270.750  0.500  2.426349  151.923  109.027  9.633500
  6272.319  6272.310  0.500  2.425890  151.937  109.135  9.647510
  6273.888  6273.880  0.500  2.426114  151.963  109.227  9.653397
  6275.489  6275.480  0.500  2.427256  151.96  109.32  9.650611
  6277.093  6277.090  0.500  2.428618  152.003  109.451  9.649033
  6278.739  6278.730  0.500  2.429866  152.033  109.529  9.643840
  6280.386  6280.380  0.500  2.431288  152.056  109.609  9.637189
  6282.057  6282.050  0.500  2.432967  152.092  109.745  9.632987
  6283.753  6283.740  0.500  2.435263  152.083  109.83  9.618303
  6285.453  6285.450  0.500  2.437627  152.098  109.955  9.606547
  6287.194  6287.180  0.500  2.439395  152.102  110.033  9.596417
  6288.935  6288.930  0.500  2.439832  152.126  110.15  9.602372
  6290.700  6290.690  0.500  2.438804  152.15  110.247  9.620737
  6292.490  6292.480  0.500  2.436858  152.171  110.351  9.648511
  6294.286  6294.280  0.500  2.434204  152.203  110.459  9.683687
  6296.122  6296.110  0.500  2.431525  152.212  110.573  9.719636
  6297.958  6297.950  0.500  2.428504  152.229  110.676  9.758124
  6299.818  6299.810  0.500  2.424751  152.251  110.754  9.801765
  6301.697  6301.690  0.500  2.420211  152.258  110.873  9.856954
  6303.601  6303.590  0.500  2.415552  152.271  110.998  9.914131
  6305.518  6305.510  0.500  2.410920  152.283  111.115  9.970618
  6307.462  6307.450  0.500  2.406554  152.301  111.211  10.023
  6309.420  6309.410  0.500  2.402166  152.324  111.299  10.075
  6311.386  6311.380  0.500  2.397895  152.361  111.418  10.1289
  6313.392  6313.380  0.500  2.394061  152.368  111.546  10.1795
  6315.402  6315.390  0.500  2.391318  152.395  111.654  10.2173
  6317.425  6317.420  0.500  2.389403  152.387  111.745  10.2452
  6319.487  6319.480  0.500  2.387872  152.423  111.887  10.274
  6321.562  6321.550  0.500  2.386666  152.386  111.983  10.2952
  6323.657  6323.640  0.500  2.385289  152.411  112.118  10.3219
  6325.756  6325.750  0.500  2.383933  152.444  112.26  10.3489
  6327.891  6327.880  0.500  2.382371  152.476  112.382  10.3764
  6330.029  6330.020  0.500  2.380707  152.475  112.515  10.4059
  6332.198  6332.190  0.500  2.378752  152.494  112.652  10.439
  6334.391  6334.380  0.500  2.376958  152.502  112.782  10.4698
  6336.589  6336.580  0.500  2.375503  152.496  112.854  10.4918
  6338.811  6338.800  0.500  2.374079  152.52  112.969  10.5174
  6341.059  6341.050  0.500  2.372478  152.544  113.124  10.5488
  6343.318  6343.310  0.500  2.370716  152.555  113.283  10.5822
  6345.600  6345.590  0.500  2.369328  152.58  113.441  10.6117
  6347.902  6347.890  0.500  2.368541  152.609  113.595  10.6345
  6350.217  6350.210  0.500  2.367800  152.615  113.656  10.648
  6352.562  6352.550  0.500  2.367401  152.612  113.767  10.6627
  6354.910  6354.900  0.500  2.366160  152.652  113.912  10.6895
  6357.293  6357.280  0.500  2.364086  152.658  114.076  10.7272
  6359.679  6359.670  0.500  2.361421  152.664  114.253  10.7725
  6362.099  6362.090  0.500  2.358227  152.713  114.403  10.8211
  6364.530  6364.520  0.500  2.354653  152.725  114.513  10.8703
  6366.976  6366.970  0.500  2.351005  152.726  114.655  10.9235
  6369.460  6369.450  0.500  2.346742  152.733  114.844  10.9883
  6371.950  6371.940  0.500  2.342403  152.731  114.959  11.0472
  6374.462  6374.450  0.500  2.338308  152.737  115.086  11.1047
  6376.982  6376.970  0.500  2.334221  152.763  115.16  11.1574
  6379.536  6379.520  0.500  2.330738  152.75  115.289  11.2088
  6382.102  6382.090  0.500  2.327831  152.746  115.421  11.2543
  6384.681  6384.670  0.500  2.325054  152.744  115.56  11.2992
  6387.292  6387.280  0.500  2.322716  152.761  115.762  11.3455
  6389.910  6389.900  0.500  2.320376  152.727  115.826  11.3784
  6392.558  6392.550  0.500  2.318138  152.727  115.931  11.4142
  6395.219  6395.210  0.500  2.316014  152.735  116.097  11.4548
  6397.897  6397.890  0.500  2.313986  152.744  116.277  11.4959
  6400.601  6400.590  0.500  2.311982  152.749  116.436  11.5347
  6403.321  6403.310  0.500  2.309609  152.734  116.576  11.576
  6406.064  6406.050  0.500  2.306866  152.715  116.683  11.6185
  6408.814  6408.800  0.500  2.304172  152.696  116.825  11.664
  6411.593  6411.580  0.500  2.301125  152.723  116.975  11.7146
  6414.382  6414.370  0.500  2.298483  152.733  117.108  11.7589
  6417.202  6417.190  0.500  2.295789  152.722  117.229  11.8028
  6420.034  6420.020  0.500  2.293168  152.748  117.429  11.8541
  6422.884  6422.870  0.500  2.290267  152.717  117.531  11.8988
  6425.761  6425.750  0.500  2.287496  152.703  117.705  11.9494
  6428.653  6428.640  0.500  2.284652  152.652  117.803  11.9935
  6431.563  6431.550  0.500  2.281944  152.619  117.928  12.0387
  6434.474  6434.470  0.500  2.279387  152.582  118.068  12.0839
  6437.426  6437.420  0.500  2.277018  152.544  118.193  12.1254
  6440.397  6440.390  0.500  2.274562  152.56  118.374  12.1738
  6443.378  6443.370  0.500  2.272154  152.558  118.488  12.2149
  6446.386  6446.380  0.500  2.269447  152.536  118.628  12.2625
  6449.405  6449.400  0.500  2.266317  149.911  116.721  12.1032
  6452.460  6452.450  0.500  2.263481  152.379  118.782  12.3519
  6455.515  6455.510  0.500  2.260097  152.424  119.019  12.4185
  6458.600  6458.590  0.500  2.256357  149.459  116.814  12.2341
  6461.702  6461.690  0.500  2.252489  152.297  119.181  12.5303
  6464.824  6464.810  0.500  2.248560  150.032  117.587  12.4115
  6467.957  6467.950  0.500  2.244886  152.169  119.426  12.6519
  6471.111  6471.100  0.500  2.241402  152.181  119.613  12.716
  6474.287  6474.280  0.500  2.238106  150.923  118.773  12.6684
  6477.480  6477.470  0.500  2.234931  152.029  119.818  12.8204
  6480.706  6480.690  0.500  2.231869  152.045  119.997  12.879
  6483.932  6483.920  0.500  2.228979  152.009  120.124  12.93
  6487.180  6487.170  0.500  2.226364  151.97  120.265  12.979
  6490.460  6490.450  0.500  2.223683  151.95  120.407  13.0292
  6493.752  6493.740  0.500  2.221209  151.877  120.558  13.0779
  6497.063  6497.050  0.500  2.218563  151.817  120.593  13.1164
  6500.378  6500.370  0.500  2.215687  151.736  120.691  13.1648
  6503.741  6503.720  0.500  2.212478  151.69  120.825  13.2217
  6507.101  6507.090  0.500  2.209094  151.622  120.906  13.2755
  6510.496  6510.470  0.500  2.205622  151.553  121.083  13.3412
  6513.904  6513.880  0.500  2.202146  151.464  121.188  13.3993
  6517.315  6517.300  0.500  2.198663  151.413  121.319  13.4605
  6520.770  6520.750  0.500  2.195246  151.376  121.445  13.5206
  6524.227  6524.210  0.500  2.191715  151.291  121.561  13.5814
  6527.718  6527.690  0.500  2.188216  151.222  121.677  13.6421
  6531.220  6531.190  0.500  2.185007  151.169  121.836  13.7038
  6534.698  6534.710  0.500  2.181758  151.082  121.952  13.7614
  6538.242  6538.250  0.500  2.178668  151.002  122.064  13.8167
  6541.790  6541.800  0.500  2.175313  150.889  122.138  13.8715
  6545.366  6545.380  0.500  2.172121  150.813  122.269  13.9309
  6548.970  6548.980  0.500  2.168883  150.69  122.35  13.9852
  6552.595  6552.590  0.500  2.165696  150.598  122.435  14.0396
  6556.218  6556.220  0.500  2.162297  150.51  122.515  14.0967
  6559.870  6559.880  0.500  2.158894  150.38  122.6  14.1545
  6563.566  6563.550  0.500  2.155269  150.287  122.712  14.2188
  6567.231  6567.240  0.500  2.151389  150.216  122.825  14.2873
  6570.965  6570.950  0.500  2.147430  150.157  122.914  14.3544
  6574.674  6574.680  0.500  2.143572  150.069  123.043  14.425
  6578.408  6578.420  0.500  2.139818  150.018  123.227  14.5009
  6582.201  6582.190  0.500  2.136158  149.902  123.278  14.5601
  6585.971  6585.980  0.500  2.132672  149.666  123.271  14.6101
  6589.764  6589.780  0.500  2.129113  149.695  123.482  14.6873
  6593.593  6593.610  0.500  2.125814  149.579  123.56  14.7451
  6597.438  6597.450  0.500  2.122331  149.735  123.918  14.8395
  6601.305  6601.310  0.500  2.118806  149.676  124.09  14.9125
  6605.179  6605.190  0.500  2.115249  149.564  124.199  14.9788
  6609.071  6609.090  0.500  2.111793  149.536  124.33  15.0465
  6613.001  6613.010  0.500  2.108451  149.427  124.437  15.1099
  6616.959  6616.950  0.500  2.104921  149.307  124.546  15.1766
  6620.897  6620.910  0.500  2.101470  149.171  124.627  15.239
  6624.867  6624.880  0.500  2.097891  149.082  124.751  15.3088
  6628.865  6628.880  0.500  2.094224  148.88  124.766  15.3669
  6632.877  6632.890  0.500  2.090541  148.888  124.925  15.4432
  6636.918  6636.930  0.500  2.086697  148.807  125.06  15.5195
  6640.968  6640.980  0.500  2.082728  148.712  125.193  15.5977
  6645.046  6645.050  0.500  2.078796  148.588  125.261  15.6677
  6649.127  6649.140  0.500  2.074970  148.468  125.361  15.7404
  6653.261  6653.250  0.500  2.071179  148.388  125.523  15.8206
  6657.370  6657.380  0.500  2.067607  148.256  125.579  15.8843
  6661.532  6661.530  0.500  2.063972  148.203  125.715  15.9594
  6665.671  6665.690  0.500  2.060245  148.098  125.85  16.0361
  6669.867  6669.880  0.500  2.056513  147.949  125.916  16.1046
  6674.063  6674.080  0.500  2.052714  147.831  126.007  16.1775
  6678.298  6678.310  0.500  2.048715  147.738  126.153  16.2612
  6682.540  6682.550  0.500  2.044793  147.66  126.286  16.3423
  6686.798  6686.810  0.500  2.041047  147.533  126.311  16.4069
  6691.084  6691.090  0.500  2.037211  147.43  126.441  16.4868
  6695.381  6695.390  0.500  2.033578  147.315  126.568  16.5635
  6699.695  6699.710  0.500  2.029941  147.153  126.637  16.6329