File: xdidata/Nd/Nd-L1-Nd2TiO5.xdi
# XDI/1.0 BlueSky/1.10.0 BMM/2023-1.0-py310-tiled
# Beamline.name: BMM (06BM) -- Beamline for Materials Measurement (NIST)
# Beamline.xray_source: NSLS-II three-pole wiggler
# Beamline.collimation: paraboloid mirror, 5 nm Rh on 30 nm Pt
# Beamline.focusing: not in use
# Beamline.harmonic_rejection: flat mirror, Si stripe, pitch = 7.0 mrad relative to beam
# Beamline.software: Bluesky 1.10.0, Ophyd 1.7.0, DataBroker 2.0.0b13, Python 3.10.8, 2023-1.0-py310-tiled
# Detector.I0: 10 cm N2
# Detector.I1: 25 cm N2
# Detector.I2: 25 cm N2
# Element.symbol: Nd
# Element.edge: L1
# Element.reference: Nd
# Element.reference_material: Nd2O3
# Facility.name: NSLS-II
# Facility.energy: 3.0
# Facility.current: 400.6
# Facility.mode: top-off
# Facility.GUP: 123456
# Facility.SAF: 301027
# Facility.cycle: 2023-2
# Mono.name: Si(111)
# Mono.d_spacing: 3.13519
# Mono.encoder_resolution: 0.0000050 deg/ct
# Mono.angle_offset: 16.0754 deg
# Mono.scan_mode: pseudo channel cut
# Mono.scan_type: step
# Mono.direction: forward in energy
# Sample.name: Nd2TiO5
# Sample.prep: Powder in PEG pellet
# Sample.x: 149.848 mm
# Sample.y: 114.690 mm
# Sample.SDD_position: 205.000 mm
# Scan.experimenters: Bruce Ravel
# Scan.edge_energy: 7126.0
# Scan.start_time: 2023-05-08T20:11:33
# Scan.end_time: 2023-05-08T20:17:15
# Scan.transient_id: 75571
# Scan.uid: 4a014ff8-2d51-4141-ac58-c67da8b04c53
# Scan.plot_hint: ln(I0/It)  --  ln($5/$6)
# Column.1: energy eV
# Column.2: requested_energy eV
# Column.3: measurement_time seconds
# Column.4: xmu
# Column.5: I0 nA
# Column.6: It nA
# Column.7: Ir nA
# ///////////
# sample courtesy Martin Stennett, University of Sheffield
# -----------
# energy  requested_energy  measurement_time  xmu  I0  It  Ir
  6926.002  6926.000  0.500  1.314287  151.357  40.6644  7.857312
  6936.004  6936.000  0.500  1.306890  151.368  40.9694  7.963745
  6946.058  6946.000  0.500  1.300004  151.44  41.2719  8.070124
  6956.028  6956.000  0.500  1.292693  151.485  41.5872  8.174912
  6966.026  6966.000  0.500  1.285193  151.564  41.9221  8.288928
  6976.015  6976.000  0.500  1.277704  151.578  42.2413  8.412595
  6986.012  6986.000  0.500  1.270358  151.603  42.5595  8.532646
  6996.013  6996.000  0.500  1.263283  151.635  42.8709  8.645643
  7006.015  7006.000  0.500  1.256013  151.657  43.1899  8.756183
  7016.016  7016.000  0.500  1.248703  151.629  43.4987  8.867219
  7026.015  7026.000  0.500  1.241794  151.627  43.7997  8.984185
  7036.010  7036.000  0.500  1.234294  150.437  43.7833  9.046989
  7046.008  7046.000  0.500  1.227249  150.447  44.0957  9.164261
  7056.006  7056.000  0.500  1.220229  150.426  44.4002  9.278323
  7066.010  7066.000  0.500  1.213423  150.324  44.673  9.386053
  7076.017  7076.000  0.500  1.206320  149.616  44.7797  9.459831
  7086.016  7086.000  0.500  1.199384  150.14  45.2491  9.619725
  7096.014  7096.000  0.500  1.192293  150.084  45.5543  9.740244
  7098.003  7098.000  0.500  1.191169  150.08  45.6042  9.761719
  7100.007  7100.000  0.500  1.189806  150.083  45.6674  9.784989
  7101.999  7102.000  0.500  1.188455  150.047  45.718  9.805709
  7103.997  7104.000  0.500  1.187151  150.036  45.7745  9.827064
  7105.998  7106.000  0.500  1.185720  150.001  45.8293  9.848998
  7108.000  7108.000  0.500  1.184400  149.98  45.8832  9.872305
  7109.996  7110.000  0.500  1.183197  149.935  45.9248  9.891356
  7111.998  7112.000  0.500  1.181876  149.788  45.9403  9.903234
  7113.993  7114.000  0.500  1.180534  149.656  45.9617  9.916716
  7116.002  7116.000  0.500  1.179236  149.645  46.018  9.937943
  7116.485  7116.500  0.500  1.178999  149.609  46.0177  9.939598
  7116.988  7117.000  0.500  1.178544  149.603  46.0367  9.946391
  7117.484  7117.500  0.500  1.178585  149.599  46.0336  9.947263
  7117.984  7118.000  0.500  1.178409  149.564  46.031  9.949264
  7118.483  7118.500  0.500  1.177529  149.541  46.0644  9.957243
  7118.983  7119.000  0.500  1.177261  149.522  46.0709  9.961200
  7119.488  7119.500  0.500  1.176762  149.495  46.0856  9.965302
  7119.989  7120.000  0.500  1.176582  149.451  46.0804  9.967178
  7120.488  7120.500  0.500  1.176348  149.462  46.0945  9.971224
  7120.984  7121.000  0.500  1.176149  149.429  46.0937  9.972482
  7121.494  7121.500  0.500  1.175857  149.4  46.0981  9.973710
  7121.982  7122.000  0.500  1.175410  149.361  46.1065  9.976979
  7122.487  7122.500  0.500  1.175149  149.354  46.1165  9.979886
  7122.986  7123.000  0.500  1.174785  149.335  46.1274  9.982985
  7123.490  7123.500  0.500  1.174432  149.283  46.1276  9.985355
  7123.995  7124.000  0.500  1.174223  149.269  46.1328  9.985887
  7124.488  7124.500  0.500  1.174038  149.269  46.1414  9.989311
  7124.992  7125.000  0.500  1.173738  149.215  46.1386  9.989210
  7125.487  7125.500  0.500  1.173373  149.178  46.1439  9.991039
  7125.987  7126.000  0.500  1.173240  149.171  46.1481  9.992015
  7126.490  7126.500  0.500  1.172968  149.133  46.1487  9.991752
  7126.994  7127.000  0.500  1.172790  149.095  46.1451  9.988761
  7127.501  7127.500  0.500  1.172553  149.061  46.1455  9.986808
  7127.994  7128.000  0.500  1.172299  149.029  46.1474  9.984236
  7128.496  7128.500  0.500  1.172224  148.984  46.1369  9.977901
  7128.991  7129.000  0.500  1.172167  148.955  46.1307  9.970689
  7129.494  7129.500  0.500  1.172061  148.924  46.1261  9.962674
  7129.992  7130.000  0.500  1.171834  148.888  46.1252  9.953757
  7130.498  7130.500  0.500  1.171940  148.833  46.1034  9.938399
  7130.998  7131.000  0.500  1.171849  148.789  46.094  9.925688
  7131.496  7131.500  0.500  1.171719  148.751  46.0881  9.914665
  7131.999  7132.000  0.500  1.171775  148.731  46.0792  9.905387
  7132.493  7132.500  0.500  1.171320  148.719  46.0965  9.901119
  7132.991  7133.000  0.500  1.171679  148.711  46.0775  9.891057
  7133.498  7133.500  0.500  1.171523  148.684  46.0764  9.883513
  7134.001  7134.000  0.500  1.171197  148.676  46.0891  9.878126
  7134.502  7134.500  0.500  1.171226  148.648  46.079  9.868710
  7134.996  7135.000  0.500  1.170936  148.67  46.0991  9.862417
  7135.501  7135.500  0.500  1.170502  148.675  46.1208  9.852337
  7135.994  7136.000  0.500  1.170837  148.693  46.1108  9.833593
  7136.495  7136.500  0.500  1.171079  148.635  46.0815  9.809004
  7137.000  7137.000  0.500  1.170979  148.68  46.1003  9.791863
  7137.499  7137.500  0.500  1.170672  148.691  46.1179  9.771646
  7138.005  7138.000  0.500  1.170739  148.659  46.1046  9.741493
  7138.502  7138.500  0.500  1.170923  148.637  46.0896  9.707019
  7139.001  7139.000  0.500  1.171221  148.633  46.0745  9.670164
  7139.498  7139.500  0.500  1.171281  148.636  46.0728  9.633922
  7139.995  7140.000  0.500  1.171147  148.631  46.0774  9.596056
  7140.497  7140.500  0.500  1.171248  148.615  46.0676  9.554869
  7141.001  7141.000  0.500  1.171216  148.633  46.0747  9.518453
  7141.503  7141.500  0.500  1.171076  148.632  46.0807  9.482199
  7142.002  7142.000  0.500  1.171039  148.643  46.0859  9.449089
  7142.498  7142.500  0.500  1.170870  148.614  46.0849  9.417289
  7142.993  7143.000  0.500  1.170660  148.602  46.0906  9.393384
  7143.499  7143.500  0.500  1.170499  148.61  46.1006  9.376642
  7143.999  7144.000  0.500  1.170319  148.601  46.1062  9.364960
  7144.506  7144.500  0.500  1.170008  148.541  46.1018  9.356928
  7145.002  7145.000  0.500  1.169638  148.59  46.1341  9.363787
  7145.508  7145.500  0.500  1.169413  148.579  46.1411  9.369894
  7146.002  7146.000  0.500  1.169222  148.627  46.165  9.385723
  7146.505  7146.500  0.500  1.168946  148.578  46.1625  9.400150
  7146.999  7147.000  0.500  1.168566  148.583  46.1813  9.420815
  7147.503  7147.500  0.500  1.168308  148.567  46.1885  9.441448
  7148.004  7148.000  0.500  1.167832  148.564  46.2095  9.465309
  7148.504  7148.500  0.500  1.167593  148.547  46.2151  9.486593
  7149.005  7149.000  0.500  1.167411  148.547  46.2234  9.510495
  7149.506  7149.500  0.500  1.166893  148.544  46.2468  9.533831
  7150.000  7150.000  0.500  1.166638  148.543  46.258  9.555425
  7150.501  7150.500  0.500  1.166376  148.55  46.2724  9.575025
  7150.996  7151.000  0.500  1.165989  148.535  46.2855  9.592017
  7151.998  7151.990  0.500  1.165472  148.561  46.3177  9.623694
  7152.998  7152.990  0.500  1.164838  148.525  46.3359  9.645855
  7154.016  7154.010  0.500  1.164074  148.518  46.3689  9.668407
  7155.067  7155.060  0.500  1.163187  148.492  46.4021  9.688641
  7156.135  7156.120  0.500  1.162232  148.508  46.4515  9.713507
  7157.206  7157.200  0.500  1.161096  148.483  46.4965  9.740000
  7158.310  7158.300  0.500  1.160127  148.465  46.5358  9.766701
  7159.432  7159.420  0.500  1.158863  148.443  46.5877  9.798046
  7160.567  7160.560  0.500  1.157621  148.333  46.6112  9.826752
  7161.720  7161.710  0.500  1.156576  148.4  46.681  9.863859
  7162.899  7162.890  0.500  1.155525  148.387  46.726  9.892186
  7164.090  7164.080  0.500  1.154469  148.339  46.7601  9.918176
  7165.310  7165.300  0.500  1.153520  148.299  46.792  9.940320
  7166.543  7166.530  0.500  1.152592  148.251  46.8203  9.959167
  7167.787  7167.780  0.500  1.151680  148.208  46.8492  9.976262
  7169.060  7169.050  0.500  1.151072  148.196  46.874  9.988876
  7170.351  7170.340  0.500  1.150231  148.166  46.9041  10.0012
  7171.662  7171.650  0.500  1.149522  148.163  46.9363  10.0095
  7172.993  7172.980  0.500  1.148696  148.123  46.9624  10.012
  7174.342  7174.330  0.500  1.148211  148.113  46.9822  10.0075
  7175.710  7175.700  0.500  1.147606  148.072  46.9973  10.0018
  7177.095  7177.080  0.500  1.146623  148.052  47.0373  10.0005
  7178.496  7178.490  0.500  1.145582  148.05  47.0857  10.0017
  7179.920  7179.910  0.500  1.144720  148.018  47.1162  10.0057
  7181.361  7181.350  0.500  1.143960  147.986  47.1418  10.0095
  7182.817  7182.810  0.500  1.143196  147.977  47.1748  10.0143
  7184.308  7184.290  0.500  1.142120  147.941  47.2141  10.0236
  7185.799  7185.790  0.500  1.141313  147.915  47.2439  10.033
  7187.325  7187.310  0.500  1.140357  147.879  47.2778  10.0465
  7188.862  7188.850  0.500  1.139705  147.865  47.304  10.0572
  7190.419  7190.410  0.500  1.138825  147.81  47.3282  10.0689
  7191.990  7191.980  0.500  1.137831  145.349  46.5862  9.918747
  7193.593  7193.580  0.500  1.136692  147.537  47.3416  10.0874
  7195.205  7195.190  0.500  1.135573  147.635  47.426  10.1151
  7196.840  7196.830  0.500  1.134621  147.646  47.4748  10.1386
  7198.495  7198.480  0.500  1.133710  147.591  47.5003  10.1578
  7200.156  7200.150  0.500  1.132820  147.545  47.5278  10.1808
  7201.857  7201.840  0.500  1.131566  147.526  47.5811  10.2111
  7203.561  7203.550  0.500  1.130343  147.478  47.624  10.2425
  7205.299  7205.280  0.500  1.128978  147.446  47.6786  10.2781
  7207.040  7207.030  0.500  1.127701  147.494  47.7552  10.3175
  7208.806  7208.790  0.500  1.126468  147.884  47.9406  10.3783
  7210.593  7210.580  0.500  1.125400  147.834  47.9754  10.405
  7212.392  7212.380  0.500  1.124169  147.735  48.0024  10.4266
  7214.223  7214.210  0.500  1.122841  147.741  48.068  10.4557
  7216.068  7216.050  0.500  1.121480  147.709  48.1232  10.4794
  7217.925  7217.910  0.500  1.120176  147.657  48.1691  10.4992
  7219.803  7219.790  0.500  1.119119  147.598  48.2006  10.5152
  7221.710  7221.690  0.500  1.117936  147.56  48.2453  10.5331
  7223.621  7223.610  0.500  1.116503  147.525  48.3029  10.5502
  7225.567  7225.550  0.500  1.115273  147.423  48.3289  10.5632
  7227.515  7227.510  0.500  1.113920  145.815  47.8667  10.4692
  7229.496  7229.480  0.500  1.112726  147.551  48.4944  10.61
  7231.496  7231.480  0.500  1.111362  147.508  48.5464  10.6259
  7233.501  7233.490  0.500  1.110200  147.473  48.5913  10.6437
  7235.539  7235.520  0.500  1.108654  147.39  48.6391  10.6648
  7237.591  7237.580  0.500  1.107441  147.34  48.6816  10.687
  7239.673  7239.650  0.500  1.106147  147.35  48.748  10.7141
  7241.752  7241.740  0.500  1.104895  147.307  48.7947  10.74
  7243.863  7243.850  0.500  1.103771  147.165  48.8025  10.7556
  7245.996  7245.980  0.500  1.102324  146.603  48.6866  10.7417
  7248.128  7248.120  0.500  1.101084  147.127  48.9211  10.8048
  7250.306  7250.290  0.500  1.099771  147.089  48.9728  10.8264
  7252.489  7252.480  0.500  1.098362  146.973  49.0031  10.8437
  7254.692  7254.680  0.500  1.097047  144.721  48.316  10.7035
  7256.914  7256.900  0.500  1.095695  147.114  49.1812  10.9079
  7259.158  7259.150  0.500  1.094400  146.974  49.1981  10.9247
  7261.421  7261.410  0.500  1.092964  146.555  49.1284  10.9217
  7263.713  7263.690  0.500  1.091327  139.292  46.7701  10.4162
  7265.999  7265.990  0.500  1.089942  146.171  49.1479  10.9502
  7268.322  7268.310  0.500  1.088483  147.343  49.6142  11.0705
  7270.663  7270.650  0.500  1.087010  147.317  49.6786  11.1032
  7273.008  7273.000  0.500  1.085379  147.088  49.6824  11.1222
  7275.395  7275.380  0.500  1.084111  147.288  49.8131  11.1688
  7277.785  7277.770  0.500  1.082656  147.283  49.8839  11.2032
  7280.205  7280.190  0.500  1.080921  147.245  49.9578  11.2382
  7282.632  7282.620  0.500  1.079530  147.19  50.0086  11.2681
  7285.075  7285.070  0.500  1.078004  145.331  49.4524  11.1587
  7287.560  7287.550  0.500  1.076414  146.963  50.0872  11.3189
  7290.045  7290.040  0.500  1.074957  146.975  50.1644  11.3505
  7292.556  7292.550  0.500  1.073478  146.965  50.2351  11.3812
  7295.078  7295.070  0.500  1.071728  146.911  50.3047  11.4092
  7297.632  7297.620  0.500  1.070492  146.831  50.3396  11.4302
  7300.201  7300.190  0.500  1.068910  146.622  50.3474  11.4431
  7302.776  7302.770  0.500  1.066975  146.951  50.558  11.5017
  7305.392  7305.380  0.500  1.065253  146.873  50.6182  11.5301
  7308.009  7308.000  0.500  1.063881  146.796  50.6613  11.556
  7310.658  7310.650  0.500  1.062203  146.75  50.7303  11.5843
  7313.323  7313.310  0.500  1.060696  146.726  50.7987  11.6157
  7316.004  7315.990  0.500  1.059141  146.655  50.8533  11.6456
  7318.700  7318.690  0.500  1.057380  146.63  50.9341  11.6803
  7321.414  7321.410  0.500  1.055934  146.562  50.9842  11.7112
  7324.160  7324.150  0.500  1.054597  146.547  51.0471  11.7426
  7326.912  7326.900  0.500  1.052833  146.489  51.1171  11.7788
  7329.690  7329.680  0.500  1.050868  146.429  51.1966  11.8142
  7332.478  7332.470  0.500  1.049178  146.394  51.2709  11.8486
  7335.302  7335.290  0.500  1.047941  146.347  51.318  11.8773
  7338.131  7338.120  0.500  1.046260  146.078  51.3098  11.893
  7340.973  7340.970  0.500  1.044386  146.061  51.3999  11.9309
  7343.862  7343.850  0.500  1.042599  146.129  51.5158  11.9753
  7346.747  7346.740  0.500  1.040801  146.112  51.6026  12.0148
  7349.660  7349.650  0.500  1.039247  146.045  51.6592  12.0446
  7352.579  7352.570  0.500  1.037389  145.986  51.7342  12.0803
  7355.531  7355.520  0.500  1.035424  145.923  51.8137  12.1173
  7358.506  7358.490  0.500  1.033661  145.869  51.8861  12.1546
  7361.484  7361.470  0.500  1.031678  145.832  51.9758  12.1962
  7364.489  7364.480  0.500  1.029889  145.751  52.04  12.2322
  7367.511  7367.500  0.500  1.028125  145.708  52.1165  12.2711
  7370.566  7370.550  0.500  1.026307  145.637  52.1858  12.3084
  7373.630  7373.610  0.500  1.024561  145.591  52.2606  12.3495
  7376.710  7376.690  0.500  1.022472  145.501  52.3374  12.3871
  7379.807  7379.790  0.500  1.020761  145.42  52.3977  12.4206
  7382.928  7382.910  0.500  1.019088  145.362  52.4645  12.4549
  7386.067  7386.050  0.500  1.016811  145.274  52.5523  12.4946
  7389.233  7389.200  0.500  1.015212  145.218  52.6162  12.5297
  7392.402  7392.380  0.500  1.013359  145.199  52.7068  12.5692
  7395.587  7395.570  0.500  1.011592  145.124  52.7729  12.6034
  7398.812  7398.790  0.500  1.009690  145.035  52.8407  12.6379
  7402.038  7402.020  0.500  1.007849  144.967  52.9135  12.6726
  7405.307  7405.270  0.500  1.005913  144.895  52.9897  12.712
  7408.583  7408.550  0.500  1.003916  144.811  53.0647  12.7499
  7411.860  7411.840  0.500  1.002297  144.756  53.1305  12.7869
  7415.174  7415.150  0.500  1.000121  144.675  53.2166  12.8313
  7418.488  7418.470  0.500  0.998107  144.586  53.2911  12.8701
  7421.837  7421.820  0.500  0.996138  144.517  53.3705  12.9139
  7425.210  7425.190  0.500  0.994434  144.409  53.4216  12.9501
  7428.587  7428.570  0.500  0.992609  144.346  53.4958  12.9903
  7431.997  7431.980  0.500  0.990743  144.25  53.56  13.0304
  7435.428  7435.400  0.500  0.988746  144.186  53.6434  13.0727
  7438.875  7438.850  0.500  0.986696  144.065  53.7083  13.1117
  7442.326  7442.310  0.500  0.984619  143.902  53.7591  13.1445
  7445.775  7445.790  0.500  0.982644  141.12  52.824  12.9436
  7449.308  7449.290  0.500  0.980572  143.88  53.9689  13.2413
  7452.824  7452.810  0.500  0.978465  143.376  53.8931  13.246
  7456.345  7456.350  0.500  0.976492  143.698  54.121  13.3232
  7459.936  7459.900  0.500  0.974408  140.281  52.9443  13.0537
  7463.497  7463.480  0.500  0.972842  143.508  54.2471  13.4018
  7467.071  7467.080  0.500  0.970589  142.418  53.9564  13.3541
  7470.711  7470.690  0.500  0.968383  143.443  54.4649  13.5028
  7474.323  7474.320  0.500  0.966520  143.352  54.5316  13.5441
  7477.987  7477.980  0.500  0.964294  143.22  54.603  13.5871
  7481.673  7481.650  0.500  0.962159  143.104  54.6755  13.6283
  7485.332  7485.340  0.500  0.960092  142.984  54.7426  13.6711
  7489.045  7489.050  0.500  0.957986  142.88  54.8179  13.7158
  7492.774  7492.780  0.500  0.955953  142.781  54.8917  13.7583
  7496.537  7496.520  0.500  0.953886  142.662  54.9594  13.7981
  7500.274  7500.290  0.500  0.951722  142.558  55.038  13.8418
  7504.062  7504.080  0.500  0.949624  142.446  55.1103  13.8849
  7507.888  7507.880  0.500  0.947470  142.322  55.1811  13.9267
  7511.720  7511.710  0.500  0.945407  142.229  55.2588  13.9715
  7515.540  7515.550  0.500  0.943355  142.109  55.3258  14.0165
  7519.412  7519.410  0.500  0.941136  141.967  55.3933  14.0582
  7523.273  7523.290  0.500  0.939042  141.84  55.4598  14.1005
  7527.199  7527.190  0.500  0.936965  141.771  55.548  14.1482
  7531.151  7531.110  0.500  0.934798  141.608  55.6047  14.1893
  7535.090  7535.050  0.500  0.932707  141.477  55.6696  14.2337
  7538.995  7539.010  0.500  0.930422  141.341  55.7429  14.2779
  7542.991  7542.980  0.500  0.928439  141.202  55.7989  14.3202
  7546.992  7546.980  0.500  0.926363  141.074  55.8642  14.3667
  7551.002  7550.990  0.500  0.924033  140.943  55.9425  14.4123
  7555.035  7555.030  0.500  0.921852  140.852  56.0283  14.4649
  7559.095  7559.080  0.500  0.919738  140.724  56.0957  14.5069
  7563.170  7563.150  0.500  0.917589  140.561  56.1513  14.5512
  7567.256  7567.240  0.500  0.915250  140.486  56.253  14.604
  7571.369  7571.350  0.500  0.912985  140.324  56.3155  14.6466
  7575.491  7575.480  0.500  0.910943  140.169  56.3684  14.6875
  7579.648  7579.630  0.500  0.908751  140.02  56.432  14.7335
  7583.799  7583.790  0.500  0.906523  139.889  56.5049  14.7802
  7587.989  7587.980  0.500  0.904398  139.648  56.5277  14.8159
  7592.194  7592.180  0.500  0.902148  139.499  56.5945  14.8636
  7596.426  7596.410  0.500  0.899897  139.284  56.6343  14.9034
  7600.670  7600.650  0.500  0.897829  138.889  56.5909  14.9217
  7604.924  7604.910  0.500  0.895796  138.5  56.5471  14.939
  7609.218  7609.190  0.500  0.893156  138.283  56.6077  14.9848
  7613.321  7613.490  0.500  0.891892  138.176  56.6353  15.0058
  7617.788  7617.810  0.500  0.888546  138.122  56.8033  15.0968
  7622.176  7622.150  0.500  0.886157  138.216  56.9778  15.172
  7626.495  7626.510  0.500  0.883883  138.199  57.1006  15.2357
  7630.886  7630.890  0.500  0.881770  138.105  57.1825  15.2881
  7635.299  7635.280  0.500  0.879399  137.915  57.2392  15.3339
  7639.733  7639.700  0.500  0.877076  137.753  57.3049  15.3831
  7644.154  7644.130  0.500  0.874796  137.61  57.3759  15.4315
  7648.559  7648.580  0.500  0.872375  137.466  57.4549  15.4828
  7653.036  7653.050  0.500  0.870128  137.348  57.5349  15.5345
  7657.531  7657.540  0.500  0.868000  137.173  57.5838  15.5801
  7662.024  7662.050  0.500  0.865747  137.012  57.646  15.6281
  7666.567  7666.580  0.500  0.863373  136.808  57.6971  15.6724
  7671.114  7671.130  0.500  0.861176  136.662  57.7623  15.7226