File: xdidata/Nd/Nd-L3-Nd2Ti2O7.xdi
# XDI/1.0 BlueSky/1.10.0 BMM/2023-1.0-py310-tiled
# Beamline.name: BMM (06BM) -- Beamline for Materials Measurement (NIST)
# Beamline.xray_source: NSLS-II three-pole wiggler
# Beamline.collimation: paraboloid mirror, 5 nm Rh on 30 nm Pt
# Beamline.focusing: not in use
# Beamline.harmonic_rejection: flat mirror, Si stripe, pitch = 7.0 mrad relative to beam
# Beamline.software: Bluesky 1.10.0, Ophyd 1.7.0, DataBroker 2.0.0b13, Python 3.10.8, 2023-1.0-py310-tiled
# Detector.I0: 10 cm N2
# Detector.I1: 25 cm N2
# Detector.I2: 25 cm N2
# Element.symbol: Nd
# Element.edge: L3
# Element.reference: Nd
# Element.reference_material: Nd2O3
# Facility.name: NSLS-II
# Facility.energy: 3.0
# Facility.current: 399.7
# Facility.mode: top-off
# Facility.GUP: 123456
# Facility.SAF: 301027
# Facility.cycle: 2023-2
# Mono.name: Si(111)
# Mono.d_spacing: 3.13519
# Mono.encoder_resolution: 0.0000050 deg/ct
# Mono.angle_offset: 16.0754 deg
# Mono.scan_mode: pseudo channel cut
# Mono.scan_type: step
# Mono.direction: forward in energy
# Sample.name: Nd2Ti2O7
# Sample.prep: Powder in PEG pellet
# Sample.x: 149.848 mm
# Sample.y: 114.690 mm
# Sample.SDD_position: 205.000 mm
# Scan.experimenters: Bruce Ravel
# Scan.edge_energy: 6207.9
# Scan.start_time: 2023-05-08T16:49:36
# Scan.end_time: 2023-05-08T16:55:18
# Scan.transient_id: 75417
# Scan.uid: 89f6c106-4035-4175-b5f3-956aafc9ea55
# Scan.plot_hint: ln(I0/It)  --  ln($5/$6)
# Column.1: energy eV
# Column.2: requested_energy eV
# Column.3: measurement_time seconds
# Column.4: xmu
# Column.5: I0 nA
# Column.6: It nA
# Column.7: Ir nA
# ///////////
# sample courtesy Martin Stennett, University of Sheffield
# -----------
# energy  requested_energy  measurement_time  xmu  I0  It  Ir
  6007.905  6007.900  0.500  2.432882  148.099  13.0007  1.812123
  6017.911  6017.900  0.500  2.418797  148.287  13.2018  1.858055
  6027.913  6027.900  0.500  2.403820  148.521  13.4222  1.907367
  6037.903  6037.900  0.500  2.389250  148.761  13.6411  1.956935
  6047.914  6047.900  0.500  2.375033  148.996  13.8583  2.007033
  6057.922  6057.900  0.500  2.360722  148.931  14.052  2.054153
  6067.910  6067.900  0.500  2.346655  148.934  14.2513  2.103118
  6077.912  6077.900  0.500  2.332883  149.195  14.4742  2.155625
  6087.907  6087.900  0.500  2.318719  149.359  14.6969  2.208921
  6097.914  6097.900  0.500  2.304905  149.633  14.9286  2.263392
  6107.908  6107.900  0.500  2.291268  149.838  15.1544  2.318949
  6117.907  6117.900  0.500  2.277346  150.043  15.3878  2.376371
  6127.883  6127.900  0.500  2.264119  150.751  15.6663  2.439802
  6137.885  6137.900  0.500  2.250847  150.958  15.8974  2.498328
  6147.886  6147.900  0.500  2.237076  151.154  16.1387  2.558409
  6157.884  6157.900  0.500  2.223969  151.254  16.3625  2.615881
  6167.890  6167.900  0.500  2.211107  151.361  16.5861  2.673761
  6177.896  6177.900  0.500  2.198171  151.606  16.8291  2.733536
  6179.893  6179.900  0.500  2.195856  151.678  16.8761  2.744544
  6181.891  6181.900  0.500  2.193487  151.71  16.9198  2.755162
  6183.888  6183.900  0.500  2.191667  151.724  16.9522  2.763713
  6185.886  6185.900  0.500  2.189681  151.739  16.9875  2.771990
  6187.890  6187.900  0.500  2.187431  151.753  17.0274  2.780968
  6189.891  6189.900  0.500  2.184913  151.79  17.0745  2.790966
  6191.890  6191.900  0.500  2.182948  151.801  17.1094  2.797431
  6193.896  6193.900  0.500  2.181762  151.806  17.1302  2.801889
  6195.895  6195.900  0.500  2.180045  151.843  17.1638  2.805049
  6197.893  6197.900  0.500  2.178874  151.856  17.1853  2.804462
  6198.386  6198.400  0.500  2.179180  151.844  17.1788  2.802133
  6198.889  6198.900  0.500  2.178980  151.856  17.1835  2.800577
  6199.389  6199.400  0.500  2.179199  151.852  17.1793  2.798055
  6199.886  6199.900  0.500  2.179251  151.857  17.179  2.795402
  6200.384  6200.400  0.500  2.179325  151.866  17.1788  2.791905
  6200.886  6200.900  0.500  2.179938  151.878  17.1696  2.787703
  6201.385  6201.400  0.500  2.180508  151.871  17.159  2.781395
  6201.888  6201.900  0.500  2.181024  151.869  17.1499  2.775253
  6202.389  6202.400  0.500  2.181969  151.856  17.1323  2.766541
  6202.891  6202.900  0.500  2.182773  151.853  17.1182  2.755797
  6203.391  6203.400  0.500  2.184494  151.871  17.0907  2.742977
  6203.887  6203.900  0.500  2.186192  151.873  17.062  2.726825
  6204.386  6204.400  0.500  2.188428  151.873  17.0239  2.708608
  6204.890  6204.900  0.500  2.190781  151.862  16.9826  2.688449
  6205.391  6205.400  0.500  2.192738  151.86  16.9492  2.669056
  6205.894  6205.900  0.500  2.195429  151.88  16.9059  2.647495
  6206.392  6206.400  0.500  2.198754  151.881  16.8499  2.621773
  6206.892  6206.900  0.500  2.202758  151.88  16.7824  2.591834
  6207.390  6207.400  0.500  2.207084  151.882  16.7103  2.560621
  6207.894  6207.900  0.500  2.211921  151.888  16.6302  2.525711
  6208.392  6208.400  0.500  2.218252  151.89  16.5255  2.482776
  6208.894  6208.900  0.500  2.226485  151.885  16.3895  2.428310
  6209.392  6209.400  0.500  2.237613  151.898  16.2095  2.358343
  6209.892  6209.900  0.500  2.251862  151.895  15.9799  2.268410
  6210.391  6210.400  0.500  2.270419  151.895  15.686  2.154364
  6210.896  6210.900  0.500  2.292552  151.9  15.3431  2.019011
  6211.395  6211.400  0.500  2.318667  151.91  14.9486  1.855464
  6211.895  6211.900  0.500  2.346836  151.91  14.5334  1.673569
  6212.396  6212.400  0.500  2.374447  151.904  14.1371  1.490319
  6212.893  6212.900  0.500  2.400192  151.904  13.7778  1.316158
  6213.400  6213.400  0.500  2.422334  151.913  13.4769  1.169053
  6213.901  6213.900  0.500  2.437692  151.899  13.2703  1.070133
  6214.400  6214.400  0.500  2.446817  151.905  13.1502  1.017080
  6214.896  6214.900  0.500  2.448166  151.899  13.1319  1.011226
  6215.394  6215.400  0.500  2.441614  151.885  13.2171  1.048203
  6215.897  6215.900  0.500  2.429796  151.893  13.3749  1.117108
  6216.400  6216.400  0.500  2.413765  151.878  13.5897  1.209558
  6216.898  6216.900  0.500  2.395259  151.897  13.8453  1.312877
  6217.394  6217.400  0.500  2.377039  151.901  14.1003  1.416124
  6217.896  6217.900  0.500  2.358235  151.893  14.3671  1.521535
  6218.399  6218.400  0.500  2.341303  151.9  14.6131  1.621445
  6218.902  6218.900  0.500  2.325536  151.895  14.8449  1.711725
  6219.399  6219.400  0.500  2.311606  151.915  15.0551  1.794100
  6219.903  6219.900  0.500  2.298487  151.908  15.2532  1.869366
  6220.398  6220.400  0.500  2.287721  151.911  15.4186  1.932569
  6220.898  6220.900  0.500  2.278680  151.909  15.5584  1.987993
  6221.402  6221.400  0.500  2.271360  151.907  15.6725  2.033588
  6221.907  6221.900  0.500  2.265619  151.905  15.7626  2.069561
  6222.403  6222.400  0.500  2.261510  151.903  15.8273  2.095840
  6222.902  6222.900  0.500  2.258701  151.908  15.8723  2.113378
  6223.400  6223.400  0.500  2.257015  151.914  15.8997  2.124530
  6223.901  6223.900  0.500  2.255878  151.91  15.9173  2.131864
  6224.400  6224.400  0.500  2.254991  151.916  15.9321  2.135696
  6224.904  6224.900  0.500  2.254885  151.903  15.9325  2.136610
  6225.409  6225.400  0.500  2.254930  151.924  15.9339  2.138656
  6225.903  6225.900  0.500  2.254464  151.921  15.941  2.140413
  6226.398  6226.400  0.500  2.253994  151.922  15.9486  2.144017
  6226.903  6226.900  0.500  2.253077  151.935  15.9646  2.149621
  6227.399  6227.400  0.500  2.252342  151.94  15.9769  2.155707
  6227.902  6227.900  0.500  2.251690  151.946  15.9879  2.163208
  6228.402  6228.400  0.500  2.250024  151.947  16.0147  2.173145
  6228.906  6228.900  0.500  2.249158  151.941  16.0279  2.182396
  6229.399  6229.400  0.500  2.248232  151.93  16.0416  2.189796
  6229.900  6229.900  0.500  2.247140  151.93  16.0592  2.198014
  6230.402  6230.400  0.500  2.246389  151.931  16.0713  2.204271
  6230.899  6230.900  0.500  2.245253  151.938  16.0903  2.209972
  6231.403  6231.400  0.500  2.244523  151.932  16.1014  2.213550
  6231.903  6231.900  0.500  2.243616  151.935  16.1164  2.215575
  6232.401  6232.400  0.500  2.242651  151.941  16.1326  2.217033
  6232.900  6232.900  0.500  2.242038  151.944  16.1428  2.215326
  6233.900  6233.890  0.500  2.240681  151.939  16.1642  2.208464
  6234.899  6234.890  0.500  2.239420  151.927  16.1833  2.195793
  6235.919  6235.910  0.500  2.239119  151.93  16.1884  2.178849
  6236.973  6236.960  0.500  2.239183  151.937  16.1882  2.161011
  6238.031  6238.020  0.500  2.239404  151.959  16.187  2.143028
  6239.111  6239.100  0.500  2.240534  151.972  16.17  2.124128
  6240.210  6240.200  0.500  2.241689  151.979  16.1521  2.105832
  6241.331  6241.320  0.500  2.243814  151.984  16.1184  2.086053
  6242.468  6242.460  0.500  2.245866  151.979  16.0848  2.068182
  6243.623  6243.610  0.500  2.247053  151.994  16.0673  2.055492
  6244.790  6244.790  0.500  2.248550  151.988  16.0426  2.045024
  6245.990  6245.980  0.500  2.249827  151.982  16.0215  2.040053
  6247.206  6247.200  0.500  2.250237  151.99  16.0159  2.041614
  6248.440  6248.430  0.500  2.249651  152.006  16.0269  2.049573
  6249.690  6249.680  0.500  2.248459  152.012  16.0466  2.061232
  6250.953  6250.950  0.500  2.245869  152.021  16.0892  2.078860
  6252.251  6252.240  0.500  2.242621  152.017  16.1411  2.099580
  6253.554  6253.550  0.500  2.238251  152.017  16.2118  2.123713
  6254.890  6254.880  0.500  2.234031  152.017  16.2804  2.149502
  6256.237  6256.230  0.500  2.229609  152.03  16.354  2.177796
  6257.612  6257.600  0.500  2.225703  152.03  16.418  2.204868
  6258.990  6258.980  0.500  2.221429  152.038  16.4891  2.229909
  6260.399  6260.390  0.500  2.217268  152.023  16.5562  2.252400
  6261.818  6261.810  0.500  2.214185  152.017  16.6067  2.269323
  6263.258  6263.250  0.500  2.211649  152.033  16.6507  2.282844
  6264.719  6264.710  0.500  2.208583  152.05  16.7036  2.293644
  6266.200  6266.190  0.500  2.206164  152.065  16.7458  2.302340
  6267.700  6267.690  0.500  2.204411  152.083  16.7771  2.308563
  6269.222  6269.210  0.500  2.202483  152.096  16.8109  2.315158
  6270.762  6270.750  0.500  2.200712  152.086  16.8396  2.320748
  6272.324  6272.310  0.500  2.199072  152.09  16.8677  2.324486
  6273.889  6273.880  0.500  2.197697  152.092  16.8912  2.326272
  6275.497  6275.480  0.500  2.196204  152.11  16.9184  2.326720
  6277.090  6277.090  0.500  2.195061  152.122  16.939  2.325529
  6278.737  6278.730  0.500  2.194123  152.119  16.9546  2.324340
  6280.389  6280.380  0.500  2.193358  152.114  16.9671  2.322232
  6282.055  6282.050  0.500  2.192861  152.143  16.9788  2.318363
  6283.752  6283.740  0.500  2.191789  152.135  16.996  2.314747
  6285.454  6285.450  0.500  2.190908  152.12  17.0093  2.310534
  6287.188  6287.180  0.500  2.190375  152.119  17.0182  2.307641
  6288.940  6288.930  0.500  2.188434  152.11  17.0503  2.310425
  6290.697  6290.690  0.500  2.186817  152.118  17.0788  2.315464
  6292.490  6292.480  0.500  2.184967  152.12  17.1107  2.324144
  6294.287  6294.280  0.500  2.182638  152.134  17.1521  2.334761
  6296.119  6296.110  0.500  2.180185  152.138  17.1948  2.345665
  6297.958  6297.950  0.500  2.177629  152.123  17.237  2.358092
  6299.818  6299.810  0.500  2.174588  152.13  17.2903  2.372675
  6301.700  6301.690  0.500  2.171821  152.132  17.3384  2.388676
  6303.599  6303.590  0.500  2.168710  152.115  17.3905  2.406024
  6305.518  6305.510  0.500  2.165820  152.116  17.441  2.423024
  6307.455  6307.450  0.500  2.162918  152.11  17.491  2.439019
  6309.423  6309.410  0.500  2.159859  152.12  17.5457  2.456039
  6311.389  6311.380  0.500  2.157239  152.113  17.5909  2.472700
  6313.383  6313.380  0.500  2.154723  152.118  17.6359  2.486247
  6315.400  6315.390  0.500  2.152195  152.111  17.6797  2.498004
  6317.431  6317.420  0.500  2.149647  152.094  17.7227  2.507852
  6319.486  6319.480  0.500  2.147167  152.084  17.7656  2.515984
  6321.557  6321.550  0.500  2.145240  152.049  17.7958  2.522954
  6323.648  6323.640  0.500  2.142979  152.048  17.8359  2.530515
  6325.761  6325.750  0.500  2.140440  152.041  17.8805  2.539131
  6327.889  6327.880  0.500  2.138717  152.032  17.9102  2.546497
  6330.030  6330.020  0.500  2.136364  152.019  17.951  2.555248
  6332.198  6332.190  0.500  2.133703  152.009  17.9976  2.565518
  6334.390  6334.380  0.500  2.131095  152.009  18.0445  2.575099
  6336.589  6336.580  0.500  2.128751  151.989  18.0845  2.583779
  6338.809  6338.800  0.500  2.126258  151.978  18.1284  2.592825
  6341.059  6341.050  0.500  2.123682  151.966  18.1737  2.601388
  6343.314  6343.310  0.500  2.120933  151.943  18.2209  2.611846
  6345.598  6345.590  0.500  2.118117  151.933  18.2711  2.621385
  6347.901  6347.890  0.500  2.115402  151.92  18.3193  2.628827
  6350.222  6350.210  0.500  2.112235  151.9  18.375  2.637314
  6352.562  6352.550  0.500  2.109615  151.875  18.4201  2.643936
  6354.907  6354.900  0.500  2.106793  151.88  18.4727  2.653598
  6357.286  6357.280  0.500  2.103627  151.858  18.5287  2.665023
  6359.677  6359.670  0.500  2.100536  151.838  18.5835  2.679211
  6362.099  6362.090  0.500  2.097991  151.831  18.63  2.693590
  6364.528  6364.520  0.500  2.095006  151.815  18.6839  2.709241
  6366.981  6366.970  0.500  2.092219  151.779  18.7315  2.724624
  6369.460  6369.450  0.500  2.089961  152.361  18.8458  2.750988
  6371.948  6371.940  0.500  2.087500  152.357  18.8918  2.767529
  6374.458  6374.450  0.500  2.084682  152.331  18.9419  2.785082
  6376.977  6376.970  0.500  2.082268  152.323  18.9867  2.801640
  6379.528  6379.520  0.500  2.079966  152.302  19.0278  2.815545
  6382.095  6382.090  0.500  2.077142  152.276  19.0783  2.829326
  6384.674  6384.670  0.500  2.073754  152.241  19.1386  2.844430
  6387.285  6387.280  0.500  2.070561  152.223  19.1977  2.858684
  6389.908  6389.900  0.500  2.067507  152.188  19.252  2.871455
  6392.555  6392.550  0.500  2.063930  152.151  19.3162  2.885424
  6395.221  6395.210  0.500  2.060524  152.123  19.3785  2.898375
  6397.899  6397.890  0.500  2.056802  152.088  19.4463  2.913319
  6400.601  6400.590  0.500  2.053641  152.067  19.5051  2.926920
  6403.319  6403.310  0.500  2.049874  152.021  19.5729  2.941572
  6406.058  6406.050  0.500  2.046435  151.995  19.637  2.957618
  6408.809  6408.800  0.500  2.042992  151.974  19.702  2.974622
  6411.588  6411.580  0.500  2.039819  151.957  19.7623  2.990003
  6414.377  6414.370  0.500  2.036636  151.948  19.8241  3.005920
  6417.196  6417.190  0.500  2.033837  151.891  19.8722  3.019661
  6420.024  6420.020  0.500  2.030805  151.86  19.9286  3.034870
  6422.877  6422.870  0.500  2.027793  151.799  19.9806  3.049509
  6425.758  6425.750  0.500  2.024802  151.75  20.034  3.063839
  6428.648  6428.640  0.500  2.021976  151.677  20.081  3.077530
  6431.558  6431.550  0.500  2.018948  151.594  20.1309  3.092105
  6434.478  6434.470  0.500  2.015769  151.507  20.1835  3.105604
  6437.425  6437.420  0.500  2.012610  151.458  20.2408  3.120227
  6440.395  6440.390  0.500  2.009624  151.434  20.2981  3.134550
  6443.378  6443.370  0.500  2.006381  151.399  20.3593  3.150012
  6446.389  6446.380  0.500  2.003018  151.335  20.4192  3.165915
  6449.407  6449.400  0.500  1.999888  149.927  20.2926  3.151767
  6452.460  6452.450  0.500  1.995975  151.173  20.5416  3.199000
  6455.517  6455.510  0.500  1.992687  151.175  20.6095  3.218789
  6458.596  6458.590  0.500  1.989191  148.52  20.3185  3.182381
  6461.702  6461.690  0.500  1.985298  150.975  20.7349  3.259087
  6464.815  6464.810  0.500  1.981665  148.428  20.4592  3.226482
  6467.955  6467.950  0.500  1.978757  150.791  20.8455  3.296357
  6471.109  6471.100  0.500  1.975405  150.785  20.9147  3.316916
  6474.285  6474.280  0.500  1.971755  148.893  20.7277  3.296082
  6477.477  6477.470  0.500  1.968275  150.596  21.0379  3.353546
  6480.697  6480.690  0.500  1.964568  150.579  21.1137  3.373735
  6483.927  6483.920  0.500  1.960968  150.522  21.1817  3.392591
  6487.180  6487.170  0.500  1.957107  150.463  21.2554  3.410166
  6490.460  6490.450  0.500  1.953602  150.395  21.3204  3.427297
  6493.741  6493.740  0.500  1.950410  150.327  21.3789  3.443304
  6497.060  6497.050  0.500  1.946568  150.239  21.4486  3.460969
  6500.385  6500.370  0.500  1.942702  150.178  21.523  3.481191
  6503.730  6503.720  0.500  1.939115  150.117  21.5915  3.501062
  6507.101  6507.090  0.500  1.935586  150.032  21.6556  3.521242
  6510.482  6510.470  0.500  1.931998  149.955  21.7222  3.541339
  6513.893  6513.880  0.500  1.928011  149.868  21.7964  3.563812
  6517.326  6517.300  0.500  1.924442  149.786  21.8623  3.584779
  6520.765  6520.750  0.500  1.921365  149.722  21.9203  3.604020
  6524.240  6524.210  0.500  1.917868  149.612  21.9809  3.623607
  6527.684  6527.690  0.500  1.913891  149.476  22.0484  3.644584
  6531.190  6531.190  0.500  1.909889  149.403  22.1261  3.666793
  6534.734  6534.710  0.500  1.905928  149.269  22.194  3.686917
  6538.260  6538.250  0.500  1.902216  149.184  22.2639  3.708030
  6541.810  6541.800  0.500  1.898955  149.073  22.3199  3.726862
  6545.404  6545.380  0.500  1.895113  148.945  22.3866  3.747359
  6548.997  6548.980  0.500  1.891285  148.82  22.4536  3.767617
  6552.617  6552.590  0.500  1.887445  148.694  22.5209  3.788707
  6556.234  6556.220  0.500  1.883691  148.582  22.5887  3.809238
  6559.895  6559.880  0.500  1.879590  148.449  22.6612  3.832013
  6563.575  6563.550  0.500  1.875921  148.341  22.7279  3.855224
  6567.238  6567.240  0.500  1.872189  148.231  22.7959  3.878406
  6570.963  6570.950  0.500  1.868538  148.11  22.8606  3.902251
  6574.674  6574.680  0.500  1.864539  148.008  22.9365  3.926964
  6578.434  6578.420  0.500  1.860526  147.931  23.0167  3.953666
  6582.187  6582.190  0.500  1.856243  147.788  23.0932  3.977619
  6586.006  6585.980  0.500  1.852430  147.452  23.1287  3.994524
  6589.788  6589.780  0.500  1.848374  147.518  23.2331  4.023209
  6593.593  6593.610  0.500  1.844775  147.403  23.2986  4.044831
  6597.434  6597.450  0.500  1.840993  147.277  23.3669  4.068134
  6601.320  6601.310  0.500  1.836674  147.155  23.4486  4.093792
  6605.209  6605.190  0.500  1.832503  147.001  23.5219  4.119036
  6609.100  6609.090  0.500  1.828365  146.919  23.6064  4.144942
  6613.023  6613.010  0.500  1.824576  146.802  23.6771  4.167707
  6616.965  6616.950  0.500  1.820534  146.666  23.7509  4.191884
  6620.921  6620.910  0.500  1.816064  146.5  23.8303  4.217348
  6624.895  6624.880  0.500  1.812456  146.396  23.8995  4.241201
  6628.896  6628.880  0.500  1.808248  146.202  23.9684  4.266353
  6632.881  6632.890  0.500  1.804224  146.147  24.0561  4.294337
  6636.929  6636.930  0.500  1.800127  146.04  24.1372  4.322704
  6640.966  6640.980  0.500  1.795775  145.889  24.2173  4.350744
  6645.034  6645.050  0.500  1.791462  145.767  24.3017  4.379758
  6649.121  6649.140  0.500  1.787533  145.643  24.3766  4.406450
  6653.265  6653.250  0.500  1.783520  145.525  24.4549  4.434420
  6657.370  6657.380  0.500  1.779412  145.393  24.5333  4.461261
  6661.515  6661.530  0.500  1.775391  145.256  24.6089  4.488207
  6665.675  6665.690  0.500  1.771265  145.125  24.6884  4.516376
  6669.865  6669.880  0.500  1.767320  144.987  24.7624  4.543035
  6674.066  6674.080  0.500  1.763366  144.861  24.8389  4.570567
  6678.298  6678.310  0.500  1.759257  144.703  24.9139  4.598819
  6682.542  6682.550  0.500  1.755029  144.577  24.9977  4.628836
  6686.794  6686.810  0.500  1.750602  144.462  25.0887  4.659923
  6691.074  6691.090  0.500  1.746391  144.333  25.172  4.689364
  6695.387  6695.390  0.500  1.742226  144.165  25.2475  4.717309
  6699.693  6699.710  0.500  1.737974  144.009  25.3277  4.744936