File: xdidata/Tb/Tb-L1-Tb2TiO5.xdi
# XDI/1.0 BlueSky/1.10.0 BMM/2023-1.0-py310-tiled
# Beamline.name: BMM (06BM) -- Beamline for Materials Measurement (NIST)
# Beamline.xray_source: NSLS-II three-pole wiggler
# Beamline.collimation: paraboloid mirror, 5 nm Rh on 30 nm Pt
# Beamline.focusing: not in use
# Beamline.harmonic_rejection: flat mirror, Pt stripe, pitch = 7.0 mrad relative to beam
# Beamline.software: Bluesky 1.10.0, Ophyd 1.7.0, DataBroker 2.0.0b13, Python 3.10.8, 2023-1.0-py310-tiled
# Detector.I0: 10 cm N2
# Detector.I1: 25 cm N2
# Detector.I2: 25 cm N2
# Element.symbol: Tb
# Element.edge: L1
# Element.reference: Tb
# Element.reference_material: Tb4O9
# Facility.name: NSLS-II
# Facility.energy: 3.0
# Facility.current: 399.8
# Facility.mode: top-off
# Facility.GUP: 123456
# Facility.SAF: 301027
# Facility.cycle: 2023-2
# Mono.name: Si(111)
# Mono.d_spacing: 3.13519
# Mono.encoder_resolution: 0.0000050 deg/ct
# Mono.angle_offset: 16.0754 deg
# Mono.scan_mode: pseudo channel cut
# Mono.scan_type: step
# Mono.direction: forward in energy
# Sample.name: Tb2TiO5
# Sample.prep: Powder in PEG pellet
# Sample.x: 149.848 mm
# Sample.y: 114.690 mm
# Sample.SDD_position: 205.000 mm
# Scan.experimenters: Bruce Ravel
# Scan.edge_energy: 8708.0
# Scan.start_time: 2023-05-08T21:59:42
# Scan.end_time: 2023-05-08T22:05:28
# Scan.transient_id: 75654
# Scan.uid: a39cba29-b299-4d78-a8a5-86106ce93a7a
# Scan.plot_hint: ln(I0/It)  --  ln($5/$6)
# Column.1: energy eV
# Column.2: requested_energy eV
# Column.3: measurement_time seconds
# Column.4: xmu
# Column.5: I0 nA
# Column.6: It nA
# Column.7: Ir nA
# ///////////
# sample courtesy Martin Stennett, University of Sheffield
# -----------
# energy  requested_energy  measurement_time  xmu  I0  It  Ir
  8508.032  8508.000  0.500  0.979068  128.539  48.2872  10.6115
  8518.093  8518.000  0.500  0.973736  128.319  48.4621  10.6976
  8528.081  8528.000  0.500  0.969175  127.336  48.3108  10.7117
  8538.063  8538.000  0.500  0.965192  127.846  48.6979  10.8393
  8548.040  8548.000  0.500  0.960728  127.697  48.8588  10.9138
  8558.029  8558.000  0.500  0.955477  127.494  49.038  10.9925
  8568.051  8568.000  0.500  0.950202  127.263  49.208  11.0781
  8578.028  8578.000  0.500  0.945575  126.999  49.3334  11.1561
  8588.026  8588.000  0.500  0.941566  126.481  49.3295  11.203
  8598.022  8598.000  0.500  0.937925  126.325  49.4484  11.2747
  8607.989  8608.000  0.500  0.934019  125.841  49.4517  11.3184
  8618.004  8618.000  0.500  0.929056  88.9046  35.1108  8.068668
  8627.999  8628.000  0.500  0.924592  126.68  50.2533  11.5899
  8637.998  8638.000  0.500  0.919619  126.012  50.2372  11.6301
  8647.995  8648.000  0.500  0.915064  125.878  50.4129  11.7173
  8658.000  8658.000  0.500  0.911038  125.764  50.5707  11.7954
  8668.004  8668.000  0.500  0.907378  125.532  50.6624  11.8612
  8678.008  8678.000  0.500  0.903580  125.292  50.758  11.9198
  8679.986  8680.000  0.500  0.902691  125.237  50.7807  11.9341
  8681.987  8682.000  0.500  0.901843  125.187  50.8035  11.9461
  8683.980  8684.000  0.500  0.901270  125.133  50.8109  11.9561
  8685.980  8686.000  0.500  0.900226  125.076  50.8404  11.9688
  8687.977  8688.000  0.500  0.899684  125.028  50.8486  11.9794
  8689.983  8690.000  0.500  0.898818  124.977  50.8717  11.991
  8691.982  8692.000  0.500  0.898164  124.924  50.8835  11.9995
  8693.986  8694.000  0.500  0.897490  124.853  50.8889  12.0061
  8695.978  8696.000  0.500  0.897020  124.788  50.8865  12.0094
  8697.987  8698.000  0.500  0.896674  124.725  50.8784  12.0138
  8698.478  8698.500  0.500  0.896558  124.693  50.8713  12.0125
  8698.975  8699.000  0.500  0.896437  124.666  50.8663  12.0105
  8699.473  8699.500  0.500  0.896212  124.646  50.8694  12.0114
  8699.974  8700.000  0.500  0.896234  124.619  50.8574  12.0101
  8700.478  8700.500  0.500  0.896148  124.573  50.8429  12.0056
  8700.979  8701.000  0.500  0.896193  124.551  50.832  12.0051
  8701.480  8701.500  0.500  0.896210  124.506  50.8127  11.9986
  8701.975  8702.000  0.500  0.896208  124.456  50.7923  11.9911
  8702.476  8702.500  0.500  0.896284  124.419  50.7731  11.9863
  8702.974  8703.000  0.500  0.896303  124.35  50.7443  11.9784
  8703.479  8703.500  0.500  0.896457  124.277  50.7065  11.9697
  8703.977  8704.000  0.500  0.896581  124.171  50.6569  11.9555
  8704.479  8704.500  0.500  0.896737  124.041  50.5962  11.9379
  8704.983  8705.000  0.500  0.896726  123.833  50.5118  11.9151
  8705.485  8705.500  0.500  0.897011  123.485  50.3554  11.8756
  8705.983  8706.000  0.500  0.897277  122.83  50.0752  11.8069
  8706.488  8706.500  0.500  0.897694  121.177  49.3808  11.6422
  8706.990  8707.000  0.500  0.898126  116.728  47.5469  11.2123
  8707.489  8707.500  0.500  0.898735  110.927  45.1566  10.644
  8707.984  8708.000  0.500  0.899662  108.691  44.2054  10.406
  8708.489  8708.500  0.500  0.900895  110.824  45.0173  10.587
  8708.991  8709.000  0.500  0.902168  116.036  47.0747  11.0562
  8709.490  8709.500  0.500  0.903657  121.165  49.0821  11.5187
  8709.989  8710.000  0.500  0.905554  123.374  49.8822  11.6959
  8710.481  8710.500  0.500  0.907191  124.11  50.0978  11.7349
  8710.987  8711.000  0.500  0.908994  124.428  50.1355  11.7273
  8711.499  8711.500  0.500  0.910563  124.578  50.1176  11.7064
  8711.995  8712.000  0.500  0.911999  124.667  50.0814  11.6788
  8712.494  8712.500  0.500  0.913508  124.709  50.0226  11.6464
  8712.990  8713.000  0.500  0.914976  124.749  49.9654  11.6131
  8713.492  8713.500  0.500  0.916407  124.769  49.9016  11.5806
  8713.992  8714.000  0.500  0.917860  124.777  49.8327  11.5459
  8714.491  8714.500  0.500  0.919244  124.769  49.7603  11.5124
  8714.997  8715.000  0.500  0.920835  124.77  49.6816  11.4766
  8715.497  8715.500  0.500  0.922494  124.759  49.5951  11.4383
  8716.000  8716.000  0.500  0.924381  124.758  49.5012  11.3984
  8716.496  8716.500  0.500  0.926458  124.749  49.395  11.3528
  8716.999  8717.000  0.500  0.928687  124.735  49.2794  11.3052
  8717.495  8717.500  0.500  0.930924  124.728  49.1666  11.2546
  8717.998  8718.000  0.500  0.933598  124.715  49.0299  11.1985
  8718.488  8718.500  0.500  0.936442  124.704  48.8864  11.1388
  8718.988  8719.000  0.500  0.939537  124.691  48.7302  11.068
  8719.485  8719.500  0.500  0.942803  124.677  48.5662  10.9932
  8720.002  8720.000  0.500  0.946412  124.668  48.3875  10.9128
  8720.505  8720.500  0.500  0.949853  124.657  48.2172  10.8343
  8721.012  8721.000  0.500  0.953065  124.639  48.0556  10.7563
  8721.502  8721.500  0.500  0.956098  124.626  47.9052  10.684
  8721.999  8722.000  0.500  0.958956  124.615  47.764  10.6139
  8722.496  8722.500  0.500  0.961368  124.606  47.6455  10.5495
  8722.993  8723.000  0.500  0.963204  124.584  47.5497  10.495
  8723.497  8723.500  0.500  0.964527  124.575  47.4833  10.4524
  8723.997  8724.000  0.500  0.965354  124.566  47.4408  10.4179
  8724.498  8724.500  0.500  0.965743  124.547  47.4151  10.3942
  8724.999  8725.000  0.500  0.965796  124.533  47.4074  10.3764
  8725.509  8725.500  0.500  0.965540  124.518  47.4136  10.3663
  8726.003  8726.000  0.500  0.965194  124.501  47.4237  10.357
  8726.504  8726.500  0.500  0.964763  124.487  47.4386  10.3523
  8726.999  8727.000  0.500  0.964614  124.476  47.4417  10.3455
  8727.490  8727.500  0.500  0.964084  124.451  47.4573  10.3396
  8727.994  8728.000  0.500  0.963619  124.443  47.4761  10.3351
  8728.492  8728.500  0.500  0.963351  124.431  47.4844  10.3253
  8728.999  8729.000  0.500  0.963127  124.425  47.4927  10.3147
  8729.500  8729.500  0.500  0.962948  124.412  47.4963  10.3022
  8730.008  8730.000  0.500  0.962698  124.391  47.5  10.2877
  8730.500  8730.500  0.500  0.962668  124.379  47.4969  10.2713
  8731.004  8731.000  0.500  0.962429  124.364  47.5026  10.2553
  8731.502  8731.500  0.500  0.962149  124.351  47.5108  10.2402
  8731.994  8732.000  0.500  0.961660  124.341  47.5303  10.2261
  8732.492  8732.500  0.500  0.961210  124.322  47.5445  10.2105
  8732.994  8733.000  0.500  0.960500  124.313  47.5746  10.2
  8733.997  8733.990  0.500  0.959169  124.287  47.6283  10.1861
  8734.998  8734.990  0.500  0.957438  124.257  47.6993  10.1914
  8736.024  8736.010  0.500  0.955264  124.226  47.7911  10.2124
  8737.071  8737.060  0.500  0.952599  124.201  47.9091  10.2491
  8738.125  8738.120  0.500  0.949716  124.178  48.0383  10.2905
  8739.214  8739.200  0.500  0.946344  124.154  48.1913  10.3375
  8740.311  8740.300  0.500  0.943115  124.124  48.3355  10.3823
  8741.428  8741.420  0.500  0.940115  124.098  48.4706  10.4232
  8742.558  8742.560  0.500  0.937463  124.062  48.5853  10.4687
  8743.715  8743.710  0.500  0.935249  124.035  48.6821  10.5135
  8744.905  8744.890  0.500  0.933539  124.005  48.7536  10.5554
  8746.092  8746.080  0.500  0.932101  123.974  48.8119  10.5972
  8747.302  8747.300  0.500  0.930846  123.943  48.8609  10.6349
  8748.529  8748.530  0.500  0.930058  123.918  48.8893  10.6674
  8749.790  8749.780  0.500  0.929720  123.887  48.8937  10.6963
  8751.061  8751.050  0.500  0.929543  123.853  48.889  10.7245
  8752.338  8752.340  0.500  0.929692  123.824  48.8702  10.7469
  8753.662  8753.650  0.500  0.929920  123.795  48.8477  10.767
  8754.984  8754.980  0.500  0.930269  123.765  48.8188  10.7798
  8756.328  8756.330  0.500  0.930653  123.73  48.7861  10.7853
  8757.713  8757.700  0.500  0.931014  123.692  48.7538  10.7871
  8759.082  8759.080  0.500  0.931211  123.656  48.7298  10.7839
  8760.497  8760.490  0.500  0.931261  123.629  48.7168  10.7873
  8761.913  8761.910  0.500  0.931400  123.583  48.692  10.785
  8763.356  8763.350  0.500  0.931493  123.546  48.6729  10.7839
  8764.819  8764.810  0.500  0.931523  123.513  48.6582  10.7829
  8766.289  8766.290  0.500  0.931696  123.471  48.6334  10.7769
  8767.806  8767.790  0.500  0.932203  123.44  48.5967  10.7686
  8769.320  8769.310  0.500  0.932584  123.4  48.5624  10.7589
  8770.854  8770.850  0.500  0.932961  123.362  48.5292  10.75
  8772.423  8772.410  0.500  0.933337  123.326  48.4968  10.7423
  8773.988  8773.980  0.500  0.933407  123.286  48.4774  10.7377
  8775.581  8775.580  0.500  0.933089  123.249  48.4785  10.7385
  8777.193  8777.190  0.500  0.932521  123.201  48.4871  10.7388
  8778.847  8778.830  0.500  0.931555  123.158  48.5168  10.7463
  8780.481  8780.480  0.500  0.930356  123.115  48.5583  10.7546
  8782.152  8782.150  0.500  0.929079  123.069  48.6022  10.7636
  8783.850  8783.840  0.500  0.927701  123.026  48.652  10.7738
  8785.550  8785.550  0.500  0.926165  122.968  48.7038  10.7862
  8787.292  8787.280  0.500  0.924900  122.925  48.7486  10.7978
  8789.036  8789.030  0.500  0.923573  122.877  48.7941  10.8111
  8790.797  8790.790  0.500  0.922193  122.835  48.8447  10.8264
  8792.589  8792.580  0.500  0.920717  122.778  48.8944  10.8401
  8794.398  8794.380  0.500  0.919355  122.728  48.9412  10.8578
  8796.227  8796.210  0.500  0.917807  122.677  48.9963  10.8744
  8798.071  8798.050  0.500  0.916523  122.637  49.0436  10.8965
  8799.929  8799.910  0.500  0.915250  122.599  49.0908  10.9175
  8801.801  8801.790  0.500  0.914346  122.556  49.1179  10.9371
  8803.707  8803.690  0.500  0.913614  122.512  49.136  10.9555
  8805.614  8805.610  0.500  0.912831  122.463  49.1549  10.9748
  8807.559  8807.550  0.500  0.912161  122.416  49.169  10.9907
  8809.521  8809.510  0.500  0.911485  122.367  49.1825  11.0062
  8811.491  8811.480  0.500  0.910737  122.313  49.1976  11.0241
  8813.498  8813.480  0.500  0.909799  122.265  49.2246  11.0457
  8815.493  8815.490  0.500  0.908964  122.217  49.2463  11.0659
  8817.536  8817.520  0.500  0.907698  122.168  49.2891  11.0924
  8819.593  8819.580  0.500  0.906566  122.118  49.3246  11.1153
  8821.657  8821.650  0.500  0.905731  122.076  49.3488  11.1366
  8823.757  8823.740  0.500  0.904788  122.029  49.3763  11.1562
  8825.860  8825.850  0.500  0.904086  121.973  49.3885  11.1724
  8827.995  8827.980  0.500  0.903711  121.915  49.3835  11.1827
  8830.141  8830.120  0.500  0.903185  121.872  49.3917  11.1946
  8832.305  8832.290  0.500  0.902541  121.814  49.4002  11.2064
  8834.496  8834.480  0.500  0.902194  121.769  49.3992  11.2131
  8836.703  8836.680  0.500  0.901625  121.715  49.4055  11.22
  8838.910  8838.900  0.500  0.901098  121.664  49.4104  11.2248
  8841.172  8841.150  0.500  0.900594  121.604  49.4111  11.2313
  8843.426  8843.410  0.500  0.900014  121.547  49.4165  11.2378
  8845.711  8845.690  0.500  0.899090  121.49  49.4391  11.2467
  8847.993  8847.990  0.500  0.898071  121.436  49.4675  11.2582
  8850.328  8850.310  0.500  0.896786  121.389  49.5119  11.2749
  8852.664  8852.650  0.500  0.895424  121.319  49.551  11.2926
  8855.017  8855.000  0.500  0.894226  121.273  49.5915  11.3138
  8857.403  8857.380  0.500  0.892600  121.211  49.6468  11.3376
  8859.786  8859.770  0.500  0.891310  121.152  49.6866  11.3603
  8862.212  8862.190  0.500  0.889787  121.091  49.7375  11.3837
  8864.632  8864.620  0.500  0.888530  121.026  49.7733  11.4052
  8867.094  8867.070  0.500  0.887411  120.968  49.8051  11.4266
  8869.557  8869.550  0.500  0.886300  120.904  49.8341  11.4458
  8872.066  8872.040  0.500  0.885219  120.851  49.8661  11.4649
  8874.559  8874.550  0.500  0.884088  120.787  49.8959  11.483
  8877.098  8877.070  0.500  0.882889  120.725  49.9303  11.5001
  8879.641  8879.620  0.500  0.881803  120.653  49.9546  11.517
  8882.214  8882.190  0.500  0.880675  120.597  49.9876  11.5312
  8884.791  8884.770  0.500  0.879632  120.532  50.0129  11.5475
  8887.403  8887.380  0.500  0.878447  120.471  50.0471  11.5637
  8890.021  8890.000  0.500  0.877401  120.404  50.0715  11.5824
  8892.674  8892.650  0.500  0.876204  120.348  50.1082  11.6024
  8895.340  8895.310  0.500  0.875065  120.275  50.1346  11.6207
  8898.006  8897.990  0.500  0.874161  120.207  50.1519  11.6381
  8900.716  8900.690  0.500  0.873004  120.136  50.18  11.6593
  8903.434  8903.410  0.500  0.871848  120.068  50.2097  11.6817
  8906.170  8906.150  0.500  0.870815  119.972  50.2215  11.7007
  8908.922  8908.900  0.500  0.869734  119.79  50.1995  11.7119
  8911.703  8911.680  0.500  0.868528  119.501  50.139  11.7119
  8914.490  8914.470  0.500  0.867425  119.791  50.3161  11.7688
  8917.305  8917.290  0.500  0.866485  118.149  49.6729  11.6349
  8920.143  8920.120  0.500  0.865663  119.71  50.3708  11.8097
  8922.986  8922.970  0.500  0.864571  118.493  49.9129  11.7156
  8925.872  8925.850  0.500  0.863503  119.603  50.4345  11.8496
  8928.774  8928.740  0.500  0.862433  119.435  50.4176  11.8568
  8931.671  8931.650  0.500  0.861230  118.058  49.8963  11.7432
  8934.580  8934.570  0.500  0.859880  119.418  50.5391  11.9056
  8937.543  8937.520  0.500  0.858705  119.315  50.555  11.9225
  8940.497  8940.490  0.500  0.857380  119.263  50.6  11.9433
  8943.498  8943.470  0.500  0.855996  119.171  50.6308  11.9625
  8946.501  8946.480  0.500  0.854568  119.107  50.6759  11.9854
  8949.527  8949.500  0.500  0.853017  119.023  50.7189  12.0066
  8952.569  8952.550  0.500  0.851510  118.666  50.643  12.004
  8955.633  8955.610  0.500  0.850021  118.85  50.7972  12.0557
  8958.700  8958.690  0.500  0.848565  118.793  50.8467  12.0825
  8961.811  8961.790  0.500  0.847490  118.719  50.8698  12.1043
  8964.934  8964.910  0.500  0.846369  118.427  50.8017  12.1021
  8968.076  8968.050  0.500  0.845375  118.547  50.9036  12.1425
  8971.228  8971.200  0.500  0.843983  118.469  50.9409  12.1672
  8974.399  8974.380  0.500  0.842707  118.376  50.9661  12.1859
  8977.594  8977.570  0.500  0.841613  118.289  50.9841  12.2053
  8980.808  8980.790  0.500  0.840482  118.197  51.0024  12.2254
  8984.045  8984.020  0.500  0.839215  118.073  51.0135  12.2408
  8987.292  8987.270  0.500  0.837821  117.98  51.0444  12.2615
  8990.569  8990.550  0.500  0.836377  117.856  51.0641  12.2823
  8993.862  8993.840  0.500  0.834751  115.672  50.1998  12.0907
  8997.175  8997.150  0.500  0.833344  117.757  51.1765  12.3393
  9000.498  9000.470  0.500  0.831922  117.591  51.1772  12.3559
  9003.837  9003.820  0.500  0.830425  116.016  50.567  12.2218
  9007.218  9007.190  0.500  0.828992  117.626  51.3424  12.4286
  9010.586  9010.570  0.500  0.827407  115.775  50.6147  12.2707
  9013.996  9013.980  0.500  0.826128  117.595  51.4761  12.4963
  9017.423  9017.400  0.500  0.824875  117.475  51.4879  12.5182
  9020.866  9020.850  0.500  0.823540  115.188  50.5532  12.3073
  9024.340  9024.310  0.500  0.822106  117.393  51.5946  12.5774
  9027.799  9027.790  0.500  0.820876  117.299  51.617  12.6002
  9031.310  9031.290  0.500  0.819613  117.206  51.6411  12.623
  9034.834  9034.810  0.500  0.818392  117.116  51.6645  12.6451
  9038.365  9038.350  0.500  0.817046  117.015  51.6897  12.6667
  9041.930  9041.900  0.500  0.815642  115.607  51.1395  12.5478
  9045.491  9045.480  0.500  0.814262  116.797  51.7371  12.7092
  9049.091  9049.080  0.500  0.812916  116.717  51.7712  12.7347
  9052.714  9052.690  0.500  0.811454  116.637  51.8116  12.7609
  9056.337  9056.320  0.500  0.809950  116.551  51.8512  12.7877
  9060.001  9059.980  0.500  0.808345  116.456  51.892  12.8124
  9063.673  9063.650  0.500  0.806718  115.084  51.3646  12.6987
  9067.361  9067.340  0.500  0.805081  116.224  51.958  12.8655
  9071.070  9071.050  0.500  0.803526  116.154  52.0076  12.8949
  9074.808  9074.780  0.500  0.801899  116.056  52.0484  12.9233
  9078.534  9078.520  0.500  0.800458  115.962  52.081  12.9513
  9082.323  9082.290  0.500  0.798814  115.239  51.8418  12.9085
  9086.095  9086.080  0.500  0.797374  115.716  52.1315  12.9999
  9089.895  9089.880  0.500  0.795782  115.636  52.1781  13.0276
  9093.726  9093.710  0.500  0.794313  115.545  52.2138  13.0539
  9097.565  9097.550  0.500  0.792953  115.435  52.2353  13.0797
  9101.431  9101.410  0.500  0.791532  115.344  52.2683  13.1045
  9105.315  9105.290  0.500  0.790064  115.091  52.2302  13.1121
  9109.207  9109.190  0.500  0.788655  115.124  52.3186  13.1539
  9113.126  9113.110  0.500  0.787199  115.026  52.3506  13.1799
  9117.078  9117.050  0.500  0.785689  114.923  52.3825  13.2067
  9121.016  9121.010  0.500  0.784184  114.823  52.4158  13.2348
  9125.000  9124.980  0.500  0.782711  114.716  52.4442  13.2604
  9129.002  9128.980  0.500  0.780984  114.586  52.4752  13.2885
  9132.993  9132.990  0.500  0.779334  114.468  52.5077  13.3145
  9137.052  9137.030  0.500  0.777698  114.344  52.5369  13.3427
  9141.090  9141.080  0.500  0.776128  114.132  52.5218  13.3582
  9145.164  9145.150  0.500  0.774479  112.318  51.7722  13.1854
  9149.256  9149.240  0.500  0.772842  114.132  52.6948  13.4397
  9153.360  9153.350  0.500  0.771213  113.938  52.6908  13.4601
  9157.492  9157.480  0.500  0.769541  110.191  51.0435  13.0582
  9161.650  9161.630  0.500  0.768111  113.818  52.7988  13.527
  9165.797  9165.790  0.500  0.766468  113.569  52.77  13.5405
  9169.998  9169.980  0.500  0.764920  113.592  52.8625  13.5851
  9174.193  9174.180  0.500  0.763250  113.521  52.9177  13.6207
  9178.421  9178.410  0.500  0.761732  113.295  52.8926  13.6329
  9182.667  9182.650  0.500  0.760390  110.46  51.6385  13.3287
  9186.929  9186.910  0.500  0.758674  113.274  53.0446  13.713
  9191.212  9191.190  0.500  0.757117  113.108  53.0494  13.7377
  9195.511  9195.490  0.500  0.755427  112.953  53.0664  13.7605
  9199.828  9199.810  0.500  0.753726  112.792  53.081  13.7848
  9204.171  9204.150  0.500  0.752020  112.656  53.1075  13.8137
  9208.515  9208.510  0.500  0.750216  112.529  53.1437  13.8412
  9212.907  9212.890  0.500  0.748620  112.404  53.1694  13.8702
  9217.303  9217.280  0.500  0.746937  112.29  53.2048  13.9011
  9221.707  9221.700  0.500  0.745369  112.17  53.2311  13.9301
  9226.167  9226.130  0.500  0.743639  112.047  53.265  13.962
  9230.606  9230.580  0.500  0.741875  111.933  53.305  13.9911
  9235.064  9235.050  0.500  0.740223  111.806  53.3322  14.0187
  9239.563  9239.540  0.500  0.738564  111.686  53.3637  14.0493
  9244.070  9244.050  0.500  0.737005  111.571  53.3919  14.0803
  9248.596  9248.580  0.500  0.735371  111.46  53.4256  14.1098
  9253.156  9253.130  0.500  0.733664  111.336  53.4575  14.1421