File: xdidata/Tb/Tb-L3-Tb2TiO5.xdi
# XDI/1.0 BlueSky/1.10.0 BMM/2023-1.0-py310-tiled
# Beamline.name: BMM (06BM) -- Beamline for Materials Measurement (NIST)
# Beamline.xray_source: NSLS-II three-pole wiggler
# Beamline.collimation: paraboloid mirror, 5 nm Rh on 30 nm Pt
# Beamline.focusing: not in use
# Beamline.harmonic_rejection: flat mirror, Si stripe, pitch = 7.0 mrad relative to beam
# Beamline.software: Bluesky 1.10.0, Ophyd 1.7.0, DataBroker 2.0.0b13, Python 3.10.8, 2023-1.0-py310-tiled
# Detector.I0: 10 cm N2
# Detector.I1: 25 cm N2
# Detector.I2: 25 cm N2
# Element.symbol: Tb
# Element.edge: L3
# Element.reference: Tb
# Element.reference_material: Tb4O9
# Facility.name: NSLS-II
# Facility.energy: 3.0
# Facility.current: 398.9
# Facility.mode: top-off
# Facility.GUP: 123456
# Facility.SAF: 301027
# Facility.cycle: 2023-2
# Mono.name: Si(111)
# Mono.d_spacing: 3.13519
# Mono.encoder_resolution: 0.0000050 deg/ct
# Mono.angle_offset: 16.0754 deg
# Mono.scan_mode: pseudo channel cut
# Mono.scan_type: step
# Mono.direction: forward in energy
# Sample.name: Tb2TiO5
# Sample.prep: Powder in PEG pellet
# Sample.x: 149.848 mm
# Sample.y: 114.690 mm
# Sample.SDD_position: 205.000 mm
# Scan.experimenters: Bruce Ravel
# Scan.edge_energy: 7514.0
# Scan.start_time: 2023-05-08T18:26:01
# Scan.end_time: 2023-05-08T18:31:47
# Scan.transient_id: 75490
# Scan.uid: 0ee3688c-75ae-42e4-a407-a42b1b8c132b
# Scan.plot_hint: ln(I0/It)  --  ln($5/$6)
# Column.1: energy eV
# Column.2: requested_energy eV
# Column.3: measurement_time seconds
# Column.4: xmu
# Column.5: I0 nA
# Column.6: It nA
# Column.7: Ir nA
# ///////////
# sample courtesy Martin Stennett, University of Sheffield
# -----------
# energy  requested_energy  measurement_time  xmu  I0  It  Ir
  7314.009  7314.000  0.500  1.184881  147.149  44.9955  11.1645
  7324.059  7324.000  0.500  1.177497  147.111  45.3173  11.3091
  7334.017  7334.000  0.500  1.170217  147.076  45.6377  11.4516
  7344.039  7344.000  0.500  1.162811  146.913  45.9259  11.5878
  7354.025  7354.000  0.500  1.156050  146.892  46.2309  11.7278
  7364.021  7364.000  0.500  1.148816  146.815  46.5421  11.8725
  7374.013  7374.000  0.500  1.141836  146.749  46.8472  12.0146
  7384.015  7384.000  0.500  1.134913  146.662  47.1446  12.1553
  7394.015  7394.000  0.500  1.127816  146.607  47.4626  12.3038
  7404.012  7404.000  0.500  1.120702  146.539  47.7792  12.4507
  7414.003  7414.000  0.500  1.114174  146.463  48.067  12.5914
  7424.000  7424.000  0.500  1.107233  146.183  48.3094  12.7127
  7434.000  7434.000  0.500  1.100089  146.069  48.6179  12.8576
  7444.000  7444.000  0.500  1.093444  145.823  48.8595  12.986
  7454.001  7454.000  0.500  1.086960  142.617  48.0963  12.8442
  7463.995  7464.000  0.500  1.080631  145.792  49.479  13.2725
  7473.995  7474.000  0.500  1.074999  145.724  49.7353  13.3905
  7484.006  7484.000  0.500  1.070474  145.561  49.905  13.4735
  7485.993  7486.000  0.500  1.069856  145.547  49.931  13.4839
  7487.985  7488.000  0.500  1.069260  145.518  49.951  13.4906
  7489.988  7490.000  0.500  1.069060  145.47  49.9445  13.4883
  7491.990  7492.000  0.500  1.068769  145.451  49.9524  13.4877
  7493.990  7494.000  0.500  1.068857  145.437  49.9432  13.4777
  7495.990  7496.000  0.500  1.069592  145.41  49.8971  13.4535
  7497.992  7498.000  0.500  1.070629  145.391  49.839  13.416
  7499.994  7500.000  0.500  1.072783  145.339  49.7138  13.3531
  7501.992  7502.000  0.500  1.075819  145.311  49.5536  13.2664
  7503.988  7504.000  0.500  1.081011  145.285  49.2881  13.1298
  7504.477  7504.500  0.500  1.082616  145.256  49.1994  13.0828
  7504.981  7505.000  0.500  1.084646  145.257  49.0999  13.033
  7505.482  7505.500  0.500  1.086871  145.25  48.9884  12.978
  7505.981  7506.000  0.500  1.089355  145.239  48.8632  12.9167
  7506.482  7506.500  0.500  1.092441  145.242  48.7138  12.8416
  7506.981  7507.000  0.500  1.096090  145.194  48.5201  12.7503
  7507.480  7507.500  0.500  1.099848  145.186  48.3355  12.6573
  7507.979  7508.000  0.500  1.104597  145.158  48.0972  12.5431
  7508.483  7508.500  0.500  1.110341  145.146  47.8179  12.4097
  7508.985  7509.000  0.500  1.117386  145.137  47.4792  12.2493
  7509.484  7509.500  0.500  1.125672  145.136  47.0871  12.0596
  7509.989  7510.000  0.500  1.135090  145.127  46.6428  11.8467
  7510.493  7510.500  0.500  1.145029  145.125  46.181  11.6228
  7510.985  7511.000  0.500  1.154989  145.108  45.718  11.3931
  7511.487  7511.500  0.500  1.165528  145.085  45.2314  11.1438
  7511.985  7512.000  0.500  1.177183  145.044  44.6946  10.8787
  7512.485  7512.500  0.500  1.191125  145.058  44.08  10.5912
  7512.987  7513.000  0.500  1.209219  145.058  43.2896  10.255
  7513.492  7513.500  0.500  1.232728  145.055  42.2829  9.854434
  7513.992  7514.000  0.500  1.263823  145.051  40.9873  9.355622
  7514.494  7514.500  0.500  1.303548  145.03  39.3853  8.749464
  7514.987  7515.000  0.500  1.351641  145.022  37.5339  8.062418
  7515.490  7515.500  0.500  1.411023  145.004  35.3656  7.276503
  7515.992  7516.000  0.500  1.482094  144.999  32.9381  6.417470
  7516.490  7516.500  0.500  1.560969  144.98  30.4359  5.562274
  7516.993  7517.000  0.500  1.640322  144.954  28.1091  4.788603
  7517.496  7517.500  0.500  1.710417  144.949  26.2054  4.159590
  7517.999  7518.000  0.500  1.768201  144.94  24.7325  3.658750
  7518.497  7518.500  0.500  1.812950  144.949  23.6516  3.266111
  7518.993  7519.000  0.500  1.845262  144.944  22.8988  2.965769
  7519.491  7519.500  0.500  1.865572  144.931  22.4365  2.757016
  7519.992  7520.000  0.500  1.873522  144.915  22.2563  2.638557
  7520.498  7520.500  0.500  1.866617  144.898  22.4079  2.606687
  7520.994  7521.000  0.500  1.844278  144.888  22.9124  2.658050
  7521.500  7521.500  0.500  1.806956  144.872  23.7812  2.785356
  7522.001  7522.000  0.500  1.760803  144.856  24.9017  2.962474
  7522.500  7522.500  0.500  1.709799  144.826  26.1993  3.171741
  7522.994  7523.000  0.500  1.658469  144.816  27.5773  3.392435
  7523.497  7523.500  0.500  1.607850  144.806  29.0072  3.618278
  7523.999  7524.000  0.500  1.561237  144.809  30.3919  3.831700
  7524.498  7524.500  0.500  1.521790  144.801  31.613  4.012114
  7525.004  7525.000  0.500  1.488500  144.789  32.6804  4.156045
  7525.501  7525.500  0.500  1.460437  144.778  33.6081  4.260248
  7525.998  7526.000  0.500  1.436776  144.766  34.4097  4.319833
  7526.495  7526.500  0.500  1.417928  144.755  35.0618  4.331907
  7526.999  7527.000  0.500  1.402270  144.753  35.6148  4.318303
  7527.496  7527.500  0.500  1.389736  144.721  36.0559  4.297410
  7528.003  7528.000  0.500  1.379390  144.698  36.425  4.286850
  7528.502  7528.500  0.500  1.370213  144.683  36.7571  4.300573
  7529.004  7529.000  0.500  1.362623  144.69  37.0389  4.339012
  7529.497  7529.500  0.500  1.356484  144.668  37.2614  4.395291
  7529.999  7530.000  0.500  1.351557  144.671  37.4462  4.476350
  7530.499  7530.500  0.500  1.347463  145.263  37.7538  4.606909
  7531.004  7531.000  0.500  1.344246  145.258  37.874  4.761053
  7531.504  7531.500  0.500  1.341944  145.237  37.9557  4.948063
  7532.004  7532.000  0.500  1.340452  145.226  38.0097  5.158050
  7532.509  7532.500  0.500  1.339872  145.21  38.0274  5.379921
  7533.002  7533.000  0.500  1.339889  145.211  38.0271  5.592419
  7533.502  7533.500  0.500  1.340558  145.189  37.9959  5.784197
  7534.002  7534.000  0.500  1.341978  145.153  37.9325  5.944630
  7534.498  7534.500  0.500  1.343691  145.15  37.867  6.073130
  7534.998  7535.000  0.500  1.345266  145.155  37.8086  6.184405
  7535.504  7535.500  0.500  1.347109  145.135  37.7337  6.273415
  7536.004  7536.000  0.500  1.348638  145.121  37.6725  6.347650
  7536.505  7536.500  0.500  1.349589  145.114  37.6348  6.411282
  7536.998  7537.000  0.500  1.350198  145.113  37.6116  6.461782
  7537.502  7537.500  0.500  1.349916  145.093  37.617  6.510740
  7537.993  7538.000  0.500  1.349030  145.081  37.6473  6.555803
  7538.494  7538.500  0.500  1.348577  145.072  37.662  6.596474
  7539.002  7539.000  0.500  1.347244  145.07  37.7117  6.638536
  7540.002  7539.990  0.500  1.343606  145.049  37.8438  6.722405
  7540.997  7540.990  0.500  1.339980  145.008  37.9704  6.794659
  7542.012  7542.010  0.500  1.337583  145.002  38.0601  6.842952
  7543.069  7543.060  0.500  1.337407  144.973  38.059  6.854173
  7544.125  7544.120  0.500  1.340238  144.967  37.9499  6.823951
  7545.207  7545.200  0.500  1.346109  144.941  37.721  6.757583
  7546.308  7546.300  0.500  1.354377  144.918  37.4044  6.670816
  7547.424  7547.420  0.500  1.364047  144.875  37.0336  6.574852
  7548.574  7548.560  0.500  1.374942  144.872  36.6314  6.475064
  7549.719  7549.710  0.500  1.385501  144.845  36.2399  6.372407
  7550.900  7550.890  0.500  1.396717  144.826  35.831  6.258834
  7552.087  7552.080  0.500  1.407154  144.799  35.4524  6.147039
  7553.307  7553.300  0.500  1.416132  144.771  35.1289  6.040148
  7554.542  7554.530  0.500  1.421161  144.749  34.9472  5.959115
  7555.782  7555.780  0.500  1.421239  144.731  34.9401  5.912112
  7557.061  7557.050  0.500  1.415600  144.679  35.1253  5.909882
  7558.348  7558.340  0.500  1.405853  144.659  35.4643  5.950703
  7559.658  7559.650  0.500  1.394243  144.636  35.8728  6.017925
  7560.987  7560.980  0.500  1.382569  144.619  36.2896  6.095077
  7562.337  7562.330  0.500  1.372120  144.6  36.666  6.166716
  7563.708  7563.700  0.500  1.363854  144.588  36.9673  6.219095
  7565.088  7565.080  0.500  1.357294  144.565  37.2046  6.255641
  7566.495  7566.490  0.500  1.352387  144.534  37.3798  6.284444
  7567.917  7567.910  0.500  1.348600  144.517  37.517  6.313545
  7569.359  7569.350  0.500  1.345598  144.508  37.6276  6.345918
  7570.824  7570.810  0.500  1.343591  144.485  37.697  6.377745
  7572.295  7572.290  0.500  1.341961  144.454  37.7504  6.414617
  7573.800  7573.790  0.500  1.340380  144.437  37.8059  6.453025
  7575.322  7575.310  0.500  1.338485  144.417  37.8722  6.500247
  7576.856  7576.850  0.500  1.336902  144.373  37.9207  6.543029
  7578.419  7578.410  0.500  1.335245  144.338  37.9744  6.585421
  7579.990  7579.980  0.500  1.334057  144.341  38.0204  6.623987
  7581.584  7581.580  0.500  1.333538  144.305  38.0306  6.649956
  7583.201  7583.190  0.500  1.333651  144.286  38.0212  6.666798
  7584.838  7584.830  0.500  1.334200  144.241  37.9887  6.675637
  7586.495  7586.480  0.500  1.335062  144.218  37.9498  6.682931
  7588.161  7588.150  0.500  1.335649  144.179  37.9174  6.687088
  7589.849  7589.840  0.500  1.336409  144.138  37.8777  6.689437
  7591.558  7591.550  0.500  1.337326  144.088  37.8299  6.687147
  7593.287  7593.280  0.500  1.338856  144.058  37.7642  6.680674
  7595.044  7595.030  0.500  1.340293  144.004  37.6958  6.672717
  7596.797  7596.790  0.500  1.342328  143.956  37.6066  6.657549
  7598.596  7598.580  0.500  1.344514  143.883  37.5055  6.635878
  7600.387  7600.380  0.500  1.346126  143.74  37.4078  6.615753
  7602.217  7602.210  0.500  1.347445  142.425  37.0166  6.541529
  7604.069  7604.050  0.500  1.347410  143.337  37.2551  6.580874
  7605.918  7605.910  0.500  1.346779  143.311  37.2719  6.578437
  7607.807  7607.790  0.500  1.345259  143.245  37.3114  6.579644
  7609.692  7609.690  0.500  1.342886  143.128  37.3695  6.584182
  7611.622  7611.610  0.500  1.340198  143.074  37.4559  6.593366
  7613.551  7613.550  0.500  1.337578  143.155  37.5755  6.609790
  7615.526  7615.510  0.500  1.335320  143.195  37.6709  6.620693
  7617.489  7617.480  0.500  1.333297  143.172  37.7411  6.627099
  7619.498  7619.480  0.500  1.331171  143.241  37.8397  6.635909
  7621.505  7621.490  0.500  1.329502  143.369  37.9367  6.645679
  7623.531  7623.520  0.500  1.327705  143.454  38.0275  6.655616
  7625.595  7625.580  0.500  1.325814  143.477  38.1057  6.666343
  7627.663  7627.650  0.500  1.323535  143.483  38.194  6.685942
  7629.749  7629.740  0.500  1.320961  143.456  38.2854  6.711796
  7631.861  7631.850  0.500  1.317989  143.446  38.3966  6.745715
  7633.992  7633.980  0.500  1.314985  143.406  38.5014  6.782776
  7636.134  7636.120  0.500  1.311906  143.371  38.6107  6.821826
  7638.302  7638.290  0.500  1.308894  143.334  38.717  6.863302
  7640.497  7640.480  0.500  1.306269  143.305  38.811  6.904383
  7642.697  7642.680  0.500  1.303789  143.272  38.8986  6.946942
  7644.922  7644.900  0.500  1.301968  143.215  38.954  6.984226
  7647.162  7647.150  0.500  1.300141  143.161  39.0104  7.015273
  7649.434  7649.410  0.500  1.299102  143.137  39.0444  7.043800
  7651.700  7651.690  0.500  1.298569  143.11  39.0579  7.061929
  7654.012  7653.990  0.500  1.298399  143.07  39.0536  7.072916
  7656.316  7656.310  0.500  1.298827  143.027  39.0251  7.074076
  7658.671  7658.650  0.500  1.299593  142.97  38.9798  7.067397
  7661.015  7661.000  0.500  1.300326  142.952  38.9462  7.059377
  7663.393  7663.380  0.500  1.300893  142.896  38.9091  7.050493
  7665.781  7665.770  0.500  1.301088  142.852  38.8894  7.045966
  7668.204  7668.190  0.500  1.300995  142.79  38.8761  7.041455
  7670.632  7670.620  0.500  1.300415  142.779  38.8957  7.043971
  7673.090  7673.070  0.500  1.298751  142.706  38.9404  7.051699
  7675.566  7675.550  0.500  1.296912  142.652  38.9975  7.067855
  7678.062  7678.040  0.500  1.294864  142.598  39.0625  7.090723
  7680.564  7680.550  0.500  1.292738  142.532  39.1276  7.119796
  7683.080  7683.070  0.500  1.290670  142.463  39.1896  7.148199
  7685.637  7685.620  0.500  1.288279  142.325  39.2455  7.172316
  7688.207  7688.190  0.500  1.286069  139.669  38.5983  7.066501
  7690.784  7690.770  0.500  1.283998  142.436  39.4445  7.231566
  7693.394  7693.380  0.500  1.281907  142.35  39.5033  7.249410
  7696.013  7696.000  0.500  1.279892  142.288  39.5657  7.267153
  7698.661  7698.650  0.500  1.277774  142.2  39.6249  7.281496
  7701.321  7701.310  0.500  1.275985  142.126  39.6754  7.292565
  7704.009  7703.990  0.500  1.274107  141.996  39.7136  7.301714
  7706.704  7706.690  0.500  1.272386  138.715  38.8628  7.144393
  7709.423  7709.410  0.500  1.270663  142.064  39.8697  7.331168
  7712.168  7712.150  0.500  1.268835  141.976  39.9178  7.345407
  7714.914  7714.900  0.500  1.266928  141.878  39.9663  7.361210
  7717.700  7717.680  0.500  1.265058  141.767  40.0099  7.381417
  7720.486  7720.470  0.500  1.262616  139.642  39.5066  7.300536
  7723.300  7723.290  0.500  1.260470  141.786  40.1992  7.444141
  7726.136  7726.120  0.500  1.258285  141.7  40.2628  7.474733
  7728.987  7728.970  0.500  1.256053  141.632  40.3333  7.507805
  7731.863  7731.850  0.500  1.254351  141.554  40.3798  7.535046
  7734.754  7734.740  0.500  1.252912  141.469  40.4137  7.560507
  7737.668  7737.650  0.500  1.251908  141.345  40.4188  7.578415
  7740.584  7740.570  0.500  1.251057  138.476  39.632  7.445831
  7743.538  7743.520  0.500  1.249866  141.346  40.5018  7.623078
  7746.504  7746.490  0.500  1.248781  141.274  40.525  7.638379
  7749.486  7749.470  0.500  1.247672  141.185  40.5445  7.651249
  7752.493  7752.480  0.500  1.246469  141.109  40.5713  7.664669
  7755.519  7755.500  0.500  1.245090  141.048  40.6099  7.680296
  7758.569  7758.550  0.500  1.243466  141  40.6619  7.698694
  7761.625  7761.610  0.500  1.241231  140.932  40.7333  7.720633
  7764.701  7764.690  0.500  1.238904  140.868  40.8098  7.743631
  7767.816  7767.790  0.500  1.236280  140.803  40.8979  7.770810
  7770.926  7770.910  0.500  1.233765  140.721  40.9772  7.798429
  7774.064  7774.050  0.500  1.231179  140.634  41.0579  7.824967
  7777.212  7777.200  0.500  1.228765  140.551  41.1328  7.855420
  7780.397  7780.380  0.500  1.226678  140.489  41.2005  7.883300
  7783.587  7783.570  0.500  1.224813  140.411  41.2545  7.908639
  7786.802  7786.790  0.500  1.222984  140.347  41.3113  7.933787
  7790.034  7790.020  0.500  1.221259  140.27  41.3598  7.957168
  7793.289  7793.270  0.500  1.219847  140.188  41.394  7.976789
  7796.568  7796.550  0.500  1.218125  140.11  41.4422  7.998776
  7799.855  7799.840  0.500  1.216435  140.021  41.4859  8.017658
  7803.163  7803.150  0.500  1.214671  139.958  41.5405  8.039786
  7806.484  7806.470  0.500  1.212630  139.879  41.602  8.061907
  7809.839  7809.820  0.500  1.210648  139.793  41.6588  8.083644
  7813.208  7813.190  0.500  1.208244  139.694  41.7296  8.106687
  7816.587  7816.570  0.500  1.205772  139.618  41.81  8.133983
  7819.996  7819.980  0.500  1.203043  139.55  41.904  8.164909
  7823.416  7823.400  0.500  1.200260  139.475  41.9982  8.197695
  7826.867  7826.850  0.500  1.197619  139.391  42.0838  8.230010
  7830.324  7830.310  0.500  1.195054  139.264  42.1533  8.260045
  7833.798  7833.790  0.500  1.192655  139.171  42.2264  8.293978
  7837.295  7837.290  0.500  1.190681  139.131  42.2977  8.327441
  7840.820  7840.810  0.500  1.188540  138.904  42.3193  8.350054
  7844.369  7844.350  0.500  1.186481  138.933  42.4155  8.388077
  7847.908  7847.900  0.500  1.184586  138.776  42.4478  8.410992
  7851.490  7851.480  0.500  1.182910  138.731  42.5051  8.438182
  7855.085  7855.080  0.500  1.181704  138.017  42.3375  8.420236
  7858.698  7858.690  0.500  1.180247  138.521  42.5542  8.477795
  7862.335  7862.320  0.500  1.178587  138.44  42.5999  8.504197
  7865.994  7865.980  0.500  1.176680  138.362  42.6571  8.529524
  7869.667  7869.650  0.500  1.174983  138.253  42.6957  8.551017
  7873.354  7873.340  0.500  1.172795  138.155  42.759  8.577285
  7877.068  7877.050  0.500  1.170268  138.065  42.8393  8.608113
  7880.789  7880.780  0.500  1.167593  137.952  42.9188  8.639380
  7884.532  7884.520  0.500  1.165064  137.864  43.0002  8.671830
  7888.295  7888.290  0.500  1.162326  137.749  43.082  8.704676
  7892.093  7892.080  0.500  1.159519  137.65  43.172  8.742935
  7895.901  7895.880  0.500  1.156925  137.544  43.2508  8.775267
  7899.725  7899.710  0.500  1.154103  136.28  42.9746  8.735681
  7903.559  7903.550  0.500  1.151591  137.281  43.399  8.840223
  7907.423  7907.410  0.500  1.148945  137.194  43.4865  8.875582
  7911.308  7911.290  0.500  1.146586  137.084  43.5544  8.907534
  7915.198  7915.190  0.500  1.144304  136.961  43.6147  8.936042
  7919.125  7919.110  0.500  1.142511  136.846  43.6562  8.963101
  7923.059  7923.050  0.500  1.140447  136.726  43.7079  8.990424
  7927.026  7927.010  0.500  1.138396  136.523  43.7327  9.013373
  7930.995  7930.980  0.500  1.136410  136.405  43.7817  9.039468
  7934.998  7934.980  0.500  1.134192  136.263  43.8334  9.067197
  7939.012  7938.990  0.500  1.131716  131.292  42.3389  8.776001
  7943.039  7943.030  0.500  1.129321  136.755  44.2065  9.181620
  7947.095  7947.080  0.500  1.126822  136.605  44.2685  9.212483
  7951.173  7951.150  0.500  1.124273  135.499  44.0222  9.180317
  7955.262  7955.240  0.500  1.121615  136.29  44.397  9.276105
  7959.363  7959.350  0.500  1.118923  136.15  44.4708  9.311654
  7963.490  7963.480  0.500  1.116317  136.011  44.5414  9.346184
  7967.646  7967.630  0.500  1.113909  135.866  44.6012  9.378820
  7971.811  7971.790  0.500  1.111389  135.667  44.6483  9.408700
  7976.022  7975.980  0.500  1.109063  135.381  44.658  9.431761
  7980.200  7980.180  0.500  1.106487  134.224  44.3904  9.394727
  7984.417  7984.410  0.500  1.103862  134.983  44.7586  9.494119
  7988.699  7988.650  0.500  1.101600  134.861  44.8196  9.525992
  7992.929  7992.910  0.500  1.099238  134.747  44.8874  9.562725
  7997.207  7997.190  0.500  1.096730  134.571  44.9414  9.594310
  8001.503  8001.490  0.500  1.094794  134.467  44.9938  9.626465
  8005.829  8005.810  0.500  1.092553  134.335  45.0506  9.660169
  8010.173  8010.150  0.500  1.090118  134.352  45.1661  9.706449
  8014.561  8014.510  0.500  1.087509  134.316  45.272  9.750378
  8018.915  8018.890  0.500  1.084783  134.226  45.3651  9.790813
  8023.298  8023.280  0.500  1.082085  134.091  45.4418  9.830110
  8027.723  8027.700  0.500  1.079354  133.962  45.5222  9.868896
  8032.155  8032.130  0.500  1.076503  133.805  45.5987  9.907619
  8036.609  8036.580  0.500  1.073802  133.655  45.6709  9.945090
  8041.071  8041.050  0.500  1.071008  133.502  45.7463  9.981397
  8045.516  8045.540  0.500  1.068287  133.336  45.8137  10.0138
  8050.082  8050.050  0.500  1.065576  133.161  45.8779  10.0506
  8054.571  8054.580  0.500  1.062856  132.897  45.9117  10.0795
  8059.145  8059.130  0.500  1.060328  130.608  45.235  9.951806