File: xdidata/Tb/Tb-L3-TerbiumOxide.xdi
# XDI/1.0 BlueSky/1.10.0 BMM/2023-1.0-py310-tiled
# Beamline.name: BMM (06BM) -- Beamline for Materials Measurement (NIST)
# Beamline.xray_source: NSLS-II three-pole wiggler
# Beamline.collimation: paraboloid mirror, 5 nm Rh on 30 nm Pt
# Beamline.focusing: not in use
# Beamline.harmonic_rejection: flat mirror, Si stripe, pitch = 7.0 mrad relative to beam
# Beamline.software: Bluesky 1.10.0, Ophyd 1.7.0, DataBroker 2.0.0b13, Python 3.10.8, 2023-1.0-py310-tiled
# Detector.I0: 10 cm N2
# Detector.I1: 25 cm N2
# Detector.I2: 25 cm N2
# Element.symbol: Tb
# Element.edge: L3
# Element.reference: Tb
# Element.reference_material: Tb4O9
# Facility.name: NSLS-II
# Facility.energy: 3.0
# Facility.current: 400.4
# Facility.mode: top-off
# Facility.GUP: 301027
# Facility.SAF: 310583
# Facility.cycle: 2023-2
# Mono.name: Si(111)
# Mono.d_spacing: 3.13519
# Mono.encoder_resolution: 0.0000050 deg/ct
# Mono.angle_offset: 16.0754 deg
# Mono.scan_mode: pseudo channel cut
# Mono.scan_type: step
# Mono.direction: forward in energy
# Sample.name: Tb4O9
# Sample.prep: PEG pellet
# Sample.x: 109.138 mm
# Sample.y: 153.150 mm
# Sample.SDD_position: 205.000 mm
# Scan.experimenters: Bruce Ravel
# Scan.edge_energy: 7514.0
# Scan.start_time: 2023-05-28T13:49:24
# Scan.end_time: 2023-05-28T13:57:08
# Scan.transient_id: 78735
# Scan.uid: 17cf7e95-925d-435c-b6f2-0b17221e4a5c
# Scan.plot_hint: ln(It/Ir)  --  ln($6/$7)
# Column.1: energy eV
# Column.2: requested_energy eV
# Column.3: measurement_time seconds
# Column.4: xmu
# Column.5: I0 nA
# Column.6: It nA
# Column.7: Ir nA
# ///////////
# sample courtesy Martin Stennett, University of Sheffield
# -----------
# energy  requested_energy  measurement_time  xmu  I0  It  Ir
  7314.014  7314.000  0.500  1.686189  147.365  153.635  28.457
  7324.041  7324.000  0.500  1.679320  147.343  154.041  28.7288
  7334.078  7334.000  0.500  1.672565  147.278  154.375  28.9862
  7344.043  7344.000  0.500  1.665816  147.029  154.501  29.2064
  7354.021  7354.000  0.500  1.659186  147.06  154.989  29.4935
  7364.047  7364.000  0.500  1.652622  146.95  155.275  29.7425
  7374.025  7374.000  0.500  1.646019  146.854  155.458  29.9749
  7384.010  7384.000  0.500  1.639430  146.759  155.809  30.2411
  7394.012  7394.000  0.500  1.633027  146.714  156.14  30.4999
  7404.012  7404.000  0.500  1.626548  146.612  156.416  30.7525
  7414.012  7414.000  0.500  1.620156  146.567  156.74  31.0138
  7424.017  7424.000  0.500  1.613759  146.439  156.98  31.2607
  7434.442  7434.000  0.500  1.607433  146.294  157.216  31.5064
  7443.971  7444.000  0.500  1.601528  146.293  157.596  31.7695
  7453.980  7454.000  0.500  1.595540  142.279  153.653  31.1606
  7463.980  7464.000  0.500  1.589921  146.274  158.355  32.2952
  7473.985  7474.000  0.500  1.584917  146.22  158.663  32.5204
  7483.985  7484.000  0.500  1.581108  146.035  158.812  32.6751
  7485.981  7486.000  0.500  1.580607  146.029  158.87  32.7035
  7487.980  7488.000  0.500  1.580262  146.021  158.963  32.7339
  7489.986  7490.000  0.500  1.580116  146.017  159.05  32.7566
  7491.983  7492.000  0.500  1.580205  145.948  159.051  32.7537
  7493.988  7494.000  0.500  1.580437  145.918  159.083  32.7528
  7495.987  7496.000  0.500  1.581117  145.933  159.181  32.7506
  7497.983  7498.000  0.500  1.582372  145.899  159.221  32.7178
  7499.987  7500.000  0.500  1.584282  145.873  159.26  32.6635
  7501.992  7502.000  0.500  1.587269  145.859  159.329  32.5802
  7503.986  7504.000  0.500  1.591811  145.817  159.367  32.4402
  7504.276  7504.300  0.500  1.592722  145.814  159.365  32.4103
  7504.573  7504.600  0.500  1.593671  145.793  159.367  32.3798
  7504.877  7504.900  0.500  1.594679  145.783  159.368  32.3476
  7505.180  7505.200  0.500  1.595706  145.819  159.415  32.3238
  7505.482  7505.500  0.500  1.596954  145.755  159.36  32.2725
  7505.777  7505.800  0.500  1.598144  145.788  159.396  32.2414
  7506.079  7506.100  0.500  1.599417  145.763  159.375  32.1959
  7506.386  7506.400  0.500  1.601002  145.728  159.356  32.1411
  7506.688  7506.700  0.500  1.602534  145.732  159.37  32.0948
  7506.983  7507.000  0.500  1.604292  145.733  159.375  32.0395
  7507.286  7507.300  0.500  1.606268  145.71  159.391  31.9794
  7507.593  7507.600  0.500  1.608359  145.691  159.356  31.9055
  7507.886  7507.900  0.500  1.610557  145.711  159.332  31.8308
  7508.186  7508.200  0.500  1.613055  145.711  159.342  31.7534
  7508.493  7508.500  0.500  1.615948  145.683  159.325  31.6582
  7508.788  7508.800  0.500  1.618995  145.665  159.343  31.5654
  7509.088  7509.100  0.500  1.622424  145.67  159.372  31.4631
  7509.388  7509.400  0.500  1.626474  145.665  159.391  31.3397
  7509.686  7509.700  0.500  1.630699  145.643  159.383  31.2061
  7509.986  7510.000  0.500  1.635363  145.662  159.411  31.0663
  7510.289  7510.300  0.500  1.640439  145.635  159.399  30.9066
  7510.594  7510.600  0.500  1.645802  145.641  159.404  30.7424
  7510.897  7510.900  0.500  1.651734  145.611  159.379  30.5556
  7511.197  7511.200  0.500  1.658053  145.625  159.389  30.3652
  7511.495  7511.500  0.500  1.664598  145.649  159.435  30.1758
  7511.793  7511.800  0.500  1.671747  145.613  159.416  29.9572
  7512.098  7512.100  0.500  1.679320  145.628  159.441  29.7359
  7512.400  7512.400  0.500  1.687005  145.629  159.487  29.5167
  7512.696  7512.700  0.500  1.694820  145.6  159.447  29.2796
  7512.999  7513.000  0.500  1.703168  145.598  159.422  29.0317
  7513.292  7513.300  0.500  1.711982  145.586  159.423  28.7772
  7513.590  7513.600  0.500  1.721540  145.624  159.485  28.5145
  7513.895  7513.900  0.500  1.732848  145.583  159.456  28.1886
  7514.191  7514.200  0.500  1.745405  145.586  159.492  27.8431
  7514.492  7514.500  0.500  1.760152  145.567  159.494  27.436
  7514.797  7514.800  0.500  1.777258  145.57  159.477  26.9677
  7515.093  7515.100  0.500  1.796832  145.556  159.492  26.4474
  7515.398  7515.400  0.500  1.820061  145.563  159.502  25.8418
  7515.699  7515.700  0.500  1.847259  145.539  159.477  25.1445
  7516.007  7516.000  0.500  1.879146  145.591  159.539  24.3648
  7516.303  7516.300  0.500  1.914516  145.5  159.456  23.506
  7516.598  7516.600  0.500  1.953628  145.526  159.528  22.6144
  7516.892  7516.900  0.500  1.994889  145.554  159.541  21.7022
  7517.193  7517.200  0.500  2.037049  145.499  159.493  20.8
  7517.496  7517.500  0.500  2.081260  145.506  159.528  19.9048
  7517.794  7517.800  0.500  2.124641  145.47  159.502  19.0567
  7518.100  7518.100  0.500  2.169560  145.469  159.543  18.2242
  7518.398  7518.400  0.500  2.214039  145.476  159.553  17.4326
  7518.699  7518.700  0.500  2.258008  145.516  159.607  16.6882
  7519.003  7519.000  0.500  2.300365  145.47  159.561  15.9915
  7519.301  7519.300  0.500  2.339782  145.49  159.571  15.3745
  7519.600  7519.600  0.500  2.374795  145.435  159.522  14.8409
  7519.901  7519.900  0.500  2.403771  145.448  159.52  14.4169
  7520.202  7520.200  0.500  2.427179  145.438  159.527  14.084
  7520.500  7520.500  0.500  2.444231  145.437  159.564  13.849
  7520.806  7520.800  0.500  2.454887  145.412  159.538  13.7
  7521.100  7521.100  0.500  2.459169  145.407  159.562  13.6435
  7521.396  7521.400  0.500  2.457989  145.389  159.553  13.6588
  7521.692  7521.700  0.500  2.452567  145.396  159.572  13.7347
  7521.991  7522.000  0.500  2.444304  145.391  159.575  13.8489
  7522.297  7522.300  0.500  2.434108  145.409  159.596  13.9927
  7522.601  7522.600  0.500  2.422866  145.375  159.574  14.149
  7522.907  7522.900  0.500  2.411656  145.365  159.569  14.308
  7523.208  7523.200  0.500  2.400994  145.37  159.564  14.4609
  7523.505  7523.500  0.500  2.391412  145.775  160.041  14.6438
  7523.799  7523.800  0.500  2.383148  145.784  160.071  14.7681
  7524.100  7524.100  0.500  2.375907  145.782  160.084  14.8766
  7524.397  7524.400  0.500  2.370274  145.772  160.074  14.9598
  7524.695  7524.700  0.500  2.366009  145.788  160.088  15.025
  7524.999  7525.000  0.500  2.363295  145.816  160.144  15.0711
  7525.293  7525.300  0.500  2.362184  145.816  160.165  15.0898
  7525.602  7525.600  0.500  2.363341  145.806  160.14  15.07
  7525.899  7525.900  0.500  2.366862  145.787  160.13  15.0161
  7526.203  7526.200  0.500  2.373050  145.786  160.14  14.9244
  7526.504  7526.500  0.500  2.381581  145.797  160.188  14.802
  7526.799  7526.800  0.500  2.392133  145.803  160.188  14.6467
  7527.103  7527.100  0.500  2.403804  145.775  160.128  14.4713
  7527.402  7527.400  0.500  2.415742  145.785  160.176  14.3039
  7527.703  7527.700  0.500  2.427390  145.776  160.206  14.1409
  7528.003  7528.000  0.500  2.437145  145.757  160.214  14.0043
  7528.304  7528.300  0.500  2.444937  145.774  160.23  13.897
  7528.599  7528.600  0.500  2.449919  145.752  160.244  13.8292
  7528.898  7528.900  0.500  2.452152  145.72  160.182  13.793
  7529.197  7529.200  0.500  2.451749  145.719  160.199  13.8
  7529.497  7529.500  0.500  2.449097  145.693  160.177  13.8348
  7529.799  7529.800  0.500  2.444063  145.695  160.196  13.9062
  7530.100  7530.100  0.500  2.436621  145.71  160.222  14.0124
  7530.407  7530.400  0.500  2.426263  145.708  160.231  14.159
  7530.707  7530.700  0.500  2.412957  145.692  160.208  14.3466
  7531.006  7531.000  0.500  2.396592  145.688  160.171  14.58
  7531.301  7531.300  0.500  2.377246  145.689  160.209  14.8683
  7531.600  7531.600  0.500  2.355289  145.648  160.233  15.2007
  7531.895  7531.900  0.500  2.331864  145.708  160.291  15.5666
  7532.197  7532.200  0.500  2.306334  145.662  160.238  15.9638
  7532.501  7532.500  0.500  2.279340  145.635  160.231  16.3999
  7532.803  7532.800  0.500  2.253047  145.639  160.249  16.8387
  7533.098  7533.100  0.500  2.227343  145.611  160.242  17.2764
  7533.403  7533.400  0.500  2.203144  145.605  160.252  17.7007
  7533.702  7533.700  0.500  2.181026  145.587  160.24  18.0952
  7534.002  7534.000  0.500  2.161003  145.579  160.253  18.4626
  7534.302  7534.300  0.500  2.143586  145.596  160.269  18.7889
  7534.609  7534.600  0.500  2.127759  145.556  160.223  19.0832
  7534.906  7534.900  0.500  2.113654  145.571  160.249  19.3574
  7535.204  7535.200  0.500  2.101051  145.546  160.204  19.5974
  7535.501  7535.500  0.500  2.089734  145.528  160.182  19.8178
  7535.796  7535.800  0.500  2.079822  145.536  160.205  20.018
  7536.101  7536.100  0.500  2.070744  145.525  160.207  20.2008
  7536.399  7536.400  0.500  2.063023  145.516  160.234  20.3608
  7536.701  7536.700  0.500  2.056274  145.519  160.231  20.4983
  7536.998  7537.000  0.500  2.050329  145.51  160.213  20.6183
  7537.296  7537.300  0.500  2.044791  145.486  160.201  20.7312
  7537.598  7537.600  0.500  2.039911  145.496  160.219  20.8349
  7537.901  7537.900  0.500  2.035544  145.53  160.259  20.9314
  7538.206  7538.200  0.500  2.031359  145.46  160.22  21.0139
  7538.506  7538.500  0.500  2.027595  145.456  160.208  21.0917
  7538.804  7538.800  0.500  2.024177  145.45  160.197  21.1624
  7539.000  7539.000  0.500  2.022075  145.44  160.209  21.2085
  7539.990  7539.990  0.500  2.012083  145.46  160.311  21.4351
  7541.002  7540.990  0.500  2.003330  145.404  160.298  21.6219
  7542.029  7542.010  0.500  1.997363  145.413  160.341  21.7572
  7543.071  7543.060  0.500  1.994420  145.401  160.345  21.8218
  7544.130  7544.120  0.500  1.995043  145.376  160.357  21.8098
  7545.226  7545.200  0.500  1.998411  145.36  160.384  21.7401
  7546.283  7546.300  0.500  2.002670  145.302  160.375  21.6465
  7547.404  7547.420  0.500  2.007102  145.302  160.355  21.5481
  7548.542  7548.560  0.500  2.011727  145.28  160.416  21.4568
  7549.698  7549.710  0.500  2.016714  145.282  160.441  21.3534
  7550.875  7550.890  0.500  2.023045  145.267  160.466  21.222
  7552.068  7552.080  0.500  2.030379  145.192  160.399  21.0582
  7553.295  7553.300  0.500  2.038810  145.17  160.442  20.8869
  7554.522  7554.530  0.500  2.047436  145.147  160.472  20.7113
  7555.779  7555.780  0.500  2.055879  145.162  160.526  20.5442
  7557.051  7557.050  0.500  2.062382  145.173  160.597  20.4201
  7558.336  7558.340  0.500  2.065980  145.1  160.572  20.3436
  7559.648  7559.650  0.500  2.066845  145.13  160.66  20.3371
  7560.992  7560.980  0.500  2.065729  145.088  160.676  20.3617
  7562.329  7562.330  0.500  2.064234  145.111  160.769  20.404
  7563.703  7563.700  0.500  2.063438  145.036  160.731  20.4155
  7565.076  7565.080  0.500  2.063733  145.02  160.77  20.4144
  7566.488  7566.490  0.500  2.063917  144.997  160.72  20.4044
  7567.905  7567.910  0.500  2.063216  144.987  160.766  20.4245
  7569.340  7569.350  0.500  2.061227  144.96  160.792  20.4685
  7570.810  7570.810  0.500  2.057899  144.926  160.851  20.5443
  7572.285  7572.290  0.500  2.053780  144.925  160.9  20.6353
  7573.787  7573.790  0.500  2.048634  144.91  160.935  20.7463
  7575.313  7575.310  0.500  2.042947  144.877  160.959  20.8677
  7576.846  7576.850  0.500  2.037095  144.842  160.977  20.9926
  7578.414  7578.410  0.500  2.031610  144.842  161.006  21.1117
  7579.976  7579.980  0.500  2.026474  144.796  161.029  21.2235
  7581.584  7581.580  0.500  2.022279  144.796  161.118  21.3245
  7583.191  7583.190  0.500  2.018991  144.718  161.042  21.3847
  7584.836  7584.830  0.500  2.016388  144.718  161.093  21.4471
  7586.478  7586.480  0.500  2.014143  144.686  161.161  21.5045
  7588.154  7588.150  0.500  2.012172  144.606  161.132  21.5431
  7589.844  7589.840  0.500  2.010631  144.563  161.142  21.5776
  7591.551  7591.550  0.500  2.009254  144.522  161.16  21.6097
  7593.292  7593.280  0.500  2.008217  144.468  161.174  21.6341
  7595.032  7595.030  0.500  2.007577  144.415  161.165  21.6466
  7596.797  7596.790  0.500  2.007328  144.368  161.162  21.6516
  7598.576  7598.580  0.500  2.007388  144.308  161.135  21.6468
  7600.395  7600.380  0.500  2.007868  144.196  161.062  21.6266
  7602.212  7602.210  0.500  2.008268  142.163  158.87  21.3237
  7604.055  7604.050  0.500  2.008748  143.724  160.679  21.5562
  7605.915  7605.910  0.500  2.009268  143.71  160.734  21.5524
  7607.799  7607.790  0.500  2.010000  143.659  160.759  21.5399
  7609.692  7609.690  0.500  2.010754  143.546  160.676  21.5126
  7611.610  7611.610  0.500  2.011578  143.508  160.711  21.4995
  7613.559  7613.550  0.500  2.012277  143.548  160.854  21.5037
  7615.516  7615.510  0.500  2.012862  143.623  161.007  21.5114
  7617.491  7617.480  0.500  2.013622  143.564  161.036  21.499
  7619.488  7619.480  0.500  2.014639  143.638  161.168  21.4948
  7621.495  7621.490  0.500  2.015679  143.775  161.359  21.4978
  7623.523  7623.520  0.500  2.016626  143.872  161.551  21.503
  7625.602  7625.580  0.500  2.016985  143.906  161.655  21.5092
  7627.650  7627.650  0.500  2.016583  143.917  161.728  21.5275
  7629.754  7629.740  0.500  2.014979  143.909  161.822  21.5747
  7631.859  7631.850  0.500  2.012538  143.895  161.891  21.6366
  7633.995  7633.980  0.500  2.009642  143.856  161.93  21.7045
  7636.124  7636.120  0.500  2.006410  143.824  161.968  21.7799
  7638.297  7638.290  0.500  2.002868  143.785  161.99  21.8602
  7640.489  7640.480  0.500  1.998831  143.748  162.033  21.9544
  7642.695  7642.680  0.500  1.994659  143.713  162.082  22.0529
  7644.907  7644.900  0.500  1.990544  143.704  162.158  22.1542
  7647.167  7647.150  0.500  1.986719  143.709  162.232  22.2492
  7649.419  7649.410  0.500  1.983353  143.62  162.197  22.3194
  7651.698  7651.690  0.500  1.980692  143.605  162.279  22.3903
  7653.997  7653.990  0.500  1.978568  143.557  162.296  22.4401
  7656.323  7656.310  0.500  1.977377  143.556  162.382  22.4788
  7658.664  7658.650  0.500  1.976754  143.49  162.384  22.4931
  7661.008  7661.000  0.500  1.976779  143.459  162.385  22.4927
  7663.393  7663.380  0.500  1.976896  143.438  162.442  22.498
  7665.778  7665.770  0.500  1.976963  143.414  162.574  22.5147
  7668.209  7668.190  0.500  1.977010  143.338  162.532  22.5078
  7670.630  7670.620  0.500  1.976996  143.304  162.527  22.5074
  7673.095  7673.070  0.500  1.976711  143.236  162.542  22.516
  7675.558  7675.550  0.500  1.975918  143.23  162.722  22.5588
  7678.059  7678.040  0.500  1.974021  143.22  162.757  22.6065
  7680.559  7680.550  0.500  1.971404  143.123  162.689  22.6562
  7683.086  7683.070  0.500  1.968783  143.05  162.716  22.7195
  7685.642  7685.620  0.500  1.966363  142.948  162.674  22.7687
  7688.197  7688.190  0.500  1.964285  139.457  158.781  22.27
  7690.784  7690.770  0.500  1.962577  143.037  162.982  22.8983
  7693.391  7693.380  0.500  1.961156  142.978  163.009  22.9347
  7696.013  7696.000  0.500  1.960188  142.871  162.977  22.9524
  7698.666  7698.650  0.500  1.959442  142.807  162.999  22.9726
  7701.319  7701.310  0.500  1.958972  142.721  163.002  22.9838
  7704.009  7703.990  0.500  1.958542  142.598  162.918  22.9819
  7706.706  7706.690  0.500  1.958118  139.471  159.445  22.5015
  7709.423  7709.410  0.500  1.957826  142.744  163.254  23.0458
  7712.165  7712.150  0.500  1.956986  142.63  163.216  23.0598
  7714.909  7714.900  0.500  1.955588  142.58  163.251  23.097
  7717.693  7717.680  0.500  1.953803  142.42  163.174  23.1274
  7720.486  7720.470  0.500  1.951753  141.635  162.361  23.0593
  7723.297  7723.290  0.500  1.949374  142.568  163.517  23.2788
  7726.136  7726.120  0.500  1.946696  142.409  163.473  23.335
  7728.989  7728.970  0.500  1.943809  142.334  163.494  23.4054
  7731.863  7731.850  0.500  1.940834  142.272  163.517  23.4785
  7734.749  7734.740  0.500  1.937982  142.637  164.055  23.623
  7737.670  7737.650  0.500  1.935425  142.587  164.036  23.6807
  7740.584  7740.570  0.500  1.932999  138.876  159.848  23.1321
  7743.535  7743.520  0.500  1.930819  142.564  164.246  23.8205
  7746.515  7746.490  0.500  1.928991  142.512  164.312  23.8736
  7749.481  7749.470  0.500  1.927497  142.452  164.3  23.9077
  7752.491  7752.480  0.500  1.926095  142.363  164.319  23.9439
  7755.519  7755.500  0.500  1.924738  142.335  164.394  23.9874
  7758.569  7758.550  0.500  1.923271  142.284  164.436  24.0288
  7761.633  7761.610  0.500  1.921948  142.226  164.467  24.0651
  7764.706  7764.690  0.500  1.920503  142.178  164.514  24.1068
  7767.808  7767.790  0.500  1.918891  142.041  164.448  24.136
  7770.928  7770.910  0.500  1.917119  141.98  164.464  24.1812
  7774.069  7774.050  0.500  1.915100  141.9  164.534  24.2404
  7777.209  7777.200  0.500  1.913021  141.85  164.558  24.2943
  7780.391  7780.380  0.500  1.910876  141.776  164.559  24.3466
  7783.584  7783.570  0.500  1.908453  141.7  164.551  24.4045
  7786.800  7786.790  0.500  1.906226  141.645  164.623  24.4697
  7790.029  7790.020  0.500  1.904140  141.533  164.622  24.5206
  7793.284  7793.270  0.500  1.902174  141.47  164.669  24.5759
  7796.565  7796.550  0.500  1.900340  141.396  164.689  24.6239
  7799.852  7799.840  0.500  1.898475  141.36  164.763  24.681
  7803.163  7803.150  0.500  1.896731  141.26  164.774  24.7257
  7806.484  7806.470  0.500  1.895214  141.211  164.836  24.7726
  7809.842  7809.820  0.500  1.893561  141.102  164.758  24.8019
  7813.213  7813.190  0.500  1.891975  140.991  164.704  24.833
  7816.587  7816.570  0.500  1.890423  140.979  164.825  24.8898
  7819.996  7819.980  0.500  1.888548  140.875  164.817  24.9354
  7823.413  7823.400  0.500  1.886532  140.812  164.846  24.9901
  7826.862  7826.850  0.500  1.884154  140.741  164.893  25.0567
  7830.324  7830.310  0.500  1.881674  140.663  164.895  25.1193
  7833.811  7833.790  0.500  1.878933  140.517  164.826  25.1777
  7837.306  7837.290  0.500  1.876246  140.429  164.858  25.2503
  7840.820  7840.810  0.500  1.873811  140.022  164.53  25.2615
  7844.366  7844.350  0.500  1.871212  140.27  164.914  25.3863
  7847.911  7847.900  0.500  1.868887  140.139  164.848  25.4353
  7851.498  7851.480  0.500  1.866488  140.071  164.875  25.5005
  7855.093  7855.080  0.500  1.864302  138.963  163.691  25.3728
  7858.698  7858.690  0.500  1.862101  139.885  164.886  25.6144
  7862.332  7862.320  0.500  1.860001  139.834  164.949  25.678
  7865.986  7865.980  0.500  1.857837  139.753  164.974  25.7375
  7869.659  7869.650  0.500  1.855828  139.644  164.965  25.788
  7873.354  7873.340  0.500  1.853776  139.547  164.959  25.84
  7877.068  7877.050  0.500  1.851738  139.44  164.984  25.8966
  7880.797  7880.780  0.500  1.849637  139.33  164.992  25.9522
  7884.535  7884.520  0.500  1.847404  139.234  164.981  26.0085
  7888.297  7888.290  0.500  1.845027  139.149  164.996  26.0728
  7892.085  7892.080  0.500  1.842667  139.046  164.975  26.1312
  7895.895  7895.880  0.500  1.840267  138.976  165.015  26.2003
  7899.725  7899.710  0.500  1.837935  137.852  163.779  26.0647
  7903.564  7903.550  0.500  1.835571  138.693  164.933  26.3105
  7907.423  7907.410  0.500  1.833242  138.624  165.002  26.3828
  7911.302  7911.290  0.500  1.830797  138.515  164.977  26.4434
  7915.206  7915.190  0.500  1.828320  138.436  164.996  26.512
  7919.123  7919.110  0.500  1.826012  138.303  164.971  26.5693
  7923.067  7923.050  0.500  1.823677  138.206  165.008  26.6375
  7927.026  7927.010  0.500  1.821448  138.104  164.981  26.6925
  7930.987  7930.980  0.500  1.819056  137.926  164.879  26.7398
  7934.990  7934.980  0.500  1.816863  137.781  164.827  26.7902
  7939.004  7938.990  0.500  1.814439  135.963  162.752  26.517
  7943.047  7943.030  0.500  1.812091  137.723  164.971  26.9418
  7947.095  7947.080  0.500  1.809672  137.573  164.909  26.9969
  7951.163  7951.150  0.500  1.807291  136.355  163.584  26.8439
  7955.256  7955.240  0.500  1.804805  137.301  164.846  27.1182
  7959.360  7959.350  0.500  1.802266  137.159  164.846  27.1872
  7963.495  7963.480  0.500  1.799766  137.03  164.795  27.2467
  7967.646  7967.630  0.500  1.797165  136.876  164.737  27.3081
  7971.803  7971.790  0.500  1.794658  136.7  164.681  27.3673
  7975.995  7975.980  0.500  1.792144  136.398  164.429  27.3942
  7980.197  7980.180  0.500  1.789492  135.503  163.482  27.3089
  7984.420  7984.410  0.500  1.786948  135.984  164.2  27.4987
  7988.656  7988.650  0.500  1.784391  135.872  164.177  27.5652
  7992.932  7992.910  0.500  1.781695  135.764  164.175  27.6393
  7997.209  7997.190  0.500  1.779040  135.622  164.137  27.7064
  8001.506  8001.490  0.500  1.776340  135.534  164.186  27.7896
  8005.821  8005.810  0.500  1.773750  135.41  164.149  27.8554
  8010.162  8010.150  0.500  1.771125  135.443  164.287  27.9521
  8014.525  8014.510  0.500  1.768653  135.453  164.452  28.0493
  8018.909  8018.890  0.500  1.765989  135.412  164.531  28.1377
  8023.293  8023.280  0.500  1.763311  135.209  164.41  28.1923
  8027.717  8027.700  0.500  1.760639  135.085  164.376  28.2621
  8032.142  8032.130  0.500  1.758009  134.977  164.348  28.3316
  8036.593  8036.580  0.500  1.755516  134.84  164.324  28.3981
  8041.066  8041.050  0.500  1.752938  134.677  164.297  28.4667
  8045.557  8045.540  0.500  1.750535  134.512  164.219  28.5216
  8050.074  8050.050  0.500  1.748067  134.394  164.174  28.5843
  8054.604  8054.580  0.500  1.745500  134.162  164.018  28.6305
  8059.153  8059.130  0.500  1.742934  129.052  157.902  27.6337
  8063.708  8063.700  0.500  1.740116  133.959  164.051  28.7909
  8068.295  8068.280  0.500  1.737346  133.504  163.635  28.7976
  8072.899  8072.890  0.500  1.734533  133.837  164.206  28.9795
  8077.526  8077.510  0.500  1.731712  133.321  163.671  28.9666
  8082.180  8082.160  0.500  1.728819  133.636  164.192  29.1431
  8086.871  8086.820  0.500  1.726025  133.322  163.952  29.182
  8091.522  8091.500  0.500  1.723311  128.063  157.605  28.1284
  8096.254  8096.200  0.500  1.720551  133.14  163.976  29.3463
  8100.939  8100.920  0.500  1.717783  132.976  163.917  29.4172
  8105.681  8105.660  0.500  1.715026  132.768  163.776  29.473
  8110.464  8110.410  0.500  1.712322  132.627  163.76  29.55
  8115.242  8115.190  0.500  1.709470  132.435  163.643  29.6132
  8120.048  8119.990  0.500  1.706686  132.26  163.563  29.6811
  8124.827  8124.800  0.500  1.703964  132.103  163.494  29.7495
  8129.673  8129.630  0.500  1.701294  131.908  163.392  29.8104
  8134.548  8134.490  0.500  1.698490  131.786  163.355  29.8874
  8139.333  8139.360  0.500  1.695703  131.612  163.283  29.9575
  8144.311  8144.250  0.500  1.692834  131.397  163.176  30.024
  8149.142  8149.160  0.500  1.689889  131.228  163.112  30.1007
  8154.092  8154.090  0.500  1.686951  131.077  163.034  30.1748
  8159.014  8159.030  0.500  1.683946  130.869  162.895  30.2399
  8163.989  8164.000  0.500  1.681001  130.708  162.857  30.322
  8168.989  8168.990  0.500  1.677935  130.558  162.796  30.4037
  8173.970  8173.990  0.500  1.674925  130.387  162.723  30.4816
  8178.992  8179.020  0.500  1.671901  130.212  162.644  30.5591
  8184.031  8184.060  0.500  1.668974  130.024  162.542  30.6295
  8189.092  8189.120  0.500  1.665999  129.842  162.474  30.7079
  8194.164  8194.200  0.500  1.663102  129.674  162.352  30.7739
  8199.263  8199.300  0.500  1.660229  129.507  162.261  30.845
  8204.395  8204.420  0.500  1.657365  129.301  162.141  30.9108
  8209.539  8209.560  0.500  1.654538  129.117  162.071  30.9848
  8214.696  8214.720  0.500  1.651806  128.978  162.089  31.073
  8219.873  8219.900  0.500  1.649066  128.725  161.858  31.1138
  8225.078  8225.090  0.500  1.646523  128.553  161.769  31.1759
  8230.281  8230.310  0.500  1.644293  128.329  161.597  31.2122