File: xdidata/Tb/Tb-L1-TerbiumOxide.xdi
# XDI/1.0 BlueSky/1.10.0 BMM/2023-1.0-py310-tiled
# Beamline.name: BMM (06BM) -- Beamline for Materials Measurement (NIST)
# Beamline.xray_source: NSLS-II three-pole wiggler
# Beamline.collimation: paraboloid mirror, 5 nm Rh on 30 nm Pt
# Beamline.focusing: not in use
# Beamline.harmonic_rejection: flat mirror, Pt stripe, pitch = 7.0 mrad relative to beam
# Beamline.software: Bluesky 1.10.0, Ophyd 1.7.0, DataBroker 2.0.0b13, Python 3.10.8, 2023-1.0-py310-tiled
# Detector.I0: 10 cm N2
# Detector.I1: 25 cm N2
# Detector.I2: 25 cm N2
# Element.symbol: Tb
# Element.edge: L1
# Element.reference: Tb
# Element.reference_material: Tb4O9
# Facility.name: NSLS-II
# Facility.energy: 3.0
# Facility.current: 400.6
# Facility.mode: top-off
# Facility.GUP: 301027
# Facility.SAF: 310583
# Facility.cycle: 2023-2
# Mono.name: Si(111)
# Mono.d_spacing: 3.13519
# Mono.encoder_resolution: 0.0000050 deg/ct
# Mono.angle_offset: 16.0754 deg
# Mono.scan_mode: pseudo channel cut
# Mono.scan_type: step
# Mono.direction: forward in energy
# Sample.name: Tb4O9
# Sample.prep: PEG pellet
# Sample.x: 109.138 mm
# Sample.y: 153.150 mm
# Sample.SDD_position: 205.000 mm
# Scan.experimenters: Bruce Ravel
# Scan.edge_energy: 8708.0
# Scan.start_time: 2023-05-28T15:37:59
# Scan.end_time: 2023-05-28T15:46:59
# Scan.transient_id: 78805
# Scan.uid: 4871734f-c9e9-4688-86e2-cf48e303ed82
# Scan.plot_hint: ln(It/Ir)  --  ln($6/$7)
# Column.1: energy eV
# Column.2: requested_energy eV
# Column.3: measurement_time seconds
# Column.4: xmu
# Column.5: I0 nA
# Column.6: It nA
# Column.7: Ir nA
# ///////////
# sample courtesy Martin Stennett, University of Sheffield
# -----------
# energy  requested_energy  measurement_time  xmu  I0  It  Ir
  8508.007  8508.000  0.500  1.724449  128.65  169.093  30.1445
  8518.055  8518.000  0.500  1.719271  128.484  169.108  30.3035
  8528.022  8528.000  0.500  1.714036  127.906  168.571  30.3659
  8538.050  8538.000  0.500  1.709453  127.957  168.855  30.5568
  8548.090  8548.000  0.500  1.705194  127.898  169.024  30.718
  8558.017  8558.000  0.500  1.701036  127.71  169.014  30.8442
  8568.058  8568.000  0.500  1.695925  127.509  169  30.9995
  8578.073  8578.000  0.500  1.690589  127.263  168.886  31.1444
  8588.029  8588.000  0.500  1.685620  126.751  168.421  31.2134
  8598.022  8598.000  0.500  1.680818  126.773  168.665  31.409
  8608.017  8608.000  0.500  1.676422  126.284  168.254  31.4707
  8618.023  8618.000  0.500  1.671538  97.2745  129.775  24.3922
  8628.027  8628.000  0.500  1.667272  127.197  169.943  32.0786
  8638.024  8638.000  0.500  1.662655  126.507  169.239  32.0936
  8648.015  8648.000  0.500  1.657961  126.496  169.435  32.282
  8658.026  8658.000  0.500  1.653516  126.386  169.534  32.4446
  8668.023  8668.000  0.500  1.649385  126.167  169.492  32.5709
  8678.024  8678.000  0.500  1.645448  125.95  169.387  32.6792
  8679.989  8680.000  0.500  1.644691  125.918  169.366  32.6999
  8681.984  8682.000  0.500  1.643874  125.874  169.376  32.7286
  8683.983  8684.000  0.500  1.643173  125.825  169.367  32.7498
  8685.986  8686.000  0.500  1.642432  125.781  169.349  32.7706
  8687.984  8688.000  0.500  1.641744  125.738  169.335  32.7904
  8689.989  8690.000  0.500  1.641036  125.7  169.318  32.8103
  8691.992  8692.000  0.500  1.640444  125.653  169.278  32.822
  8693.986  8694.000  0.500  1.639763  125.6  169.262  32.8412
  8695.997  8696.000  0.500  1.639343  125.54  169.234  32.8497
  8697.987  8698.000  0.500  1.638835  125.491  169.225  32.8646
  8698.273  8698.300  0.500  1.638738  125.479  169.222  32.8672
  8698.572  8698.600  0.500  1.638669  125.461  169.216  32.8681
  8698.871  8698.900  0.500  1.638630  125.445  169.186  32.8636
  8699.170  8699.200  0.500  1.638541  125.433  169.173  32.8642
  8699.476  8699.500  0.500  1.638564  125.423  169.133  32.8556
  8699.782  8699.800  0.500  1.638489  125.399  169.124  32.8562
  8700.081  8700.100  0.500  1.638441  125.384  169.099  32.8531
  8700.381  8700.400  0.500  1.638414  125.377  169.101  32.8543
  8700.677  8700.700  0.500  1.638391  125.369  169.092  32.8533
  8700.989  8701.000  0.500  1.638387  125.348  169.055  32.8463
  8701.282  8701.300  0.500  1.638358  125.329  169.055  32.8473
  8701.588  8701.600  0.500  1.638356  125.307  169.048  32.8459
  8701.884  8701.900  0.500  1.638389  125.288  169.024  32.8402
  8702.183  8702.200  0.500  1.638375  125.264  169.004  32.8368
  8702.483  8702.500  0.500  1.638484  125.243  168.988  32.83
  8702.785  8702.800  0.500  1.638477  125.223  168.932  32.8194
  8703.082  8703.100  0.500  1.638437  125.191  168.905  32.8154
  8703.381  8703.400  0.500  1.638585  125.156  168.876  32.8049
  8703.681  8703.700  0.500  1.638588  125.112  168.839  32.7976
  8703.977  8704.000  0.500  1.638719  125.067  168.794  32.7846
  8704.290  8704.300  0.500  1.638922  125.023  168.738  32.7671
  8704.583  8704.600  0.500  1.639006  124.962  168.663  32.7497
  8704.886  8704.900  0.500  1.639113  124.875  168.553  32.7249
  8705.179  8705.200  0.500  1.639331  124.779  168.424  32.6928
  8705.491  8705.500  0.500  1.639426  124.645  168.242  32.6543
  8705.788  8705.800  0.500  1.639652  124.454  167.985  32.5971
  8706.091  8706.100  0.500  1.639705  124.172  167.624  32.5253
  8706.394  8706.400  0.500  1.639931  123.733  167.024  32.4015
  8706.684  8706.700  0.500  1.640028  122.981  166.017  32.203
  8707.000  8707.000  0.500  1.640084  121.509  164.04  31.8179
  8707.293  8707.300  0.500  1.640017  118.942  160.59  31.1508
  8707.599  8707.600  0.500  1.640195  115.014  155.309  30.1209
  8707.893  8707.900  0.500  1.640518  111.362  150.372  29.1542
  8708.186  8708.200  0.500  1.641025  109.298  147.587  28.5996
  8708.499  8708.500  0.500  1.641561  109.199  147.458  28.5593
  8708.789  8708.800  0.500  1.641944  110.506  149.231  28.8916
  8709.083  8709.100  0.500  1.642403  112.866  152.427  29.4969
  8709.392  8709.400  0.500  1.642933  116.241  156.994  30.3646
  8709.682  8709.700  0.500  1.643379  119.454  161.346  31.1923
  8709.989  8710.000  0.500  1.643960  121.813  164.532  31.7897
  8710.289  8710.300  0.500  1.644599  123.13  166.304  32.1116
  8710.595  8710.600  0.500  1.645290  123.781  167.205  32.2634
  8710.902  8710.900  0.500  1.645988  124.151  167.718  32.3397
  8711.199  8711.200  0.500  1.646868  124.379  167.986  32.3629
  8711.492  8711.500  0.500  1.647673  124.529  168.203  32.3786
  8711.806  8711.800  0.500  1.648608  124.641  168.382  32.3828
  8712.102  8712.100  0.500  1.649619  124.719  168.515  32.3756
  8712.403  8712.400  0.500  1.650601  124.775  168.585  32.3573
  8712.696  8712.700  0.500  1.651628  124.812  168.638  32.3342
  8712.993  8713.000  0.500  1.652687  124.846  168.697  32.3112
  8713.293  8713.300  0.500  1.653693  124.878  168.711  32.2816
  8713.600  8713.600  0.500  1.654730  124.894  168.769  32.2591
  8713.891  8713.900  0.500  1.655625  124.912  168.774  32.2312
  8714.184  8714.200  0.500  1.656691  124.917  168.801  32.2019
  8714.491  8714.500  0.500  1.657511  124.927  168.828  32.1808
  8714.798  8714.800  0.500  1.658494  124.938  168.857  32.1546
  8715.105  8715.100  0.500  1.659477  124.949  168.873  32.1262
  8715.392  8715.400  0.500  1.660473  124.94  168.865  32.0925
  8715.699  8715.700  0.500  1.661373  124.943  168.873  32.0652
  8715.996  8716.000  0.500  1.662398  124.942  168.891  32.0358
  8716.306  8716.300  0.500  1.663447  124.947  168.9  32.004
  8716.604  8716.600  0.500  1.664470  124.938  168.904  31.9719
  8716.904  8716.900  0.500  1.665644  124.934  168.909  31.9354
  8717.195  8717.200  0.500  1.666762  124.939  168.912  31.9003
  8717.492  8717.500  0.500  1.667921  124.927  168.874  31.8563
  8717.793  8717.800  0.500  1.669195  124.913  168.869  31.8146
  8718.090  8718.100  0.500  1.670567  124.927  168.897  31.7764
  8718.394  8718.400  0.500  1.672106  124.927  168.93  31.7337
  8718.691  8718.700  0.500  1.673654  124.923  168.936  31.6857
  8718.992  8719.000  0.500  1.675363  124.912  168.926  31.6298
  8719.302  8719.300  0.500  1.677251  124.903  168.889  31.5632
  8719.606  8719.600  0.500  1.679287  124.901  168.892  31.4995
  8719.903  8719.900  0.500  1.681430  124.887  168.893  31.4322
  8720.198  8720.200  0.500  1.683544  124.883  168.872  31.3621
  8720.505  8720.500  0.500  1.685756  124.879  168.866  31.2916
  8720.806  8720.800  0.500  1.688114  124.874  168.878  31.2202
  8721.103  8721.100  0.500  1.690392  124.872  168.893  31.1519
  8721.397  8721.400  0.500  1.692737  124.869  168.867  31.0742
  8721.688  8721.700  0.500  1.695137  124.863  168.89  31.0038
  8721.992  8722.000  0.500  1.697512  124.856  168.862  30.9251
  8722.290  8722.300  0.500  1.699908  124.849  168.877  30.8538
  8722.588  8722.600  0.500  1.702119  124.84  168.871  30.7847
  8722.895  8722.900  0.500  1.704377  124.833  168.884  30.7176
  8723.196  8723.200  0.500  1.706549  124.832  168.894  30.6527
  8723.510  8723.500  0.500  1.708429  124.82  168.872  30.5913
  8723.801  8723.800  0.500  1.710122  124.816  168.87  30.539
  8724.099  8724.100  0.500  1.711671  124.805  168.868  30.4915
  8724.400  8724.400  0.500  1.713078  124.8  168.883  30.4513
  8724.701  8724.700  0.500  1.714244  124.786  168.858  30.4112
  8725.002  8725.000  0.500  1.715290  124.778  168.846  30.3773
  8725.293  8725.300  0.500  1.716296  124.773  168.863  30.3498
  8725.594  8725.600  0.500  1.717140  124.775  168.854  30.3225
  8725.889  8725.900  0.500  1.717872  124.773  168.844  30.2986
  8726.187  8726.200  0.500  1.718449  125.106  169.291  30.3614
  8726.488  8726.500  0.500  1.719194  125.135  169.341  30.3477
  8726.792  8726.800  0.500  1.719606  125.136  169.341  30.3352
  8727.103  8727.100  0.500  1.720146  125.138  169.359  30.3221
  8727.398  8727.400  0.500  1.720610  125.136  169.38  30.3118
  8727.699  8727.700  0.500  1.721116  125.134  169.389  30.298
  8728.000  8728.000  0.500  1.721649  125.134  169.396  30.2832
  8728.315  8728.300  0.500  1.722308  125.13  169.395  30.263
  8728.675  8728.600  0.500  1.722980  125.119  169.385  30.2409
  8728.868  8728.900  0.500  1.723392  125.1  169.37  30.2258
  8729.166  8729.200  0.500  1.724171  125.082  169.352  30.199
  8729.471  8729.500  0.500  1.724942  125.066  169.336  30.1729
  8729.789  8729.800  0.500  1.725718  125.062  169.35  30.1519
  8730.149  8730.100  0.500  1.726762  125.053  169.324  30.116
  8730.369  8730.400  0.500  1.727403  125.034  169.287  30.09
  8730.686  8730.700  0.500  1.728400  125.02  169.269  30.0569
  8731.054  8731.000  0.500  1.729517  125.002  169.29  30.0269
  8731.273  8731.300  0.500  1.730319  124.948  169.223  29.991
  8731.624  8731.600  0.500  1.731594  124.943  169.187  29.9465
  8731.915  8731.900  0.500  1.732671  124.944  169.22  29.9201
  8732.220  8732.200  0.500  1.733856  124.928  169.212  29.8832
  8732.528  8732.500  0.500  1.734933  124.926  169.201  29.8491
  8732.817  8732.800  0.500  1.736026  124.918  169.195  29.8155
  8733.017  8733.000  0.500  1.736710  124.914  169.225  29.8004
  8734.014  8733.990  0.500  1.739748  124.888  169.211  29.7074
  8735.004  8734.990  0.500  1.741641  124.869  169.192  29.648
  8736.028  8736.010  0.500  1.742027  124.85  169.197  29.6373
  8737.087  8737.060  0.500  1.740967  124.829  169.187  29.6671
  8738.148  8738.120  0.500  1.739538  124.806  169.172  29.7068
  8739.224  8739.200  0.500  1.738053  124.78  169.165  29.7497
  8740.318  8740.300  0.500  1.736734  124.761  169.164  29.7889
  8741.435  8741.420  0.500  1.735220  124.743  169.164  29.834
  8742.581  8742.560  0.500  1.733387  124.719  169.16  29.888
  8743.735  8743.710  0.500  1.731131  124.692  169.141  29.9521
  8744.918  8744.890  0.500  1.728400  124.668  169.12  30.0303
  8746.099  8746.080  0.500  1.725626  124.638  169.127  30.1149
  8747.315  8747.300  0.500  1.722920  124.616  169.104  30.1925
  8748.546  8748.530  0.500  1.720184  124.601  169.09  30.2728
  8749.797  8749.780  0.500  1.717409  124.571  169.104  30.3593
  8751.067  8751.050  0.500  1.714511  124.544  169.094  30.4457
  8752.351  8752.340  0.500  1.711572  124.51  169.071  30.5311
  8753.653  8753.650  0.500  1.709043  124.49  169.071  30.6084
  8754.990  8754.980  0.500  1.706941  124.464  169.07  30.6726
  8756.342  8756.330  0.500  1.705289  124.426  169.046  30.7189
  8757.720  8757.700  0.500  1.704238  124.403  169.043  30.7507
  8759.089  8759.080  0.500  1.703597  124.374  169.06  30.7737
  8760.491  8760.490  0.500  1.703028  124.339  169.044  30.7883
  8761.926  8761.910  0.500  1.702604  124.312  169.008  30.7948
  8763.359  8763.350  0.500  1.702157  124.275  168.974  30.8022
  8764.829  8764.810  0.500  1.701991  124.23  168.95  30.803
  8766.292  8766.290  0.500  1.701819  124.204  168.956  30.8094
  8767.799  8767.790  0.500  1.701857  124.174  168.956  30.8082
  8769.327  8769.310  0.500  1.701875  124.158  168.951  30.8068
  8770.858  8770.850  0.500  1.701905  124.141  168.94  30.8038
  8772.416  8772.410  0.500  1.701951  124.104  168.928  30.8001
  8773.985  8773.980  0.500  1.701934  124.068  168.931  30.8013
  8775.590  8775.580  0.500  1.701804  124.044  168.943  30.8075
  8777.197  8777.190  0.500  1.701668  124.001  168.913  30.8063
  8778.844  8778.830  0.500  1.701561  123.971  168.905  30.808
  8780.491  8780.480  0.500  1.701563  123.935  168.881  30.8035
  8782.172  8782.150  0.500  1.701706  123.895  168.851  30.7938
  8783.844  8783.840  0.500  1.701648  123.858  168.843  30.7941
  8785.556  8785.550  0.500  1.701501  123.806  168.811  30.7928
  8787.286  8787.280  0.500  1.701305  123.777  168.806  30.7979
  8789.039  8789.030  0.500  1.700922  123.733  168.785  30.8058
  8790.784  8790.790  0.500  1.700511  123.693  168.768  30.8154
  8792.595  8792.580  0.500  1.700061  123.651  168.742  30.8245
  8794.391  8794.380  0.500  1.699535  123.61  168.731  30.8386
  8796.217  8796.210  0.500  1.698800  123.565  168.725  30.8603
  8798.068  8798.050  0.500  1.697786  123.526  168.673  30.8821
  8799.922  8799.910  0.500  1.696688  123.49  168.664  30.9144
  8801.794  8801.790  0.500  1.695287  123.45  168.663  30.9576
  8803.714  8803.690  0.500  1.693824  123.407  168.664  31.003
  8805.617  8805.610  0.500  1.692392  123.371  168.643  31.0436
  8807.559  8807.550  0.500  1.690889  123.324  168.625  31.087
  8809.531  8809.510  0.500  1.689413  123.29  168.612  31.1305
  8811.487  8811.480  0.500  1.687971  123.245  168.596  31.1725
  8813.488  8813.480  0.500  1.686486  123.201  168.576  31.215
  8815.503  8815.490  0.500  1.684961  123.155  168.548  31.2575
  8817.526  8817.520  0.500  1.683357  123.122  168.56  31.3099
  8819.596  8819.580  0.500  1.681701  123.072  168.555  31.3609
  8821.661  8821.650  0.500  1.680107  123.038  168.528  31.4059
  8823.737  8823.740  0.500  1.678582  122.987  168.491  31.4469
  8825.853  8825.850  0.500  1.677288  122.934  168.469  31.4835
  8827.985  8827.980  0.500  1.676141  122.896  168.451  31.5162
  8830.134  8830.120  0.500  1.675122  122.852  168.424  31.5433
  8832.315  8832.290  0.500  1.674136  122.794  168.403  31.5705
  8834.490  8834.480  0.500  1.673331  122.749  168.35  31.586
  8836.686  8836.680  0.500  1.672525  122.705  168.326  31.6069
  8838.910  8838.900  0.500  1.671902  122.657  168.342  31.6297
  8841.152  8841.150  0.500  1.671304  122.624  168.327  31.6458
  8843.419  8843.410  0.500  1.670868  122.577  168.317  31.6577
  8845.700  8845.690  0.500  1.670284  122.527  168.324  31.6774
  8848.000  8847.990  0.500  1.669717  122.477  168.277  31.6867
  8850.318  8850.310  0.500  1.669067  122.429  168.274  31.7066
  8852.657  8852.650  0.500  1.668113  122.382  168.261  31.7344
  8855.011  8855.000  0.500  1.667150  122.332  168.195  31.7525
  8857.379  8857.380  0.500  1.665796  122.282  168.159  31.7888
  8859.786  8859.770  0.500  1.664518  122.223  168.149  31.8275
  8862.198  8862.190  0.500  1.663254  122.247  168.242  31.8855
  8864.638  8864.620  0.500  1.661890  122.267  168.325  31.9448
  8867.083  8867.070  0.500  1.660469  122.222  168.321  31.9893
  8869.547  8869.550  0.500  1.659247  122.233  168.382  32.04
  8872.045  8872.040  0.500  1.657930  122.192  168.381  32.0821
  8874.549  8874.550  0.500  1.656745  122.147  168.37  32.1181
  8877.081  8877.070  0.500  1.655792  122.085  168.339  32.1428
  8879.624  8879.620  0.500  1.654688  122.028  168.302  32.1711
  8882.197  8882.190  0.500  1.653799  121.949  168.24  32.188
  8884.777  8884.770  0.500  1.652751  121.92  168.243  32.2222
  8887.393  8887.380  0.500  1.651897  121.863  168.203  32.2421
  8890.014  8890.000  0.500  1.650811  121.805  168.193  32.2752
  8892.657  8892.650  0.500  1.649690  121.74  168.161  32.3053
  8895.323  8895.310  0.500  1.648222  121.68  168.122  32.3453
  8898.006  8897.990  0.500  1.647009  121.609  168.066  32.3737
  8900.702  8900.690  0.500  1.645521  121.555  168.033  32.4156
  8903.410  8903.410  0.500  1.643970  121.49  168.002  32.46
  8906.170  8906.150  0.500  1.642357  121.412  167.967  32.5055
  8908.905  8908.900  0.500  1.640846  121.289  167.854  32.5328
  8911.700  8911.680  0.500  1.639168  119.758  165.788  32.1864
  8914.476  8914.470  0.500  1.637668  121.255  167.927  32.6505
  8917.305  8917.290  0.500  1.636242  120.683  167.191  32.5539
  8920.119  8920.120  0.500  1.634860  121.217  167.985  32.7536
  8922.993  8922.970  0.500  1.633585  120.796  167.449  32.6908
  8925.848  8925.850  0.500  1.632496  121.145  168.001  32.8344
  8928.757  8928.740  0.500  1.631343  120.992  167.842  32.841
  8931.657  8931.650  0.500  1.630258  118.654  164.65  32.2514
  8934.597  8934.570  0.500  1.629165  120.948  167.884  32.9209
  8937.529  8937.520  0.500  1.628132  120.753  167.667  32.9123
  8940.514  8940.490  0.500  1.627058  120.786  167.767  32.9674
  8943.474  8943.470  0.500  1.625802  120.733  167.755  33.0064
  8946.498  8946.480  0.500  1.624703  120.662  167.723  33.0363
  8949.520  8949.500  0.500  1.623489  120.584  167.676  33.0673
  8952.572  8952.550  0.500  1.622060  120.227  167.232  33.0269
  8955.627  8955.610  0.500  1.620585  120.439  167.589  33.1463
  8958.724  8958.690  0.500  1.619124  120.38  167.577  33.1924
  8961.766  8961.790  0.500  1.617702  120.299  167.499  33.224
  8964.896  8964.910  0.500  1.616255  120.177  167.42  33.2565
  8968.031  8968.050  0.500  1.614709  120.144  167.419  33.3078
  8971.193  8971.200  0.500  1.613308  120.086  167.389  33.3485
  8974.375  8974.380  0.500  1.612002  120.016  167.356  33.3854
  8977.573  8977.570  0.500  1.610471  119.943  167.32  33.4294
  8980.804  8980.790  0.500  1.609104  119.868  167.277  33.4667
  8984.031  8984.020  0.500  1.607795  119.727  167.146  33.4841
  8987.285  8987.270  0.500  1.606373  119.673  167.132  33.5289
  8990.555  8990.550  0.500  1.604987  119.572  167.047  33.5584
  8993.855  8993.840  0.500  1.603542  118.873  166.115  33.4194
  8997.158  8997.150  0.500  1.602081  119.467  167.009  33.6485
  9000.477  9000.470  0.500  1.600635  119.313  166.887  33.6725
  9003.827  9003.820  0.500  1.599099  116.9  163.564  33.0527
  9007.197  9007.190  0.500  1.597556  119.231  166.886  33.7761
  9010.583  9010.570  0.500  1.595891  118.562  166.003  33.6535
  9013.979  9013.980  0.500  1.594296  119.13  166.871  33.8834
  9017.412  9017.400  0.500  1.592609  118.998  166.761  33.9183
  9020.862  9020.850  0.500  1.590979  116.964  163.975  33.4061
  9024.322  9024.310  0.500  1.589380  118.945  166.802  34.0364
  9027.795  9027.790  0.500  1.587748  118.859  166.738  34.0789
  9031.303  9031.290  0.500  1.586340  118.765  166.676  34.1142
  9034.817  9034.810  0.500  1.584851  118.686  166.635  34.1566
  9038.355  9038.350  0.500  1.583416  118.59  166.576  34.1935
  9041.909  9041.900  0.500  1.582074  117.381  164.937  33.9025
  9045.491  9045.480  0.500  1.580494  118.379  166.404  34.2582
  9049.091  9049.080  0.500  1.579018  118.317  166.389  34.3057
  9052.707  9052.690  0.500  1.577469  118.241  166.342  34.3491
  9056.330  9056.320  0.500  1.576003  118.162  166.291  34.389
  9059.998  9059.980  0.500  1.574471  118.085  166.253  34.4339
  9063.659  9063.650  0.500  1.572863  116.93  164.693  34.1657
  9067.347  9067.340  0.500  1.571300  117.881  166.103  34.5121
  9071.081  9071.050  0.500  1.569668  117.829  166.089  34.5656
  9074.793  9074.780  0.500  1.568013  117.744  166.023  34.609
  9078.537  9078.520  0.500  1.566422  117.656  165.964  34.6517
  9082.309  9082.290  0.500  1.564793  116.34  164.197  34.3387
  9086.091  9086.080  0.500  1.563050  117.45  165.798  34.7342
  9089.905  9089.880  0.500  1.561528  117.382  165.769  34.7809
  9093.723  9093.710  0.500  1.560051  117.294  165.742  34.8266
  9097.572  9097.550  0.500  1.558345  117.217  165.691  34.8754
  9101.428  9101.410  0.500  1.556659  117.131  165.636  34.9226
  9105.301  9105.290  0.500  1.555057  116.283  164.523  34.7436
  9109.207  9109.190  0.500  1.553525  116.912  165.495  35.0024
  9113.137  9113.110  0.500  1.551839  116.843  165.467  35.0555
  9117.068  9117.050  0.500  1.550019  116.756  165.399  35.105
  9121.030  9121.010  0.500  1.548469  116.649  165.317  35.142
  9125.007  9124.980  0.500  1.546658  116.562  165.267  35.1951
  9129.002  9128.980  0.500  1.545079  116.45  165.166  35.2292
  9133.022  9132.990  0.500  1.543340  116.36  165.091  35.2745
  9137.052  9137.030  0.500  1.541651  116.236  164.997  35.314
  9141.097  9141.080  0.500  1.539912  116.076  164.856  35.345
  9145.164  9145.150  0.500  1.538239  112.248  159.487  34.2512
  9149.264  9149.240  0.500  1.536508  116.017  164.918  35.4789
  9153.370  9153.350  0.500  1.534734  115.855  164.753  35.5065
  9157.510  9157.480  0.500  1.532929  113.591  161.601  34.8901
  9161.653  9161.630  0.500  1.531356  115.758  164.762  35.6286
  9165.811  9165.790  0.500  1.529533  115.53  164.512  35.6393
  9169.998  9169.980  0.500  1.527841  114.335  162.868  35.3429
  9174.208  9174.180  0.500  1.526026  115.464  164.536  35.7699
  9178.432  9178.410  0.500  1.524234  115.295  164.386  35.8012
  9182.678  9182.650  0.500  1.522484  111.332  158.813  34.6481
  9186.947  9186.910  0.500  1.520650  115.236  164.449  35.9437
  9191.198  9191.190  0.500  1.519071  115.079  164.289  35.9654
  9195.500  9195.490  0.500  1.517225  114.937  164.162  36.004
  9199.831  9199.810  0.500  1.515483  114.776  164.025  36.0365
  9204.182  9204.150  0.500  1.513725  114.653  163.919  36.0768
  9208.541  9208.510  0.500  1.511980  114.545  163.833  36.1208
  9212.907  9212.890  0.500  1.510179  114.462  163.779  36.1739
  9217.307  9217.280  0.500  1.508416  114.343  163.697  36.2197
  9221.722  9221.700  0.500  1.506640  114.221  163.596  36.2616
  9226.156  9226.130  0.500  1.504843  114.119  163.516  36.3092
  9230.588  9230.580  0.500  1.503109  114.014  163.423  36.3513
  9235.075  9235.050  0.500  1.501279  113.903  163.329  36.3971
  9239.570  9239.540  0.500  1.499453  113.79  163.271  36.4507
  9244.066  9244.050  0.500  1.497647  113.668  163.166  36.4931
  9248.600  9248.580  0.500  1.495718  113.574  163.092  36.5469
  9253.156  9253.130  0.500  1.493806  113.46  162.991  36.5942
  9257.721  9257.700  0.500  1.491973  113.319  162.867  36.6335
  9262.310  9262.280  0.500  1.490088  113.207  162.775  36.6817
  9266.902  9266.890  0.500  1.488271  113.112  162.704  36.7324
  9271.537  9271.510  0.500  1.486400  112.988  162.633  36.7852
  9276.187  9276.160  0.500  1.484532  112.145  161.488  36.5946
  9280.850  9280.820  0.500  1.482651  112.789  162.501  36.8934
  9285.517  9285.500  0.500  1.480902  112.656  162.395  36.9338
  9290.212  9290.200  0.500  1.479025  112.522  162.249  36.9699
  9294.948  9294.920  0.500  1.477065  112.435  162.197  37.0308
  9299.686  9299.660  0.500  1.475145  110.485  159.474  36.4789
  9304.425  9304.410  0.500  1.473319  112.236  162.079  37.1426
  9309.211  9309.190  0.500  1.471530  112.141  162.015  37.1944
  9313.997  9313.990  0.500  1.469610  111.984  161.841  37.2259
  9318.811  9318.800  0.500  1.467765  111.887  161.788  37.2823
  9323.649  9323.630  0.500  1.465822  111.522  161.358  37.2556
  9328.511  9328.490  0.500  1.463964  111.643  161.623  37.3862
  9333.370  9333.360  0.500  1.461967  111.531  161.501  37.4327
  9338.272  9338.250  0.500  1.460071  111.392  161.368  37.4729
  9343.180  9343.160  0.500  1.458212  111.284  161.308  37.5286
  9348.107  9348.090  0.500  1.456243  111.157  161.218  37.5816
  9353.048  9353.030  0.500  1.454222  111.042  161.089  37.6274
  9358.013  9358.000  0.500  1.452281  110.916  161.008  37.6817
  9363.017  9362.990  0.500  1.450384  110.799  160.903  37.7285
  9368.012  9367.990  0.500  1.448427  110.682  160.809  37.7804
  9373.035  9373.020  0.500  1.446509  110.556  160.721  37.8323
  9378.079  9378.060  0.500  1.444578  110.442  160.622  37.8819
  9383.147  9383.120  0.500  1.442692  110.303  160.503  37.9254
  9388.221  9388.200  0.500  1.440765  110.175  160.408  37.976
  9393.315  9393.300  0.500  1.438867  110.055  160.292  38.0207
  9398.434  9398.420  0.500  1.436830  109.945  160.207  38.0779
  9403.590  9403.560  0.500  1.434880  109.816  160.099  38.1266
  9408.740  9408.720  0.500  1.433091  109.684  159.994  38.1698
  9413.918  9413.900  0.500  1.431138  109.561  159.875  38.2161
  9419.107  9419.090  0.500  1.429181  109.411  159.763  38.264
  9424.328  9424.310  0.500  1.427112  109.29  159.665  38.3197
  9429.566  9429.540  0.500  1.425081  109.167  159.539  38.3673
  9434.814  9434.790  0.500  1.423192  109.033  159.414  38.4098
  9440.076  9440.060  0.500  1.421129  108.882  159.27  38.4543
  9445.375  9445.350  0.500  1.419238  108.762  159.199  38.5101
  9450.691  9450.660  0.500  1.417139  108.646  159.111  38.5695
  9456.010  9455.990  0.500  1.415161  108.494  158.966  38.6107
  9461.365  9461.340  0.500  1.413167  108.358  158.833  38.6554
  9466.731  9466.710  0.500  1.411149  108.22  158.717  38.7052
  9472.118  9472.090  0.500  1.409221  108.081  158.592  38.7492
  9477.528  9477.500  0.500  1.407106  108.379  159.116  38.9598
  9482.943  9482.920  0.500  1.405135  108.263  159.024  39.0139
  9488.388  9488.370  0.500  1.403135  108.155  158.92  39.0665
  9493.851  9493.830  0.500  1.401060  108.018  158.803  39.1188
  9499.333  9499.310  0.500  1.399084  107.877  158.673  39.1641
  9504.832  9504.810  0.500  1.397035  107.747  158.555  39.2153
  9510.350  9510.330  0.500  1.394949  107.601  158.425  39.265
  9515.898  9515.870  0.500  1.393009  107.471  158.294  39.3086
  9521.456  9521.420  0.500  1.390873  107.324  158.16  39.3594
  9527.029  9527.000  0.500  1.388849  107.192  158.05  39.4118
  9532.620  9532.600  0.500  1.386836  107.052  157.931  39.4613
  9538.230  9538.210  0.500  1.384837  106.937  157.847  39.5192
  9543.862  9543.850  0.500  1.382808  106.776  157.695  39.5615
  9549.529  9549.500  0.500  1.380780  106.647  157.554  39.6062
  9555.198  9555.170  0.500  1.378848  106.517  157.422  39.6497
  9560.891  9560.860  0.500  1.376746  106.369  157.299  39.7021