File: xdidata/Data/Pt/Pt-L1-PlatinumChloride.xdi
# XDI/1.0 BlueSky/1.10.0 BMM/2023-1.0-py310-tiled
# Beamline.name: BMM (06BM) -- Beamline for Materials Measurement (NIST)
# Beamline.xray_source: NSLS-II three-pole wiggler
# Beamline.collimation: paraboloid mirror, 5 nm Rh on 30 nm Pt
# Beamline.focusing: not in use
# Beamline.harmonic_rejection: flat mirror, Pt stripe, pitch = 7.0 mrad relative to beam
# Beamline.software: Bluesky 1.10.0, Ophyd 1.7.0, DataBroker 2.0.0b13, Python 3.10.8, 2023-1.0-py310-tiled
# Detector.I0: 10 cm N2
# Detector.I1: 25 cm N2
# Detector.I2: 25 cm N2
# Element.symbol: Pt
# Element.edge: L1
# Element.reference: Pt
# Element.reference_material: Pt foil
# Facility.name: NSLS-II
# Facility.energy: 3.0
# Facility.current: 400.3
# Facility.mode: top-off
# Facility.GUP: 301027
# Facility.SAF: 310583
# Facility.cycle: 2023-2
# Mono.name: Si(111)
# Mono.d_spacing: 3.13519
# Mono.encoder_resolution: 0.0000050 deg/ct
# Mono.angle_offset: 16.0754 deg
# Mono.scan_mode: pseudo channel cut
# Mono.scan_type: step
# Mono.direction: forward in energy
# Sample.name: PtCl2
# Sample.prep: powder on tape
# Sample.x: 119.711 mm
# Sample.y: 114.376 mm
# Sample.SDD_position: 205.000 mm
# Scan.experimenters: Bruce Ravel
# Scan.edge_energy: 13880.5
# Scan.start_time: 2023-06-27T19:43:56
# Scan.end_time: 2023-06-27T19:51:46
# Scan.transient_id: 85271
# Scan.uid: ef1f90cd-ec03-4686-895c-3f464d443e44
# Scan.plot_hint: ln(I0/It)  --  ln($5/$6)
# Column.1: energy eV
# Column.2: requested_energy eV
# Column.3: measurement_time seconds
# Column.4: xmu
# Column.5: I0 nA
# Column.6: It nA
# Column.7: Ir nA
# ///////////
# sample courtesy Simon Bare and Shelly Kelly
# -----------
# energy  requested_energy  measurement_time  xmu  I0  It  Ir
  13680.501  13680.500  0.500  0.564363  38.739  22.0318  5.065976
  13690.537  13690.500  0.500  0.562153  38.7119  22.065  5.076575
  13700.563  13700.500  0.500  0.559581  38.625  22.0722  5.086978
  13710.563  13710.500  0.500  0.556903  38.584  22.1079  5.113660
  13720.586  13720.500  0.500  0.554228  38.4971  22.1171  5.150133
  13730.575  13730.500  0.500  0.551654  38.4007  22.1186  5.180924
  13740.578  13740.500  0.500  0.549571  38.3122  22.1137  5.188958
  13750.596  13750.500  0.500  0.547739  38.257  22.1223  5.191850
  13760.463  13760.500  0.500  0.546385  38.1565  22.0941  5.188086
  13770.511  13770.500  0.500  0.544825  38.0877  22.0887  5.192010
  13780.523  13780.500  0.500  0.543345  37.988  22.0635  5.192815
  13790.500  13790.500  0.500  0.541681  37.914  22.0572  5.201084
  13800.517  13800.500  0.500  0.539922  37.8256  22.0445  5.212991
  13810.565  13810.500  0.500  0.538017  37.7464  22.0403  5.232563
  13820.545  13820.500  0.500  0.536193  37.6708  22.0363  5.247647
  13830.564  13830.500  0.500  0.534339  37.5904  22.0301  5.258736
  13840.548  13840.500  0.500  0.532896  37.5131  22.0165  5.268483
  13850.563  13850.500  0.500  0.531966  37.4425  21.9956  5.266020
  13852.516  13852.500  0.500  0.531923  37.3839  21.9621  5.258051
  13854.511  13854.500  0.500  0.531944  37.3646  21.9503  5.254227
  13856.523  13856.500  0.500  0.531790  37.3191  21.9269  5.246641
  13858.470  13858.500  0.500  0.531744  37.3236  21.9306  5.244139
  13860.475  13860.500  0.500  0.532013  37.3238  21.9248  5.240618
  13862.498  13862.500  0.500  0.532257  37.2957  21.9029  5.230056
  13864.504  13864.500  0.500  0.532548  37.2835  21.8894  5.223975
  13866.495  13866.500  0.500  0.533045  37.2738  21.8728  5.213220
  13868.502  13868.500  0.500  0.533692  37.2323  21.8344  5.197062
  13870.460  13870.500  0.500  0.534474  37.2029  21.8001  5.178641
  13870.729  13870.800  0.500  0.534762  37.2278  21.8084  5.180090
  13871.057  13871.100  0.500  0.534912  37.2123  21.796  5.174219
  13871.343  13871.400  0.500  0.535135  37.196  21.7816  5.168999
  13871.637  13871.700  0.500  0.535277  37.1816  21.7701  5.164543
  13871.948  13872.000  0.500  0.535703  37.1824  21.7613  5.160376
  13872.242  13872.300  0.500  0.535746  37.1702  21.7532  5.156146
  13872.545  13872.600  0.500  0.535994  37.1784  21.7526  5.154162
  13872.873  13872.900  0.500  0.536173  37.1721  21.7451  5.150165
  13873.167  13873.200  0.500  0.536533  37.168  21.7348  5.145385
  13873.470  13873.500  0.500  0.536878  37.1437  21.7131  5.137960
  13873.781  13873.800  0.500  0.537091  37.1229  21.6963  5.131568
  13874.067  13874.100  0.500  0.537320  37.1265  21.6935  5.127689
  13874.378  13874.400  0.500  0.537696  37.1136  21.6778  5.120648
  13874.681  13874.700  0.500  0.538071  37.1033  21.6636  5.113515
  13874.966  13875.000  0.500  0.538286  37.1071  21.6612  5.110569
  13875.278  13875.300  0.500  0.538683  37.1072  21.6526  5.104281
  13875.589  13875.600  0.500  0.539123  37.1094  21.6444  5.098649
  13875.875  13875.900  0.500  0.539548  37.1161  21.6392  5.093914
  13876.186  13876.200  0.500  0.540022  37.1078  21.6241  5.085569
  13876.497  13876.500  0.500  0.540568  37.1037  21.6099  5.078694
  13876.775  13876.800  0.500  0.541038  37.1119  21.6044  5.072445
  13877.069  13877.100  0.500  0.541588  37.1173  21.5957  5.065053
  13877.380  13877.400  0.500  0.542035  37.0889  21.5696  5.053367
  13877.666  13877.700  0.500  0.542740  37.085  21.5521  5.043010
  13877.986  13878.000  0.500  0.543539  37.076  21.5296  5.031984
  13878.264  13878.300  0.500  0.544069  37.0764  21.5185  5.022988
  13878.567  13878.600  0.500  0.544760  37.0649  21.4969  5.011490
  13878.870  13878.900  0.500  0.545785  37.0713  21.4786  5.000038
  13879.156  13879.200  0.500  0.546447  37.0629  21.4596  4.988798
  13879.476  13879.500  0.500  0.547577  37.0315  21.4171  4.970440
  13879.770  13879.800  0.500  0.548430  37.0404  21.4041  4.959196
  13880.081  13880.100  0.500  0.549515  37.0185  21.3682  4.942713
  13880.401  13880.400  0.500  0.550680  37.0077  21.3371  4.923611
  13880.679  13880.700  0.500  0.551701  37.0119  21.3177  4.911946
  13880.982  13881.000  0.500  0.552843  36.9977  21.2852  4.892753
  13881.293  13881.300  0.500  0.554367  36.9934  21.2503  4.873813
  13881.588  13881.600  0.500  0.555487  36.9555  21.2048  4.853451
  13881.891  13881.900  0.500  0.556974  36.9444  21.1669  4.832591
  13882.186  13882.200  0.500  0.558566  36.9398  21.1306  4.813089
  13882.489  13882.500  0.500  0.560160  36.9466  21.1009  4.794402
  13882.809  13882.800  0.500  0.562027  36.9567  21.0672  4.773477
  13883.103  13883.100  0.500  0.563672  36.9443  21.0256  4.753050
  13883.398  13883.400  0.500  0.565678  36.9595  20.9921  4.732666
  13883.684  13883.700  0.500  0.567460  36.9725  20.9621  4.715096
  13884.004  13884.000  0.500  0.569502  36.93  20.8953  4.686208
  13884.308  13884.300  0.500  0.571656  36.9384  20.855  4.664204
  13884.611  13884.600  0.500  0.573704  36.9341  20.81  4.641073
  13884.914  13884.900  0.500  0.575930  36.9312  20.762  4.619175
  13885.200  13885.200  0.500  0.578295  36.8995  20.6952  4.590999
  13885.504  13885.500  0.500  0.580759  36.8946  20.6415  4.568264
  13885.773  13885.800  0.500  0.583074  36.8961  20.5946  4.545545
  13886.093  13886.100  0.500  0.585731  36.8598  20.5198  4.517482
  13886.371  13886.400  0.500  0.588106  36.8832  20.4841  4.497091
  13886.700  13886.700  0.500  0.590910  36.8569  20.4122  4.466702
  13886.969  13887.000  0.500  0.593364  36.855  20.3611  4.446131
  13887.289  13887.300  0.500  0.595963  36.8407  20.3004  4.419776
  13887.576  13887.600  0.500  0.598546  36.846  20.2509  4.398676
  13887.896  13887.900  0.500  0.601349  36.8278  20.1843  4.370367
  13888.182  13888.200  0.500  0.603827  36.8175  20.1287  4.345124
  13888.503  13888.500  0.500  0.606295  36.8429  20.0929  4.325121
  13888.772  13888.800  0.500  0.608820  36.8236  20.0317  4.300027
  13889.101  13889.100  0.500  0.611335  36.8119  19.9751  4.273268
  13889.413  13889.400  0.500  0.613883  36.7979  19.9167  4.247962
  13889.708  13889.700  0.500  0.616329  36.7997  19.869  4.226105
  13889.994  13890.000  0.500  0.618677  36.7829  19.8133  4.199952
  13890.323  13890.300  0.500  0.621115  36.774  19.7603  4.176657
  13890.610  13890.600  0.500  0.623213  36.7622  19.7126  4.152877
  13890.913  13890.900  0.500  0.625498  36.7503  19.6612  4.127919
  13891.208  13891.200  0.500  0.627456  36.749  19.6221  4.105306
  13891.495  13891.500  0.500  0.629494  36.7361  19.5753  4.082095
  13891.807  13891.800  0.500  0.631384  36.7212  19.5304  4.058145
  13892.093  13892.100  0.500  0.633074  36.7099  19.4914  4.036865
  13892.397  13892.400  0.500  0.634784  36.7193  19.4631  4.017089
  13892.683  13892.700  0.500  0.636143  36.7143  19.434  3.998793
  13893.004  13893.000  0.500  0.637369  36.7045  19.405  3.978036
  13893.274  13893.300  0.500  0.638410  36.7059  19.3856  3.962387
  13893.586  13893.600  0.500  0.639361  36.6932  19.3604  3.945124
  13893.864  13893.900  0.500  0.640331  36.683  19.3363  3.929254
  13894.193  13894.200  0.500  0.641086  36.678  19.319  3.912377
  13894.471  13894.500  0.500  0.641637  36.6832  19.3111  3.901955
  13894.783  13894.800  0.500  0.642250  36.6493  19.2814  3.886200
  13895.095  13895.100  0.500  0.642510  36.6559  19.2799  3.876144
  13895.399  13895.400  0.500  0.642594  36.6442  19.2722  3.864792
  13895.694  13895.700  0.500  0.642960  36.6414  19.2636  3.855969
  13895.998  13896.000  0.500  0.643084  36.6468  19.2641  3.850033
  13896.318  13896.300  0.500  0.643129  36.6168  19.2475  3.840190
  13896.605  13896.600  0.500  0.643082  36.6002  19.2396  3.832953
  13896.917  13896.900  0.500  0.643245  36.5999  19.2363  3.826918
  13897.196  13897.200  0.500  0.642965  36.6088  19.2464  3.825758
  13897.516  13897.500  0.500  0.643026  36.5962  19.2386  3.821326
  13897.786  13897.800  0.500  0.643070  36.735  19.3107  3.833023
  13898.115  13898.100  0.500  0.642978  36.7214  19.3054  3.830036
  13898.402  13898.400  0.500  0.642856  36.7225  19.3083  3.829171
  13898.706  13898.700  0.500  0.642949  36.7338  19.3124  3.830609
  13899.010  13899.000  0.500  0.642852  36.7479  19.3217  3.830975
  13899.305  13899.300  0.500  0.642756  36.7441  19.3216  3.830653
  13899.618  13899.600  0.500  0.642775  36.7455  19.3219  3.831344
  13899.896  13899.900  0.500  0.642819  36.7237  19.3096  3.830332
  13900.191  13900.200  0.500  0.642754  36.7318  19.3152  3.832361
  13900.478  13900.500  0.500  0.642710  36.7411  19.3209  3.835908
  13900.791  13900.800  0.500  0.642868  36.7284  19.3112  3.835669
  13901.103  13901.100  0.500  0.642949  36.722  19.3062  3.837550
  13901.382  13901.400  0.500  0.643002  36.7134  19.3007  3.839014
  13901.686  13901.700  0.500  0.642952  36.7266  19.3086  3.843856
  13901.973  13902.000  0.500  0.643181  36.7349  19.3085  3.846672
  13902.302  13902.300  0.500  0.643314  36.7117  19.2938  3.847825
  13902.589  13902.600  0.500  0.643483  36.7076  19.2883  3.850953
  13902.893  13902.900  0.500  0.643605  36.6999  19.2819  3.853219
  13903.189  13903.200  0.500  0.643866  36.6965  19.2751  3.857121
  13903.509  13903.500  0.500  0.644054  36.6835  19.2647  3.859982
  13903.813  13903.800  0.500  0.644161  36.6852  19.2635  3.864899
  13904.092  13904.100  0.500  0.644336  36.6911  19.2632  3.869283
  13904.413  13904.400  0.500  0.644499  36.6808  19.2547  3.872401
  13904.709  13904.700  0.500  0.644804  36.6826  19.2498  3.876255
  13905.013  13905.000  0.500  0.644977  36.6824  19.2463  3.880036
  13905.308  13905.300  0.500  0.645215  36.71  19.2562  3.886125
  13905.503  13905.500  0.500  0.645463  36.7253  19.2595  3.890869
  13906.525  13906.490  0.500  0.645976  36.7129  19.2431  3.901236
  13907.513  13907.490  0.500  0.646712  36.722  19.2337  3.910621
  13908.527  13908.510  0.500  0.647065  36.7008  19.2158  3.916366
  13909.559  13909.560  0.500  0.647313  36.6695  19.1947  3.917186
  13910.640  13910.620  0.500  0.647242  36.6592  19.1906  3.917392
  13911.714  13911.700  0.500  0.647232  36.6423  19.182  3.915995
  13912.839  13912.800  0.500  0.647073  36.6641  19.1965  3.916552
  13913.938  13913.920  0.500  0.646897  36.6827  19.2095  3.914350
  13915.080  13915.060  0.500  0.646534  36.6369  19.1925  3.902029
  13916.222  13916.210  0.500  0.646162  36.6278  19.1949  3.893100
  13917.407  13917.390  0.500  0.645454  36.6102  19.1993  3.880959
  13918.583  13918.580  0.500  0.644493  36.5907  19.2075  3.870970
  13919.802  13919.800  0.500  0.643173  36.5566  19.2149  3.860110
  13921.055  13921.030  0.500  0.641998  36.5785  19.2491  3.854584
  13922.299  13922.280  0.500  0.640482  36.5742  19.276  3.852861
  13923.586  13923.550  0.500  0.638837  36.5703  19.3057  3.852687
  13924.849  13924.840  0.500  0.637135  36.5514  19.3286  3.855872
  13926.170  13926.150  0.500  0.635528  36.5533  19.3606  3.867458
  13927.475  13927.480  0.500  0.634083  36.5402  19.3817  3.881671
  13928.848  13928.830  0.500  0.632793  36.5406  19.4069  3.902008
  13930.230  13930.200  0.500  0.631811  36.5209  19.4155  3.922319
  13931.586  13931.580  0.500  0.631049  36.5467  19.4441  3.942940
  13933.019  13932.990  0.500  0.630455  36.5234  19.4432  3.956833
  13934.419  13934.410  0.500  0.630210  36.5163  19.4442  3.967470
  13935.844  13935.850  0.500  0.630037  36.5072  19.4427  3.974885
  13937.304  13937.310  0.500  0.630058  36.4989  19.4379  3.978179
  13938.806  13938.790  0.500  0.630200  36.4784  19.4242  3.976910
  13940.325  13940.290  0.500  0.630334  36.4805  19.4227  3.976679
  13941.845  13941.810  0.500  0.630402  36.4699  19.4158  3.976993
  13943.357  13943.350  0.500  0.630614  36.4488  19.4004  3.975023
  13944.920  13944.910  0.500  0.630750  36.4259  19.3856  3.973102
  13946.492  13946.480  0.500  0.631012  36.4422  19.3892  3.974508
  13948.098  13948.080  0.500  0.631311  36.4145  19.3686  3.971774
  13949.705  13949.690  0.500  0.631660  36.3889  19.3483  3.966279
  13951.354  13951.330  0.500  0.632276  36.3854  19.3345  3.963874
  13952.987  13952.980  0.500  0.632573  36.3586  19.3145  3.959214
  13954.663  13954.650  0.500  0.633177  36.3441  19.2952  3.955177
  13956.348  13956.340  0.500  0.634017  36.3282  19.2706  3.948672
  13958.067  13958.050  0.500  0.634631  36.3274  19.2583  3.943324
  13959.795  13959.780  0.500  0.635329  36.3061  19.2336  3.935315
  13961.532  13961.530  0.500  0.635945  36.2751  19.2053  3.926586
  13963.286  13963.290  0.500  0.636538  36.2618  19.1869  3.919411
  13965.110  13965.080  0.500  0.636836  36.2337  19.1663  3.913658
  13966.891  13966.880  0.500  0.637045  36.2096  19.1495  3.909564
  13968.715  13968.710  0.500  0.636551  36.1679  19.137  3.907348
  13970.548  13970.550  0.500  0.635670  36.0724  19.1032  3.904060
  13972.407  13972.410  0.500  0.634614  35.3827  18.7578  3.840304
  13974.267  13974.290  0.500  0.632807  33.6443  17.8685  3.662702
  13976.195  13976.190  0.500  0.631170  35.4274  18.8463  3.872158
  13978.107  13978.110  0.500  0.629457  36.1439  19.2604  3.963542
  13980.045  13980.050  0.500  0.627872  36.1766  19.3084  3.979892
  13981.967  13982.010  0.500  0.626353  36.1668  19.3325  3.989981
  13983.991  13983.980  0.500  0.624908  36.1447  19.3487  3.996394
  13985.948  13985.980  0.500  0.623548  36.1342  19.3694  4.003998
  13988.025  13987.990  0.500  0.622357  36.1229  19.3864  4.009657
  13990.034  13990.020  0.500  0.621454  36.1075  19.3956  4.011844
  13992.087  13992.080  0.500  0.620498  36.0867  19.403  4.013625
  13994.097  13994.150  0.500  0.619583  36.0652  19.4091  4.013887
  13996.220  13996.240  0.500  0.618994  36.0551  19.4152  4.016338
  13998.300  13998.350  0.500  0.618135  36.0401  19.4238  4.019604
  14000.441  14000.480  0.500  0.617686  36.021  19.4222  4.022933
  14002.582  14002.620  0.500  0.616904  35.9937  19.4227  4.026607
  14004.775  14004.790  0.500  0.616457  36.0025  19.4361  4.033652
  14006.961  14006.980  0.500  0.616102  35.9739  19.4275  4.036544
  14009.790  14009.180  0.500  0.615709  35.9417  19.4178  4.038573
  14011.317  14011.400  0.500  0.615506  35.9555  19.4292  4.043218
  14013.728  14013.650  0.500  0.615439  35.889  19.3946  4.037440
  14015.864  14015.910  0.500  0.615571  35.874  19.3839  4.035003
  14018.191  14018.190  0.500  0.615657  35.8609  19.3751  4.030950
  14020.467  14020.490  0.500  0.615852  35.8406  19.3604  4.025517
  14022.795  14022.810  0.500  0.616361  35.8187  19.3387  4.017938
  14025.149  14025.150  0.500  0.616595  35.801  19.3246  4.011411
  14027.470  14027.500  0.500  0.616965  35.7875  19.3102  4.004135
  14029.869  14029.880  0.500  0.617307  35.7734  19.296  4.002045
  14032.226  14032.270  0.500  0.617451  35.7517  19.2815  3.999672
  14034.670  14034.690  0.500  0.617495  35.7301  19.269  3.999515
  14037.115  14037.120  0.500  0.617094  35.7179  19.2702  4.004855
  14039.552  14039.570  0.500  0.616719  35.6834  19.2588  4.008888
  14042.050  14042.050  0.500  0.615860  35.6583  19.2618  4.015753
  14044.557  14044.540  0.500  0.615110  35.6524  19.273  4.023899
  14047.031  14047.050  0.500  0.614058  35.6229  19.2773  4.030675
  14049.558  14049.570  0.500  0.612993  35.5993  19.2851  4.039564
  14052.103  14052.120  0.500  0.612028  35.5918  19.2997  4.050455
  14054.674  14054.690  0.500  0.610906  35.5459  19.2964  4.056865
  14057.273  14057.270  0.500  0.609999  35.5254  19.3028  4.063806
  14059.890  14059.880  0.500  0.609100  35.5017  19.3072  4.069379
  14062.481  14062.500  0.500  0.608176  35.4476  19.2957  4.068618
  14065.135  14065.150  0.500  0.607227  35.4384  19.3089  4.075828
  14067.798  14067.810  0.500  0.606383  35.3785  19.2926  4.077392
  14070.488  14070.490  0.500  0.605490  35.2015  19.2132  4.067256
  14073.178  14073.190  0.500  0.604722  33.8473  18.4883  3.922110
  14075.922  14075.910  0.500  0.603788  34.1502  18.6711  3.969146
  14078.650  14078.650  0.500  0.602911  35.4859  19.4185  4.132097
  14081.388  14081.400  0.500  0.602284  35.4764  19.4255  4.137982
  14084.169  14084.180  0.500  0.601486  35.3032  19.346  4.121672
  14086.952  14086.970  0.500  0.600796  35.3702  19.3961  4.131331
  14089.797  14089.790  0.500  0.600162  35.3619  19.4039  4.129535
  14092.626  14092.620  0.500  0.599484  35.3271  19.398  4.125419
  14095.490  14095.470  0.500  0.599018  35.3143  19.4  4.124754
  14098.347  14098.350  0.500  0.598620  35.2602  19.378  4.119808
  14101.249  14101.240  0.500  0.598201  35.2252  19.3668  4.117248
  14104.160  14104.150  0.500  0.597967  35.1878  19.3507  4.115670
  14107.090  14107.070  0.500  0.597551  35.139  19.332  4.111623
  14110.039  14110.020  0.500  0.597410  35.04  19.2802  4.102480
  14112.989  14112.990  0.500  0.597249  35.1091  19.3214  4.113403
  14115.958  14115.970  0.500  0.596770  35.0053  19.2735  4.105657
  14118.980  14118.980  0.500  0.596415  34.5137  19.0095  4.052782
  14122.003  14122.000  0.500  0.596069  33.1296  18.2535  3.898634
  14125.063  14125.050  0.500  0.595541  35.1511  19.3775  4.145287
  14128.115  14128.110  0.500  0.595187  35.09  19.3507  4.147768
  14131.169  14131.190  0.500  0.594484  35.0071  19.3186  4.149239
  14134.258  14134.290  0.500  0.593714  34.9998  19.3294  4.157390
  14137.419  14137.410  0.500  0.592908  34.9843  19.3365  4.165463
  14140.565  14140.550  0.500  0.592183  34.9634  19.3389  4.171413
  14143.685  14143.700  0.500  0.591417  34.9361  19.3386  4.177064
  14146.850  14146.880  0.500  0.590593  34.9169  19.3439  4.182534
  14150.061  14150.070  0.500  0.589779  34.8902  19.3448  4.188139
  14153.316  14153.290  0.500  0.588797  34.843  19.3377  4.189011
  14156.512  14156.520  0.500  0.588023  34.8009  19.3293  4.188808
  14159.762  14159.770  0.500  0.587189  34.6683  19.2717  4.176312
  14163.075  14163.050  0.500  0.586242  34.6099  19.2575  4.170783
  14166.346  14166.340  0.500  0.585243  33.3212  18.5589  4.018243
  14169.644  14169.650  0.500  0.584167  34.0615  18.9917  4.112732
  14172.962  14172.970  0.500  0.583230  34.7872  19.4145  4.207207
  14176.325  14176.320  0.500  0.582284  34.7776  19.4275  4.215192
  14179.725  14179.690  0.500  0.581261  34.7452  19.4293  4.220315
  14183.064  14183.070  0.500  0.580390  34.6873  19.4138  4.221021
  14186.468  14186.480  0.500  0.579491  34.6653  19.4189  4.226309
  14189.916  14189.900  0.500  0.578836  34.6438  19.4196  4.228057
  14193.367  14193.350  0.500  0.577879  34.6225  19.4263  4.232758
  14196.801  14196.810  0.500  0.577167  34.5921  19.423  4.235239
  14200.299  14200.290  0.500  0.576574  34.5311  19.4003  4.236065
  14203.807  14203.790  0.500  0.575827  34.5208  19.409  4.243942
  14207.335  14207.310  0.500  0.575263  34.4878  19.4013  4.249835
  14210.873  14210.850  0.500  0.574741  34.4708  19.4019  4.262452
  14214.414  14214.400  0.500  0.574264  34.4478  19.3983  4.270208
  14218.009  14217.980  0.500  0.573381  34.5087  19.4497  4.292138
  14221.597  14221.580  0.500  0.572898  34.4736  19.4393  4.298918
  14225.213  14225.190  0.500  0.572277  34.4464  19.436  4.305766
  14228.831  14228.820  0.500  0.571664  34.4168  19.4312  4.309441
  14232.513  14232.480  0.500  0.570768  34.3907  19.4339  4.310591
  14236.144  14236.150  0.500  0.570326  34.3691  19.4302  4.311468
  14239.856  14239.840  0.500  0.569621  34.3374  19.426  4.308738
  14243.562  14243.550  0.500  0.568791  34.3024  19.4223  4.307830
  14247.305  14247.280  0.500  0.568012  34.2734  19.421  4.307438
  14250.996  14251.020  0.500  0.567227  34.2406  19.4177  4.308215
  14254.806  14254.790  0.500  0.566553  34.2106  19.4137  4.312594
  14258.590  14258.580  0.500  0.565582  34.1731  19.4113  4.316011
  14262.403  14262.380  0.500  0.564883  34.1304  19.4007  4.316890
  14266.209  14266.210  0.500  0.564058  34.0654  19.3797  4.319608
  14270.071  14270.050  0.500  0.563254  33.3003  18.9596  4.229278
  14273.926  14273.910  0.500  0.562257  33.4481  19.0628  4.254250
  14277.792  14277.790  0.500  0.561442  34.0679  19.4318  4.339344
  14281.723  14281.690  0.500  0.560576  34.0306  19.4274  4.341106
  14285.629  14285.610  0.500  0.559575  34.0081  19.434  4.345343
  14289.564  14289.550  0.500  0.558553  33.9846  19.4404  4.351463
  14293.492  14293.510  0.500  0.557648  33.9486  19.4374  4.357541
  14297.502  14297.480  0.500  0.556761  33.8955  19.4243  4.360258
  14301.524  14301.480  0.500  0.555812  33.8652  19.4253  4.366328
  14305.477  14305.490  0.500  0.554827  33.8548  19.4385  4.375581
  14309.539  14309.530  0.500  0.553927  33.8027  19.426  4.378666
  14313.622  14313.580  0.500  0.552839  33.7972  19.444  4.390462
  14317.689  14317.650  0.500  0.552220  33.7581  19.4336  4.396681
  14321.749  14321.740  0.500  0.551315  33.7255  19.4323  4.404295
  14325.893  14325.850  0.500  0.550459  33.6906  19.4289  4.409727
  14330.002  14329.980  0.500  0.549524  33.6714  19.436  4.415393
  14334.124  14334.130  0.500  0.548885  33.6349  19.4273  4.417035
  14338.328  14338.290  0.500  0.547979  33.6139  19.4328  4.421578
  14342.490  14342.480  0.500  0.547250  33.5647  19.4184  4.419752
  14346.682  14346.680  0.500  0.546492  33.5466  19.4227  4.423547
  14350.948  14350.910  0.500  0.545730  33.517  19.4204  4.426789
  14355.189  14355.150  0.500  0.544934  33.4882  19.4191  4.429767
  14359.415  14359.410  0.500  0.544163  33.3573  19.3582  4.422220
  14363.716  14363.690  0.500  0.543140  33.4232  19.4163  4.438910
  14368.029  14367.990  0.500  0.542425  33.3419  19.3829  4.436645
  14372.325  14372.310  0.500  0.541744  33.3629  19.4083  4.448334
  14376.643  14376.650  0.500  0.540663  33.2614  19.3702  4.444267
  14381.054  14381.010  0.500  0.539794  33.2969  19.4077  4.458377
  14385.404  14385.390  0.500  0.538931  33.2272  19.3838  4.459484
  14389.792  14389.780  0.500  0.537860  33.251  19.4185  4.473404
  14394.247  14394.200  0.500  0.536803  33.2072  19.4134  4.478604
  14398.624  14398.630  0.500  0.535866  33.1844  19.4183  4.486578
  14403.084  14403.080  0.500  0.534751  33.1354  19.4112  4.491108
  14407.593  14407.550  0.500  0.533998  33.1005  19.4054  4.497416
  14412.050  14412.040  0.500  0.532870  32.9053  19.3127  4.482113
  14416.573  14416.550  0.500  0.531824  33.0356  19.4095  4.509406
  14421.109  14421.080  0.500  0.530853  32.971  19.3903  4.511922
  14425.665  14425.630  0.500  0.529730  32.9565  19.4036  4.519802
  14430.224  14430.200  0.500  0.528815  32.9399  19.4116  4.525014
  14434.832  14434.780  0.500  0.528016  32.7896  19.3385  4.513972
  14439.388  14439.390  0.500  0.526959  32.8837  19.4144  4.534317
  14444.020  14444.010  0.500  0.525967  32.8265  19.3999  4.534862
  14448.683  14448.660  0.500  0.525299  32.8144  19.4058  4.541795
  14453.330  14453.320  0.500  0.524460  32.7857  19.405  4.543712
  14458.035  14458.000  0.500  0.523520  32.7467  19.4002  4.547236
  14462.724  14462.700  0.500  0.522427  32.72  19.4055  4.551787
  14467.426  14467.420  0.500  0.521621  32.6736  19.3937  4.554123
  14472.187  14472.160  0.500  0.520590  32.6394  19.3934  4.558565
  14476.922  14476.910  0.500  0.519813  32.6086  19.3901  4.562237
  14481.698  14481.690  0.500  0.518747  32.5381  19.3688  4.562690
  14486.522  14486.490  0.500  0.517914  32.5386  19.3853  4.572257
  14491.304  14491.300  0.500  0.516950  32.5041  19.3834  4.578119
  14496.154  14496.130  0.500  0.515973  32.4787  19.3872  4.585575
  14501.043  14500.990  0.500  0.515002  32.4346  19.3797  4.591265
  14505.862  14505.860  0.500  0.513950  32.3997  19.3792  4.597822
  14510.795  14510.750  0.500  0.512992  32.3851  19.389  4.607720
  14515.704  14515.660  0.500  0.512177  32.308  19.3586  4.609065
  14520.634  14520.590  0.500  0.511183  32.2948  19.37  4.619907
  14525.596  14525.530  0.500  0.509954  32.2794  19.3845  4.629073
  14530.542  14530.500  0.500  0.509003  32.2267  19.3713  4.632897
  14535.529  14535.490  0.500  0.508170  32.198  19.3702  4.638681
  14540.519  14540.490  0.500  0.507094  32.1573  19.3665  4.645665
  14545.532  14545.520  0.500  0.506027  32.1335  19.3728  4.650708
  14550.603  14550.560  0.500  0.505102  32.0439  19.3367  4.647562
  14555.650  14555.620  0.500  0.504136  32.0568  19.3632  4.661010
  14560.738  14560.700  0.500  0.502885  32.0238  19.3675  4.667035
  14565.847  14565.800  0.500  0.501974  31.9833  19.3606  4.671412
  14570.942  14570.920  0.500  0.500701  31.9432  19.3609  4.675778
  14576.106  14576.060  0.500  0.499795  31.9104  19.3586  4.681956
  14581.273  14581.220  0.500  0.498620  31.8744  19.3595  4.687616
  14586.425  14586.400  0.500  0.497712  31.8353  19.3533  4.690589
  14591.628  14591.590  0.500  0.496641  31.8009  19.3531  4.693886
  14596.862  14596.810  0.500  0.495709  31.7645  19.349  4.696243
  14602.053  14602.040  0.500  0.494575  31.7283  19.3489  4.701081
  14607.370  14607.290  0.500  0.493653  31.6895  19.3431  4.704153
  14612.606  14612.560  0.500  0.492680  31.6432  19.3336  4.708565
  14617.911  14617.850  0.500  0.491381  31.6061  19.336  4.713744
  14623.193  14623.160  0.500  0.490466  31.5763  19.3355  4.721985
  14628.515  14628.490  0.500  0.489467  31.539  19.3319  4.728309
  14633.907  14633.840  0.500  0.488417  31.4996  19.3281  4.735180
  14639.247  14639.210  0.500  0.487325  31.4656  19.3283  4.744668
  14644.657  14644.590  0.500  0.486261  31.3825  19.2978  4.744448
  14650.061  14650.000  0.500  0.485379  31.3908  19.3199  4.757810
  14655.450  14655.420  0.500  0.484269  31.3581  19.3212  4.765714
  14660.928  14660.870  0.500  0.483440  31.2651  19.2799  4.761253
  14666.372  14666.330  0.500  0.482137  31.2534  19.2978  4.771381
  14671.859  14671.810  0.500  0.481114  31.243  19.3111  4.782477
  14677.339  14677.310  0.500  0.480157  31.2084  19.3082  4.787300
  14682.872  14682.830  0.500  0.479117  31.1598  19.2982  4.792103
  14688.408  14688.370  0.500  0.478170  31.1114  19.2865  4.796086
  14693.949  14693.920  0.500  0.476935  31.0935  19.2992  4.803040
  14699.522  14699.500  0.500  0.475930  31.0547  19.2945  4.808902
  14705.109  14705.100  0.500  0.474880  30.9952  19.2778  4.810632
  14710.766  14710.710  0.500  0.473904  30.9869  19.2914  4.821857
  14716.380  14716.350  0.500  0.472730  30.9631  19.2992  4.829189
  14722.028  14722.000  0.500  0.471700  30.9324  19.3  4.834571
  14727.698  14727.670  0.500  0.470424  30.8981  19.3032  4.842024
  14733.383  14733.360  0.500  0.469222  30.8588  19.3018  4.847072