File: xdidata/Cu/Cu-Cu2O.xdi
# XDI/1.0 BlueSky/1.10.0 BMM/2023-1.0-py310-tiled
# Beamline.name: BMM (06BM) -- Beamline for Materials Measurement (NIST)
# Beamline.xray_source: NSLS-II three-pole wiggler
# Beamline.collimation: paraboloid mirror, 5 nm Rh on 30 nm Pt
# Beamline.focusing: not in use
# Beamline.harmonic_rejection: flat mirror, Pt stripe, pitch = 7.0 mrad relative to beam
# Beamline.software: Bluesky 1.10.0, Ophyd 1.7.0, DataBroker 2.0.0b13, Python 3.10.8, 2023-1.0-py310-tiled
# Detector.I0: 10 cm N2
# Detector.I1: 25 cm N2
# Detector.I2: 25 cm N2
# Element.symbol: Cu
# Element.edge: K
# Element.reference: Cu
# Element.reference_material: Cu foil
# Facility.name: NSLS-II
# Facility.energy: 3.0
# Facility.current: 399.8
# Facility.mode: top-off
# Facility.GUP: 123456
# Facility.SAF: 301027
# Facility.cycle: 2023-2
# Mono.name: Si(111)
# Mono.d_spacing: 3.13519
# Mono.encoder_resolution: 0.0000050 deg/ct
# Mono.angle_offset: 16.0754 deg
# Mono.scan_mode: pseudo channel cut
# Mono.scan_type: step
# Mono.direction: forward in energy
# Sample.name: Cu2O
# Sample.prep: powder in PEG pellet
# Sample.x: 116.329 mm
# Sample.y: 114.126 mm
# Sample.SDD_position: 205.000 mm
# Scan.experimenters: Bruce Ravel
# Scan.edge_energy: 8978.9
# Scan.start_time: 2023-05-07T09:17:46
# Scan.end_time: 2023-05-07T09:25:40
# Scan.transient_id: 74867
# Scan.uid: 56d5fda3-075e-4e9c-92d8-bff39cbc9bf4
# Scan.plot_hint: ln(I0/It)  --  ln($5/$6)
# Column.1: energy eV
# Column.2: requested_energy eV
# Column.3: measurement_time seconds
# Column.4: xmu
# Column.5: I0 nA
# Column.6: It nA
# Column.7: Ir nA
# ///////////
# sample courtesy Martin Stennett, University of Sheffield
# -----------
# energy  requested_energy  measurement_time  xmu  I0  It  Ir
  8778.913  8778.900  0.500  0.336181  121.935  87.1216  45.2304
  8788.963  8788.900  0.500  0.332858  121.764  87.2891  45.4176
  8798.953  8798.900  0.500  0.329432  121.556  87.4394  45.5964
  8808.984  8808.900  0.500  0.326137  121.371  87.5943  45.7779
  8818.920  8818.900  0.500  0.322721  121.175  87.7518  45.9575
  8828.917  8828.900  0.500  0.319378  120.977  87.9022  46.1384
  8838.886  8838.900  0.500  0.316093  120.781  88.048  46.308
  8848.896  8848.900  0.500  0.312857  120.589  88.1934  46.4851
  8858.898  8858.900  0.500  0.309680  120.386  88.3249  46.6531
  8868.887  8868.900  0.500  0.306520  120.197  88.4651  46.8195
  8878.875  8878.900  0.500  0.303257  120  88.6093  46.9907
  8888.889  8888.900  0.500  0.299929  119.799  88.7552  47.1597
  8898.892  8898.900  0.500  0.297024  119.592  88.8603  47.3077
  8908.919  8908.900  0.500  0.293866  119.267  88.8988  47.4089
  8918.900  8918.900  0.500  0.290916  119.26  89.1564  47.6284
  8928.905  8928.900  0.500  0.287940  119.007  89.232  47.7406
  8938.908  8938.900  0.500  0.285269  118.85  89.3527  47.8573
  8948.896  8948.900  0.500  0.282985  118.652  89.408  47.9111
  8950.910  8950.900  0.500  0.282365  118.574  89.4044  47.9062
  8952.900  8952.900  0.500  0.281923  118.442  89.3445  47.8709
  8954.898  8954.900  0.500  0.281666  118.514  89.4217  47.9062
  8956.901  8956.900  0.500  0.281447  118.48  89.4156  47.8866
  8958.887  8958.900  0.500  0.281193  118.444  89.4116  47.8661
  8960.891  8960.900  0.500  0.281040  118.404  89.3949  47.8301
  8962.896  8962.900  0.500  0.280978  118.36  89.367  47.7775
  8964.889  8964.900  0.500  0.281104  118.075  89.1408  47.6123
  8966.903  8966.900  0.500  0.281401  118.247  89.2443  47.5926
  8968.893  8968.900  0.500  0.282030  118.494  89.3744  47.5647
  8969.177  8969.200  0.500  0.282118  118.484  89.3592  47.538
  8969.472  8969.500  0.500  0.282479  118.48  89.3236  47.5007
  8969.776  8969.800  0.500  0.282704  118.47  89.296  47.4665
  8970.074  8970.100  0.500  0.282658  118.455  89.2885  47.4431
  8970.372  8970.400  0.500  0.282643  118.447  89.2837  47.4175
  8970.680  8970.700  0.500  0.282859  118.434  89.2549  47.3799
  8970.975  8971.000  0.500  0.283160  118.426  89.2224  47.3406
  8971.276  8971.300  0.500  0.283375  118.415  89.1947  47.2986
  8971.571  8971.600  0.500  0.283617  118.416  89.174  47.258
  8971.879  8971.900  0.500  0.283788  118.401  89.1472  47.2121
  8972.177  8972.200  0.500  0.284001  118.4  89.1273  47.1719
  8972.482  8972.500  0.500  0.284269  118.386  89.0927  47.1155
  8972.780  8972.800  0.500  0.284608  118.379  89.0573  47.0587
  8973.085  8973.100  0.500  0.284907  118.359  89.0158  46.9961
  8973.387  8973.400  0.500  0.285280  118.349  88.9753  46.9328
  8973.692  8973.700  0.500  0.285695  118.346  88.936  46.8631
  8973.987  8974.000  0.500  0.286166  118.335  88.8858  46.7857
  8974.295  8974.300  0.500  0.286619  118.329  88.8409  46.7062
  8974.586  8974.600  0.500  0.287132  118.326  88.7932  46.6203
  8974.899  8974.900  0.500  0.287689  118.314  88.7351  46.52
  8975.186  8975.200  0.500  0.288406  118.296  88.6576  46.4073
  8975.498  8975.500  0.500  0.289092  118.29  88.5923  46.2869
  8975.790  8975.800  0.500  0.289709  118.294  88.5405  46.17
  8976.098  8976.100  0.500  0.290655  118.277  88.4445  46.0151
  8976.386  8976.400  0.500  0.291480  118.259  88.358  45.8625
  8976.688  8976.700  0.500  0.292358  118.261  88.2817  45.6898
  8976.983  8977.000  0.500  0.293391  118.248  88.1811  45.4966
  8977.295  8977.300  0.500  0.294600  118.229  88.0604  45.2628
  8977.583  8977.600  0.500  0.295933  118.223  87.9386  45.0127
  8977.889  8977.900  0.500  0.297564  118.209  87.7846  44.6978
  8978.187  8978.200  0.500  0.299321  118.208  87.6299  44.3315
  8978.489  8978.500  0.500  0.301828  118.197  87.4025  43.8543
  8978.791  8978.800  0.500  0.304482  118.183  87.1606  43.2937
  8979.096  8979.100  0.500  0.307608  118.174  86.8817  42.5782
  8979.391  8979.400  0.500  0.311396  118.171  86.5511  41.6538
  8979.697  8979.700  0.500  0.315916  118.162  86.1544  40.4362
  8979.999  8980.000  0.500  0.321522  118.152  85.6656  38.8525
  8980.290  8980.300  0.500  0.328514  118.146  85.0642  36.8643
  8980.603  8980.600  0.500  0.338151  118.138  84.2425  34.2831
  8980.902  8980.900  0.500  0.350605  118.098  83.172  31.4892
  8981.200  8981.200  0.500  0.368175  118.027  81.6742  28.549
  8981.502  8981.500  0.500  0.392326  117.911  79.6473  25.7826
  8981.801  8981.800  0.500  0.425821  117.825  76.9673  23.3384
  8982.096  8982.100  0.500  0.468130  117.783  73.7522  21.3191
  8982.398  8982.400  0.500  0.519494  117.79  70.0639  19.5953
  8982.694  8982.700  0.500  0.574401  117.835  66.346  18.1739
  8982.989  8983.000  0.500  0.621299  117.928  63.3565  17.1805
  8983.291  8983.300  0.500  0.655084  117.979  61.278  16.5913
  8983.593  8983.600  0.500  0.668229  117.993  60.4851  16.4538
  8983.896  8983.900  0.500  0.664528  117.98  60.7026  16.6644
  8984.195  8984.200  0.500  0.649629  117.968  61.6075  17.0872
  8984.487  8984.500  0.500  0.630045  117.953  62.8179  17.5873
  8984.799  8984.800  0.500  0.609240  117.946  64.1349  18.0713
  8985.102  8985.100  0.500  0.592751  117.952  65.2047  18.3924
  8985.394  8985.400  0.500  0.581365  117.919  65.9326  18.5137
  8985.706  8985.700  0.500  0.575808  117.906  66.2928  18.4167
  8986.005  8986.000  0.500  0.575854  117.891  66.2813  18.1425
  8986.297  8986.300  0.500  0.580189  117.884  65.9903  17.7483
  8986.610  8986.600  0.500  0.587510  117.861  65.4965  17.283
  8986.902  8986.900  0.500  0.596570  117.851  64.9002  16.8318
  8987.205  8987.200  0.500  0.606233  117.837  64.2685  16.394
  8987.511  8987.500  0.500  0.616424  117.812  63.6035  15.9721
  8987.796  8987.800  0.500  0.626077  117.79  62.9805  15.5812
  8988.088  8988.100  0.500  0.635578  117.774  62.3766  15.191
  8988.394  8988.400  0.500  0.645038  117.758  61.7811  14.7841
  8988.690  8988.700  0.500  0.654379  117.731  61.1922  14.3746
  8988.993  8989.000  0.500  0.664581  117.718  60.5647  13.9248
  8989.292  8989.300  0.500  0.674999  117.7  59.9278  13.4662
  8989.595  8989.600  0.500  0.686112  117.683  59.2571  12.9743
  8989.904  8989.900  0.500  0.697400  117.669  58.5848  12.4661
  8990.203  8990.200  0.500  0.707988  117.638  57.9524  11.9725
  8990.503  8990.500  0.500  0.718430  117.625  57.344  11.4816
  8990.802  8990.800  0.500  0.728591  117.605  56.7547  10.9935
  8991.105  8991.100  0.500  0.738979  117.574  56.1536  10.4981
  8991.404  8991.400  0.500  0.749864  117.554  55.536  10.0048
  8991.700  8991.700  0.500  0.761662  117.524  54.8708  9.516433
  8991.996  8992.000  0.500  0.774369  117.492  54.1632  9.036623
  8992.295  8992.300  0.500  0.788579  117.448  53.3788  8.557777
  8992.598  8992.600  0.500  0.803610  117.384  52.5539  8.106819
  8992.894  8992.900  0.500  0.819618  117.255  51.6628  7.675623
  8993.197  8993.200  0.500  0.836340  116.896  50.6503  7.264064
  8993.493  8993.500  0.500  0.852915  116.082  49.4707  6.864035
  8993.803  8993.800  0.500  0.869855  115.252  48.292  6.493188
  8994.102  8994.100  0.500  0.885046  115.136  47.5161  6.216996
  8994.402  8994.400  0.500  0.898399  115.606  47.0774  6.016311
  8994.698  8994.700  0.500  0.908945  116.255  46.8448  5.878490
  8994.998  8995.000  0.500  0.917009  116.867  46.7133  5.785848
  8995.308  8995.300  0.500  0.923322  117.253  46.5727  5.723339
  8995.604  8995.600  0.500  0.928222  117.383  46.3962  5.693321
  8995.900  8995.900  0.500  0.932466  117.406  46.2088  5.687748
  8996.200  8996.200  0.500  0.936071  117.403  46.0413  5.708892
  8996.496  8996.500  0.500  0.939438  117.389  45.8812  5.749425
  8996.796  8996.800  0.500  0.942450  117.369  45.7355  5.805282
  8997.088  8997.100  0.500  0.944975  117.357  45.6152  5.870299
  8997.398  8997.400  0.500  0.946595  117.343  45.5361  5.950404
  8997.698  8997.700  0.500  0.946899  117.329  45.5169  6.032902
  8998.002  8998.000  0.500  0.945602  117.31  45.5684  6.127291
  8998.298  8998.300  0.500  0.942676  117.295  45.6964  6.226214
  8998.601  8998.600  0.500  0.937864  117.282  45.9115  6.336596
  8998.908  8998.900  0.500  0.931163  117.258  46.2107  6.451352
  8999.204  8999.200  0.500  0.923668  117.247  46.5539  6.562599
  8999.511  8999.500  0.500  0.915375  117.219  46.9306  6.667612
  8999.804  8999.800  0.500  0.907435  117.206  47.2995  6.755913
  9000.101  9000.100  0.500  0.899537  117.177  47.6626  6.826864
  9000.397  9000.400  0.500  0.892069  117.148  48.0081  6.878845
  9000.693  9000.700  0.500  0.885154  117.132  48.3344  6.908165
  9000.993  9001.000  0.500  0.878735  117.099  48.6322  6.913161
  9001.290  9001.300  0.500  0.872440  117.048  48.918  6.897312
  9001.604  9001.600  0.500  0.866235  116.979  49.1936  6.857202
  9001.908  9001.900  0.500  0.860400  116.868  49.4344  6.796230
  9002.211  9002.200  0.500  0.854877  116.63  49.607  6.709533
  9002.511  9002.500  0.500  0.849777  116.062  49.6178  6.590346
  9002.808  9002.800  0.500  0.845351  115.277  49.5009  6.453860
  9003.104  9003.100  0.500  0.841318  114.766  49.4806  6.327334
  9003.401  9003.400  0.500  0.837985  114.921  49.7129  6.243607
  9003.698  9003.700  0.500  0.835375  115.542  50.1118  6.191239
  9003.900  9003.900  0.500  0.833949  116.044  50.4016  6.170903
  9004.899  9004.890  0.500  0.830833  117.153  51.042  6.144181
  9005.915  9005.890  0.500  0.834009  117.137  50.8733  6.284306
  9006.924  9006.910  0.500  0.840264  117.094  50.5372  6.549499
  9007.972  9007.960  0.500  0.846490  117.019  50.1916  6.805871
  9009.038  9009.020  0.500  0.853326  116.909  49.8027  6.977113
  9010.111  9010.100  0.500  0.861519  115.923  48.9796  7.059144
  9011.216  9011.200  0.500  0.870568  115.224  48.2457  7.164860
  9012.352  9012.320  0.500  0.875414  117.028  48.7642  7.388265
  9013.471  9013.460  0.500  0.874599  117.044  48.8108  7.431815
  9014.622  9014.610  0.500  0.871134  117.007  48.9647  7.416711
  9015.812  9015.790  0.500  0.869424  116.958  49.028  7.356123
  9016.999  9016.980  0.500  0.867392  116.917  49.1104  7.260508
  9018.218  9018.200  0.500  0.859959  116.852  49.4494  7.149406
  9019.443  9019.430  0.500  0.847302  116.609  49.9752  7.027125
  9020.694  9020.680  0.500  0.833645  114.585  49.7829  6.789739
  9021.973  9021.950  0.500  0.824100  116.757  51.2131  6.783340
  9023.246  9023.240  0.500  0.817891  116.827  51.5628  6.647421
  9024.564  9024.550  0.500  0.812053  116.799  51.8526  6.502502
  9025.904  9025.880  0.500  0.807260  116.78  52.0929  6.390165
  9027.248  9027.230  0.500  0.803861  116.746  52.2551  6.345529
  9028.617  9028.600  0.500  0.801414  116.808  52.4111  6.425685
  9030.000  9029.980  0.500  0.799707  117.092  52.6281  6.621988
  9031.394  9031.390  0.500  0.798871  117.096  52.6742  6.857797
  9032.824  9032.810  0.500  0.799534  117.088  52.6354  7.096847
  9034.261  9034.250  0.500  0.802534  117.056  52.4637  7.292943
  9035.724  9035.710  0.500  0.807892  117.033  52.173  7.403864
  9037.208  9037.190  0.500  0.813546  117.009  51.868  7.444576
  9038.696  9038.690  0.500  0.819095  116.968  51.5631  7.424765
  9040.220  9040.210  0.500  0.824546  116.835  51.2245  7.343190
  9041.754  9041.750  0.500  0.830297  115.618  50.4001  7.153926
  9043.325  9043.310  0.500  0.836816  116.735  50.5565  7.109041
  9044.892  9044.880  0.500  0.843966  116.78  50.2155  7.045145
  9046.489  9046.480  0.500  0.850459  116.76  49.8822  7.027655
  9048.103  9048.090  0.500  0.854030  116.742  49.6965  7.012386
  9049.736  9049.730  0.500  0.853526  116.7  49.7039  6.962900
  9051.401  9051.380  0.500  0.849564  116.675  49.8902  6.904263
  9053.056  9053.050  0.500  0.844446  116.631  50.1276  6.877892
  9054.748  9054.740  0.500  0.841181  116.601  50.2783  6.890178
  9056.471  9056.450  0.500  0.839780  116.573  50.337  6.896067
  9058.192  9058.180  0.500  0.839376  116.537  50.3416  6.852162
  9059.945  9059.930  0.500  0.838662  116.498  50.361  6.757796
  9061.695  9061.690  0.500  0.837026  116.408  50.4041  6.660674
  9063.496  9063.480  0.500  0.835021  115.179  49.972  6.526417
  9065.297  9065.280  0.500  0.833705  116.336  50.5406  6.542298
  9067.120  9067.110  0.500  0.833751  116.341  50.5403  6.479489
  9068.966  9068.950  0.500  0.834676  116.311  50.4807  6.391149
  9070.819  9070.810  0.500  0.836393  116.284  50.3823  6.278540
  9072.708  9072.690  0.500  0.838406  116.241  50.2625  6.184317
  9074.591  9074.590  0.500  0.840131  116.197  50.1568  6.153377
  9076.518  9076.510  0.500  0.841525  116.157  50.0699  6.206457
  9078.463  9078.450  0.500  0.842499  116.103  49.9978  6.331535
  9080.423  9080.410  0.500  0.842690  115.498  49.7276  6.473458
  9082.402  9082.380  0.500  0.842765  115.724  49.8212  6.654124
  9084.395  9084.380  0.500  0.842147  115.947  49.9482  6.818855
  9086.411  9086.390  0.500  0.840651  115.917  50.0102  6.963807
  9088.429  9088.420  0.500  0.837681  115.875  50.1405  7.081138
  9090.489  9090.480  0.500  0.833176  115.836  50.35  7.161079
  9092.547  9092.550  0.500  0.827501  115.799  50.6203  7.280961
  9094.649  9094.640  0.500  0.821379  115.761  50.9144  7.468219
  9096.759  9096.750  0.500  0.815446  115.714  51.1969  7.674107
  9098.888  9098.880  0.500  0.809896  115.679  51.4659  7.838987
  9101.024  9101.020  0.500  0.805216  115.64  51.6903  7.904662
  9103.209  9103.190  0.500  0.801395  114.819  51.5196  7.812865
  9105.390  9105.380  0.500  0.798917  115.36  51.8907  7.736004
  9107.595  9107.580  0.500  0.797637  115.44  51.9933  7.584756
  9109.811  9109.800  0.500  0.797822  115.409  51.9697  7.430217
  9112.075  9112.050  0.500  0.799439  115.354  51.8608  7.299783
  9114.332  9114.310  0.500  0.802224  115.315  51.6991  7.205985
  9116.613  9116.590  0.500  0.804926  115.258  51.5342  7.165666
  9118.916  9118.890  0.500  0.806666  115.223  51.429  7.161987
  9121.224  9121.210  0.500  0.807464  115.168  51.3635  7.146340
  9123.565  9123.550  0.500  0.807532  115.117  51.3373  7.064796
  9125.918  9125.900  0.500  0.807253  115.059  51.3257  6.891058
  9128.305  9128.280  0.500  0.807136  115.005  51.3079  6.647534
  9130.686  9130.670  0.500  0.806887  114.951  51.2962  6.448096
  9133.104  9133.090  0.500  0.806624  114.887  51.2813  6.359572
  9135.552  9135.520  0.500  0.806406  114.817  51.261  6.368674
  9137.991  9137.970  0.500  0.806731  114.752  51.2157  6.426590
  9140.493  9140.450  0.500  0.807608  114.646  51.1233  6.507672
  9142.934  9142.940  0.500  0.808307  114.215  50.8955  6.601714
  9145.438  9145.450  0.500  0.808114  114.163  50.8821  6.781398
  9147.962  9147.970  0.500  0.806666  114.618  51.1588  7.043846
  9150.526  9150.520  0.500  0.804513  114.517  51.224  7.316071
  9153.666  9153.090  0.500  0.801573  114.352  51.3007  7.645423
  9155.732  9155.670  0.500  0.799294  113.999  51.2593  7.889479
  9158.298  9158.280  0.500  0.797119  113.125  50.9769  8.071214
  9160.905  9160.900  0.500  0.794673  114.397  51.6766  8.288937
  9163.549  9163.550  0.500  0.792844  114.265  51.7111  8.249348
  9166.220  9166.210  0.500  0.791583  113.976  51.6454  8.061088
  9168.897  9168.890  0.500  0.790796  111.765  50.6835  7.676643
  9171.604  9171.590  0.500  0.790136  114.246  51.843  7.624572
  9174.324  9174.310  0.500  0.789377  114.142  51.8352  7.472836
  9177.060  9177.050  0.500  0.788573  114.031  51.8262  7.399337
  9179.797  9179.800  0.500  0.787817  113.842  51.7796  7.381965
  9182.587  9182.580  0.500  0.787180  111.298  50.6547  7.254894
  9185.372  9185.370  0.500  0.786258  113.955  51.9117  7.472144
  9188.180  9188.190  0.500  0.785216  113.855  51.9201  7.496231
  9191.019  9191.020  0.500  0.783867  113.758  51.9462  7.515356
  9193.864  9193.870  0.500  0.782525  113.69  51.9848  7.553883
  9196.750  9196.750  0.500  0.780798  113.582  52.0254  7.611013
  9199.638  9199.640  0.500  0.779039  113.487  52.0732  7.635350
  9202.546  9202.550  0.500  0.777275  113.415  52.1319  7.573029
  9205.475  9205.470  0.500  0.775135  113.343  52.2105  7.433608
  9208.413  9208.420  0.500  0.773048  113.281  52.2911  7.301359
  9211.400  9211.390  0.500  0.770607  113.205  52.3835  7.251450
  9214.356  9214.370  0.500  0.768386  113.155  52.4769  7.266889
  9217.380  9217.380  0.500  0.766195  113.094  52.5639  7.316176
  9220.395  9220.400  0.500  0.764089  113.029  52.6442  7.399810
  9223.445  9223.450  0.500  0.762077  112.951  52.7139  7.525180
  9226.520  9226.510  0.500  0.760609  112.878  52.7572  7.692360
  9229.581  9229.590  0.500  0.759144  112.811  52.8029  7.880910
  9232.685  9232.690  0.500  0.758057  112.755  52.8341  8.061860
  9235.817  9235.810  0.500  0.756928  112.676  52.8568  8.214102
  9238.952  9238.950  0.500  0.755840  112.609  52.8829  8.314844
  9242.099  9242.100  0.500  0.754907  112.546  52.9026  8.351640
  9245.289  9245.280  0.500  0.754289  112.485  52.9069  8.334930
  9248.471  9248.470  0.500  0.753571  112.419  52.9137  8.311542
  9251.691  9251.690  0.500  0.752763  112.348  52.9232  8.307861
  9254.921  9254.920  0.500  0.751878  112.27  52.9332  8.306925
  9258.176  9258.170  0.500  0.751098  112.197  52.9401  8.296339
  9261.455  9261.450  0.500  0.750064  112.123  52.96  8.282228
  9264.752  9264.740  0.500  0.748895  112.051  52.9876  8.258464
  9268.054  9268.050  0.500  0.747560  111.989  53.0291  8.222982
  9271.385  9271.370  0.500  0.746290  111.914  53.0608  8.187233
  9274.733  9274.720  0.500  0.744898  111.726  53.0454  8.153043
  9278.106  9278.090  0.500  0.743409  111.797  53.1585  8.150188
  9281.485  9281.470  0.500  0.741767  111.711  53.2046  8.143768
  9284.889  9284.880  0.500  0.740140  111.624  53.25  8.139148
  9288.318  9288.300  0.500  0.738307  111.534  53.3046  8.134696
  9291.779  9291.750  0.500  0.736514  111.118  53.2013  8.110687
  9295.220  9295.210  0.500  0.734808  111.381  53.418  8.135103
  9298.709  9298.690  0.500  0.733120  110.332  53.0044  8.070647
  9302.205  9302.190  0.500  0.731425  111.32  53.5698  8.189390
  9305.725  9305.710  0.500  0.729655  110.846  53.436  8.231250
  9309.263  9309.250  0.500  0.728174  111.18  53.6766  8.343947
  9312.822  9312.800  0.500  0.726494  111.087  53.722  8.431220
  9316.396  9316.380  0.500  0.724557  110.998  53.7829  8.523534
  9320.002  9319.980  0.500  0.722696  110.894  53.8325  8.602705
  9323.615  9323.590  0.500  0.721147  109.948  53.456  8.586802
  9327.246  9327.220  0.500  0.719518  110.762  53.9398  8.685330
  9330.902  9330.880  0.500  0.717693  110.682  53.9991  8.710643
  9334.569  9334.550  0.500  0.716080  110.598  54.0453  8.754636
  9338.272  9338.240  0.500  0.714604  110.503  54.0787  8.823154
  9341.960  9341.950  0.500  0.712959  110.419  54.1264  8.908417
  9345.707  9345.680  0.500  0.711203  110.343  54.1841  8.972411
  9349.438  9349.420  0.500  0.709567  110.249  54.2266  8.985018
  9353.207  9353.190  0.500  0.708032  110.162  54.2674  8.982655
  9357.005  9356.980  0.500  0.706142  110.077  54.328  8.995793
  9360.813  9360.780  0.500  0.704453  109.988  54.3759  9.003864
  9364.636  9364.610  0.500  0.702708  109.905  54.4296  9.005113
  9368.466  9368.450  0.500  0.701169  109.816  54.4694  9.005294
  9372.334  9372.310  0.500  0.699443  109.745  54.5283  9.008958
  9376.216  9376.190  0.500  0.697728  109.773  54.6358  9.020598
  9380.101  9380.090  0.500  0.696053  109.69  54.6858  9.024212
  9384.040  9384.010  0.500  0.694472  109.6  54.7274  9.028176
  9387.962  9387.950  0.500  0.692919  109.51  54.7676  9.036769
  9391.945  9391.910  0.500  0.691320  109.416  54.808  9.051866
  9395.889  9395.880  0.500  0.689762  109.331  54.8507  9.065358
  9399.898  9399.880  0.500  0.688287  109.246  54.8892  9.087543
  9403.903  9403.890  0.500  0.686750  109.164  54.9322  9.124371
  9407.949  9407.930  0.500  0.685214  109.075  54.9719  9.172841
  9412.007  9411.980  0.500  0.683567  108.97  55.0095  9.236249
  9416.060  9416.050  0.500  0.682084  108.877  55.0441  9.303781
  9420.167  9420.140  0.500  0.680657  108.768  55.0674  9.365187
  9424.274  9424.250  0.500  0.679053  108.682  55.1123  9.413508
  9428.392  9428.380  0.500  0.677690  108.589  55.1405  9.445865
  9432.552  9432.530  0.500  0.676124  108.5  55.1816  9.472492
  9436.712  9436.690  0.500  0.674246  107.863  54.9607  9.453127
  9440.903  9440.880  0.500  0.672697  108.278  55.2576  9.528004
  9445.101  9445.080  0.500  0.671065  108.189  55.3024  9.568119
  9449.331  9449.310  0.500  0.669306  108.088  55.3481  9.617715
  9453.575  9453.550  0.500  0.667579  107.999  55.3979  9.669236
  9457.831  9457.810  0.500  0.665744  107.898  55.4481  9.717191
  9462.107  9462.090  0.500  0.664034  107.793  55.4886  9.749776
  9466.414  9466.390  0.500  0.662191  107.698  55.5421  9.781285
  9470.724  9470.710  0.500  0.660375  107.6  55.5921  9.815208
  9475.074  9475.050  0.500  0.658604  107.503  55.6407  9.849987
  9479.432  9479.410  0.500  0.656655  107.387  55.6893  9.873199
  9483.801  9483.790  0.500  0.654788  107.298  55.7467  9.894534
  9488.202  9488.180  0.500  0.652924  107.199  55.7994  9.908086
  9492.626  9492.600  0.500  0.651091  107.088  55.8439  9.919559
  9497.047  9497.030  0.500  0.649349  106.999  55.8947  9.931288
  9501.495  9501.480  0.500  0.647585  106.878  55.9302  9.941810
  9505.979  9505.950  0.500  0.645712  106.77  55.9786  9.954060
  9510.459  9510.440  0.500  0.643964  106.669  56.0233  9.973775
  9514.975  9514.950  0.500  0.642238  106.558  56.0619  10.0035
  9519.504  9519.480  0.500  0.640387  106.456  56.1117  10.0439
  9524.048  9524.030  0.500  0.638699  106.351  56.1513  10.0968
  9528.620  9528.600  0.500  0.636955  106.244  56.1925  10.1534
  9533.201  9533.180  0.500  0.635393  106.131  56.2204  10.2053
  9537.806  9537.790  0.500  0.633618  106.029  56.2661  10.248
  9542.427  9542.410  0.500  0.631888  105.922  56.307  10.291
  9547.088  9547.060  0.500  0.630272  105.819  56.3429  10.3285
  9551.746  9551.720  0.500  0.628573  105.706  56.3784  10.3647
  9556.425  9556.400  0.500  0.626821  105.6  56.4206  10.3994
  9561.116  9561.100  0.500  0.625149  105.484  56.453  10.4324
  9565.835  9565.820  0.500  0.623358  105.365  56.4906  10.469
  9570.575  9570.560  0.500  0.621610  105.253  56.5293  10.5063
  9575.336  9575.310  0.500  0.619899  105.148  56.5693  10.5424
  9580.121  9580.090  0.500  0.618121  105.018  56.6001  10.5797
  9584.903  9584.890  0.500  0.616497  104.909  56.6332  10.6179
  9589.722  9589.700  0.500  0.614597  104.8  56.682  10.6572
  9594.562  9594.530  0.500  0.612863  104.684  56.7173  10.6895
  9599.426  9599.390  0.500  0.611171  104.576  56.7552  10.7237
  9604.276  9604.260  0.500  0.609394  104.454  56.7894  10.7507
  9609.175  9609.150  0.500  0.607588  104.335  56.8276  10.7779
  9614.095  9614.060  0.500  0.605895  104.228  56.8654  10.8089
  9619.015  9618.990  0.500  0.604130  104.091  56.8909  10.832
  9623.942  9623.930  0.500  0.602336  103.988  56.9365  10.8635
  9628.925  9628.900  0.500  0.600557  103.877  56.9774  10.8885
  9633.921  9633.890  0.500  0.598765  103.574  56.9128  10.8992
  9638.919  9638.890  0.500  0.596991  103.628  57.0437  10.9496
  9643.938  9643.920  0.500  0.595186  103.522  57.0885  10.9865
  9648.979  9648.960  0.500  0.593379  103.16  56.9914  10.9964
  9654.049  9654.020  0.500  0.591746  103.274  57.1477  11.0556
  9659.125  9659.100  0.500  0.589915  103.151  57.184  11.0931
  9664.214  9664.200  0.500  0.588560  103.018  57.1877  11.1229
  9669.341  9669.320  0.500  0.587657  102.869  57.1569  11.147
  9674.486  9674.460  0.500  0.585833  102.749  57.1946  11.1868
  9679.644  9679.620  0.500  0.583473  102.621  57.258  11.2322
  9684.816  9684.800  0.500  0.581476  102.5  57.305  11.2719
  9690.010  9689.990  0.500  0.579494  102.377  57.3495  11.3151
  9695.238  9695.210  0.500  0.577616  102.256  57.3897  11.3564
  9700.460  9700.440  0.500  0.575778  102.114  57.4157  11.3917
  9705.716  9705.690  0.500  0.573982  101.962  57.4328  11.4253
  9710.977  9710.960  0.500  0.572168  101.68  57.3781  11.4452
  9716.282  9716.250  0.500  0.570506  101.748  57.5118  11.505
  9721.584  9721.560  0.500  0.568693  101.603  57.5341  11.541
  9726.908  9726.890  0.500  0.566859  101.464  57.5607  11.5764
  9732.259  9732.240  0.500  0.564968  101.343  57.601  11.6147
  9737.636  9737.610  0.500  0.563131  101.217  57.6355  11.65
  9743.015  9742.990  0.500  0.561250  101.088  57.6703  11.6841
  9748.425  9748.400  0.500  0.559434  100.956  57.6994  11.716
  9753.841  9753.820  0.500  0.557656  100.817  57.7229  11.7487
  9759.292  9759.270  0.500  0.555802  100.683  57.7528  11.7811
  9764.749  9764.730  0.500  0.554089  100.53  57.7639  11.8108
  9770.233  9770.210  0.500  0.552225  100.32  57.7507  11.8373
  9775.728  9775.710  0.500  0.550516  100.269  57.8202  11.8809
  9781.233  9781.230  0.500  0.548516  100.034  57.8003  11.9074
  9786.786  9786.770  0.500  0.546740  99.9906  57.8779  11.9547
  9792.337  9792.320  0.500  0.544966  98.4599  57.0931  11.8244
  9797.910  9797.900  0.500  0.543105  99.7152  57.9287  12.0264
  9803.512  9803.500  0.500  0.541303  99.1289  57.692  12.0066
  9809.119  9809.110  0.500  0.539512  99.4736  57.9963  12.1016
  9814.771  9814.750  0.500  0.537646  99.3226  58.0165  12.1381
  9820.425  9820.400  0.500  0.535749  98.6395  57.7269  12.1113
  9826.074  9826.070  0.500  0.533926  99.0291  58.0606  12.2164
  9831.770  9831.760  0.500  0.532048  98.8668  58.0744  12.2536