File: xdidata/Cu/Cu-Cufoil.xdi
# XDI/1.0 BlueSky/1.10.0 BMM/2023-1.0-py310-tiled
# Beamline.name: BMM (06BM) -- Beamline for Materials Measurement (NIST)
# Beamline.xray_source: NSLS-II three-pole wiggler
# Beamline.collimation: paraboloid mirror, 5 nm Rh on 30 nm Pt
# Beamline.focusing: not in use
# Beamline.harmonic_rejection: flat mirror, Pt stripe, pitch = 7.0 mrad relative to beam
# Beamline.software: Bluesky 1.10.0, Ophyd 1.7.0, DataBroker 2.0.0b13, Python 3.10.8, 2023-1.0-py310-tiled
# Detector.I0: 10 cm N2
# Detector.I1: 25 cm N2
# Detector.I2: 25 cm N2
# Element.symbol: Cu
# Element.edge: K
# Element.reference: Cu
# Element.reference_material: Cu foil
# Facility.name: NSLS-II
# Facility.energy: 3.0
# Facility.current: 400.7
# Facility.mode: top-off
# Facility.GUP: 123456
# Facility.SAF: 301027
# Facility.cycle: 2023-2
# Mono.name: Si(111)
# Mono.d_spacing: 3.13519
# Mono.encoder_resolution: 0.0000050 deg/ct
# Mono.angle_offset: 16.0754 deg
# Mono.scan_mode: pseudo channel cut
# Mono.scan_type: step
# Mono.direction: forward in energy
# Sample.name: Cu metal
# Sample.prep: reference metal
# Sample.x: 116.329 mm
# Sample.y: 114.126 mm
# Sample.SDD_position: 205.000 mm
# Scan.experimenters: Bruce Ravel
# Scan.edge_energy: 8978.9
# Scan.start_time: 2023-05-06T12:36:03
# Scan.end_time: 2023-05-06T12:43:56
# Scan.transient_id: 74793
# Scan.uid: 6fc5776a-8f3f-4c58-8524-579e661c6461
# Scan.plot_hint: ln(It/Ir)  --  ln($6/$7)
# Column.1: energy eV
# Column.2: requested_energy eV
# Column.3: measurement_time seconds
# Column.4: xmu
# Column.5: I0 nA
# Column.6: It nA
# Column.7: Ir nA
# ///////////
# reference foil
# -----------
# energy  requested_energy  measurement_time  xmu  I0  It  Ir
  8778.946  8778.900  0.500  0.656676  121.863  143.816  74.5789
  8789.033  8788.900  0.500  0.654456  121.663  143.811  74.7424
  8798.960  8798.900  0.500  0.652216  121.472  143.834  74.9216
  8808.950  8808.900  0.500  0.650040  121.28  143.869  75.1033
  8818.974  8818.900  0.500  0.647960  121.102  143.912  75.2822
  8828.940  8828.900  0.500  0.645787  120.901  143.878  75.4279
  8838.930  8838.900  0.500  0.643662  120.698  143.866  75.5823
  8848.930  8848.900  0.500  0.641567  120.506  143.894  75.7551
  8858.929  8858.900  0.500  0.639420  120.305  143.914  75.9286
  8868.927  8868.900  0.500  0.637388  120.096  143.912  76.0823
  8878.895  8878.900  0.500  0.635381  119.856  143.845  76.1997
  8889.480  8888.900  0.500  0.633355  120.687  145.117  77.0291
  8898.909  8898.900  0.500  0.631516  120.506  145.126  77.1756
  8908.898  8908.900  0.500  0.629791  120.147  144.934  77.2067
  8918.904  8918.900  0.500  0.628113  120.184  145.21  77.4835
  8928.898  8928.900  0.500  0.626665  119.884  145.092  77.5328
  8938.897  8938.900  0.500  0.625518  119.765  145.177  77.6673
  8948.910  8948.900  0.500  0.625036  119.559  145.154  77.6927
  8950.879  8950.900  0.500  0.624991  119.43  145.051  77.6411
  8952.886  8952.900  0.500  0.625110  119.4  145.042  77.6268
  8954.881  8954.900  0.500  0.625271  119.415  145.132  77.6623
  8956.870  8956.900  0.500  0.625600  119.361  145.116  77.6284
  8958.876  8958.900  0.500  0.626065  119.34  145.129  77.5992
  8960.877  8960.900  0.500  0.626612  119.302  145.125  77.5549
  8962.876  8962.900  0.500  0.627407  119.246  145.101  77.4804
  8964.875  8964.900  0.500  0.628461  118.926  144.755  77.2142
  8966.885  8966.900  0.500  0.630000  119.15  145.086  77.2718
  8968.876  8968.900  0.500  0.632116  119.112  145.088  77.1094
  8969.170  8969.200  0.500  0.632495  119.11  145.1  77.0865
  8969.465  8969.500  0.500  0.632914  119.104  145.085  77.0462
  8969.763  8969.800  0.500  0.633299  119.091  145.089  77.0189
  8970.064  8970.100  0.500  0.633743  119.089  145.094  76.9871
  8970.369  8970.400  0.500  0.634291  119.066  145.063  76.9288
  8970.667  8970.700  0.500  0.634750  119.07  145.08  76.9022
  8970.975  8971.000  0.500  0.635302  119.064  145.08  76.86
  8971.269  8971.300  0.500  0.635946  119.039  145.06  76.7998
  8971.574  8971.600  0.500  0.636528  119.041  145.061  76.7557
  8971.869  8971.900  0.500  0.637300  119.027  145.058  76.6946
  8972.184  8972.200  0.500  0.638068  119.018  145.043  76.6279
  8972.479  8972.500  0.500  0.638828  119.007  145.021  76.558
  8972.780  8972.800  0.500  0.639697  119.004  145.027  76.495
  8973.085  8973.100  0.500  0.640610  118.997  145.042  76.4327
  8973.394  8973.400  0.500  0.641618  118.99  145.038  76.354
  8973.688  8973.700  0.500  0.642631  118.978  145.01  76.2618
  8973.994  8974.000  0.500  0.643879  118.973  145  76.1615
  8974.278  8974.300  0.500  0.645110  118.955  144.992  76.0634
  8974.593  8974.600  0.500  0.646519  118.957  144.992  75.9563
  8974.888  8974.900  0.500  0.648076  118.947  144.991  75.8378
  8975.190  8975.200  0.500  0.649869  118.934  145.005  75.7091
  8975.492  8975.500  0.500  0.651774  118.93  145.016  75.5708
  8975.790  8975.800  0.500  0.654058  118.92  145.014  75.3973
  8976.085  8976.100  0.500  0.656395  118.911  145.011  75.2197
  8976.390  8976.400  0.500  0.659116  118.894  144.995  75.0072
  8976.681  8976.700  0.500  0.662224  118.886  144.981  74.7674
  8976.990  8977.000  0.500  0.665804  118.885  144.972  74.4956
  8977.292  8977.300  0.500  0.669981  118.864  144.973  74.1854
  8977.590  8977.600  0.500  0.674935  118.854  144.95  73.8071
  8977.882  8977.900  0.500  0.680988  118.843  144.932  73.3525
  8978.190  8978.200  0.500  0.688721  118.834  144.94  72.7913
  8978.489  8978.500  0.500  0.698283  118.834  144.973  72.115
  8978.794  8978.800  0.500  0.710910  118.824  144.982  71.2147
  8979.086  8979.100  0.500  0.727574  118.807  144.959  70.0267
  8979.398  8979.400  0.500  0.751447  118.802  144.963  68.3768
  8979.697  8979.700  0.500  0.783557  118.786  144.959  66.2141
  8980.002  8980.000  0.500  0.828457  118.778  144.948  63.302
  8980.290  8980.300  0.500  0.885854  118.771  144.963  59.7772
  8980.606  8980.600  0.500  0.959336  118.753  144.966  55.5434
  8980.895  8980.900  0.500  1.037848  118.683  144.882  51.3195
  8981.207  8981.200  0.500  1.116772  118.574  144.78  47.3916
  8981.502  8981.500  0.500  1.184416  118.473  144.688  44.2638
  8981.798  8981.800  0.500  1.236459  118.43  144.652  42.0085
  8982.100  8982.100  0.500  1.272271  118.407  144.637  40.5264
  8982.385  8982.400  0.500  1.293835  118.441  144.684  39.6748
  8982.701  8982.700  0.500  1.305650  118.54  144.811  39.2432
  8982.989  8983.000  0.500  1.308281  118.599  144.904  39.1653
  8983.295  8983.300  0.500  1.304388  118.625  144.928  39.3245
  8983.587  8983.600  0.500  1.296409  118.619  144.933  39.6409
  8983.892  8983.900  0.500  1.286428  118.614  144.935  40.0392
  8984.191  8984.200  0.500  1.276649  118.606  144.936  40.4329
  8984.493  8984.500  0.500  1.269571  118.603  144.929  40.718
  8984.799  8984.800  0.500  1.266857  118.596  144.925  40.8275
  8985.095  8985.100  0.500  1.269861  118.577  144.886  40.6944
  8985.401  8985.400  0.500  1.279136  118.573  144.889  40.3193
  8985.696  8985.700  0.500  1.293189  118.56  144.876  39.7533
  8986.005  8986.000  0.500  1.310811  118.557  144.875  39.0584
  8986.304  8986.300  0.500  1.329693  118.538  144.876  38.3282
  8986.596  8986.600  0.500  1.347521  118.529  144.883  37.6527
  8986.906  8986.900  0.500  1.364819  118.521  144.884  37.0072
  8987.198  8987.200  0.500  1.380289  118.51  144.847  36.4299
  8987.494  8987.500  0.500  1.395520  118.504  144.865  35.8838
  8987.800  8987.800  0.500  1.411379  118.49  144.869  35.3201
  8988.099  8988.100  0.500  1.428025  118.47  144.866  34.7364
  8988.398  8988.400  0.500  1.446446  118.46  144.846  34.0975
  8988.690  8988.700  0.500  1.466464  118.456  144.864  33.4259
  8989.000  8989.000  0.500  1.489796  118.445  144.865  32.6553
  8989.295  8989.300  0.500  1.514880  118.439  144.865  31.8463
  8989.598  8989.600  0.500  1.542271  118.423  144.851  30.9828
  8989.904  8989.900  0.500  1.572767  118.399  144.836  30.0491
  8990.190  8990.200  0.500  1.603344  118.395  144.837  29.1444
  8990.496  8990.500  0.500  1.637470  118.381  144.837  28.1666
  8990.799  8990.800  0.500  1.671826  118.365  144.827  27.2136
  8991.105  8991.100  0.500  1.709211  118.348  144.822  26.2139
  8991.404  8991.400  0.500  1.747435  118.325  144.791  25.2254
  8991.693  8991.700  0.500  1.785432  118.287  144.756  24.2792
  8992.010  8992.000  0.500  1.826626  118.251  144.723  23.294
  8992.306  8992.300  0.500  1.864731  118.399  144.925  22.4543
  8992.605  8992.600  0.500  1.902623  118.297  144.803  21.6012
  8992.908  8992.900  0.500  1.939091  117.993  144.438  20.7752
  8993.201  8993.200  0.500  1.972140  117.266  143.565  19.9784
  8993.503  8993.500  0.500  2.003310  116.391  142.495  19.2209
  8993.796  8993.800  0.500  2.031096  116.108  142.152  18.6492
  8994.099  8994.100  0.500  2.054870  116.501  142.625  18.2717
  8994.399  8994.400  0.500  2.074065  117.136  143.433  18.0258
  8994.688  8994.700  0.500  2.088132  117.766  144.18  17.8666
  8995.001  8995.000  0.500  2.096912  118.246  144.78  17.7841
  8995.297  8995.300  0.500  2.099856  118.439  145.03  17.7624
  8995.593  8995.600  0.500  2.097564  118.475  145.103  17.8121
  8995.900  8995.900  0.500  2.090795  118.477  145.104  17.9332
  8996.203  8996.200  0.500  2.080648  118.474  145.101  18.1157
  8996.503  8996.500  0.500  2.067807  118.465  145.093  18.3489
  8996.803  8996.800  0.500  2.053891  118.44  145.066  18.6025
  8997.106  8997.100  0.500  2.039281  118.426  145.041  18.873
  8997.409  8997.400  0.500  2.024561  118.416  145.046  19.1536
  8997.702  8997.700  0.500  2.010708  118.398  145.039  19.4199
  8998.008  8998.000  0.500  1.996862  118.39  145.039  19.6906
  8998.305  8998.300  0.500  1.984418  118.368  145.02  19.9346
  8998.608  8998.600  0.500  1.972816  118.352  144.993  20.1634
  8998.908  8998.900  0.500  1.962894  118.346  145.008  20.3665
  8999.201  8999.200  0.500  1.954896  118.33  144.998  20.5287
  8999.497  8999.500  0.500  1.948853  118.303  144.963  20.6482
  8999.790  8999.800  0.500  1.945362  118.273  144.949  20.7183
  9000.104  9000.100  0.500  1.944505  118.243  144.9  20.7291
  9000.404  9000.400  0.500  1.946532  118.211  144.86  20.6814
  9000.690  9000.700  0.500  1.951301  118.183  144.839  20.5801
  9000.997  9001.000  0.500  1.959083  118.142  144.779  20.4121
  9001.290  9001.300  0.500  1.969520  118.077  144.698  20.1889
  9001.604  9001.600  0.500  1.982783  117.983  144.603  19.9097
  9001.897  9001.900  0.500  1.998486  117.78  144.377  19.569
  9002.201  9002.200  0.500  2.016262  117.283  143.79  19.146
  9002.497  9002.500  0.500  2.035114  116.487  142.817  18.6612
  9002.797  9002.800  0.500  2.054042  115.89  142.101  18.2195
  9003.104  9003.100  0.500  2.073422  115.931  142.148  17.8757
  9003.401  9003.400  0.500  2.090008  116.509  142.862  17.6701
  9003.701  9003.700  0.500  2.103658  117.236  143.762  17.5404
  9003.904  9003.900  0.500  2.110307  117.645  144.262  17.4847
  9004.906  9004.890  0.500  2.115844  118.227  145.001  17.4772
  9005.904  9005.890  0.500  2.082621  118.185  144.976  18.0644
  9006.924  9006.910  0.500  2.033073  118.143  144.934  18.9766
  9007.972  9007.960  0.500  1.990677  118.068  144.869  19.7895
  9009.038  9009.020  0.500  1.960429  117.897  144.686  20.3715
  9010.111  9010.100  0.500  1.931893  116.347  142.805  20.6886
  9011.212  9011.200  0.500  1.903030  116.799  143.382  21.3806
  9012.331  9012.320  0.500  1.886518  118.096  145  21.9818
  9013.478  9013.460  0.500  1.884238  118.066  144.984  22.0296
  9014.622  9014.610  0.500  1.890564  118.019  144.953  21.8859
  9015.809  9015.790  0.500  1.900993  117.979  144.928  21.6551
  9016.985  9016.980  0.500  1.917109  117.93  144.905  21.3056
  9018.204  9018.200  0.500  1.940918  117.851  144.833  20.7939
  9019.443  9019.430  0.500  1.969529  117.405  144.322  20.1361
  9020.698  9020.680  0.500  1.999688  115.944  142.557  19.299
  9021.959  9021.950  0.500  2.028127  117.852  144.92  19.0689
  9023.249  9023.240  0.500  2.055456  117.857  144.957  18.5595
  9024.561  9024.550  0.500  2.082366  117.82  144.969  18.0682
  9025.908  9025.880  0.500  2.103039  117.777  144.936  17.6945
  9027.230  9027.230  0.500  2.109677  117.735  144.91  17.5743
  9028.610  9028.600  0.500  2.096800  117.713  144.914  17.8025
  9030.000  9029.980  0.500  2.068647  117.682  144.905  18.3097
  9031.401  9031.390  0.500  2.033793  117.646  144.89  18.9571
  9032.817  9032.810  0.500  1.999377  117.613  144.878  19.6193
  9034.261  9034.250  0.500  1.970356  117.581  144.873  20.1963
  9035.727  9035.710  0.500  1.951442  117.548  144.864  20.5807
  9037.201  9037.190  0.500  1.941661  117.5  144.826  20.7775
  9038.689  9038.690  0.500  1.939912  117.468  144.827  20.814
  9040.227  9040.210  0.500  1.945403  117.122  144.437  20.6443
  9041.772  9041.750  0.500  1.955788  116.25  143.394  20.2835
  9043.318  9043.310  0.500  1.964033  117.255  144.661  20.2947
  9044.896  9044.880  0.500  1.965136  117.276  144.722  20.2808
  9046.506  9046.480  0.500  1.960659  117.249  144.712  20.3705
  9048.107  9048.090  0.500  1.960195  117.213  144.705  20.379
  9049.740  9049.730  0.500  1.968869  117.183  144.713  20.2041
  9051.387  9051.380  0.500  1.980797  117.155  144.716  19.965
  9053.063  9053.050  0.500  1.988498  117.115  144.72  19.8123
  9054.748  9054.740  0.500  1.988908  117.089  144.719  19.8041
  9056.457  9056.450  0.500  1.989808  117.051  144.705  19.7844
  9058.195  9058.180  0.500  1.997600  117  144.668  19.6258
  9059.934  9059.930  0.500  2.012286  116.959  144.666  19.3394
  9061.695  9061.690  0.500  2.027309  116.828  144.539  19.0342
  9063.499  9063.480  0.500  2.038560  115.776  143.255  18.6542
  9065.286  9065.280  0.500  2.047149  116.79  144.567  18.664
  9067.124  9067.110  0.500  2.057327  116.793  144.624  18.4822
  9068.962  9068.950  0.500  2.070369  116.777  144.65  18.2461
  9070.822  9070.810  0.500  2.086450  116.713  144.613  17.9504
  9072.705  9072.690  0.500  2.098174  116.669  144.606  17.7403
  9074.612  9074.590  0.500  2.098994  116.618  144.594  17.7243
  9076.521  9076.510  0.500  2.087206  116.584  144.583  17.9331
  9078.459  9078.450  0.500  2.064532  116.536  144.562  18.3417
  9080.426  9080.410  0.500  2.036976  115.675  143.54  18.7209
  9082.380  9082.380  0.500  2.012052  116.243  144.281  19.2924
  9084.385  9084.380  0.500  1.990268  116.372  144.47  19.7431
  9086.387  9086.390  0.500  1.970927  116.334  144.464  20.1278
  9088.432  9088.420  0.500  1.957741  116.291  144.456  20.3939
  9090.493  9090.480  0.500  1.950964  116.247  144.46  20.5331
  9092.547  9092.550  0.500  1.938925  116.198  144.446  20.7799
  9094.652  9094.640  0.500  1.918424  116.156  144.437  21.2089
  9096.755  9096.750  0.500  1.897009  116.102  144.418  21.6652
  9098.888  9098.880  0.500  1.882050  116.069  144.424  21.9926
  9101.028  9101.020  0.500  1.879775  116.027  144.369  22.0342
  9103.194  9103.190  0.500  1.889308  114.968  143.112  21.6352
  9105.398  9105.380  0.500  1.907188  115.798  144.189  21.4117
  9107.595  9107.580  0.500  1.928838  115.818  144.288  20.9675
  9109.807  9109.800  0.500  1.948609  115.782  144.288  20.557
  9112.068  9112.050  0.500  1.963694  115.728  144.274  20.2472
  9114.318  9114.310  0.500  1.972485  115.682  144.268  20.0692
  9116.598  9116.590  0.500  1.974353  115.631  144.255  20.03
  9118.891  9118.890  0.500  1.972847  115.576  144.228  20.0564
  9121.231  9121.210  0.500  1.974588  115.513  144.21  20.019
  9123.569  9123.550  0.500  1.986976  115.462  144.201  19.7713
  9125.904  9125.900  0.500  2.013054  115.406  144.144  19.2547
  9128.294  9128.280  0.500  2.048965  115.337  144.119  18.5723
  9130.675  9130.670  0.500  2.077662  115.277  144.114  18.0463
  9133.115  9133.090  0.500  2.089491  115.21  144.069  17.8285
  9135.542  9135.520  0.500  2.086362  115.137  144.029  17.8794
  9137.980  9137.970  0.500  2.075614  115.062  143.984  18.0671
  9140.464  9140.450  0.500  2.061415  114.945  143.891  18.3135
  9142.952  9142.940  0.500  2.041461  114.245  143.068  18.5758
  9145.474  9145.450  0.500  2.013339  114.871  143.899  19.2166
  9147.972  9147.970  0.500  1.980644  114.928  144.027  19.8728
  9150.541  9150.520  0.500  1.943700  114.827  143.958  20.6109
  9153.103  9153.090  0.500  1.905868  114.676  143.823  21.3855
  9155.689  9155.670  0.500  1.870330  114.192  143.284  22.0762
  9158.298  9158.280  0.500  1.842721  114.172  143.305  22.6976
  9160.915  9160.900  0.500  1.831286  114.663  143.972  23.0653
  9163.567  9163.550  0.500  1.838598  114.524  143.855  22.8788
  9166.224  9166.210  0.500  1.861598  114.187  143.487  22.3013
  9168.911  9168.890  0.500  1.892321  112.982  142.042  21.4087
  9171.619  9171.590  0.500  1.921023  114.485  143.972  21.0857
  9174.331  9174.310  0.500  1.939763  114.378  143.903  20.6844
  9177.081  9177.050  0.500  1.948519  114.261  143.827  20.4931
  9179.830  9179.800  0.500  1.949273  114.009  143.563  20.4402
  9182.598  9182.580  0.500  1.944312  112.506  141.721  20.2783
  9185.394  9185.370  0.500  1.939424  114.184  143.902  20.6912
  9188.213  9188.190  0.500  1.936791  114.076  143.829  20.7352
  9191.034  9191.020  0.500  1.934417  113.978  143.762  20.7749
  9193.893  9193.870  0.500  1.929775  113.899  143.722  20.8657
  9196.768  9196.750  0.500  1.923049  113.801  143.658  20.9971
  9199.660  9199.640  0.500  1.921717  113.705  143.6  21.0166
  9202.576  9202.550  0.500  1.932613  113.628  143.555  20.7824
  9205.482  9205.470  0.500  1.953034  113.552  143.522  20.3576
  9208.442  9208.420  0.500  1.971870  113.479  143.484  19.9725
  9211.407  9211.390  0.500  1.979318  113.41  143.476  19.8232
  9214.385  9214.370  0.500  1.978308  113.584  143.753  19.8815
  9217.398  9217.380  0.500  1.972825  113.757  144.023  20.0284
  9220.417  9220.400  0.500  1.962575  113.679  143.992  20.2304
  9223.478  9223.450  0.500  1.946254  113.608  143.947  20.5568
  9226.531  9226.510  0.500  1.924749  113.516  143.916  20.9991
  9229.614  9229.590  0.500  1.901285  113.454  143.86  21.4893
  9232.707  9232.690  0.500  1.879477  113.38  143.824  21.9577
  9235.825  9235.810  0.500  1.861907  113.299  143.807  22.3441
  9238.974  9238.950  0.500  1.850773  113.224  143.771  22.5887
  9242.121  9242.100  0.500  1.847526  113.154  143.756  22.6598
  9245.304  9245.280  0.500  1.849906  113.09  143.736  22.6028
  9248.493  9248.470  0.500  1.852632  113.015  143.71  22.5372
  9251.713  9251.690  0.500  1.853060  112.94  143.676  22.5221
  9254.943  9254.920  0.500  1.853536  112.855  143.638  22.5054
  9258.198  9258.170  0.500  1.855057  112.779  143.609  22.4668
  9261.474  9261.450  0.500  1.857074  112.692  143.584  22.4176
  9264.774  9264.740  0.500  1.860732  112.61  143.529  22.3272
  9268.080  9268.050  0.500  1.865829  112.53  143.465  22.2037
  9271.389  9271.370  0.500  1.870687  112.439  143.411  22.0879
  9274.752  9274.720  0.500  1.874481  112.081  143.029  21.9455
  9278.124  9278.090  0.500  1.876820  112.316  143.41  21.9526
  9281.500  9281.470  0.500  1.878473  112.225  143.371  21.9105
  9284.904  9284.880  0.500  1.880038  112.132  143.326  21.8693
  9288.333  9288.300  0.500  1.881402  112.037  143.267  21.8305
  9291.783  9291.750  0.500  1.882489  111.288  142.364  21.6693
  9295.228  9295.210  0.500  1.883487  111.864  143.177  21.7714
  9298.720  9298.690  0.500  1.883476  109.812  140.619  21.3825
  9302.208  9302.190  0.500  1.878990  111.786  143.191  21.8716
  9305.736  9305.710  0.500  1.871197  111.017  142.271  21.9011
  9309.274  9309.250  0.500  1.862141  111.624  143.142  22.2356
  9312.834  9312.800  0.500  1.852588  111.525  143.092  22.4413
  9316.411  9316.380  0.500  1.842875  111.432  143.049  22.6535
  9320.002  9319.980  0.500  1.834521  111.334  142.989  22.8339
  9323.623  9323.590  0.500  1.829704  110.336  141.765  22.7478
  9327.242  9327.220  0.500  1.827637  111.178  142.953  22.9858
  9330.902  9330.880  0.500  1.825568  111.088  142.878  23.0213
  9334.580  9334.550  0.500  1.821177  110.997  142.835  23.1158
  9338.253  9338.240  0.500  1.813866  110.901  142.777  23.2758
  9341.971  9341.950  0.500  1.805121  110.805  142.728  23.4723
  9345.692  9345.680  0.500  1.799302  110.713  142.673  23.6002
  9349.442  9349.420  0.500  1.799041  110.611  142.63  23.5992
  9353.207  9353.190  0.500  1.800004  110.526  142.585  23.569
  9356.993  9356.980  0.500  1.799620  110.449  142.553  23.5728
  9360.798  9360.780  0.500  1.799702  110.36  142.517  23.5649
  9364.625  9364.610  0.500  1.800549  110.276  142.459  23.5354
  9368.470  9368.450  0.500  1.801280  110.17  142.426  23.5127
  9372.315  9372.310  0.500  1.801930  110.078  142.374  23.4888
  9376.212  9376.190  0.500  1.802470  109.983  142.329  23.4687
  9380.101  9380.090  0.500  1.803129  109.892  142.281  23.4454
  9384.021  9384.010  0.500  1.803403  109.798  142.232  23.4309
  9387.962  9387.950  0.500  1.803181  109.704  142.177  23.4271
  9391.926  9391.910  0.500  1.802323  109.619  142.139  23.4408
  9395.905  9395.880  0.500  1.801436  109.527  142.109  23.4567
  9399.894  9399.880  0.500  1.799641  109.425  142.056  23.4901
  9403.914  9403.890  0.500  1.796269  109.33  142.02  23.5635
  9407.942  9407.930  0.500  1.791462  109.237  141.951  23.6656
  9411.995  9411.980  0.500  1.785395  109.132  141.871  23.7961
  9416.064  9416.050  0.500  1.778584  109.032  141.812  23.9489
  9420.156  9420.140  0.500  1.772553  108.925  141.77  24.0866
  9424.274  9424.250  0.500  1.768315  108.831  141.724  24.181
  9428.396  9428.380  0.500  1.765461  108.728  141.663  24.2397
  9432.560  9432.530  0.500  1.763521  108.624  141.625  24.2801
  9436.708  9436.690  0.500  1.761489  108.037  140.913  24.2072
  9440.903  9440.880  0.500  1.758784  108.406  141.469  24.3687
  9445.098  9445.080  0.500  1.755333  108.315  141.428  24.4458
  9449.323  9449.310  0.500  1.751119  108.211  141.368  24.5387
  9453.575  9453.550  0.500  1.746463  108.114  141.313  24.6436
  9457.824  9457.810  0.500  1.742589  108.003  141.237  24.7258
  9462.111  9462.090  0.500  1.740143  107.893  141.197  24.7795
  9466.410  9466.390  0.500  1.737798  107.79  141.128  24.8254
  9470.728  9470.710  0.500  1.735081  107.689  141.083  24.8851
  9475.066  9475.050  0.500  1.732785  107.589  141.037  24.9341
  9479.424  9479.410  0.500  1.731136  107.484  140.975  24.9642
  9483.813  9483.790  0.500  1.730114  107.383  140.917  24.9796
  9488.206  9488.180  0.500  1.729577  107.271  140.844  24.98
  9492.618  9492.600  0.500  1.729363  107.159  140.794  24.9765
  9497.047  9497.030  0.500  1.729035  107.05  140.697  24.9676
  9501.484  9501.480  0.500  1.728795  106.932  140.635  24.9625
  9505.975  9505.950  0.500  1.728091  106.827  140.581  24.9705
  9510.471  9510.440  0.500  1.726944  106.716  140.516  24.9876
  9514.972  9514.950  0.500  1.724757  106.602  140.445  25.0295
  9519.508  9519.480  0.500  1.721300  106.498  140.378  25.1044
  9524.056  9524.030  0.500  1.716860  106.382  140.304  25.2028
  9528.616  9528.600  0.500  1.711786  106.271  140.244  25.32
  9533.201  9533.180  0.500  1.707463  106.154  140.18  25.4181
  9537.810  9537.790  0.500  1.703858  106.04  140.115  25.4981
  9542.435  9542.410  0.500  1.700644  105.922  140.033  25.5652
  9547.084  9547.060  0.500  1.697677  105.806  139.954  25.6267
  9551.734  9551.720  0.500  1.694866  105.691  139.878  25.6849
  9556.425  9556.400  0.500  1.692219  105.571  139.812  25.7409
  9561.131  9561.100  0.500  1.689585  105.457  139.726  25.7929
  9565.831  9565.820  0.500  1.686786  105.344  139.655  25.8521
  9570.583  9570.560  0.500  1.683886  105.213  139.586  25.9142
  9575.336  9575.310  0.500  1.681078  105.097  139.51  25.973
  9580.109  9580.090  0.500  1.678193  104.969  139.423  26.0318
  9584.915  9584.890  0.500  1.675112  104.855  139.348  26.0982
  9589.722  9589.700  0.500  1.672213  104.734  139.243  26.1541
  9594.546  9594.530  0.500  1.669899  104.617  139.177  26.2023
  9599.418  9599.390  0.500  1.667565  104.491  139.103  26.2497
  9604.288  9604.260  0.500  1.665532  104.376  139.037  26.2906
  9609.175  9609.150  0.500  1.663601  104.253  138.929  26.3209
  9614.138  9614.060  0.500  1.661550  104.123  138.853  26.3605
  9619.011  9618.990  0.500  1.659694  103.981  138.751  26.3901
  9623.950  9623.930  0.500  1.657835  103.863  138.678  26.4252
  9628.973  9628.900  0.500  1.656027  103.727  138.584  26.455
  9633.913  9633.890  0.500  1.653829  103.386  138.21  26.4418
  9638.911  9638.890  0.500  1.651630  103.457  138.377  26.5321
  9643.950  9643.920  0.500  1.649009  103.339  138.304  26.5876
  9648.991  9648.960  0.500  1.646417  102.999  137.93  26.5845
  9654.045  9654.020  0.500  1.643680  103.078  138.122  26.6944
  9659.121  9659.100  0.500  1.640943  102.943  138.033  26.7504
  9664.291  9664.200  0.500  1.638264  102.808  137.925  26.8012
  9669.353  9669.320  0.500  1.635660  102.647  137.793  26.8454
  9674.482  9674.460  0.500  1.632766  102.515  137.7  26.905
  9679.656  9679.620  0.500  1.629777  102.38  137.596  26.9652
  9684.840  9684.800  0.500  1.627028  102.251  137.494  27.0193
  9690.030  9689.990  0.500  1.624048  102.113  137.378  27.0771
  9695.230  9695.210  0.500  1.621099  101.982  137.295  27.1408
  9700.431  9700.440  0.500  1.618436  101.846  137.188  27.1919
  9705.760  9705.690  0.500  1.615865  101.687  137.067  27.2378
  9711.043  9710.960  0.500  1.613062  101.576  137.002  27.3013
  9716.221  9716.250  0.500  1.610319  101.449  136.933  27.3624
  9721.547  9721.560  0.500  1.607629  101.31  136.832  27.416
  9726.871  9726.890  0.500  1.604927  101.16  136.71  27.4657
  9732.222  9732.240  0.500  1.602305  101.034  136.621  27.5199
  9737.665  9737.610  0.500  1.599823  100.891  136.512  27.5661
  9743.011  9742.990  0.500  1.597383  100.75  136.404  27.6117
  9748.454  9748.400  0.500  1.595237  100.61  136.303  27.6504
  9753.800  9753.820  0.500  1.592940  100.472  136.189  27.6909
  9759.354  9759.270  0.500  1.590726  100.329  136.088  27.7316
  9764.795  9764.730  0.500  1.588339  100.17  135.961  27.772
  9770.192  9770.210  0.500  1.585969  99.9558  135.745  27.7938
  9775.695  9775.710  0.500  1.583396  99.9265  135.78  27.8724
  9781.237  9781.230  0.500  1.580777  99.6724  135.533  27.8948
  9786.744  9786.770  0.500  1.578184  99.6383  135.561  27.973
  9792.307  9792.320  0.500  1.575617  98.5231  134.118  27.7463
  9797.877  9797.900  0.500  1.573102  99.3343  135.322  28.0658
  9803.462  9803.500  0.500  1.570582  99.0591  135.024  28.0748
  9809.082  9809.110  0.500  1.567985  99.0892  135.151  28.1741
  9814.746  9814.750  0.500  1.565199  98.9348  135.026  28.2267
  9820.371  9820.400  0.500  1.562456  98.52  134.549  28.2043
  9826.049  9826.070  0.500  1.559668  98.9754  135.24  28.4282
  9831.745  9831.760  0.500  1.556889  98.7978  135.093  28.4765