File: xdidata/Cu/Cu-CuO.xdi
# XDI/1.0 BlueSky/1.10.0 BMM/2023-1.0-py310-tiled
# Beamline.name: BMM (06BM) -- Beamline for Materials Measurement (NIST)
# Beamline.xray_source: NSLS-II three-pole wiggler
# Beamline.collimation: paraboloid mirror, 5 nm Rh on 30 nm Pt
# Beamline.focusing: not in use
# Beamline.harmonic_rejection: flat mirror, Pt stripe, pitch = 7.0 mrad relative to beam
# Beamline.software: Bluesky 1.10.0, Ophyd 1.7.0, DataBroker 2.0.0b13, Python 3.10.8, 2023-1.0-py310-tiled
# Detector.I0: 10 cm N2
# Detector.I1: 25 cm N2
# Detector.I2: 25 cm N2
# Element.symbol: Cu
# Element.edge: K
# Element.reference: Cu
# Element.reference_material: Cu foil
# Facility.name: NSLS-II
# Facility.energy: 3.0
# Facility.current: 400.5
# Facility.mode: top-off
# Facility.GUP: 123456
# Facility.SAF: 301027
# Facility.cycle: 2023-2
# Mono.name: Si(111)
# Mono.d_spacing: 3.13519
# Mono.encoder_resolution: 0.0000050 deg/ct
# Mono.angle_offset: 16.0754 deg
# Mono.scan_mode: pseudo channel cut
# Mono.scan_type: step
# Mono.direction: forward in energy
# Sample.name: CuO
# Sample.prep: powder in PEG pellet
# Sample.x: 116.329 mm
# Sample.y: 114.126 mm
# Sample.SDD_position: 205.000 mm
# Scan.experimenters: Bruce Ravel
# Scan.edge_energy: 8978.9
# Scan.start_time: 2023-05-06T12:44:34
# Scan.end_time: 2023-05-06T12:52:37
# Scan.transient_id: 74798
# Scan.uid: 13a5d6a6-9e02-4598-89d1-f56ab40b3f90
# Scan.plot_hint: ln(I0/It)  --  ln($5/$6)
# Column.1: energy eV
# Column.2: requested_energy eV
# Column.3: measurement_time seconds
# Column.4: xmu
# Column.5: I0 nA
# Column.6: It nA
# Column.7: Ir nA
# ///////////
# sample courtesy Martin Stennett, University of Sheffield
# -----------
# energy  requested_energy  measurement_time  xmu  I0  It  Ir
  8778.923  8778.900  0.500  0.405082  123.017  82.0428  42.524
  8788.913  8788.900  0.500  0.401602  122.796  82.1805  42.6884
  8798.920  8798.900  0.500  0.397945  122.591  82.344  42.8626
  8809.027  8808.900  0.500  0.394389  122.387  82.5  43.0404
  8818.970  8818.900  0.500  0.390734  122.167  82.6534  43.2118
  8829.108  8828.900  0.500  0.387462  121.964  82.7865  43.3785
  8839.011  8838.900  0.500  0.383932  121.773  82.9493  43.5583
  8848.926  8848.900  0.500  0.380520  121.563  83.0892  43.7213
  8858.915  8858.900  0.500  0.377070  121.347  83.2278  43.8865
  8868.924  8868.900  0.500  0.373718  121.146  83.3691  44.051
  8878.929  8878.900  0.500  0.370368  120.945  83.5098  44.2132
  8888.909  8888.900  0.500  0.367186  120.74  83.6341  44.3662
  8898.920  8898.900  0.500  0.363881  120.525  83.7618  44.5178
  8908.922  8908.900  0.500  0.360734  120.152  83.7655  44.6012
  8918.914  8918.900  0.500  0.357660  120.197  84.0552  44.8258
  8928.908  8928.900  0.500  0.354528  119.913  84.1197  44.9299
  8938.911  8938.900  0.500  0.351735  119.784  84.2639  45.059
  8948.917  8948.900  0.500  0.349489  119.567  84.3003  45.1014
  8950.899  8950.900  0.500  0.349331  119.449  84.2302  45.0614
  8952.893  8952.900  0.500  0.348963  119.408  84.2328  45.0603
  8954.895  8954.900  0.500  0.348747  119.429  84.2654  45.0706
  8956.887  8956.900  0.500  0.348513  119.383  84.253  45.0504
  8958.887  8958.900  0.500  0.348220  119.346  84.2517  45.0287
  8960.891  8960.900  0.500  0.348056  119.296  84.2297  44.9911
  8962.893  8962.900  0.500  0.348029  119.253  84.202  44.9396
  8964.892  8964.900  0.500  0.348312  118.937  83.9553  44.7624
  8966.892  8966.900  0.500  0.348604  119.151  84.0817  44.762
  8968.883  8968.900  0.500  0.349064  119.112  84.0156  44.629
  8969.170  8969.200  0.500  0.349244  119.107  83.997  44.6045
  8969.468  8969.500  0.500  0.349579  119.093  83.9589  44.5676
  8969.769  8969.800  0.500  0.349460  119.088  83.9651  44.5486
  8970.064  8970.100  0.500  0.349518  119.085  83.9581  44.5273
  8970.372  8970.400  0.500  0.349817  119.067  83.9206  44.4872
  8970.674  8970.700  0.500  0.349808  119.061  83.9168  44.4631
  8970.982  8971.000  0.500  0.350000  119.056  83.8975  44.424
  8971.276  8971.300  0.500  0.350232  119.049  83.8731  44.3895
  8971.581  8971.600  0.500  0.350360  119.044  83.859  44.3493
  8971.879  8971.900  0.500  0.350557  119.029  83.8319  44.3066
  8972.188  8972.200  0.500  0.350799  119.023  83.8071  44.258
  8972.479  8972.500  0.500  0.351073  119.01  83.7747  44.2066
  8972.780  8972.800  0.500  0.351471  119.003  83.7368  44.1514
  8973.085  8973.100  0.500  0.351640  119  83.7205  44.104
  8973.387  8973.400  0.500  0.351851  119.001  83.7032  44.0528
  8973.688  8973.700  0.500  0.352106  118.995  83.6777  43.9946
  8973.987  8974.000  0.500  0.352494  118.983  83.6374  43.9192
  8974.285  8974.300  0.500  0.352748  118.97  83.6067  43.8506
  8974.583  8974.600  0.500  0.353039  118.961  83.5759  43.7719
  8974.885  8974.900  0.500  0.353532  118.958  83.5328  43.682
  8975.179  8975.200  0.500  0.353858  118.951  83.5008  43.5909
  8975.481  8975.500  0.500  0.354461  118.941  83.4429  43.4759
  8975.779  8975.800  0.500  0.354931  118.929  83.3954  43.3563
  8976.088  8976.100  0.500  0.355467  118.923  83.3464  43.2264
  8976.383  8976.400  0.500  0.356060  118.914  83.2911  43.0842
  8976.688  8976.700  0.500  0.356843  118.903  83.2183  42.9136
  8976.993  8977.000  0.500  0.357626  118.891  83.1446  42.7231
  8977.295  8977.300  0.500  0.358508  118.883  83.066  42.5069
  8977.590  8977.600  0.500  0.359643  118.871  82.9629  42.2469
  8977.899  8977.900  0.500  0.360922  118.863  82.8516  41.9336
  8978.197  8978.200  0.500  0.362490  118.85  82.7128  41.5585
  8978.492  8978.500  0.500  0.364578  118.847  82.5382  41.0875
  8978.798  8978.800  0.500  0.367265  118.833  82.3071  40.4787
  8979.100  8979.100  0.500  0.370174  118.83  82.0657  39.6999
  8979.395  8979.400  0.500  0.372609  118.812  81.8535  38.7431
  8979.686  8979.700  0.500  0.374503  118.809  81.6966  37.5195
  8979.985  8980.000  0.500  0.375542  118.791  81.5994  35.9243
  8980.290  8980.300  0.500  0.375997  118.786  81.5591  33.9356
  8980.596  8980.600  0.500  0.376693  118.778  81.4967  31.5815
  8980.895  8980.900  0.500  0.377881  118.722  81.3615  29.1496
  8981.204  8981.200  0.500  0.380245  118.61  81.0927  26.8039
  8981.499  8981.500  0.500  0.383504  118.508  80.7593  24.9041
  8981.794  8981.800  0.500  0.387502  118.454  80.4006  23.4932
  8982.096  8982.100  0.500  0.392474  118.419  79.9784  22.4827
  8982.395  8982.400  0.500  0.398293  118.46  79.5415  21.8307
  8982.701  8982.700  0.500  0.404889  118.556  79.0827  21.4283
  8982.999  8983.000  0.500  0.412088  118.647  78.576  21.2122
  8983.305  8983.300  0.500  0.420673  118.653  77.908  21.0951
  8983.597  8983.600  0.500  0.430495  118.652  77.1459  21.0454
  8983.892  8983.900  0.500  0.442398  118.64  76.2253  20.9973
  8984.188  8984.200  0.500  0.457479  118.641  75.0852  20.8836
  8984.497  8984.500  0.500  0.476769  118.629  73.6434  20.6429
  8984.792  8984.800  0.500  0.499812  118.614  71.9568  20.2395
  8985.095  8985.100  0.500  0.527373  118.608  69.9969  19.6536
  8985.401  8985.400  0.500  0.557974  118.604  67.885  18.9055
  8985.700  8985.700  0.500  0.588904  118.601  65.8159  18.0866
  8986.009  8986.000  0.500  0.619024  118.591  63.8578  17.245
  8986.308  8986.300  0.500  0.644120  118.59  62.2743  16.5091
  8986.603  8986.600  0.500  0.663362  118.578  61.0817  15.8928
  8986.892  8986.900  0.500  0.676322  118.571  60.2917  15.426
  8987.201  8987.200  0.500  0.684156  118.998  60.0364  15.1142
  8987.494  8987.500  0.500  0.687588  118.982  59.8228  14.833
  8987.789  8987.800  0.500  0.688080  118.976  59.7903  14.5966
  8988.095  8988.100  0.500  0.686994  118.965  59.8497  14.3658
  8988.401  8988.400  0.500  0.685674  118.956  59.9242  14.1208
  8988.707  8988.700  0.500  0.685741  118.946  59.9149  13.8263
  8989.007  8989.000  0.500  0.688207  118.925  59.7571  13.4849
  8989.302  8989.300  0.500  0.694090  118.919  59.4034  13.0802
  8989.602  8989.600  0.500  0.703502  118.903  58.8388  12.6094
  8989.908  8989.900  0.500  0.716536  118.884  58.0681  12.086
  8990.203  8990.200  0.500  0.732089  118.873  57.1664  11.53
  8990.506  8990.500  0.500  0.749548  118.867  56.1742  10.966
  8990.795  8990.800  0.500  0.767368  118.852  55.175  10.4103
  8991.091  8991.100  0.500  0.785414  118.828  54.1774  9.867407
  8991.390  8991.400  0.500  0.804540  118.799  53.1382  9.316110
  8991.690  8991.700  0.500  0.823804  118.773  52.1129  8.789047
  8992.003  8992.000  0.500  0.844685  118.74  51.0216  8.262543
  8992.302  8992.300  0.500  0.866021  118.682  49.9201  7.773973
  8992.595  8992.600  0.500  0.888471  118.596  48.7767  7.313371
  8992.898  8992.900  0.500  0.910843  118.352  47.5996  6.880067
  8993.201  8993.200  0.500  0.931758  117.637  46.3327  6.467260
  8993.503  8993.500  0.500  0.950315  116.725  45.128  6.100456
  8993.810  8993.800  0.500  0.965489  116.369  44.3131  5.816474
  8994.106  8994.100  0.500  0.976892  116.72  43.9428  5.628029
  8994.402  8994.400  0.500  0.985904  117.342  43.7805  5.497473
  8994.695  8994.700  0.500  0.993413  117.979  43.689  5.405134
  8994.991  8995.000  0.500  1.000355  118.474  43.5685  5.339237
  8995.301  8995.300  0.500  1.007090  118.719  43.3658  5.293208
  8995.600  8995.600  0.500  1.013675  118.763  43.097  5.268696
  8995.893  8995.900  0.500  1.020121  118.764  42.8206  5.265435
  8996.196  8996.200  0.500  1.026654  118.758  42.5394  5.281960
  8996.496  8996.500  0.500  1.033697  118.742  42.2354  5.310265
  8996.806  8996.800  0.500  1.040972  118.728  41.9242  5.344464
  8997.102  8997.100  0.500  1.048854  118.713  41.5898  5.378293
  8997.409  8997.400  0.500  1.057638  118.698  41.2207  5.410965
  8997.705  8997.700  0.500  1.066445  118.686  40.8551  5.439199
  8998.008  8998.000  0.500  1.075036  118.676  40.5024  5.466061
  8998.308  8998.300  0.500  1.082649  118.647  40.1854  5.493714
  8998.601  8998.600  0.500  1.088457  118.632  39.9475  5.525430
  8998.897  8998.900  0.500  1.092296  118.617  39.7896  5.561131
  8999.194  8999.200  0.500  1.093597  118.593  39.7299  5.599563
  8999.501  8999.500  0.500  1.092729  118.576  39.7584  5.640298
  8999.801  8999.800  0.500  1.090176  118.556  39.8534  5.675950
  9000.104  9000.100  0.500  1.086603  118.533  39.9883  5.702142
  9000.400  9000.400  0.500  1.082367  118.509  40.1499  5.715901
  9000.700  9000.700  0.500  1.078112  118.472  40.3087  5.712564
  9001.004  9001.000  0.500  1.073890  118.432  40.4656  5.692818
  9001.307  9001.300  0.500  1.069553  118.374  40.6215  5.655694
  9001.611  9001.600  0.500  1.064710  118.286  40.7884  5.605684
  9001.904  9001.900  0.500  1.059609  118.095  40.9309  5.541012
  9002.208  9002.200  0.500  1.053759  117.654  41.017  5.456130
  9002.494  9002.500  0.500  1.047284  116.91  41.0224  5.359565
  9002.794  9002.800  0.500  1.039677  116.227  41.0942  5.266913
  9003.097  9003.100  0.500  1.031147  116.134  41.4131  5.205838
  9003.391  9003.400  0.500  1.022290  116.657  41.9697  5.185903
  9003.701  9003.700  0.500  1.013797  117.395  42.5955  5.190197
  9003.897  9003.900  0.500  1.008700  117.822  42.9689  5.198183
  9004.899  9004.890  0.500  0.986573  118.501  44.1835  5.304849
  9005.887  9005.890  0.500  0.970874  118.458  44.8661  5.558753
  9006.924  9006.910  0.500  0.956904  118.4  45.4751  5.926926
  9007.983  9007.960  0.500  0.944552  118.334  46.0147  6.259160
  9009.055  9009.020  0.500  0.937199  118.182  46.2947  6.493217
  9010.125  9010.100  0.500  0.936146  116.694  45.7598  6.603194
  9011.219  9011.200  0.500  0.939661  116.987  45.7137  6.792280
  9012.342  9012.320  0.500  0.942824  118.34  46.0966  6.965672
  9013.482  9013.460  0.500  0.944387  118.324  46.0184  6.973663
  9014.629  9014.610  0.500  0.943258  118.281  46.0535  6.936123
  9015.812  9015.790  0.500  0.940835  118.236  46.1477  6.878365
  9017.010  9016.980  0.500  0.937761  118.188  46.271  6.784851
  9018.214  9018.200  0.500  0.934089  118.102  46.4074  6.649673
  9019.461  9019.430  0.500  0.928815  117.665  46.4801  6.470535
  9020.656  9020.680  0.500  0.920630  116.025  46.2089  6.247825
  9022.149  9021.950  0.500  0.907717  118.076  47.6369  6.239285
  9023.316  9023.240  0.500  0.895674  118.078  48.2149  6.152403
  9024.571  9024.550  0.500  0.885271  118.029  48.6992  6.055594
  9025.869  9025.880  0.500  0.877715  117.992  49.0531  5.976672
  9027.216  9027.230  0.500  0.872187  117.962  49.3123  5.960468
  9028.592  9028.600  0.500  0.868863  117.931  49.4635  6.053088
  9029.979  9029.980  0.500  0.869327  117.893  49.4246  6.217337
  9031.384  9031.390  0.500  0.873857  117.855  49.1856  6.405390
  9032.814  9032.810  0.500  0.881194  117.817  48.8101  6.582357
  9034.254  9034.250  0.500  0.890257  117.782  48.3554  6.714960
  9035.720  9035.710  0.500  0.900108  117.745  47.8662  6.776940
  9037.183  9037.190  0.500  0.909958  117.716  47.3855  6.777181
  9038.689  9038.690  0.500  0.920551  117.673  46.8692  6.716530
  9040.213  9040.210  0.500  0.930936  117.373  46.2667  6.594192
  9041.761  9041.750  0.500  0.941197  116.415  45.4206  6.408367
  9043.314  9043.310  0.500  0.949374  117.458  45.4544  6.357534
  9044.885  9044.880  0.500  0.955272  117.474  45.1932  6.313086
  9046.478  9046.480  0.500  0.959705  117.46  44.9878  6.312155
  9048.089  9048.090  0.500  0.963923  117.424  44.7846  6.287818
  9049.726  9049.730  0.500  0.967619  117.384  44.6043  6.211069
  9051.370  9051.380  0.500  0.969725  117.351  44.498  6.122535
  9053.042  9053.050  0.500  0.969277  117.319  44.506  6.075016
  9054.733  9054.740  0.500  0.966361  117.277  44.6199  6.085858
  9056.446  9056.450  0.500  0.961775  117.225  44.8052  6.107207
  9058.171  9058.180  0.500  0.957023  117.195  45.0069  6.090106
  9059.924  9059.930  0.500  0.952378  117.145  45.1972  6.025720
  9061.692  9061.690  0.500  0.948139  117.022  45.3415  5.953671
  9063.485  9063.480  0.500  0.943548  115.914  45.1189  5.858631
  9065.279  9065.280  0.500  0.939428  116.974  45.7193  5.884736
  9067.106  9067.110  0.500  0.936106  116.971  45.8705  5.845325
  9068.955  9068.950  0.500  0.933060  116.939  45.9979  5.786180
  9070.812  9070.810  0.500  0.929833  116.9  46.131  5.710068
  9072.680  9072.690  0.500  0.926909  116.866  46.2527  5.657428
  9074.588  9074.590  0.500  0.924347  116.82  46.353  5.663460
  9076.518  9076.510  0.500  0.922128  116.773  46.4374  5.739712
  9078.452  9078.450  0.500  0.920133  116.72  46.5088  5.877051
  9080.409  9080.410  0.500  0.918423  115.913  46.2665  6.010090
  9082.380  9082.380  0.500  0.917163  116.425  46.5293  6.199846
  9084.381  9084.380  0.500  0.916008  116.545  46.6313  6.350203
  9086.383  9086.390  0.500  0.914486  116.518  46.6915  6.483294
  9088.418  9088.420  0.500  0.912661  116.468  46.7566  6.578137
  9090.489  9090.480  0.500  0.911160  116.426  46.8101  6.631578
  9092.554  9092.550  0.500  0.910256  116.388  46.8372  6.716532
  9094.642  9094.640  0.500  0.909322  116.342  46.8621  6.857654
  9096.759  9096.750  0.500  0.908259  116.292  46.8919  7.011273
  9098.880  9098.880  0.500  0.906944  116.25  46.9368  7.125240
  9101.028  9101.020  0.500  0.906119  116.195  46.9533  7.147218
  9103.187  9103.190  0.500  0.905326  115.186  46.5825  7.025844
  9105.376  9105.380  0.500  0.904476  115.971  46.9398  6.953085
  9107.588  9107.580  0.500  0.903901  116.004  46.9801  6.810412
  9109.811  9109.800  0.500  0.903592  115.959  46.9762  6.675505
  9112.053  9112.050  0.500  0.902841  115.91  46.992  6.576819
  9114.322  9114.310  0.500  0.901763  115.857  47.0212  6.521325
  9116.595  9116.590  0.500  0.900839  115.802  47.0422  6.512243
  9118.905  9118.890  0.500  0.900912  115.755  47.0194  6.517931
  9121.220  9121.210  0.500  0.901419  115.695  46.9713  6.501611
  9123.551  9123.550  0.500  0.902448  115.641  46.901  6.415022
  9125.911  9125.900  0.500  0.904480  115.584  46.7828  6.233931
  9128.291  9128.280  0.500  0.907170  115.621  46.672  6.000603
  9130.686  9130.670  0.500  0.909739  115.782  46.6172  5.821032
  9133.101  9133.090  0.500  0.911348  115.706  46.5115  5.738673
  9135.527  9135.520  0.500  0.912250  115.632  46.4401  5.745233
  9137.984  9137.970  0.500  0.912533  115.559  46.3977  5.801238
  9140.453  9140.450  0.500  0.912058  115.447  46.3748  5.881588
  9142.948  9142.940  0.500  0.910964  114.796  46.1635  5.971075
  9145.463  9145.450  0.500  0.909801  115.327  46.4312  6.177029
  9147.980  9147.970  0.500  0.908634  115.424  46.5245  6.396173
  9150.537  9150.520  0.500  0.907175  115.322  46.5514  6.639230
  9153.092  9153.090  0.500  0.905425  115.189  46.5791  6.899571
  9155.682  9155.670  0.500  0.903660  114.746  46.4817  7.135795
  9158.291  9158.280  0.500  0.901839  114.53  46.4787  7.338367
  9160.912  9160.900  0.500  0.899129  115.171  46.8657  7.487069
  9163.578  9163.550  0.500  0.895874  115.035  46.9632  7.450256
  9166.217  9166.210  0.500  0.892197  114.712  47.0036  7.289100
  9168.908  9168.890  0.500  0.888310  113.333  46.6197  7.011210
  9171.608  9171.590  0.500  0.883718  114.992  47.5199  6.943259
  9174.331  9174.310  0.500  0.879634  114.886  47.6704  6.833575
  9177.071  9177.050  0.500  0.876771  114.772  47.7592  6.784962
  9179.815  9179.800  0.500  0.875656  114.527  47.7108  6.771630
  9182.602  9182.580  0.500  0.876489  112.765  46.9376  6.695260
  9185.386  9185.370  0.500  0.877857  114.701  47.6779  6.834621
  9188.209  9188.190  0.500  0.879260  114.587  47.5641  6.836554
  9191.034  9191.020  0.500  0.879842  114.491  47.4963  6.842796
  9193.893  9193.870  0.500  0.879157  114.405  47.4932  6.873692
  9196.757  9196.750  0.500  0.877439  114.303  47.5326  6.926426
  9199.660  9199.640  0.500  0.875419  114.212  47.5909  6.945255
  9202.565  9202.550  0.500  0.873360  114.142  47.6594  6.882706
  9205.501  9205.470  0.500  0.871538  114.055  47.7101  6.749265
  9208.431  9208.420  0.500  0.869298  113.984  47.7872  6.634853
  9211.418  9211.390  0.500  0.866884  113.919  47.8757  6.595918
  9214.378  9214.370  0.500  0.865584  113.856  47.9114  6.606788
  9217.398  9217.380  0.500  0.865075  113.779  47.9031  6.640467
  9220.414  9220.400  0.500  0.865680  113.712  47.8461  6.700440
  9223.475  9223.450  0.500  0.866816  113.638  47.7606  6.796724
  9226.523  9226.510  0.500  0.867640  113.553  47.6857  6.934251
  9229.607  9229.590  0.500  0.867559  113.485  47.661  7.095711
  9232.707  9232.690  0.500  0.866084  113.406  47.6981  7.257714
  9235.821  9235.810  0.500  0.863754  113.33  47.7774  7.399651
  9238.966  9238.950  0.500  0.861171  113.261  47.8719  7.499047
  9242.110  9242.100  0.500  0.858749  113.183  47.9546  7.537235
  9245.297  9245.280  0.500  0.857322  113.112  47.9933  7.525971
  9248.496  9248.470  0.500  0.856642  113.037  47.9938  7.504537
  9251.702  9251.690  0.500  0.856113  112.966  47.9892  7.501275
  9254.929  9254.920  0.500  0.855631  112.891  47.9803  7.495907
  9258.180  9258.170  0.500  0.854863  112.81  47.9828  7.485581
  9261.474  9261.450  0.500  0.854106  112.731  47.9857  7.470835
  9264.752  9264.740  0.500  0.852977  112.645  48.0029  7.446486
  9268.073  9268.050  0.500  0.851308  112.568  48.0502  7.416789
  9271.381  9271.370  0.500  0.848922  112.485  48.1295  7.391963
  9274.748  9274.720  0.500  0.846249  112.178  48.1266  7.364697
  9278.113  9278.090  0.500  0.843129  112.356  48.3537  7.380945
  9281.492  9281.470  0.500  0.840808  112.268  48.4282  7.379842
  9284.900  9284.880  0.500  0.839187  112.176  48.4667  7.374409
  9288.310  9288.300  0.500  0.838265  112.088  48.4737  7.364826
  9291.772  9291.750  0.500  0.837390  111.427  48.2299  7.318657
  9295.220  9295.210  0.500  0.836441  111.91  48.4849  7.352065
  9298.706  9298.690  0.500  0.835101  110.18  47.7996  7.248386
  9302.197  9302.190  0.500  0.834004  111.833  48.57  7.395552
  9305.729  9305.710  0.500  0.832419  111.137  48.3443  7.419039
  9309.278  9309.250  0.500  0.830684  111.667  48.6591  7.535384
  9312.815  9312.800  0.500  0.828859  111.58  48.7097  7.616583
  9316.400  9316.380  0.500  0.826783  111.49  48.7716  7.700284
  9319.998  9319.980  0.500  0.824811  111.381  48.8203  7.773014
  9323.615  9323.590  0.500  0.822959  110.364  48.4643  7.754001
  9327.246  9327.220  0.500  0.821754  111.23  48.9032  7.841637
  9330.898  9330.880  0.500  0.820759  111.143  48.9136  7.858506
  9334.576  9334.550  0.500  0.819652  111.043  48.9238  7.895433
  9338.253  9338.240  0.500  0.818403  110.956  48.9466  7.955102
  9341.982  9341.950  0.500  0.816868  110.872  48.9848  8.034654
  9345.696  9345.680  0.500  0.815089  110.769  49.0262  8.087271
  9349.434  9349.420  0.500  0.812858  110.675  49.0941  8.101878
  9353.222  9353.190  0.500  0.810638  110.582  49.1617  8.104097
  9356.997  9356.980  0.500  0.808719  110.488  49.2144  8.116509
  9360.806  9360.780  0.500  0.807609  110.401  49.2302  8.116891
  9364.629  9364.610  0.500  0.806698  110.306  49.2329  8.111836
  9368.470  9368.450  0.500  0.806117  110.207  49.2171  8.103401
  9372.334  9372.310  0.500  0.805841  110.107  49.1863  8.093010
  9376.208  9376.190  0.500  0.805396  110.019  49.1686  8.085695
  9380.120  9380.090  0.500  0.804621  109.919  49.1622  8.080871
  9384.028  9384.010  0.500  0.803346  109.812  49.1768  8.080229
  9387.962  9387.950  0.500  0.801833  109.715  49.2079  8.085809
  9391.933  9391.910  0.500  0.800288  109.622  49.2422  8.099274
  9395.889  9395.880  0.500  0.798439  109.523  49.2886  8.113532
  9399.898  9399.880  0.500  0.796464  109.421  49.3401  8.136313
  9403.914  9403.890  0.500  0.794388  109.317  49.3959  8.173703
  9407.945  9407.930  0.500  0.792285  109.212  49.4522  8.221422
  9411.999  9411.980  0.500  0.790348  109.104  49.4988  8.280769
  9416.076  9416.050  0.500  0.788659  108.999  49.5349  8.342047
  9420.156  9420.140  0.500  0.787186  108.892  49.5594  8.397223
  9424.270  9424.250  0.500  0.785431  108.779  49.5949  8.438584
  9428.400  9428.380  0.500  0.783600  108.675  49.638  8.471484
  9432.548  9432.530  0.500  0.781411  108.57  49.699  8.497651
  9436.720  9436.690  0.500  0.779108  107.95  49.529  8.484723
  9440.895  9440.880  0.500  0.777115  108.332  49.8036  8.556914
  9445.094  9445.080  0.500  0.775423  108.235  49.8433  8.591767
  9449.334  9449.310  0.500  0.773770  108.132  49.8783  8.635048
  9453.564  9453.550  0.500  0.772306  108.023  49.901  8.680011
  9457.828  9457.810  0.500  0.770644  107.894  49.9242  8.716445
  9462.119  9462.090  0.500  0.769275  107.784  49.9417  8.741824
  9466.406  9466.390  0.500  0.767969  107.674  49.9556  8.763606
  9470.732  9470.710  0.500  0.766873  107.569  49.9621  8.788975
  9475.074  9475.050  0.500  0.765830  107.449  49.9581  8.809873
  9479.439  9479.410  0.500  0.764588  107.336  49.9676  8.826193
  9483.801  9483.790  0.500  0.763195  107.228  49.9868  8.837909
  9488.206  9488.180  0.500  0.761456  107.106  50.0172  8.848777
  9492.622  9492.600  0.500  0.759678  106.992  50.0527  8.856553
  9497.043  9497.030  0.500  0.757761  106.883  50.0976  8.867594
  9501.491  9501.480  0.500  0.756182  106.757  50.1178  8.875852
  9505.983  9505.950  0.500  0.754604  106.641  50.1421  8.883217
  9510.463  9510.440  0.500  0.753019  106.519  50.1645  8.897355
  9514.964  9514.950  0.500  0.751425  106.4  50.1882  8.921265
  9519.515  9519.480  0.500  0.749685  106.292  50.2245  8.956732
  9524.056  9524.030  0.500  0.747717  106.166  50.2637  9.005324
  9528.612  9528.600  0.500  0.745941  106.047  50.2967  9.055961
  9533.205  9533.180  0.500  0.744110  105.93  50.3332  9.102836
  9537.818  9537.790  0.500  0.742279  105.807  50.367  9.141696
  9542.435  9542.410  0.500  0.740809  105.689  50.3847  9.175224
  9547.065  9547.060  0.500  0.739298  105.557  50.398  9.205683
  9551.730  9551.720  0.500  0.737814  105.442  50.418  9.233740
  9556.413  9556.400  0.500  0.736239  105.315  50.4368  9.261874
  9561.123  9561.100  0.500  0.734734  105.195  50.4551  9.290752
  9565.839  9565.820  0.500  0.733015  105.058  50.4761  9.320521
  9570.583  9570.560  0.500  0.731353  104.918  50.4927  9.350840
  9575.340  9575.310  0.500  0.729738  104.802  50.5182  9.381239
  9580.105  9580.090  0.500  0.728326  104.673  50.5272  9.409528
  9584.903  9584.890  0.500  0.727034  104.538  50.5273  9.440183
  9589.718  9589.700  0.500  0.725426  104.438  50.5603  9.474355
  9594.546  9594.530  0.500  0.723445  104.306  50.5968  9.502114
  9599.395  9599.390  0.500  0.721543  104.184  50.6335  9.531280
  9604.272  9604.260  0.500  0.719621  104.061  50.6711  9.557278
  9609.175  9609.150  0.500  0.717927  103.936  50.696  9.579714
  9614.075  9614.060  0.500  0.716064  103.809  50.7287  9.606193
  9619.003  9618.990  0.500  0.714232  103.658  50.7477  9.628435
  9623.950  9623.930  0.500  0.712195  103.54  50.7935  9.653557
  9628.921  9628.900  0.500  0.710516  103.412  50.8156  9.676941
  9633.905  9633.890  0.500  0.708628  103.074  50.7454  9.683505
  9638.903  9638.890  0.500  0.706683  103.138  50.8755  9.730257
  9643.938  9643.920  0.500  0.704884  103.017  50.9075  9.762429
  9648.979  9648.960  0.500  0.703051  102.669  50.8286  9.772758
  9654.037  9654.020  0.500  0.701422  102.755  50.9542  9.822434
  9659.121  9659.100  0.500  0.699764  102.619  50.9711  9.853033
  9664.218  9664.200  0.500  0.698124  102.479  50.9849  9.881502
  9669.345  9669.320  0.500  0.696623  102.325  50.985  9.907911
  9674.474  9674.460  0.500  0.694957  102.474  51.1442  9.967926
  9679.640  9679.620  0.500  0.693407  102.352  51.1629  10.0023
  9684.828  9684.800  0.500  0.691610  102.206  51.1818  10.0319
  9690.018  9689.990  0.500  0.690101  102.064  51.1878  10.0632
  9695.222  9695.210  0.500  0.688490  101.93  51.203  10.0968
  9700.464  9700.440  0.500  0.686878  101.794  51.2169  10.1257
  9705.712  9705.690  0.500  0.685266  101.64  51.2222  10.1544
  9710.982  9710.960  0.500  0.683655  101.499  51.2335  10.1854
  9716.261  9716.250  0.500  0.681858  101.399  51.2749  10.2217
  9721.588  9721.560  0.500  0.680010  101.263  51.3012  10.255
  9726.920  9726.890  0.500  0.678329  101.115  51.3123  10.2844
  9732.259  9732.240  0.500  0.676548  100.982  51.3359  10.3156
  9737.632  9737.610  0.500  0.674558  100.845  51.3685  10.348
  9743.007  9742.990  0.500  0.672786  100.701  51.386  10.3748
  9748.425  9748.400  0.500  0.670940  100.574  51.4162  10.4039
  9753.845  9753.820  0.500  0.669085  100.427  51.4362  10.4323
  9759.300  9759.270  0.500  0.667366  100.283  51.4513  10.4591
  9764.749  9764.730  0.500  0.665481  100.124  51.4665  10.4871
  9770.229  9770.210  0.500  0.663616  99.9153  51.455  10.5101
  9775.769  9775.710  0.500  0.661767  99.8853  51.5347  10.5528
  9781.291  9781.230  0.500  0.660043  99.6275  51.4904  10.5721
  9786.806  9786.770  0.500  0.658237  99.578  51.5579  10.6129
  9792.382  9792.320  0.500  0.656553  98.429  51.0488  10.5353
  9797.964  9797.900  0.500  0.654750  99.2872  51.5869  10.6731
  9803.574  9803.500  0.500  0.652913  98.9989  51.5316  10.6892
  9809.186  9809.110  0.500  0.651091  99.0434  51.6488  10.7415
  9814.821  9814.750  0.500  0.649465  98.8853  51.6503  10.7706
  9820.471  9820.400  0.500  0.647615  98.1437  51.3579  10.7388
  9826.149  9826.070  0.500  0.646060  98.5924  51.6729  10.8363
  9831.787  9831.760  0.500  0.644243  98.4319  51.6827  10.869