File: xdidata/Cu/Cu-Dioptase.xdi
# XDI/1.0 BlueSky/1.10.0 BMM/2023-1.0-py310-tiled
# Beamline.name: BMM (06BM) -- Beamline for Materials Measurement (NIST)
# Beamline.xray_source: NSLS-II three-pole wiggler
# Beamline.collimation: paraboloid mirror, 5 nm Rh on 30 nm Pt
# Beamline.focusing: not in use
# Beamline.harmonic_rejection: flat mirror, Pt stripe, pitch = 7.0 mrad relative to beam
# Beamline.software: Bluesky 1.10.0, Ophyd 1.7.0, DataBroker 2.0.0b13, Python 3.10.8, 2023-1.0-py310-tiled
# Detector.I0: 10 cm N2
# Detector.I1: 25 cm N2
# Detector.I2: 25 cm N2
# Element.symbol: Cu
# Element.edge: K
# Element.reference: Cu
# Element.reference_material: Cu foil
# Facility.name: NSLS-II
# Facility.energy: 3.0
# Facility.current: 400.0
# Facility.mode: top-off
# Facility.GUP: 123456
# Facility.SAF: 301027
# Facility.cycle: 2023-2
# Mono.name: Si(111)
# Mono.d_spacing: 3.13519
# Mono.encoder_resolution: 0.0000050 deg/ct
# Mono.angle_offset: 16.0754 deg
# Mono.scan_mode: pseudo channel cut
# Mono.scan_type: step
# Mono.direction: forward in energy
# Sample.name: CuSi2(OH)2
# Sample.prep: powder in PEG pellet
# Sample.x: 116.329 mm
# Sample.y: 114.126 mm
# Sample.SDD_position: 205.000 mm
# Scan.experimenters: Bruce Ravel
# Scan.edge_energy: 8978.9
# Scan.start_time: 2023-05-06T12:53:15
# Scan.end_time: 2023-05-06T13:02:22
# Scan.transient_id: 74803
# Scan.uid: 6dfe6bec-947c-4b21-964b-1286035686e8
# Scan.plot_hint: ln(I0/It)  --  ln($5/$6)
# Column.1: energy eV
# Column.2: requested_energy eV
# Column.3: measurement_time seconds
# Column.4: xmu
# Column.5: I0 nA
# Column.6: It nA
# Column.7: Ir nA
# ///////////
# sample courtesy Martin Stennett, University of Sheffield
# -----------
# energy  requested_energy  measurement_time  xmu  I0  It  Ir
  8778.910  8778.900  0.500  0.653249  122.79  63.8941  33.1228
  8788.920  8788.900  0.500  0.649161  122.566  64.0387  33.2714
  8798.923  8798.900  0.500  0.644472  122.349  64.2257  33.4392
  8808.933  8808.900  0.500  0.640122  122.144  64.3976  33.6031
  8818.937  8818.900  0.500  0.635700  121.935  64.5725  33.7672
  8828.984  8828.900  0.500  0.631318  121.729  64.7462  33.931
  8838.913  8838.900  0.500  0.626902  121.53  64.9269  34.0963
  8848.940  8848.900  0.500  0.622621  121.329  65.0975  34.2597
  8858.973  8858.900  0.500  0.618472  121.119  65.2548  34.4095
  8868.934  8868.900  0.500  0.614346  120.902  65.4073  34.5622
  8878.925  8878.900  0.500  0.610109  120.689  65.5693  34.7215
  8888.909  8888.900  0.500  0.605872  120.476  65.7314  34.8735
  8898.916  8898.900  0.500  0.601691  120.265  65.8915  35.0254
  8908.912  8908.900  0.500  0.597474  119.892  65.9647  35.1286
  8918.911  8918.900  0.500  0.593661  119.927  66.236  35.3285
  8928.908  8928.900  0.500  0.589781  119.642  66.3354  35.437
  8938.925  8938.900  0.500  0.586182  119.517  66.5052  35.5677
  8948.917  8948.900  0.500  0.582835  119.306  66.6098  35.6434
  8950.899  8950.900  0.500  0.582224  119.192  66.5869  35.6299
  8952.893  8952.900  0.500  0.581667  119.13  66.5894  35.6285
  8954.888  8954.900  0.500  0.581220  119.156  66.6338  35.642
  8956.894  8956.900  0.500  0.580673  119.112  66.6456  35.64
  8958.883  8958.900  0.500  0.580342  119.071  66.6446  35.6235
  8960.891  8960.900  0.500  0.580085  119.026  66.637  35.5997
  8962.896  8962.900  0.500  0.579816  118.981  66.6294  35.5689
  8964.889  8964.900  0.500  0.579563  118.661  66.4671  35.4436
  8966.892  8966.900  0.500  0.579715  118.874  66.5762  35.4466
  8968.886  8968.900  0.500  0.579956  118.845  66.5439  35.355
  8969.174  8969.200  0.500  0.579807  118.832  66.5469  35.3412
  8969.465  8969.500  0.500  0.579855  118.824  66.5389  35.3238
  8969.766  8969.800  0.500  0.579763  118.805  66.5346  35.3071
  8970.074  8970.100  0.500  0.579924  118.797  66.5193  35.2816
  8970.369  8970.400  0.500  0.579927  118.792  66.5166  35.2675
  8970.680  8970.700  0.500  0.580041  118.785  66.5046  35.2419
  8970.975  8971.000  0.500  0.580161  118.779  66.4936  35.2174
  8971.283  8971.300  0.500  0.580229  118.765  66.4809  35.187
  8971.574  8971.600  0.500  0.580262  118.76  66.4763  35.1618
  8971.890  8971.900  0.500  0.580488  118.748  66.4544  35.1291
  8972.177  8972.200  0.500  0.580593  118.741  66.4436  35.0974
  8972.489  8972.500  0.500  0.580758  118.727  66.4246  35.0579
  8972.780  8972.800  0.500  0.580815  118.714  66.4136  35.0251
  8973.085  8973.100  0.500  0.581115  118.711  66.3918  34.9843
  8973.380  8973.400  0.500  0.581178  118.697  66.3801  34.9432
  8973.685  8973.700  0.500  0.581370  118.689  66.363  34.8968
  8973.983  8974.000  0.500  0.581584  118.684  66.3456  34.8496
  8974.278  8974.300  0.500  0.581879  118.672  66.3195  34.7935
  8974.579  8974.600  0.500  0.582152  118.661  66.2954  34.7315
  8974.881  8974.900  0.500  0.582454  118.65  66.2694  34.664
  8975.183  8975.200  0.500  0.582923  118.641  66.233  34.588
  8975.478  8975.500  0.500  0.583177  118.628  66.2089  34.5101
  8975.786  8975.800  0.500  0.583532  118.616  66.179  34.4196
  8976.078  8976.100  0.500  0.584006  118.607  66.1422  34.3195
  8976.390  8976.400  0.500  0.584298  118.598  66.1178  34.2137
  8976.695  8976.700  0.500  0.584813  118.586  66.0771  34.0877
  8976.990  8977.000  0.500  0.585479  118.569  66.0238  33.9457
  8977.295  8977.300  0.500  0.586418  118.566  65.9602  33.7718
  8977.597  8977.600  0.500  0.587535  118.554  65.8801  33.5695
  8977.892  8977.900  0.500  0.589191  118.547  65.7672  33.3211
  8978.197  8978.200  0.500  0.591352  118.538  65.6198  33.0026
  8978.496  8978.500  0.500  0.593668  118.524  65.4603  32.6222
  8978.791  8978.800  0.500  0.596055  118.783  65.4472  32.2364
  8979.086  8979.100  0.500  0.597783  118.881  65.388  31.7175
  8979.391  8979.400  0.500  0.598421  118.87  65.3401  31.0047
  8979.693  8979.700  0.500  0.597748  118.861  65.3795  30.119
  8979.988  8980.000  0.500  0.596574  118.844  65.447  28.9586
  8980.284  8980.300  0.500  0.595404  118.834  65.5177  27.4524
  8980.593  8980.600  0.500  0.594759  118.816  65.5501  25.648
  8980.902  8980.900  0.500  0.594541  118.774  65.5415  23.6412
  8981.200  8981.200  0.500  0.594899  118.672  65.4619  21.8138
  8981.499  8981.500  0.500  0.595580  118.556  65.3529  20.285
  8981.794  8981.800  0.500  0.596651  118.499  65.2516  19.1497
  8982.100  8982.100  0.500  0.597878  118.462  65.1513  18.3827
  8982.402  8982.400  0.500  0.599709  118.494  65.0501  17.9004
  8982.701  8982.700  0.500  0.601566  118.573  64.9723  17.6359
  8983.006  8983.000  0.500  0.603968  118.653  64.8604  17.5254
  8983.295  8983.300  0.500  0.606710  118.683  64.6991  17.5247
  8983.600  8983.600  0.500  0.609910  118.681  64.4913  17.5991
  8983.892  8983.900  0.500  0.613249  118.672  64.2715  17.704
  8984.188  8984.200  0.500  0.617151  118.661  64.0151  17.8116
  8984.493  8984.500  0.500  0.621824  118.656  63.7138  17.8716
  8984.796  8984.800  0.500  0.627227  118.651  63.3678  17.8461
  8985.102  8985.100  0.500  0.633864  118.637  62.9415  17.6953
  8985.394  8985.400  0.500  0.642039  118.632  62.4262  17.4214
  8985.710  8985.700  0.500  0.653019  118.624  61.7406  16.9993
  8986.005  8986.000  0.500  0.666367  118.616  60.9175  16.4955
  8986.304  8986.300  0.500  0.683754  118.603  59.8613  15.9149
  8986.600  8986.600  0.500  0.704571  118.591  58.622  15.3096
  8986.899  8986.900  0.500  0.730696  118.586  57.1079  14.6649
  8987.198  8987.200  0.500  0.762089  118.578  55.3392  13.9866
  8987.497  8987.500  0.500  0.799187  118.577  53.3236  13.2748
  8987.793  8987.800  0.500  0.842358  118.557  51.0618  12.5213
  8988.092  8988.100  0.500  0.891495  118.552  48.6115  11.7285
  8988.401  8988.400  0.500  0.944898  118.534  46.0765  10.9136
  8988.700  8988.700  0.500  0.996895  118.528  43.7398  10.1546
  8989.007  8989.000  0.500  1.045368  118.525  41.6688  9.453986
  8989.302  8989.300  0.500  1.085242  118.507  40.0341  8.861837
  8989.605  8989.600  0.500  1.116947  118.491  38.7794  8.352427
  8989.904  8989.900  0.500  1.140678  118.482  37.867  7.920824
  8990.200  8990.200  0.500  1.158510  118.466  37.1927  7.544969
  8990.503  8990.500  0.500  1.173776  118.449  36.6242  7.188207
  8990.802  8990.800  0.500  1.188237  118.435  36.0941  6.846972
  8991.098  8991.100  0.500  1.203644  118.413  35.5356  6.505505
  8991.397  8991.400  0.500  1.221540  118.393  34.8994  6.155565
  8991.690  8991.700  0.500  1.242285  118.365  34.1749  5.804974
  8991.996  8992.000  0.500  1.267909  118.333  33.3012  5.429667
  8992.306  8992.300  0.500  1.296442  118.279  32.3498  5.071171
  8992.609  8992.600  0.500  1.328265  118.186  31.3118  4.721811
  8992.905  8992.900  0.500  1.362110  117.963  30.2127  4.393474
  8993.204  8993.200  0.500  1.398841  117.308  28.9612  4.070425
  8993.507  8993.500  0.500  1.438597  116.398  27.6168  3.761060
  8993.810  8993.800  0.500  1.482418  115.971  26.3356  3.483410
  8994.106  8994.100  0.500  1.529186  116.251  25.193  3.248587
  8994.399  8994.400  0.500  1.576188  116.862  24.1626  3.051665
  8994.702  8994.700  0.500  1.623157  117.527  23.1852  2.881317
  8994.994  8995.000  0.500  1.667010  118.031  22.2856  2.740755
  8995.297  8995.300  0.500  1.706925  118.3  21.4623  2.627643
  8995.593  8995.600  0.500  1.741436  118.356  20.7441  2.540471
  8995.893  8995.900  0.500  1.770569  118.37  20.1508  2.481350
  8996.203  8996.200  0.500  1.794530  118.351  19.6707  2.446445
  8996.499  8996.500  0.500  1.812170  118.34  19.3249  2.432629
  8996.806  8996.800  0.500  1.824405  118.334  19.0889  2.437600
  8997.102  8997.100  0.500  1.830772  118.321  18.9657  2.457596
  8997.405  8997.400  0.500  1.831451  118.3  18.9493  2.492610
  8997.698  8997.700  0.500  1.826652  118.296  19.0399  2.539818
  8997.998  8998.000  0.500  1.816650  118.28  19.2287  2.601681
  8998.305  8998.300  0.500  1.801116  118.269  19.5279  2.677168
  8998.601  8998.600  0.500  1.782234  118.252  19.8972  2.760413
  8998.901  8998.900  0.500  1.760937  118.241  20.3236  2.849009
  8999.194  8999.200  0.500  1.739192  118.214  20.7657  2.935739
  8999.490  8999.500  0.500  1.718148  118.201  21.205  3.017230
  8999.794  8999.800  0.500  1.699746  118.172  21.5936  3.085391
  9000.094  9000.100  0.500  1.684986  118.149  21.9105  3.134345
  9000.404  9000.400  0.500  1.673894  118.121  22.1494  3.163105
  9000.704  9000.700  0.500  1.666862  118.094  22.3008  3.171245
  9001.011  9001.000  0.500  1.662951  118.047  22.3793  3.159678
  9001.304  9001.300  0.500  1.661404  118.004  22.4057  3.132540
  9001.600  9001.600  0.500  1.660465  117.92  22.4108  3.094918
  9001.904  9001.900  0.500  1.659278  117.757  22.4063  3.047053
  9002.201  9002.200  0.500  1.656667  117.36  22.3892  2.993125
  9002.501  9002.500  0.500  1.651257  116.61  22.3669  2.934800
  9002.797  9002.800  0.500  1.642652  115.926  22.4279  2.888331
  9003.097  9003.100  0.500  1.630236  115.761  22.6756  2.865996
  9003.398  9003.400  0.500  1.614451  116.221  23.128  2.871929
  9003.701  9003.700  0.500  1.596000  116.942  23.7048  2.901452
  9003.886  9003.900  0.500  1.584145  117.375  24.0763  2.925552
  9004.906  9004.890  0.500  1.515655  118.131  25.9491  3.126418
  9005.901  9005.890  0.500  1.452015  118.104  27.648  3.436460
  9006.924  9006.910  0.500  1.415048  118.055  28.6771  3.743067
  9007.979  9007.960  0.500  1.411365  117.986  28.7663  3.917843
  9009.045  9009.020  0.500  1.424117  117.843  28.3672  3.986124
  9010.121  9010.100  0.500  1.436507  116.445  27.6856  4.001552
  9011.216  9011.200  0.500  1.442106  116.551  27.556  4.101128
  9012.338  9012.320  0.500  1.441422  117.992  27.916  4.227695
  9013.482  9013.460  0.500  1.437377  117.982  28.0267  4.258060
  9014.619  9014.610  0.500  1.435064  117.937  28.0807  4.241783
  9015.805  9015.790  0.500  1.433306  117.889  28.1188  4.203231
  9017.006  9016.980  0.500  1.426258  117.838  28.3053  4.163313
  9018.211  9018.200  0.500  1.409776  117.761  28.7571  4.135029
  9019.454  9019.430  0.500  1.387603  117.4  29.3117  4.096338
  9020.708  9020.680  0.500  1.365346  115.726  29.544  4.005263
  9021.970  9021.950  0.500  1.345521  117.75  30.6627  4.039964
  9023.246  9023.240  0.500  1.327155  117.772  31.2366  4.005438
  9024.571  9024.550  0.500  1.309627  117.737  31.7796  3.965478
  9025.901  9025.880  0.500  1.296695  117.703  32.1841  3.932367
  9027.241  9027.230  0.500  1.290117  117.675  32.3888  3.926426
  9028.620  9028.600  0.500  1.290010  117.644  32.3836  3.973692
  9030.014  9029.980  0.500  1.294595  117.604  32.2244  4.065065
  9031.426  9031.390  0.500  1.302894  117.564  31.9474  4.174049
  9032.835  9032.810  0.500  1.313972  117.52  31.5837  4.270045
  9034.360  9034.250  0.500  1.328836  117.473  31.1051  4.334164
  9035.766  9035.710  0.500  1.345368  117.428  30.5833  4.342193
  9037.138  9037.190  0.500  1.360867  117.364  30.0967  4.314908
  9038.763  9038.690  0.500  1.379343  117.663  29.621  4.256832
  9040.244  9040.210  0.500  1.396966  117.278  29.0083  4.145947
  9041.754  9041.750  0.500  1.416203  116.311  28.2209  3.992652
  9043.297  9043.310  0.500  1.434962  117.375  27.9497  3.920934
  9044.864  9044.880  0.500  1.451731  117.399  27.4907  3.850985
  9046.461  9046.480  0.500  1.465265  117.375  27.1156  3.814513
  9048.072  9048.090  0.500  1.475884  117.348  26.823  3.776622
  9049.722  9049.730  0.500  1.483832  117.309  26.6018  3.714308
  9051.370  9051.380  0.500  1.487083  117.276  26.5081  3.658310
  9053.035  9053.050  0.500  1.485967  117.237  26.5287  3.631564
  9054.730  9054.740  0.500  1.482861  117.203  26.6036  3.639494
  9056.450  9056.450  0.500  1.478039  117.158  26.722  3.652644
  9058.174  9058.180  0.500  1.471310  117.12  26.8935  3.649851
  9059.913  9059.930  0.500  1.462437  117.08  27.1241  3.628443
  9061.681  9061.690  0.500  1.452536  116.976  27.3696  3.606168
  9063.482  9063.480  0.500  1.441920  115.804  27.3846  3.566617
  9065.276  9065.280  0.500  1.432640  116.896  27.9004  3.602377
  9067.110  9067.110  0.500  1.424392  116.892  28.1307  3.596270
  9068.951  9068.950  0.500  1.417434  116.862  28.3198  3.573961
  9070.819  9070.810  0.500  1.412101  116.82  28.4609  3.534309
  9072.690  9072.690  0.500  1.408860  116.781  28.5439  3.502561
  9074.588  9074.590  0.500  1.406985  116.739  28.587  3.501875
  9076.514  9076.510  0.500  1.404684  116.697  28.6427  3.549773
  9078.459  9078.450  0.500  1.401343  116.645  28.7256  3.639123
  9080.402  9080.410  0.500  1.397353  115.882  28.652  3.731349
  9082.373  9082.380  0.500  1.391698  116.324  28.9244  3.863131
  9084.371  9084.380  0.500  1.384411  116.479  29.1748  3.982765
  9086.387  9086.390  0.500  1.377106  116.44  29.3788  4.088605
  9088.418  9088.420  0.500  1.370618  116.407  29.5617  4.170629
  9090.482  9090.480  0.500  1.365120  116.366  29.7139  4.221005
  9092.561  9092.550  0.500  1.361348  116.32  29.8146  4.286198
  9094.628  9094.640  0.500  1.359874  116.277  29.8476  4.377021
  9096.748  9096.750  0.500  1.360663  116.234  29.8129  4.468925
  9098.888  9098.880  0.500  1.362521  116.196  29.7479  4.527194
  9101.021  9101.020  0.500  1.364235  116.152  29.6858  4.530457
  9103.184  9103.190  0.500  1.365785  115.196  29.3956  4.445544
  9105.387  9105.380  0.500  1.366758  115.931  29.5545  4.391158
  9107.570  9107.580  0.500  1.366569  115.979  29.5724  4.300796
  9109.818  9109.800  0.500  1.365952  115.94  29.5807  4.215620
  9112.046  9112.050  0.500  1.365580  115.896  29.5804  4.152757
  9114.311  9114.310  0.500  1.365337  115.838  29.5729  4.114051
  9116.595  9116.590  0.500  1.365772  115.804  29.5512  4.101490
  9118.887  9118.890  0.500  1.367471  115.755  29.4886  4.099635
  9121.209  9121.210  0.500  1.369729  115.703  29.409  4.083296
  9123.561  9123.550  0.500  1.371940  115.646  29.3296  4.022948
  9125.911  9125.900  0.500  1.374213  115.6  29.2512  3.909906
  9128.294  9128.280  0.500  1.376597  115.54  29.1666  3.762718
  9130.668  9130.670  0.500  1.378959  115.489  29.0849  3.644108
  9133.093  9133.090  0.500  1.381248  115.42  29.0011  3.588960
  9135.542  9135.520  0.500  1.383151  115.357  28.93  3.590196
  9137.962  9137.970  0.500  1.384089  115.286  28.8851  3.622286
  9140.471  9140.450  0.500  1.383854  115.166  28.8617  3.670783
  9142.948  9142.940  0.500  1.382563  114.549  28.7443  3.728538
  9145.449  9145.450  0.500  1.380675  115.008  28.914  3.855498
  9147.987  9147.970  0.500  1.378411  115.167  29.0196  4.000201
  9150.526  9150.520  0.500  1.375822  115.067  29.0695  4.155225
  9153.107  9153.090  0.500  1.373489  114.933  29.1035  4.321629
  9155.674  9155.670  0.500  1.370391  114.501  29.0842  4.475313
  9158.283  9158.280  0.500  1.366782  114.18  29.1074  4.605387
  9160.915  9160.900  0.500  1.362387  114.917  29.4244  4.711855
  9163.560  9163.550  0.500  1.357332  114.781  29.5385  4.699242
  9166.220  9166.210  0.500  1.351346  114.462  29.6331  4.608485
  9168.904  9168.890  0.500  1.345416  112.972  29.4215  4.437837
  9171.611  9171.590  0.500  1.339640  114.743  30.0558  4.404987
  9174.324  9174.310  0.500  1.334570  114.634  30.1799  4.339077
  9177.060  9177.050  0.500  1.330341  114.528  30.2797  4.313640
  9179.812  9179.800  0.500  1.327056  114.295  30.3174  4.315750
  9182.598  9182.580  0.500  1.324507  112.384  29.8868  4.274644
  9185.390  9185.370  0.500  1.322577  114.467  30.4994  4.383709
  9188.198  9188.190  0.500  1.321579  114.353  30.4996  4.396921
  9191.041  9191.020  0.500  1.321315  114.257  30.4819  4.402879
  9193.885  9193.870  0.500  1.321267  114.176  30.4619  4.420673
  9196.765  9196.750  0.500  1.321031  114.078  30.4429  4.447959
  9199.653  9199.640  0.500  1.320533  113.995  30.436  4.454734
  9202.565  9202.550  0.500  1.319925  113.916  30.4332  4.408302
  9205.482  9205.470  0.500  1.318667  113.848  30.4533  4.321717
  9208.438  9208.420  0.500  1.316760  113.772  30.4913  4.245167
  9211.403  9211.390  0.500  1.314666  113.699  30.5355  4.218660
  9214.382  9214.370  0.500  1.312589  113.637  30.5823  4.229337
  9217.398  9217.380  0.500  1.310718  113.563  30.6195  4.256242
  9220.417  9220.400  0.500  1.309488  113.491  30.6378  4.302032
  9223.467  9223.450  0.500  1.308531  113.41  30.6453  4.371832
  9226.531  9226.510  0.500  1.307594  113.338  30.6544  4.469429
  9229.596  9229.590  0.500  1.306503  113.265  30.6682  4.577211
  9232.707  9232.690  0.500  1.304966  113.196  30.6966  4.681695
  9235.828  9235.810  0.500  1.303257  113.121  30.7289  4.771455
  9238.970  9238.950  0.500  1.301326  113.044  30.7673  4.832857
  9242.103  9242.100  0.500  1.299156  112.974  30.8149  4.856364
  9245.300  9245.280  0.500  1.297054  112.905  30.8609  4.852249
  9248.482  9248.470  0.500  1.294846  112.829  30.9084  4.846693
  9251.717  9251.690  0.500  1.292855  112.759  30.9507  4.850774
  9254.932  9254.920  0.500  1.290731  112.677  30.9941  4.854518
  9258.198  9258.170  0.500  1.288927  112.598  31.0283  4.853896
  9261.455  9261.450  0.500  1.287023  112.516  31.0647  4.850017
  9264.763  9264.740  0.500  1.285165  112.426  31.0977  4.837488
  9268.054  9268.050  0.500  1.283416  112.354  31.1319  4.819044
  9271.389  9271.370  0.500  1.281377  112.259  31.1693  4.800592
  9274.729  9274.720  0.500  1.279331  111.986  31.1573  4.781600
  9278.117  9278.090  0.500  1.276995  112.135  31.2716  4.786470
  9281.492  9281.470  0.500  1.274439  112.045  31.3263  4.786739
  9284.896  9284.880  0.500  1.271468  111.938  31.3897  4.789521
  9288.310  9288.300  0.500  1.268190  111.842  31.4657  4.794299
  9291.764  9291.750  0.500  1.264493  111.222  31.4071  4.779324
  9295.220  9295.210  0.500  1.260778  111.66  31.6483  4.812302
  9298.709  9298.690  0.500  1.257067  110.053  31.3086  4.760348
  9302.212  9302.190  0.500  1.253759  111.576  31.8471  4.862214
  9305.729  9305.710  0.500  1.250792  111.312  31.8662  4.904144
  9309.274  9309.250  0.500  1.247934  111.8  32.0975  4.985154
  9312.807  9312.800  0.500  1.245325  111.712  32.1559  5.039929
  9316.396  9316.380  0.500  1.242772  111.61  32.2086  5.099347
  9319.998  9319.980  0.500  1.240234  111.5  32.2587  5.148823
  9323.604  9323.590  0.500  1.237701  110.482  32.0453  5.140213
  9327.242  9327.220  0.500  1.235339  111.352  32.374  5.205121
  9330.902  9330.880  0.500  1.233238  111.256  32.414  5.221739
  9334.580  9334.550  0.500  1.231275  111.155  32.4485  5.249134
  9338.253  9338.240  0.500  1.229561  111.057  32.4753  5.292628
  9341.971  9341.950  0.500  1.228113  110.964  32.4953  5.343463
  9345.703  9345.680  0.500  1.226510  110.871  32.5199  5.377712
  9349.431  9349.420  0.500  1.224937  110.78  32.5444  5.384185
  9353.225  9353.190  0.500  1.223182  110.689  32.575  5.384100
  9357.001  9356.980  0.500  1.221603  110.598  32.5996  5.390586
  9360.806  9360.780  0.500  1.220012  110.504  32.6238  5.392445
  9364.633  9364.610  0.500  1.218244  110.414  32.6549  5.393827
  9368.455  9368.450  0.500  1.216118  110.312  32.6942  5.396943
  9372.338  9372.310  0.500  1.213930  110.226  32.7403  5.401243
  9376.212  9376.190  0.500  1.211547  110.123  32.7875  5.405279
  9380.120  9380.090  0.500  1.208931  110.032  32.8465  5.412421
  9384.028  9384.010  0.500  1.206528  109.934  32.8959  5.418021
  9387.962  9387.950  0.500  1.203910  109.844  32.9553  5.430097
  9391.930  9391.910  0.500  1.201364  109.755  33.0126  5.443281
  9395.897  9395.880  0.500  1.198598  109.663  33.0763  5.458916
  9399.898  9399.880  0.500  1.195659  109.559  33.1421  5.479258
  9403.918  9403.890  0.500  1.192824  109.459  33.2059  5.508064
  9407.942  9407.930  0.500  1.189922  109.359  33.2719  5.544071
  9411.999  9411.980  0.500  1.187332  109.259  33.3277  5.589064
  9416.076  9416.050  0.500  1.184436  109.167  33.3963  5.637814
  9420.152  9420.140  0.500  1.181757  109.06  33.4528  5.682397
  9424.278  9424.250  0.500  1.179294  108.954  33.5028  5.716480
  9428.404  9428.380  0.500  1.176914  108.854  33.5519  5.739706
  9432.548  9432.530  0.500  1.174395  108.746  33.6032  5.760733
  9436.712  9436.690  0.500  1.171810  108.125  33.4977  5.753437
  9440.907  9440.880  0.500  1.169154  108.528  33.7119  5.805486
  9445.098  9445.080  0.500  1.166613  108.439  33.7701  5.835338
  9449.331  9449.310  0.500  1.163909  108.328  33.8269  5.870660
  9453.568  9453.550  0.500  1.161320  108.224  33.8821  5.906585
  9457.824  9457.810  0.500  1.158887  108.112  33.9294  5.939071
  9462.111  9462.090  0.500  1.156400  108.005  33.9803  5.961921
  9466.410  9466.390  0.500  1.153892  107.898  34.0317  5.984008
  9470.732  9470.710  0.500  1.151063  107.79  34.0939  6.011729
  9475.074  9475.050  0.500  1.148507  107.684  34.1476  6.035981
  9479.432  9479.410  0.500  1.145981  107.576  34.1996  6.054592
  9483.809  9483.790  0.500  1.143697  107.467  34.2431  6.070451
  9488.206  9488.180  0.500  1.141387  107.357  34.2873  6.080439
  9492.626  9492.600  0.500  1.138905  107.248  34.3376  6.090728
  9497.043  9497.030  0.500  1.136362  107.127  34.3861  6.101337
  9501.503  9501.480  0.500  1.133828  107.008  34.435  6.111822
  9505.975  9505.950  0.500  1.131339  106.895  34.4843  6.124513
  9510.459  9510.440  0.500  1.128663  106.784  34.541  6.140588
  9514.968  9514.950  0.500  1.126162  106.67  34.5906  6.162588
  9519.504  9519.480  0.500  1.123814  106.558  34.6354  6.191389
  9524.060  9524.030  0.500  1.121571  106.427  34.6704  6.225597
  9528.616  9528.600  0.500  1.119468  106.318  34.7078  6.263878
  9533.197  9533.180  0.500  1.116993  106.198  34.7546  6.300001
  9537.822  9537.790  0.500  1.114757  106.082  34.7944  6.329911
  9542.439  9542.410  0.500  1.112311  105.969  34.8426  6.359636
  9547.072  9547.060  0.500  1.110034  105.849  34.8824  6.386061
  9551.734  9551.720  0.500  1.107609  105.721  34.9246  6.412099
  9556.425  9556.400  0.500  1.105100  105.599  34.972  6.436547
  9561.123  9561.100  0.500  1.102460  105.485  35.0265  6.463505
  9565.827  9565.820  0.500  1.099908  105.359  35.0743  6.491160
  9570.579  9570.560  0.500  1.097106  105.228  35.1287  6.519921
  9575.336  9575.310  0.500  1.094335  105.096  35.1823  6.548427
  9580.109  9580.090  0.500  1.091545  104.967  35.2371  6.577199
  9584.899  9584.890  0.500  1.088984  104.834  35.2828  6.606736
  9589.714  9589.700  0.500  1.086186  104.719  35.3428  6.636093
  9594.550  9594.530  0.500  1.083548  104.594  35.3939  6.662250
  9599.407  9599.390  0.500  1.080655  104.46  35.4509  6.687717
  9604.272  9604.260  0.500  1.077929  104.338  35.5062  6.713332
  9609.171  9609.150  0.500  1.074900  104.207  35.5693  6.737438
  9614.083  9614.060  0.500  1.072082  104.086  35.6281  6.761041
  9618.999  9618.990  0.500  1.069420  103.945  35.6746  6.783280
  9623.946  9623.930  0.500  1.066711  103.816  35.7269  6.806648
  9628.925  9628.900  0.500  1.063986  103.69  35.781  6.828244
  9633.909  9633.890  0.500  1.061427  103.348  35.7544  6.837931
  9638.899  9638.890  0.500  1.059122  103.427  35.8643  6.876923
  9643.938  9643.920  0.500  1.056491  103.284  35.9093  6.900521
  9648.975  9648.960  0.500  1.054042  102.935  35.8755  6.914009
  9654.041  9654.020  0.500  1.051389  103.015  35.999  6.955568
  9659.113  9659.100  0.500  1.049084  102.879  36.0343  6.981589
  9664.226  9664.200  0.500  1.046717  102.736  36.0695  7.006009
  9669.341  9669.320  0.500  1.044693  102.589  36.0909  7.030626
  9674.486  9674.460  0.500  1.042159  102.452  36.1342  7.057611
  9679.624  9679.620  0.500  1.039520  102.32  36.1827  7.088964
  9684.816  9684.800  0.500  1.036918  102.182  36.2281  7.116838
  9690.006  9689.990  0.500  1.034275  102.047  36.2762  7.148506
  9695.222  9695.210  0.500  1.031669  101.916  36.3241  7.178582
  9700.460  9700.440  0.500  1.028991  101.775  36.371  7.207766
  9705.712  9705.690  0.500  1.026434  101.61  36.4051  7.233136
  9710.977  9710.960  0.500  1.023777  101.458  36.4472  7.261656
  9716.261  9716.250  0.500  1.021017  101.373  36.5174  7.295740
  9721.580  9721.560  0.500  1.018470  101.236  36.5612  7.323205
  9726.920  9726.890  0.500  1.015648  101.072  36.6049  7.352097
  9732.259  9732.240  0.500  1.013117  100.941  36.6502  7.380658
  9737.632  9737.610  0.500  1.010288  100.803  36.7038  7.409662
  9743.007  9742.990  0.500  1.007676  100.659  36.7472  7.436474
  9748.421  9748.400  0.500  1.004923  100.523  36.7986  7.463499
  9753.845  9753.820  0.500  1.002469  100.371  36.8333  7.486434
  9759.296  9759.270  0.500  0.999663  100.227  36.8838  7.513333
  9764.749  9764.730  0.500  0.996986  100.079  36.9282  7.541267
  9770.229  9770.210  0.500  0.994290  99.8593  36.9466  7.562946
  9775.736  9775.710  0.500  0.991634  99.8262  37.0325  7.599205
  9781.262  9781.230  0.500  0.988948  99.5697  37.0367  7.620720
  9786.781  9786.770  0.500  0.986296  99.5246  37.1183  7.657655
  9792.341  9792.320  0.500  0.983529  98.3303  36.7745  7.605782
  9797.923  9797.900  0.500  0.980931  99.2119  37.2007  7.714755
  9803.532  9803.500  0.500  0.978203  98.9022  37.1858  7.730176
  9809.140  9809.110  0.500  0.975554  98.9715  37.3106  7.776240
  9814.779  9814.750  0.500  0.972884  98.8155  37.3514  7.805616
  9820.429  9820.400  0.500  0.970133  98.0687  37.1712  7.789803
  9826.124  9826.070  0.500  0.967323  98.5002  37.4398  7.868389
  9831.791  9831.760  0.500  0.964580  98.3175  37.473  7.897068