File: xdidata/Cu/Cu-K-CopperFoil.xdi
# XDI/1.0 BlueSky/1.10.0 BMM/2023-1.0-py310-tiled
# Beamline.name: BMM (06BM) -- Beamline for Materials Measurement (NIST)
# Beamline.xray_source: NSLS-II three-pole wiggler
# Beamline.collimation: paraboloid mirror, 5 nm Rh on 30 nm Pt
# Beamline.focusing: not in use
# Beamline.harmonic_rejection: flat mirror, Pt stripe, pitch = 7.0 mrad relative to beam
# Beamline.software: Bluesky 1.10.0, Ophyd 1.7.0, DataBroker 2.0.0b13, Python 3.10.8, 2023-1.0-py310-tiled
# Detector.I0: 10 cm N2
# Detector.I1: 25 cm N2
# Detector.I2: 25 cm N2
# Element.symbol: Cu
# Element.edge: K
# Element.reference: Cu
# Element.reference_material: Cu foil
# Facility.name: NSLS-II
# Facility.energy: 3.0
# Facility.current: 400.2
# Facility.mode: top-off
# Facility.GUP: 301027
# Facility.SAF: 310583
# Facility.cycle: 2023-2
# Mono.name: Si(111)
# Mono.d_spacing: 3.13519
# Mono.encoder_resolution: 0.0000050 deg/ct
# Mono.angle_offset: 16.0754 deg
# Mono.scan_mode: pseudo channel cut
# Mono.scan_type: step
# Mono.direction: forward in energy
# Sample.name: Cu foil
# Sample.prep: reference foil
# Sample.x: 109.138 mm
# Sample.y: 153.150 mm
# Sample.SDD_position: 205.000 mm
# Scan.experimenters: Bruce Ravel
# Scan.edge_energy: 8978.9
# Scan.start_time: 2023-05-28T16:00:18
# Scan.end_time: 2023-05-28T16:08:28
# Scan.transient_id: 78819
# Scan.uid: 7a9331ae-bb98-4301-bb17-874292cebbc0
# Scan.plot_hint: ln(It/Ir)  --  ln($6/$7)
# Column.1: energy eV
# Column.2: requested_energy eV
# Column.3: measurement_time seconds
# Column.4: xmu
# Column.5: I0 nA
# Column.6: It nA
# Column.7: Ir nA
# ///////////
# standard reference foil
# -----------
# energy  requested_energy  measurement_time  xmu  I0  It  Ir
  8778.913  8778.900  0.500  0.809505  123.421  168.124  74.8284
  8788.966  8788.900  0.500  0.806764  123.227  168.06  75.005
  8798.947  8798.900  0.500  0.804066  123.007  168.021  75.1902
  8808.907  8808.900  0.500  0.801299  122.823  167.971  75.3764
  8818.934  8818.900  0.500  0.798642  122.648  167.931  75.5587
  8828.967  8828.900  0.500  0.795968  122.46  167.887  75.7415
  8838.917  8838.900  0.500  0.793410  122.282  167.85  75.9188
  8848.909  8848.900  0.500  0.790711  122.097  167.786  76.0946
  8858.966  8858.900  0.500  0.788142  121.904  167.741  76.2698
  8868.907  8868.900  0.500  0.785610  121.702  167.635  76.415
  8878.915  8878.900  0.500  0.783088  121.505  167.578  76.582
  8888.926  8888.900  0.500  0.780627  121.316  167.516  76.7422
  8898.964  8898.900  0.500  0.778149  121.121  167.45  76.9024
  8908.960  8908.900  0.500  0.775913  120.853  167.263  76.9884
  8918.911  8918.900  0.500  0.773691  119.753  165.938  76.5485
  8928.905  8928.900  0.500  0.771761  120.588  167.298  77.3247
  8938.911  8938.900  0.500  0.770060  120.439  167.279  77.4474
  8948.917  8948.900  0.500  0.769031  120.245  167.192  77.4869
  8950.886  8950.900  0.500  0.768956  120.204  167.161  77.4784
  8952.883  8952.900  0.500  0.768894  119.849  166.74  77.2882
  8954.877  8954.900  0.500  0.768979  120.096  167.138  77.4662
  8956.883  8956.900  0.500  0.769142  120.063  167.104  77.4379
  8958.880  8958.900  0.500  0.769366  120.029  167.069  77.4044
  8960.877  8960.900  0.500  0.769786  120  167.082  77.3778
  8962.879  8962.900  0.500  0.770314  119.953  167.08  77.3358
  8964.889  8964.900  0.500  0.771179  119.871  166.961  77.2139
  8966.885  8966.900  0.500  0.772374  119.752  166.847  77.0691
  8968.883  8968.900  0.500  0.774115  119.826  167.013  77.0116
  8969.174  8969.200  0.500  0.774454  119.817  166.967  76.9644
  8969.468  8969.500  0.500  0.774797  119.799  166.966  76.9374
  8969.773  8969.800  0.500  0.775138  119.801  166.966  76.9111
  8970.067  8970.100  0.500  0.775544  119.785  166.951  76.8732
  8970.365  8970.400  0.500  0.775922  119.776  166.977  76.856
  8970.670  8970.700  0.500  0.776277  119.762  166.963  76.8224
  8970.968  8971.000  0.500  0.776774  119.751  166.953  76.7796
  8971.269  8971.300  0.500  0.777240  119.751  166.94  76.7379
  8971.571  8971.600  0.500  0.777777  119.738  166.942  76.6975
  8971.869  8971.900  0.500  0.778297  119.729  166.924  76.6495
  8972.177  8972.200  0.500  0.778900  119.718  166.908  76.5957
  8972.472  8972.500  0.500  0.779537  119.712  166.893  76.5402
  8972.780  8972.800  0.500  0.780272  119.698  166.906  76.4897
  8973.075  8973.100  0.500  0.780920  119.691  166.9  76.4374
  8973.387  8973.400  0.500  0.781722  119.686  166.895  76.374
  8973.688  8973.700  0.500  0.782486  119.684  166.887  76.3119
  8973.983  8974.000  0.500  0.783463  119.677  166.873  76.2311
  8974.281  8974.300  0.500  0.784417  119.671  166.848  76.147
  8974.600  8974.600  0.500  0.785548  119.663  166.861  76.067
  8974.892  8974.900  0.500  0.786666  119.659  166.847  75.9753
  8975.197  8975.200  0.500  0.787939  119.649  166.85  75.8802
  8975.492  8975.500  0.500  0.789353  119.645  166.87  75.782
  8975.793  8975.800  0.500  0.790974  119.627  166.846  75.6486
  8976.088  8976.100  0.500  0.792655  119.622  166.833  75.5153
  8976.390  8976.400  0.500  0.794483  119.611  166.81  75.3672
  8976.685  8976.700  0.500  0.796521  119.602  166.807  75.2124
  8976.990  8977.000  0.500  0.798883  119.597  166.799  75.0315
  8977.288  8977.300  0.500  0.801475  119.584  166.793  74.8345
  8977.580  8977.600  0.500  0.804502  119.577  166.821  74.6209
  8977.889  8977.900  0.500  0.808217  119.564  166.791  74.3308
  8978.177  8978.200  0.500  0.812304  119.56  166.774  74.0201
  8978.485  8978.500  0.500  0.817531  119.548  166.765  73.63
  8978.791  8978.800  0.500  0.823760  119.884  167.252  73.3865
  8979.086  8979.100  0.500  0.831190  119.906  167.3  72.8644
  8979.398  8979.400  0.500  0.841120  119.908  167.317  72.1515
  8979.697  8979.700  0.500  0.853509  119.91  167.307  71.259
  8979.999  8980.000  0.500  0.869552  119.906  167.334  70.1362
  8980.297  8980.300  0.500  0.891474  119.891  167.311  68.6059
  8980.603  8980.600  0.500  0.923534  119.882  167.293  66.4341
  8980.895  8980.900  0.500  0.965744  119.878  167.299  63.6906
  8981.193  8981.200  0.500  1.023447  119.867  167.293  60.1173
  8981.495  8981.500  0.500  1.095086  119.841  167.263  55.9513
  8981.794  8981.800  0.500  1.175128  119.771  167.171  51.6191
  8982.096  8982.100  0.500  1.257539  119.661  167.034  47.4965
  8982.385  8982.400  0.500  1.325566  119.569  166.916  44.3418
  8982.683  8982.700  0.500  1.378404  119.512  166.856  42.0444
  8982.996  8983.000  0.500  1.415711  119.496  166.812  40.494
  8983.291  8983.300  0.500  1.438604  119.543  166.894  39.597
  8983.604  8983.600  0.500  1.450845  119.644  167.044  39.1504
  8983.903  8983.900  0.500  1.454336  119.704  167.139  39.0362
  8984.198  8984.200  0.500  1.451374  119.717  167.177  39.1608
  8984.500  8984.500  0.500  1.443619  119.715  167.169  39.464
  8984.799  8984.800  0.500  1.433401  119.709  167.166  39.8684
  8985.105  8985.100  0.500  1.422998  119.702  167.16  40.284
  8985.401  8985.400  0.500  1.415689  119.691  167.168  40.5814
  8985.693  8985.700  0.500  1.412732  119.684  167.132  40.6927
  8985.995  8986.000  0.500  1.415594  119.675  167.121  40.5739
  8986.294  8986.300  0.500  1.424299  119.664  167.116  40.2209
  8986.596  8986.600  0.500  1.438091  119.655  167.116  39.6701
  8986.889  8986.900  0.500  1.454329  119.647  167.089  39.0248
  8987.195  8987.200  0.500  1.472403  119.64  167.109  38.3304
  8987.497  8987.500  0.500  1.491050  119.632  167.109  37.6222
  8987.803  8987.800  0.500  1.508476  119.624  167.09  36.9682
  8988.106  8988.100  0.500  1.524919  119.61  167.099  36.3673
  8988.405  8988.400  0.500  1.540512  119.604  167.079  35.8002
  8988.697  8988.700  0.500  1.556124  119.597  167.06  35.2416
  8989.010  8989.000  0.500  1.574070  119.58  167.05  34.6128
  8989.302  8989.300  0.500  1.592594  119.569  167.054  33.9784
  8989.608  8989.600  0.500  1.613543  119.557  167.044  33.2719
  8989.894  8989.900  0.500  1.635466  119.549  167.03  32.5478
  8990.197  8990.200  0.500  1.659810  119.543  167.021  31.7632
  8990.492  8990.500  0.500  1.686248  119.526  167.017  30.9337
  8990.785  8990.800  0.500  1.714090  119.519  167.017  30.0844
  8991.101  8991.100  0.500  1.746163  119.499  166.992  29.1305
  8991.397  8991.400  0.500  1.778998  119.484  166.987  28.1886
  8991.697  8991.700  0.500  1.814377  119.467  166.984  27.2082
  8992.003  8992.000  0.500  1.852453  119.449  166.921  26.1819
  8992.292  8992.300  0.500  1.890575  119.429  166.89  25.1979
  8992.605  8992.600  0.500  1.932262  119.398  166.884  24.1682
  8992.901  8992.900  0.500  1.972760  119.357  166.842  23.2031
  8993.211  8993.200  0.500  2.012745  119.29  166.739  22.2799
  8993.497  8993.500  0.500  2.049163  119.196  166.597  21.4648
  8993.800  8993.800  0.500  2.084844  118.919  166.234  20.6673
  8994.092  8994.100  0.500  2.117238  118.234  165.263  19.8917
  8994.392  8994.400  0.500  2.148211  117.368  164.068  19.1455
  8994.695  8994.700  0.500  2.177084  116.995  163.558  18.5428
  8994.994  8995.000  0.500  2.202551  117.311  164.003  18.1258
  8995.304  8995.300  0.500  2.223346  117.968  164.927  17.8527
  8995.604  8995.600  0.500  2.238451  118.624  165.85  17.6835
  8995.893  8995.900  0.500  2.247457  119.121  166.535  17.5974
  8996.193  8996.200  0.500  2.250831  119.342  166.841  17.5703
  8996.496  8996.500  0.500  2.248744  119.392  166.913  17.6147
  8996.806  8996.800  0.500  2.241892  119.386  166.933  17.7378
  8997.106  8997.100  0.500  2.232225  119.383  166.938  17.9107
  8997.402  8997.400  0.500  2.220119  119.376  166.957  18.1309
  8997.698  8997.700  0.500  2.207161  119.362  166.922  18.3635
  8997.998  8998.000  0.500  2.192964  119.34  166.873  18.6206
  8998.305  8998.300  0.500  2.177856  119.329  166.891  18.9061
  8998.594  8998.600  0.500  2.163721  119.319  166.891  19.1752
  8998.887  8998.900  0.500  2.149860  119.299  166.867  19.4401
  8999.194  8999.200  0.500  2.136212  119.289  166.858  19.7062
  8999.501  8999.500  0.500  2.123862  119.277  166.868  19.9522
  8999.797  8999.800  0.500  2.113418  119.252  166.825  20.1565
  9000.108  9000.100  0.500  2.104939  119.243  166.806  20.3258
  9000.394  9000.400  0.500  2.099180  119.223  166.79  20.4413
  9000.707  9000.700  0.500  2.095218  119.206  166.743  20.5166
  9001.000  9001.000  0.500  2.094203  119.182  166.718  20.5344
  9001.304  9001.300  0.500  2.095839  119.159  166.704  20.4991
  9001.600  9001.600  0.500  2.100319  119.128  166.671  20.4035
  9001.890  9001.900  0.500  2.107559  119.092  166.62  20.25
  9002.201  9002.200  0.500  2.118015  119.044  166.53  20.0286
  9002.490  9002.500  0.500  2.130888  118.954  166.419  19.7592
  9002.794  9002.800  0.500  2.146614  118.763  166.147  19.4191
  9003.087  9003.100  0.500  2.163836  118.312  165.535  19.0172
  9003.384  9003.400  0.500  2.183019  117.518  164.444  18.533
  9003.698  9003.700  0.500  2.203192  116.87  163.536  18.0626
  9003.886  9003.900  0.500  2.215148  116.778  163.411  17.8343
  9004.878  9004.890  0.500  2.261467  118.646  166.064  17.3034
  9006.156  9005.890  0.500  2.262202  119.17  166.81  17.3685
  9006.882  9006.910  0.500  2.230166  119.126  166.751  17.9275
  9008.056  9007.960  0.500  2.175317  119.08  166.711  18.9337
  9009.024  9009.020  0.500  2.136920  119.002  166.636  19.666
  9010.111  9010.100  0.500  2.106053  118.815  166.369  20.25
  9011.205  9011.200  0.500  2.076358  116.938  163.759  20.5331
  9012.328  9012.320  0.500  2.048692  118.073  165.38  21.318
  9013.461  9013.460  0.500  2.033904  119.037  166.758  21.8159
  9014.619  9014.610  0.500  2.033615  119.001  166.73  21.8185
  9015.795  9015.790  0.500  2.040794  118.959  166.668  21.6545
  9016.982  9016.980  0.500  2.052555  118.921  166.652  21.3992
  9018.211  9018.200  0.500  2.070933  118.868  166.61  21.0043
  9019.440  9019.430  0.500  2.095820  118.766  166.472  20.4709
  9020.687  9020.680  0.500  2.126162  117.458  164.649  19.6417
  9021.959  9021.950  0.500  2.156578  117.712  165.03  19.0973
  9023.232  9023.240  0.500  2.184487  118.849  166.659  18.7551
  9024.547  9024.550  0.500  2.212812  118.824  166.663  18.2317
  9025.883  9025.880  0.500  2.238520  118.796  166.642  17.7667
  9027.237  9027.230  0.500  2.256466  118.776  166.626  17.4491
  9028.610  9028.600  0.500  2.257514  118.74  166.598  17.4278
  9029.983  9029.980  0.500  2.238844  118.71  166.591  17.7555
  9031.387  9031.390  0.500  2.206690  118.678  166.56  18.3323
  9032.814  9032.810  0.500  2.171199  118.65  166.547  18.9931
  9034.254  9034.250  0.500  2.136853  118.621  166.535  19.6554
  9035.710  9035.710  0.500  2.110897  118.592  166.526  20.1712
  9037.180  9037.190  0.500  2.095361  118.554  166.492  20.4829
  9038.692  9038.690  0.500  2.088080  118.51  166.488  20.632
  9040.205  9040.210  0.500  2.089019  118.47  166.452  20.6082
  9041.761  9041.750  0.500  2.097118  117.408  165.007  20.2644
  9043.300  9043.310  0.500  2.107642  118.026  165.892  20.1599
  9044.882  9044.880  0.500  2.113357  118.311  166.315  20.0961
  9046.475  9046.480  0.500  2.111235  118.308  166.359  20.1441
  9048.100  9048.090  0.500  2.107236  118.274  166.348  20.2235
  9049.733  9049.730  0.500  2.110571  118.253  166.326  20.1535
  9051.373  9051.380  0.500  2.121431  118.21  166.291  19.9317
  9053.049  9053.050  0.500  2.132800  118.179  166.307  19.7082
  9054.733  9054.740  0.500  2.136771  118.139  166.269  19.6256
  9056.443  9056.450  0.500  2.136303  118.108  166.258  19.6335
  9058.174  9058.180  0.500  2.139774  118.079  166.233  19.5625
  9059.938  9059.930  0.500  2.151396  118.043  166.225  19.3355
  9061.692  9061.690  0.500  2.167165  117.989  166.179  19.0278
  9063.482  9063.480  0.500  2.180783  117.033  164.872  18.6228
  9065.272  9065.280  0.500  2.190167  117.697  165.838  18.5569
  9067.120  9067.110  0.500  2.199308  117.853  166.067  18.4135
  9068.955  9068.950  0.500  2.210486  117.831  166.084  18.2106
  9070.801  9070.810  0.500  2.225661  117.801  166.074  17.9354
  9072.694  9072.690  0.500  2.240561  117.768  166.043  17.6667
  9074.595  9074.590  0.500  2.247781  117.729  166.041  17.5394
  9076.518  9076.510  0.500  2.242092  117.687  166.017  17.637
  9078.445  9078.450  0.500  2.224009  117.643  165.988  17.9557
  9080.419  9080.410  0.500  2.197339  117.55  165.88  18.4289
  9082.384  9082.380  0.500  2.170354  116.394  164.291  18.7518
  9084.392  9084.380  0.500  2.146671  117.458  165.843  19.3825
  9086.397  9086.390  0.500  2.125788  117.451  165.846  19.7919
  9088.414  9088.420  0.500  2.108844  117.41  165.833  20.1286
  9090.486  9090.480  0.500  2.099855  117.376  165.844  20.3116
  9092.561  9092.550  0.500  2.091213  117.341  165.81  20.4837
  9094.638  9094.640  0.500  2.073992  117.301  165.791  20.8371
  9096.759  9096.750  0.500  2.051765  117.262  165.791  21.3054
  9098.895  9098.880  0.500  2.032457  117.226  165.789  21.7206
  9101.028  9101.020  0.500  2.023979  117.359  166.019  21.9358
  9103.212  9103.190  0.500  2.028542  117.384  166.076  21.8435
  9105.394  9105.380  0.500  2.043118  116.751  165.204  21.4144
  9107.584  9107.580  0.500  2.063951  117.353  166.093  21.0858
  9109.818  9109.800  0.500  2.085576  117.342  166.131  20.6394
  9112.064  9112.050  0.500  2.102756  117.302  166.118  20.2862
  9114.318  9114.310  0.500  2.114555  117.263  166.098  20.0459
  9116.609  9116.590  0.500  2.119081  117.213  166.083  19.9535
  9118.891  9118.890  0.500  2.118360  117.165  166.054  19.9644
  9121.227  9121.210  0.500  2.117597  117.116  166.027  19.9764
  9123.561  9123.550  0.500  2.124644  117.064  165.986  19.8313
  9125.904  9125.900  0.500  2.145136  117.01  165.947  19.4245
  9128.291  9128.280  0.500  2.178880  116.953  165.902  18.7749
  9130.675  9130.670  0.500  2.212491  116.895  165.852  18.1488
  9133.104  9133.090  0.500  2.231802  116.833  165.814  17.7976
  9135.527  9135.520  0.500  2.233514  116.776  165.77  17.7624
  9137.970  9137.970  0.500  2.225143  116.704  165.725  17.9069
  9140.457  9140.450  0.500  2.211973  116.613  165.648  18.1358
  9142.959  9142.940  0.500  2.194122  116.378  165.361  18.4305
  9145.460  9145.450  0.500  2.168823  113.736  161.653  18.4789
  9147.987  9147.970  0.500  2.137460  116.608  165.76  19.5521
  9150.519  9150.520  0.500  2.101545  116.507  165.685  20.2579
  9153.110  9153.090  0.500  2.063005  116.386  165.561  21.0381
  9155.671  9155.670  0.500  2.026092  116.171  165.292  21.7938
  9158.291  9158.280  0.500  1.993796  112.583  160.23  21.8197
  9160.923  9160.900  0.500  1.975314  116.358  165.658  22.9797
  9163.571  9163.550  0.500  1.975583  116.235  165.509  22.9528
  9166.220  9166.210  0.500  1.993424  116.047  165.296  22.5179
  9168.897  9168.890  0.500  2.022408  112.43  160.174  21.1968
  9171.619  9171.590  0.500  2.053502  116.189  165.575  21.2408
  9174.327  9174.310  0.500  2.076211  116.093  165.487  20.7528
  9177.071  9177.050  0.500  2.088272  115.98  165.35  20.4871
  9179.819  9179.800  0.500  2.091614  115.809  165.155  20.3946
  9182.606  9182.580  0.500  2.088232  112.082  159.909  19.8136
  9185.390  9185.370  0.500  2.082597  115.919  165.427  20.6133
  9188.202  9188.190  0.500  2.078894  115.812  165.315  20.6756
  9191.045  9191.020  0.500  2.076699  115.707  165.21  20.708
  9193.882  9193.870  0.500  2.072844  115.631  165.16  20.7816
  9196.772  9196.750  0.500  2.066128  115.54  165.067  20.91
  9199.645  9199.640  0.500  2.061846  115.453  164.994  20.9904
  9202.561  9202.550  0.500  2.068156  115.374  164.931  20.8503
  9205.486  9205.470  0.500  2.086152  115.3  164.883  20.4725
  9208.446  9208.420  0.500  2.107409  115.218  164.832  20.0357
  9211.403  9211.390  0.500  2.118760  115.158  164.775  19.8027
  9214.393  9214.370  0.500  2.119769  115.093  164.741  19.7787
  9217.384  9217.380  0.500  2.115575  115.023  164.692  19.8559
  9220.417  9220.400  0.500  2.106814  114.949  164.633  20.0234
  9223.471  9223.450  0.500  2.092377  114.875  164.572  20.3071
  9226.531  9226.510  0.500  2.071950  114.803  164.52  20.7197
  9229.603  9229.590  0.500  2.048357  114.726  164.49  21.2105
  9232.707  9232.690  0.500  2.025446  114.653  164.404  21.6907
  9235.825  9235.810  0.500  2.006007  114.583  164.359  22.1103
  9238.977  9238.950  0.500  1.992167  114.515  164.318  22.4129
  9242.106  9242.100  0.500  1.986319  114.446  164.272  22.538
  9245.311  9245.280  0.500  1.987315  114.371  164.219  22.5084
  9248.493  9248.470  0.500  1.990352  114.309  164.188  22.4358
  9251.710  9251.690  0.500  1.991284  114.237  164.128  22.4068
  9254.936  9254.920  0.500  1.991419  114.156  164.076  22.3967
  9258.187  9258.170  0.500  1.992484  114.074  164  22.3625
  9261.474  9261.450  0.500  1.994114  113.99  163.957  22.3202
  9264.759  9264.740  0.500  1.997116  113.935  163.925  22.2489
  9268.080  9268.050  0.500  2.001864  113.853  163.834  22.1312
  9271.385  9271.370  0.500  2.006704  113.776  163.781  22.0172
  9274.744  9274.720  0.500  2.010777  113.663  163.69  21.9156
  9278.113  9278.090  0.500  2.013395  113.654  163.713  21.8613
  9281.496  9281.470  0.500  2.015203  113.581  163.67  21.8162
  9284.896  9284.880  0.500  2.016433  113.483  163.594  21.7792
  9288.314  9288.300  0.500  2.017879  113.399  163.54  21.7405
  9291.772  9291.750  0.500  2.018907  113.254  163.38  21.6969
  9295.232  9295.210  0.500  2.019764  113.257  163.422  21.6839
  9298.717  9298.690  0.500  2.020035  112.933  163.012  21.6236
  9302.201  9302.190  0.500  2.016988  113.162  163.412  21.7428
  9305.736  9305.710  0.500  2.009849  113.017  163.26  21.8783
  9309.263  9309.250  0.500  2.000807  113.027  163.311  22.0839
  9312.822  9312.800  0.500  1.991127  112.909  163.209  22.2849
  9316.411  9316.380  0.500  1.981061  112.836  163.161  22.5036
  9319.995  9319.980  0.500  1.972035  112.725  163.041  22.691
  9323.615  9323.590  0.500  1.965938  112.462  162.74  22.7876
  9327.238  9327.220  0.500  1.963080  112.587  162.987  22.8875
  9330.902  9330.880  0.500  1.961184  112.507  162.915  22.9208
  9334.576  9334.550  0.500  1.957420  112.412  162.835  22.996
  9338.246  9338.240  0.500  1.950586  112.325  162.781  23.1459
  9341.990  9341.950  0.500  1.941725  112.21  162.688  23.3386
  9345.669  9345.680  0.500  1.934507  112.123  162.604  23.4956
  9349.412  9349.420  0.500  1.932545  112.025  162.498  23.5264
  9353.192  9353.190  0.500  1.933653  111.945  162.473  23.4967
  9356.989  9356.980  0.500  1.933324  111.847  162.375  23.4902
  9360.783  9360.780  0.500  1.933023  111.772  162.323  23.4897
  9364.625  9364.610  0.500  1.933658  111.675  162.23  23.4614
  9368.466  9368.450  0.500  1.934198  111.596  162.169  23.4399
  9372.334  9372.310  0.500  1.934708  111.494  162.074  23.4143
  9376.208  9376.190  0.500  1.935277  111.408  162.006  23.3911
  9380.113  9380.090  0.500  1.935589  111.302  161.908  23.3696
  9384.028  9384.010  0.500  1.935908  111.22  161.853  23.3543
  9387.958  9387.950  0.500  1.935710  111.121  161.775  23.3476
  9391.926  9391.910  0.500  1.934832  111.031  161.705  23.358
  9395.886  9395.880  0.500  1.933723  110.937  161.631  23.3733
  9399.898  9399.880  0.500  1.932174  110.846  161.569  23.4005
  9403.911  9403.890  0.500  1.929115  110.757  161.512  23.4639
  9407.942  9407.930  0.500  1.924421  110.67  161.447  23.5648
  9412.003  9411.980  0.500  1.918398  110.569  161.367  23.6954
  9416.064  9416.050  0.500  1.911543  110.485  161.301  23.8486
  9420.156  9420.140  0.500  1.904919  110.362  161.178  23.9889
  9424.266  9424.250  0.500  1.900023  110.282  161.125  24.0986
  9428.407  9428.380  0.500  1.896778  110.181  161.033  24.1631
  9432.541  9432.530  0.500  1.894494  110.094  160.968  24.2087
  9436.712  9436.690  0.500  1.892284  109.67  160.425  24.1804
  9440.895  9440.880  0.500  1.889560  109.879  160.782  24.3003
  9445.090  9445.080  0.500  1.886273  109.783  160.717  24.3705
  9449.327  9449.310  0.500  1.882053  109.685  160.637  24.4614
  9453.571  9453.550  0.500  1.877264  109.587  160.551  24.5656
  9457.824  9457.810  0.500  1.872729  109.49  160.47  24.6648
  9462.119  9462.090  0.500  1.869868  109.358  160.343  24.7159
  9466.406  9466.390  0.500  1.867401  109.276  160.285  24.768
  9470.721  9470.710  0.500  1.864550  109.167  160.175  24.8216
  9475.070  9475.050  0.500  1.861871  109.054  160.072  24.8722
  9479.432  9479.410  0.500  1.859869  108.949  159.984  24.9084
  9483.813  9483.790  0.500  1.858487  108.844  159.895  24.929
  9488.198  9488.180  0.500  1.857700  108.733  159.794  24.9328
  9492.618  9492.600  0.500  1.857287  108.625  159.699  24.9283
  9497.059  9497.030  0.500  1.856831  108.519  159.601  24.9244
  9501.503  9501.480  0.500  1.856356  108.397  159.502  24.9207
  9505.979  9505.950  0.500  1.855757  108.29  159.403  24.9202
  9510.471  9510.440  0.500  1.854583  108.177  159.294  24.9325
  9514.975  9514.950  0.500  1.852455  108.069  159.191  24.9694
  9519.484  9519.480  0.500  1.849053  107.951  159.082  25.0373
  9524.048  9524.030  0.500  1.844584  107.858  159.018  25.1393
  9528.620  9528.600  0.500  1.839417  107.741  158.904  25.2515
  9533.189  9533.180  0.500  1.834672  107.613  158.778  25.3514
  9537.794  9537.790  0.500  1.830715  107.541  158.74  25.4459
  9542.423  9542.410  0.500  1.827240  107.418  158.622  25.5154
  9547.080  9547.060  0.500  1.823954  107.297  158.507  25.5808
  9551.730  9551.720  0.500  1.821021  107.189  158.404  25.6394
  9556.413  9556.400  0.500  1.818096  107.085  158.314  25.6998
  9561.120  9561.100  0.500  1.815280  106.944  158.174  25.7495
  9565.823  9565.820  0.500  1.812365  106.85  158.104  25.8132
  9570.575  9570.560  0.500  1.809218  106.735  158.025  25.8816
  9575.320  9575.310  0.500  1.806275  106.616  157.907  25.9385
  9580.097  9580.090  0.500  1.803220  106.491  157.795  25.9996
  9584.907  9584.890  0.500  1.799973  106.411  157.733  26.0738
  9589.722  9589.700  0.500  1.796764  106.289  157.603  26.136
  9594.542  9594.530  0.500  1.794138  106.177  157.531  26.1928
  9599.403  9599.390  0.500  1.791653  106.058  157.413  26.2383
  9604.272  9604.260  0.500  1.789308  105.92  157.28  26.2777
  9609.171  9609.150  0.500  1.787308  105.832  157.217  26.3197
  9614.075  9614.060  0.500  1.785032  105.703  157.081  26.3569
  9619.007  9618.990  0.500  1.782932  105.516  156.877  26.378
  9623.954  9623.930  0.500  1.780852  105.46  156.834  26.4256
  9628.933  9628.900  0.500  1.778780  105.348  156.761  26.4681
  9633.905  9633.890  0.500  1.776758  105.184  156.563  26.4882
  9638.903  9638.890  0.500  1.773984  105.086  156.505  26.552
  9643.930  9643.920  0.500  1.771494  104.967  156.39  26.5986
  9648.975  9648.960  0.500  1.768657  104.751  156.139  26.6314
  9654.033  9654.020  0.500  1.765788  104.743  156.191  26.7168
  9659.129  9659.100  0.500  1.762825  104.897  156.482  26.846
  9664.222  9664.200  0.500  1.760011  104.819  156.45  26.9161
  9669.341  9669.320  0.500  1.757079  104.697  156.316  26.972
  9674.470  9674.460  0.500  1.754206  104.583  156.198  27.0293
  9679.644  9679.620  0.500  1.750899  104.469  156.119  27.1051
  9684.828  9684.800  0.500  1.747904  104.35  155.989  27.1637
  9690.018  9689.990  0.500  1.744857  104.229  155.882  27.2279
  9695.234  9695.210  0.500  1.741620  104.103  155.755  27.294
  9700.456  9700.440  0.500  1.738728  103.966  155.616  27.3486
  9705.712  9705.690  0.500  1.735922  103.813  155.464  27.3986
  9710.994  9710.960  0.500  1.733005  102.457  153.501  27.1316
  9716.269  9716.250  0.500  1.729981  103.581  155.265  27.5267
  9721.580  9721.560  0.500  1.727032  103.481  155.173  27.5914
  9726.916  9726.890  0.500  1.724181  103.327  155.016  27.6422
  9732.275  9732.240  0.500  1.721507  103.199  154.894  27.6945
  9737.632  9737.610  0.500  1.718780  103.107  154.808  27.7548
  9743.015  9742.990  0.500  1.716148  102.956  154.657  27.8008
  9748.425  9748.400  0.500  1.713649  102.826  154.52  27.8456
  9753.853  9753.820  0.500  1.711330  102.661  154.356  27.8805
  9759.304  9759.270  0.500  1.708868  102.543  154.248  27.9297
  9764.753  9764.730  0.500  1.706264  102.408  154.106  27.9768
  9770.233  9770.210  0.500  1.703561  102.222  153.891  28.0135
  9775.769  9775.710  0.500  1.700906  101.912  153.485  28.0137
  9781.266  9781.230  0.500  1.698082  101.977  153.639  28.1211
  9786.790  9786.770  0.500  1.695323  101.883  153.595  28.1907
  9792.382  9792.320  0.500  1.692609  100.76  151.976  27.9695
  9797.927  9797.900  0.500  1.689911  101.596  153.297  28.2888
  9803.536  9803.500  0.500  1.686999  99.9027  150.81  27.911
  9809.140  9809.110  0.500  1.684219  101.351  153.063  28.4068
  9814.788  9814.750  0.500  1.681555  101.198  152.916  28.4553
  9820.438  9820.400  0.500  1.678560  100.908  152.53  28.4686
  9826.136  9826.070  0.500  1.675468  100.941  152.634  28.5761
  9831.825  9831.760  0.500  1.672454  100.738  152.396  28.6177