File: xdidata/Au/Au-L3-GoldSulfide.xdi
# XDI/1.0 BlueSky/1.10.0 BMM/2023-1.0-py310-tiled
# Beamline.name: BMM (06BM) -- Beamline for Materials Measurement (NIST)
# Beamline.xray_source: NSLS-II three-pole wiggler
# Beamline.collimation: paraboloid mirror, 5 nm Rh on 30 nm Pt
# Beamline.focusing: not in use
# Beamline.harmonic_rejection: flat mirror, Pt stripe, pitch = 7.0 mrad relative to beam
# Beamline.software: Bluesky 1.10.0, Ophyd 1.7.0, DataBroker 2.0.0b13, Python 3.10.8, 2023-1.0-py310-tiled
# Detector.I0: 10 cm N2
# Detector.I1: 25 cm N2
# Detector.I2: 25 cm N2
# Element.symbol: Au
# Element.edge: L3
# Element.reference: Au
# Element.reference_material: Au foil
# Facility.name: NSLS-II
# Facility.energy: 3.0
# Facility.current: 400.1
# Facility.mode: top-off
# Facility.GUP: 301027
# Facility.SAF: 310583
# Facility.cycle: 2023-2
# Mono.name: Si(111)
# Mono.d_spacing: 3.13519
# Mono.encoder_resolution: 0.0000050 deg/ct
# Mono.angle_offset: 16.0754 deg
# Mono.scan_mode: pseudo channel cut
# Mono.scan_type: step
# Mono.direction: forward in energy
# Sample.name: Au2S
# Sample.prep: powder on tape
# Sample.x: 145.711 mm
# Sample.y: 114.376 mm
# Sample.SDD_position: 205.000 mm
# Scan.experimenters: Bruce Ravel
# Scan.edge_energy: 11918.7
# Scan.start_time: 2023-06-27T17:41:20
# Scan.end_time: 2023-06-27T17:49:46
# Scan.transient_id: 85197
# Scan.uid: 479f9061-9891-4efa-8304-bf5b872cde12
# Scan.plot_hint: ln(I0/It)  --  ln($5/$6)
# Column.1: energy eV
# Column.2: requested_energy eV
# Column.3: measurement_time seconds
# Column.4: xmu
# Column.5: I0 nA
# Column.6: It nA
# Column.7: Ir nA
# ///////////
# Welcome to BMM
# -----------
# energy  requested_energy  measurement_time  xmu  I0  It  Ir
  11718.714  11718.700  0.500  0.618285  64.3393  34.6704  22.0532
  11728.771  11728.700  0.500  0.615113  64.2142  34.7129  22.1045
  11738.756  11738.700  0.500  0.612017  64.067  34.7407  22.1452
  11748.788  11748.700  0.500  0.608873  63.8513  34.7328  22.1671
  11758.747  11758.700  0.500  0.605622  63.6118  34.7151  22.1762
  11768.747  11768.700  0.500  0.602662  63.6906  34.8612  22.2977
  11778.770  11778.700  0.500  0.599491  63.3424  34.7807  22.2688
  11788.709  11788.700  0.500  0.596484  63.4463  34.9427  22.3968
  11798.712  11798.700  0.500  0.593498  63.2892  34.9604  22.4326
  11808.739  11808.700  0.500  0.590476  63.1254  34.9755  22.4664
  11818.729  11818.700  0.500  0.587547  62.9967  35.0066  22.5073
  11828.747  11828.700  0.500  0.584651  62.8449  35.0235  22.5389
  11838.765  11838.700  0.500  0.581946  62.7566  35.069  22.5871
  11848.690  11848.700  0.500  0.579439  62.4428  34.9813  22.5547
  11858.712  11858.700  0.500  0.577115  62.4121  35.0454  22.61
  11868.732  11868.700  0.500  0.574951  62.3684  35.0967  22.6592
  11878.714  11878.700  0.500  0.573526  62.2397  35.0742  22.6532
  11888.751  11888.700  0.500  0.573338  62.0631  34.9813  22.5919
  11890.682  11890.700  0.500  0.573616  62.0523  34.9655  22.5745
  11892.670  11892.700  0.500  0.573851  62.0402  34.9504  22.5635
  11894.677  11894.700  0.500  0.574361  62.01  34.9156  22.534
  11896.666  11896.700  0.500  0.575111  61.977  34.8709  22.4929
  11898.681  11898.700  0.500  0.576215  61.9362  34.8094  22.4468
  11900.671  11900.700  0.500  0.577465  61.8299  34.7063  22.3662
  11902.669  11902.700  0.500  0.579032  61.2401  34.3214  22.1011
  11904.710  11904.700  0.500  0.581381  61.8327  34.5723  22.238
  11907.005  11906.700  0.500  0.584807  61.854  34.4659  22.1356
  11908.825  11908.700  0.500  0.588711  61.8163  34.3107  21.9974
  11908.930  11909.000  0.500  0.589082  61.8157  34.2976  21.9844
  11909.245  11909.300  0.500  0.589941  61.8219  34.2716  21.9595
  11909.548  11909.600  0.500  0.590776  61.8235  34.2438  21.9335
  11909.850  11909.900  0.500  0.591600  61.8163  34.2117  21.9022
  11910.146  11910.200  0.500  0.592695  61.8077  34.1695  21.8649
  11910.455  11910.500  0.500  0.593627  61.7929  34.1295  21.8302
  11910.758  11910.800  0.500  0.594718  61.7898  34.0905  21.7935
  11911.079  11911.100  0.500  0.595918  61.7867  34.0479  21.7562
  11911.357  11911.400  0.500  0.596987  61.7802  34.008  21.7188
  11911.715  11911.700  0.500  0.598406  61.776  33.9575  21.6756
  11911.986  11912.000  0.500  0.599572  61.7727  33.9161  21.6357
  11912.264  11912.300  0.500  0.600885  61.7631  33.8663  21.5912
  11912.548  11912.600  0.500  0.602208  61.7511  33.815  21.5443
  11912.962  11912.900  0.500  0.604326  61.7464  33.7409  21.4751
  11913.129  11913.200  0.500  0.605401  61.7194  33.6899  21.4359
  11913.549  11913.500  0.500  0.607622  61.9213  33.7251  21.4308
  11913.833  11913.800  0.500  0.609738  61.9083  33.6467  21.3631
  11914.130  11914.100  0.500  0.611727  61.905  33.5781  21.2983
  11914.445  11914.400  0.500  0.614115  61.8934  33.4917  21.2202
  11914.754  11914.700  0.500  0.616451  61.8882  33.4108  21.1419
  11915.032  11915.000  0.500  0.619090  61.8715  33.3137  21.0554
  11915.341  11915.300  0.500  0.621997  61.8572  33.2094  20.9605
  11915.637  11915.600  0.500  0.625122  61.8184  33.085  20.8504
  11915.940  11915.900  0.500  0.628499  61.7793  32.9525  20.7324
  11916.237  11916.200  0.500  0.632043  61.6778  32.7821  20.586
  11916.533  11916.500  0.500  0.636192  61.548  32.5776  20.4192
  11916.830  11916.800  0.500  0.640518  61.4063  32.3623  20.2422
  11917.114  11917.100  0.500  0.645070  61.2831  32.1507  20.0633
  11917.430  11917.400  0.500  0.650417  61.2021  31.937  19.874
  11917.739  11917.700  0.500  0.656246  61.185  31.7425  19.6936
  11918.029  11918.000  0.500  0.662404  61.2259  31.5687  19.5254
  11918.326  11918.300  0.500  0.669228  61.3141  31.3991  19.3531
  11918.635  11918.600  0.500  0.677164  61.4156  31.2025  19.152
  11918.919  11918.900  0.500  0.685589  61.5235  30.9951  18.9417
  11919.210  11919.200  0.500  0.695084  61.6272  30.754  18.7045
  11919.519  11919.500  0.500  0.705897  61.7146  30.4664  18.428
  11919.822  11919.800  0.500  0.718078  61.7693  30.1242  18.1085
  11920.113  11920.100  0.500  0.731412  61.7971  29.7385  17.757
  11920.410  11920.400  0.500  0.746100  61.799  29.3058  17.3731
  11920.707  11920.700  0.500  0.763066  61.8069  28.8165  16.9447
  11921.016  11921.000  0.500  0.782143  61.8003  28.269  16.4764
  11921.294  11921.300  0.500  0.801679  61.7991  27.7216  16.0175
  11921.597  11921.600  0.500  0.824616  61.8039  27.095  15.506
  11921.900  11921.900  0.500  0.848765  61.8016  26.4476  14.9895
  11922.203  11922.200  0.500  0.873895  61.805  25.7926  14.4808
  11922.494  11922.500  0.500  0.900017  61.7941  25.1232  13.9797
  11922.797  11922.800  0.500  0.926551  61.7951  24.4657  13.4966
  11923.107  11923.100  0.500  0.952419  61.7853  23.8372  13.046
  11923.385  11923.400  0.500  0.975597  61.781  23.2894  12.6585
  11923.695  11923.700  0.500  0.998655  61.7757  22.7566  12.2906
  11924.010  11924.000  0.500  1.019939  61.7679  22.2745  11.9608
  11924.307  11924.300  0.500  1.036827  61.7609  21.8991  11.7041
  11924.598  11924.600  0.500  1.050990  61.7615  21.5913  11.4954
  11924.901  11924.900  0.500  1.063090  61.7591  21.3308  11.3215
  11925.198  11925.200  0.500  1.072171  61.7559  21.1369  11.1843
  11925.508  11925.500  0.500  1.078770  61.7466  20.9947  11.0836
  11925.799  11925.800  0.500  1.083150  61.7471  20.9031  11.0178
  11926.102  11926.100  0.500  1.085555  61.7369  20.8494  10.9742
  11926.412  11926.400  0.500  1.086515  61.7367  20.8294  10.9564
  11926.709  11926.700  0.500  1.086018  61.7275  20.8366  10.9556
  11927.012  11927.000  0.500  1.084782  61.7309  20.8635  10.9647
  11927.316  11927.300  0.500  1.083161  61.7261  20.8958  10.9824
  11927.613  11927.600  0.500  1.081358  61.715  20.9297  11.0007
  11927.910  11927.900  0.500  1.079663  61.7109  20.9638  11.0179
  11928.213  11928.200  0.500  1.078342  61.7056  20.9897  11.0329
  11928.517  11928.500  0.500  1.077655  61.7116  21.0062  11.0405
  11928.796  11928.800  0.500  1.077704  61.6866  20.9966  11.0338
  11929.105  11929.100  0.500  1.078599  61.692  20.9797  11.0232
  11929.409  11929.400  0.500  1.080307  61.6847  20.9414  10.9991
  11929.712  11929.700  0.500  1.082491  61.6812  20.8945  10.9684
  11930.003  11930.000  0.500  1.085324  61.6842  20.8365  10.9295
  11930.313  11930.300  0.500  1.088865  61.671  20.7584  10.8806
  11930.610  11930.600  0.500  1.092676  61.6697  20.679  10.8249
  11930.908  11930.900  0.500  1.096702  61.6625  20.5935  10.7692
  11931.199  11931.200  0.500  1.100754  61.6561  20.5081  10.7105
  11931.509  11931.500  0.500  1.105129  61.6662  20.4219  10.6505
  11931.800  11931.800  0.500  1.109315  61.6482  20.3306  10.587
  11932.097  11932.100  0.500  1.113306  61.6379  20.2463  10.5263
  11932.395  11932.400  0.500  1.117124  61.6324  20.1673  10.4707
  11932.705  11932.700  0.500  1.120463  61.6237  20.0973  10.4168
  11932.990  11933.000  0.500  1.123341  61.6135  20.0362  10.3687
  11933.287  11933.300  0.500  1.125729  61.5988  19.9836  10.3258
  11933.585  11933.600  0.500  1.127713  61.5756  19.9365  10.2867
  11933.895  11933.900  0.500  1.129274  61.508  19.8836  10.2433
  11934.186  11934.200  0.500  1.130437  61.391  19.8226  10.2037
  11934.490  11934.500  0.500  1.131104  61.2253  19.756  10.1549
  11934.794  11934.800  0.500  1.131432  61.0667  19.6983  10.1155
  11935.097  11935.100  0.500  1.131238  60.9549  19.6661  10.0882
  11935.389  11935.400  0.500  1.131164  60.9122  19.6538  10.0744
  11935.693  11935.700  0.500  1.130787  60.9157  19.6623  10.0719
  11936.009  11936.000  0.500  1.130381  60.9799  19.691  10.0813
  11936.288  11936.300  0.500  1.130226  61.0732  19.7242  10.0938
  11936.592  11936.600  0.500  1.130065  61.1723  19.7594  10.1072
  11936.902  11936.900  0.500  1.130051  61.2927  19.7986  10.1222
  11937.206  11937.200  0.500  1.130376  61.3947  19.8251  10.1347
  11937.497  11937.500  0.500  1.130798  61.4598  19.8377  10.1389
  11937.795  11937.800  0.500  1.131418  61.486  19.8339  10.1342
  11938.105  11938.100  0.500  1.132229  61.4994  19.8221  10.1244
  11938.409  11938.400  0.500  1.133171  61.5049  19.8052  10.115
  11938.701  11938.700  0.500  1.134291  61.499  19.7812  10.0977
  11939.011  11939.000  0.500  1.135619  61.5035  19.7564  10.0793
  11939.315  11939.300  0.500  1.137242  61.4961  19.7219  10.059
  11939.606  11939.600  0.500  1.138929  61.5012  19.6903  10.0384
  11939.904  11939.900  0.500  1.140734  61.4941  19.6526  10.0139
  11940.208  11940.200  0.500  1.142539  61.4965  19.6179  9.990018
  11940.506  11940.500  0.500  1.144237  61.4897  19.5824  9.965365
  11940.798  11940.800  0.500  1.146097  61.4882  19.5456  9.942908
  11941.108  11941.100  0.500  1.147933  61.4849  19.5086  9.917295
  11941.419  11941.400  0.500  1.149589  61.4802  19.4749  9.892130
  11941.704  11941.700  0.500  1.151129  61.469  19.4414  9.872553
  11942.008  11942.000  0.500  1.152710  61.4812  19.4145  9.851691
  11942.312  11942.300  0.500  1.154296  61.4645  19.3785  9.827900
  11942.604  11942.600  0.500  1.155818  61.4624  19.3484  9.807659
  11942.902  11942.900  0.500  1.157284  61.4538  19.3173  9.783569
  11943.200  11943.200  0.500  1.158644  61.4449  19.2883  9.761653
  11943.510  11943.500  0.500  1.160081  61.4442  19.2604  9.738309
  11943.703  11943.700  0.500  1.160964  61.4397  19.242  9.719780
  11944.703  11944.690  0.500  1.165598  61.428  19.1493  9.617573
  11945.696  11945.690  0.500  1.169995  61.4144  19.0611  9.488718
  11946.709  11946.710  0.500  1.174320  61.402  18.975  9.357282
  11947.771  11947.760  0.500  1.178730  61.3925  18.8886  9.243739
  11948.834  11948.820  0.500  1.182982  61.3736  18.8026  9.175586
  11949.915  11949.900  0.500  1.186944  61.3552  18.7227  9.154024
  11951.015  11951.000  0.500  1.190292  61.3413  18.6559  9.170739
  11952.135  11952.120  0.500  1.192789  61.3246  18.6043  9.206084
  11953.279  11953.260  0.500  1.194728  61.3072  18.563  9.238936
  11954.442  11954.410  0.500  1.196143  61.2954  18.5332  9.252470
  11955.599  11955.590  0.500  1.197502  61.2872  18.5055  9.250893
  11956.781  11956.780  0.500  1.199453  61.2629  18.4621  9.237370
  11957.988  11958.000  0.500  1.201508  61.2468  18.4194  9.230141
  11959.227  11959.230  0.500  1.203895  61.2333  18.3714  9.221535
  11960.479  11960.480  0.500  1.206545  61.211  18.3161  9.203725
  11961.761  11961.750  0.500  1.209251  61.1829  18.2583  9.169652
  11963.063  11963.040  0.500  1.211881  61.1724  18.2072  9.122785
  11964.359  11964.350  0.500  1.214429  61.1487  18.1538  9.062901
  11965.693  11965.680  0.500  1.217261  61.1321  18.0975  8.994400
  11967.039  11967.030  0.500  1.219744  61.1116  18.0466  8.927568
  11968.410  11968.400  0.500  1.222008  61.0978  18.0017  8.864483
  11969.788  11969.780  0.500  1.223698  61.0678  17.9625  8.815265
  11971.186  11971.190  0.500  1.224933  61.051  17.9354  8.784512
  11972.621  11972.610  0.500  1.225191  61.0284  17.9241  8.779494
  11974.056  11974.050  0.500  1.224831  61.0258  17.9298  8.799936
  11975.529  11975.510  0.500  1.223469  60.9924  17.9444  8.829592
  11977.002  11976.990  0.500  1.221645  60.9782  17.973  8.869540
  11978.495  11978.490  0.500  1.219008  60.9489  18.0118  8.910544
  11980.025  11980.010  0.500  1.215396  60.9175  18.0677  8.956632
  11981.537  11981.550  0.500  1.211528  60.8976  18.1318  9.004562
  11983.106  11983.110  0.500  1.207026  60.8852  18.2099  9.058760
  11984.675  11984.680  0.500  1.202123  60.8547  18.2902  9.108773
  11986.288  11986.280  0.500  1.197364  60.8332  18.371  9.161197
  11987.896  11987.890  0.500  1.192733  60.8108  18.4494  9.217186
  11989.529  11989.530  0.500  1.188230  60.788  18.5258  9.273993
  11991.181  11991.180  0.500  1.184203  60.7665  18.5939  9.329961
  11992.852  11992.850  0.500  1.180989  60.747  18.6478  9.373490
  11994.555  11994.540  0.500  1.178420  60.7129  18.6853  9.397761
  11996.265  11996.250  0.500  1.176479  60.6964  18.7165  9.411872
  11997.995  11997.980  0.500  1.175190  60.6705  18.7327  9.414713
  11999.737  11999.730  0.500  1.174615  60.6499  18.737  9.408742
  12001.486  12001.490  0.500  1.174609  60.6281  18.7304  9.390805
  12003.286  12003.280  0.500  1.174725  60.6053  18.7212  9.367019
  12005.092  12005.080  0.500  1.175287  60.5926  18.7068  9.338830
  12006.925  12006.910  0.500  1.175722  60.5582  18.688  9.307816
  12008.745  12008.750  0.500  1.176414  60.5382  18.6689  9.285865
  12010.603  12010.610  0.500  1.177222  60.5179  18.6476  9.271463
  12012.494  12012.490  0.500  1.177843  60.4877  18.6267  9.262446
  12014.410  12014.390  0.500  1.178575  60.4669  18.6067  9.261208
  12016.333  12016.310  0.500  1.179271  60.4362  18.5843  9.262256
  12018.257  12018.250  0.500  1.180195  60.415  18.5606  9.263397
  12020.207  12020.210  0.500  1.180980  60.3924  18.5391  9.262055
  12022.182  12022.180  0.500  1.182149  60.3578  18.5069  9.253322
  12024.202  12024.180  0.500  1.183286  60.335  18.4788  9.244946
  12026.204  12026.190  0.500  1.184588  60.3093  18.447  9.231642
  12028.213  12028.220  0.500  1.185762  60.2857  18.4181  9.217478
  12030.298  12030.280  0.500  1.186882  60.2593  18.3894  9.205321
  12032.365  12032.350  0.500  1.187388  60.229  18.3709  9.197269
  12034.458  12034.440  0.500  1.187526  60.191  18.3567  9.194441
  12036.564  12036.550  0.500  1.187100  60.1687  18.3578  9.203348
  12038.683  12038.680  0.500  1.185790  60.1318  18.3705  9.218615
  12040.823  12040.820  0.500  1.183933  60.1094  18.3979  9.244945
  12043.013  12042.990  0.500  1.181287  60.0628  18.4323  9.275534
  12045.192  12045.180  0.500  1.178322  59.999  18.4674  9.304108
  12047.391  12047.380  0.500  1.175608  58.8538  18.1641  9.161179
  12049.609  12049.600  0.500  1.171785  59.0325  18.289  9.232744
  12051.872  12051.850  0.500  1.169307  59.866  18.5933  9.388908
  12054.130  12054.110  0.500  1.166674  59.885  18.6482  9.415171
  12056.402  12056.390  0.500  1.164637  59.8711  18.682  9.427552
  12058.699  12058.690  0.500  1.162865  59.8499  18.7084  9.434709
  12061.029  12061.010  0.500  1.161379  59.8199  18.7269  9.438037
  12063.367  12063.350  0.500  1.160241  59.7834  18.7367  9.437163
  12065.705  12065.700  0.500  1.159391  59.756  18.7441  9.436415
  12068.089  12068.080  0.500  1.158633  59.7271  18.7492  9.435307
  12070.480  12070.470  0.500  1.157818  59.691  18.7532  9.434803
  12072.916  12072.890  0.500  1.157299  59.8425  18.8105  9.462167
  12075.328  12075.320  0.500  1.156878  59.8045  18.8065  9.458712
  12077.773  12077.770  0.500  1.156436  59.7723  18.8047  9.459057
  12080.276  12080.250  0.500  1.156030  59.7338  18.8002  9.459364
  12082.773  12082.740  0.500  1.155805  59.6963  18.7926  9.458652
  12085.253  12085.250  0.500  1.155752  59.6636  18.7833  9.457015
  12087.797  12087.770  0.500  1.155817  59.6318  18.7721  9.452188
  12090.336  12090.320  0.500  1.156109  59.5936  18.7546  9.442876
  12092.914  12092.890  0.500  1.156429  59.388  18.6839  9.406949
  12095.474  12095.470  0.500  1.156990  59.5459  18.7231  9.428077
  12098.099  12098.080  0.500  1.157507  59.5077  18.7014  9.420035
  12100.738  12100.700  0.500  1.157999  59.4696  18.6802  9.417653
  12103.365  12103.350  0.500  1.158362  59.4353  18.6627  9.424002
  12106.019  12106.010  0.500  1.158502  59.4077  18.6514  9.432256
  12108.700  12108.690  0.500  1.158610  59.3715  18.638  9.439865
  12111.408  12111.390  0.500  1.158120  59.3364  18.6362  9.448248
  12114.123  12114.110  0.500  1.157440  59.3106  18.6407  9.457736
  12116.871  12116.850  0.500  1.156312  59.2668  18.648  9.466501
  12119.614  12119.600  0.500  1.154961  59.2315  18.6621  9.477704
  12122.378  12122.380  0.500  1.153481  59.1954  18.6783  9.489322
  12125.187  12125.170  0.500  1.151711  59.1473  18.6962  9.500046
  12128.005  12127.990  0.500  1.149963  59.0773  18.7067  9.504707
  12130.836  12130.820  0.500  1.147999  59.0111  18.7225  9.512082
  12133.676  12133.670  0.500  1.146436  59.0511  18.7645  9.528719
  12136.574  12136.550  0.500  1.144814  59.0092  18.7816  9.533584
  12139.455  12139.440  0.500  1.143193  58.9682  18.799  9.536865
  12142.350  12142.350  0.500  1.141566  58.9283  18.8169  9.536772
  12145.291  12145.270  0.500  1.140022  58.8867  18.8327  9.536586
  12148.227  12148.220  0.500  1.138772  58.8501  18.8445  9.538933
  12151.190  12151.190  0.500  1.137227  58.8046  18.8591  9.543277
  12154.181  12154.170  0.500  1.136033  58.7666  18.8694  9.551737
  12157.186  12157.180  0.500  1.134674  58.7276  18.8825  9.562652
  12160.205  12160.200  0.500  1.133429  58.665  18.8859  9.576374
  12163.277  12163.250  0.500  1.132031  58.4313  18.8369  9.561793
  12166.319  12166.310  0.500  1.130917  58.6078  18.9149  9.614397
  12169.394  12169.390  0.500  1.130094  58.5682  18.9177  9.631013
  12172.491  12172.490  0.500  1.129154  58.5213  18.9203  9.648669
  12175.602  12175.610  0.500  1.128451  58.4796  18.9201  9.661834
  12178.753  12178.750  0.500  1.127833  58.4359  18.9177  9.668294
  12181.912  12181.900  0.500  1.127277  58.3853  18.9118  9.668891
  12185.073  12185.080  0.500  1.126890  58.3465  18.9066  9.668409
  12188.275  12188.270  0.500  1.126445  58.3031  18.9009  9.663948
  12191.497  12191.490  0.500  1.126118  58.2574  18.8923  9.661303
  12194.728  12194.720  0.500  1.125681  58.2186  18.888  9.663653
  12197.987  12197.970  0.500  1.125013  58.1701  18.8848  9.667084
  12201.266  12201.250  0.500  1.124203  57.9027  18.8132  9.633830
  12204.548  12204.540  0.500  1.123246  58.0911  18.8925  9.678743
  12207.877  12207.850  0.500  1.122335  58.0543  18.8978  9.679653
  12211.181  12211.170  0.500  1.121200  58.0056  18.9034  9.680644
  12214.533  12214.520  0.500  1.119845  57.9621  18.9148  9.682497
  12217.906  12217.890  0.500  1.118490  57.9241  18.928  9.687703
  12221.262  12221.270  0.500  1.117157  57.881  18.9392  9.691304
  12224.691  12224.680  0.500  1.115592  57.8361  18.9541  9.698038
  12228.116  12228.100  0.500  1.113872  57.7939  18.9729  9.708840
  12231.568  12231.550  0.500  1.112197  57.7363  18.9858  9.721449
  12235.029  12235.010  0.500  1.110748  56.5727  18.6301  9.548961
  12238.486  12238.490  0.500  1.108783  57.5012  18.9731  9.735432
  12242.016  12241.990  0.500  1.107225  57.5717  19.026  9.778480
  12245.542  12245.510  0.500  1.105527  57.5437  19.0491  9.801956
  12249.070  12249.050  0.500  1.103711  57.4996  19.0691  9.819990
  12252.626  12252.600  0.500  1.102166  57.458  19.0847  9.835641
  12256.191  12256.180  0.500  1.100696  57.2769  19.0526  9.826139
  12259.803  12259.780  0.500  1.099201  57.3553  19.1072  9.857252
  12263.405  12263.390  0.500  1.098059  56.8268  18.9528  9.779202
  12267.035  12267.020  0.500  1.096179  57.0144  19.0511  9.833903
  12270.700  12270.680  0.500  1.094978  57.0636  19.0905  9.858769
  12274.387  12274.350  0.500  1.093763  57.1719  19.15  9.895621
  12278.063  12278.040  0.500  1.092707  57.1246  19.1543  9.902972
  12281.774  12281.750  0.500  1.091409  57.0669  19.1598  9.910012
  12285.494  12285.480  0.500  1.090296  56.9578  19.1445  9.904936
  12289.223  12289.220  0.500  1.089489  56.729  19.083  9.874837
  12293.027  12292.990  0.500  1.088108  56.4896  19.0287  9.848400
  12296.793  12296.780  0.500  1.087288  56.8225  19.1565  9.913320
  12300.615  12300.580  0.500  1.086176  56.7239  19.1446  9.909379
  12304.439  12304.410  0.500  1.085130  56.7482  19.1728  9.925775
  12308.278  12308.250  0.500  1.084241  56.6978  19.1728  9.930278
  12312.153  12312.110  0.500  1.083114  56.6481  19.1776  9.935801
  12316.011  12315.990  0.500  1.081803  56.5901  19.1831  9.941915
  12319.910  12319.890  0.500  1.081191  56.1212  19.0358  9.873497
  12323.819  12323.810  0.500  1.079500  56.2675  19.1177  9.924121
  12327.770  12327.750  0.500  1.078087  56.4002  19.1899  9.970779
  12331.744  12331.710  0.500  1.076787  56.3731  19.2057  9.989186
  12335.713  12335.680  0.500  1.075156  56.3243  19.2204  10.0073
  12339.712  12339.680  0.500  1.073542  56.2815  19.2368  10.0254
  12343.740  12343.690  0.500  1.071892  56.2307  19.2511  10.039
  12347.770  12347.730  0.500  1.070305  56.1719  19.2616  10.0523
  12351.803  12351.780  0.500  1.068583  56.1188  19.2765  10.0639
  12355.879  12355.850  0.500  1.067109  56.0645  19.2863  10.0734
  12359.971  12359.940  0.500  1.065380  56.0242  19.3058  10.0868
  12364.072  12364.050  0.500  1.063884  55.9025  19.2927  10.0834
  12368.223  12368.180  0.500  1.062041  55.922  19.335  10.1073
  12372.356  12372.330  0.500  1.060435  55.8205  19.3309  10.1079
  12376.532  12376.490  0.500  1.058720  55.811  19.3608  10.1256
  12380.718  12380.680  0.500  1.057220  55.7455  19.3671  10.1348
  12384.900  12384.880  0.500  1.055383  55.326  19.2567  10.0804
  12389.138  12389.110  0.500  1.053893  55.6615  19.4024  10.1629
  12393.373  12393.350  0.500  1.052418  55.6038  19.4109  10.1704
  12397.637  12397.610  0.500  1.050928  55.5469  19.4199  10.1797
  12401.945  12401.890  0.500  1.049452  55.492  19.4294  10.19
  12406.222  12406.190  0.500  1.047973  55.4339  19.4378  10.2008
  12410.569  12410.510  0.500  1.046572  55.3557  19.4376  10.2084
  12414.892  12414.850  0.500  1.045275  55.3184  19.4497  10.2224
  12419.238  12419.210  0.500  1.043743  55.2616  19.4595  10.2349
  12423.642  12423.590  0.500  1.042409  55.1876  19.4594  10.2434
  12428.015  12427.980  0.500  1.041030  55.1451  19.4712  10.2544
  12432.445  12432.400  0.500  1.039656  55.0722  19.4722  10.2657
  12436.878  12436.830  0.500  1.038242  54.6446  19.3484  10.208
  12441.321  12441.280  0.500  1.036543  54.9905  19.504  10.2977
  12445.801  12445.750  0.500  1.035166  54.9267  19.5082  10.3055
  12450.291  12450.240  0.500  1.033766  54.8631  19.5129  10.3164
  12454.770  12454.750  0.500  1.032026  54.7479  19.5058  10.3166
  12459.341  12459.280  0.500  1.030445  54.7548  19.5392  10.3401
  12463.882  12463.830  0.500  1.028728  54.6833  19.5472  10.3499
  12468.439  12468.400  0.500  1.027275  54.5931  19.5433  10.353
  12473.014  12472.980  0.500  1.025638  54.5746  19.5687  10.3707
  12477.632  12477.590  0.500  1.023991  54.5081  19.5771  10.3796
  12482.268  12482.210  0.500  1.022243  54.4323  19.584  10.3866
  12486.887  12486.860  0.500  1.020380  54.114  19.5058  10.3512
  12491.570  12491.520  0.500  1.018742  54.3553  19.6249  10.4201
  12496.243  12496.200  0.500  1.016842  54.2876  19.6378  10.4316
  12500.920  12500.900  0.500  1.015060  54.2188  19.6479  10.4414
  12505.675  12505.620  0.500  1.013184  54.1597  19.6633  10.4583
  12510.400  12510.360  0.500  1.011420  54.0974  19.6754  10.4708
  12515.149  12515.110  0.500  1.009553  54.0341  19.689  10.4848
  12519.936  12519.890  0.500  1.007867  53.97  19.6989  10.4982
  12524.733  12524.690  0.500  1.006152  53.9094  19.7105  10.5126
  12529.548  12529.500  0.500  1.004397  53.8436  19.721  10.5255
  12534.366  12534.330  0.500  1.002670  53.7776  19.7309  10.5384
  12539.230  12539.190  0.500  1.000996  53.6537  19.7185  10.5405
  12544.117  12544.060  0.500  0.999380  53.6727  19.7573  10.5698
  12548.975  12548.950  0.500  0.997673  53.6052  19.7662  10.5811
  12553.918  12553.860  0.500  0.996038  53.5396  19.7743  10.5929
  12558.831  12558.790  0.500  0.994269  53.4698  19.7835  10.6056
  12563.783  12563.730  0.500  0.992577  53.409  19.7945  10.6195
  12568.745  12568.700  0.500  0.990975  53.3441  19.8021  10.6295
  12573.704  12573.690  0.500  0.989286  53.2819  19.8124  10.639
  12578.730  12578.690  0.500  0.987623  53.2099  19.8186  10.6518
  12583.752  12583.720  0.500  0.985985  53.1476  19.8279  10.6609
  12588.793  12588.760  0.500  0.984295  53.0891  19.8396  10.6728
  12593.865  12593.820  0.500  0.982632  53.0251  19.8486  10.6812
  12598.941  12598.900  0.500  0.980824  52.9537  19.8577  10.6919
  12604.042  12604.000  0.500  0.979160  52.8879  19.8661  10.7019
  12609.155  12609.120  0.500  0.977514  52.8301  19.8771  10.7149
  12614.292  12614.260  0.500  0.975635  52.765  19.8899  10.7292
  12619.468  12619.420  0.500  0.973956  52.7001  19.8988  10.7408
  12624.635  12624.600  0.500  0.971971  52.6211  19.9085  10.753
  12629.834  12629.790  0.500  0.970251  52.5454  19.9141  10.766
  12635.051  12635.010  0.500  0.968272  52.4308  19.91  10.7707
  12640.265  12640.240  0.500  0.966371  52.4396  19.9512  10.803
  12645.519  12645.490  0.500  0.964504  52.3768  19.9646  10.8182
  12650.791  12650.760  0.500  0.962546  52.3021  19.9752  10.8301
  12656.095  12656.050  0.500  0.960807  52.2483  19.9894  10.8479
  12661.390  12661.360  0.500  0.958872  52.1793  20.0016  10.8602
  12666.731  12666.690  0.500  0.956863  52.1122  20.0161  10.8779
  12672.070  12672.040  0.500  0.955089  52.046  20.0261  10.8918
  12677.463  12677.410  0.500  0.953231  51.9755  20.0362  10.904
  12682.832  12682.790  0.500  0.951395  51.9069  20.0465  10.9188
  12688.234  12688.200  0.500  0.949531  51.8422  20.0589  10.9297
  12693.669  12693.620  0.500  0.947580  51.7754  20.0722  10.944
  12699.094  12699.070  0.500  0.945619  51.7036  20.0837  10.9584
  12704.566  12704.530  0.500  0.943891  51.6307  20.0901  10.9685
  12710.050  12710.010  0.500  0.941840  51.565  20.1057  10.9823
  12715.546  12715.510  0.500  0.939966  51.4914  20.1147  10.9966
  12721.096  12721.030  0.500  0.938159  51.4248  20.125  11.0076
  12726.601  12726.570  0.500  0.936483  51.3474  20.1284  11.0179
  12732.168  12732.120  0.500  0.934636  51.2748  20.1371  11.029
  12737.726  12737.700  0.500  0.932970  50.5818  19.898  10.9064
  12743.345  12743.300  0.500  0.930938  51.1546  20.1643  11.0598
  12748.948  12748.910  0.500  0.929035  51.0867  20.1759  11.0717
  12754.591  12754.550  0.500  0.927320  51.0214  20.1847  11.086
  12760.247  12760.200  0.500  0.925456  50.9474  20.193  11.0981
  12765.908  12765.870  0.500  0.923510  50.8746  20.2034  11.1123
  12771.595  12771.560  0.500  0.921653  50.812  20.2161  11.1283