File: xdidata/Au/Au-L3-GoldThiocyanate.xdi
# XDI/1.0 BlueSky/1.10.0 BMM/2023-1.0-py310-tiled
# Beamline.name: BMM (06BM) -- Beamline for Materials Measurement (NIST)
# Beamline.xray_source: NSLS-II three-pole wiggler
# Beamline.collimation: paraboloid mirror, 5 nm Rh on 30 nm Pt
# Beamline.focusing: not in use
# Beamline.harmonic_rejection: flat mirror, Pt stripe, pitch = 7.0 mrad relative to beam
# Beamline.software: Bluesky 1.10.0, Ophyd 1.7.0, DataBroker 2.0.0b13, Python 3.10.8, 2023-1.0-py310-tiled
# Detector.I0: 10 cm N2
# Detector.I1: 25 cm N2
# Detector.I2: 25 cm N2
# Element.symbol: Au
# Element.edge: L3
# Element.reference: Au
# Element.reference_material: Au foil
# Facility.name: NSLS-II
# Facility.energy: 3.0
# Facility.current: 400.7
# Facility.mode: top-off
# Facility.GUP: 301027
# Facility.SAF: 310583
# Facility.cycle: 2023-2
# Mono.name: Si(111)
# Mono.d_spacing: 3.13519
# Mono.encoder_resolution: 0.0000050 deg/ct
# Mono.angle_offset: 16.0754 deg
# Mono.scan_mode: pseudo channel cut
# Mono.scan_type: step
# Mono.direction: forward in energy
# Sample.name: KAu(SCN)4, gold potassium thocyanate
# Sample.prep: powder in BN pellet
# Sample.x: 145.711 mm
# Sample.y: 114.376 mm
# Sample.SDD_position: 205.000 mm
# Scan.experimenters: Bruce Ravel
# Scan.edge_energy: 11918.7
# Scan.start_time: 2023-06-27T17:50:19
# Scan.end_time: 2023-06-27T17:58:22
# Scan.transient_id: 85202
# Scan.uid: 69124dc7-875e-4600-a0e7-eba7cf9667dc
# Scan.plot_hint: ln(I0/It)  --  ln($5/$6)
# Column.1: energy eV
# Column.2: requested_energy eV
# Column.3: measurement_time seconds
# Column.4: xmu
# Column.5: I0 nA
# Column.6: It nA
# Column.7: Ir nA
# ///////////
# Welcome to BMM
# -----------
# energy  requested_energy  measurement_time  xmu  I0  It  Ir
  11718.720  11718.700  0.500  1.168672  64.5811  20.0705  12.7675
  11728.735  11728.700  0.500  1.164359  64.4694  20.1223  12.8147
  11738.732  11738.700  0.500  1.160077  64.2871  20.1516  12.8476
  11748.758  11748.700  0.500  1.155954  64.0863  20.1716  12.8748
  11758.771  11758.700  0.500  1.151552  63.8464  20.1847  12.8932
  11768.789  11768.700  0.500  1.147419  63.9154  20.2903  12.9773
  11778.668  11778.700  0.500  1.143271  63.5702  20.2646  12.9744
  11788.733  11788.700  0.500  1.139126  63.6498  20.3742  13.0586
  11798.730  11798.700  0.500  1.134962  63.5155  20.4161  13.0963
  11808.745  11808.700  0.500  1.131006  63.3581  20.4462  13.1332
  11818.753  11818.700  0.500  1.126883  63.2204  20.486  13.1701
  11828.741  11828.700  0.500  1.123108  63.0622  20.5121  13.1998
  11838.777  11838.700  0.500  1.119242  62.9642  20.5595  13.2439
  11848.696  11848.700  0.500  1.115692  62.6478  20.529  13.2345
  11858.693  11858.700  0.500  1.112398  62.6217  20.5881  13.2833
  11868.732  11868.700  0.500  1.109734  62.569  20.6256  13.3164
  11878.727  11878.700  0.500  1.107787  62.4497  20.6265  13.3214
  11888.714  11888.700  0.500  1.107449  62.2565  20.5696  13.2817
  11890.658  11890.700  0.500  1.107893  62.2658  20.5635  13.2762
  11892.658  11892.700  0.500  1.108387  62.2255  20.5401  13.2589
  11894.665  11894.700  0.500  1.109135  62.1947  20.5146  13.239
  11896.648  11896.700  0.500  1.110035  62.1679  20.4873  13.2154
  11898.662  11898.700  0.500  1.111409  62.1283  20.4461  13.1831
  11900.653  11900.700  0.500  1.113419  62.0313  20.3732  13.1286
  11902.669  11902.700  0.500  1.116030  61.4336  20.1243  12.9594
  11904.667  11904.700  0.500  1.119345  62.0093  20.2456  13.0217
  11906.659  11906.700  0.500  1.124074  62.0426  20.1609  12.9509
  11908.665  11908.700  0.500  1.130454  62.0169  20.0244  12.8388
  11908.949  11909.000  0.500  1.131563  62.0092  19.9997  12.8159
  11909.245  11909.300  0.500  1.132944  62.01  19.9724  12.7961
  11909.541  11909.600  0.500  1.134219  62.0089  19.9466  12.7749
  11909.850  11909.900  0.500  1.135728  62.0051  19.9153  12.749
  11910.153  11910.200  0.500  1.137193  62.0012  19.8849  12.7264
  11910.455  11910.500  0.500  1.138772  61.9993  19.8529  12.6975
  11910.770  11910.800  0.500  1.140570  61.988  19.8136  12.6665
  11911.054  11911.100  0.500  1.142223  61.9937  19.7828  12.6405
  11911.369  11911.400  0.500  1.144110  61.9809  19.7414  12.608
  11911.678  11911.700  0.500  1.146113  61.9763  19.7004  12.5754
  11911.962  11912.000  0.500  1.148191  61.9711  19.6579  12.5375
  11912.270  11912.300  0.500  1.150619  61.9717  19.6104  12.5017
  11912.585  11912.600  0.500  1.152886  61.961  19.5626  12.4603
  11912.876  11912.900  0.500  1.155498  61.9468  19.5071  12.4163
  11913.166  11913.200  0.500  1.158275  61.9427  19.4517  12.3742
  11913.469  11913.500  0.500  1.161283  61.9411  19.3928  12.3241
  11913.765  11913.800  0.500  1.164593  61.9295  19.3251  12.2725
  11914.068  11914.100  0.500  1.168118  61.9334  19.2583  12.2173
  11914.371  11914.400  0.500  1.171997  61.9192  19.1793  12.1561
  11914.661  11914.700  0.500  1.175920  61.9203  19.1046  12.0932
  11914.970  11915.000  0.500  1.180506  61.8985  19.0105  12.0174
  11915.267  11915.300  0.500  1.185456  61.8878  18.9133  11.9403
  11915.563  11915.600  0.500  1.190828  61.8564  18.8025  11.8545
  11915.878  11915.900  0.500  1.197169  61.8055  18.6682  11.749
  11916.169  11916.200  0.500  1.203236  61.7257  18.5314  11.6426
  11916.484  11916.500  0.500  1.210891  61.5846  18.348  11.5051
  11916.774  11916.800  0.500  1.218600  61.4555  18.1689  11.37
  11917.077  11917.100  0.500  1.227296  61.3294  17.9747  11.2224
  11917.392  11917.400  0.500  1.237282  61.2386  17.7697  11.0633
  11917.677  11917.700  0.500  1.247428  61.2064  17.5811  10.9155
  11917.992  11918.000  0.500  1.259873  61.2557  17.3776  10.7514
  11918.283  11918.300  0.500  1.272792  61.3351  17.1768  10.5925
  11918.598  11918.600  0.500  1.287551  61.4335  16.9523  10.4119
  11918.889  11918.900  0.500  1.303872  61.543  16.7076  10.2185
  11919.198  11919.200  0.500  1.322019  61.6489  16.4354  10.0016
  11919.494  11919.500  0.500  1.342692  61.7417  16.1233  9.760566
  11919.791  11919.800  0.500  1.364882  61.7827  15.78  9.495065
  11920.107  11920.100  0.500  1.391038  61.8232  15.3827  9.193544
  11920.391  11920.400  0.500  1.417915  61.8227  14.9746  8.886699
  11920.700  11920.700  0.500  1.449428  61.8299  14.5118  8.542197
  11920.991  11921.000  0.500  1.480347  61.8382  14.0718  8.216725
  11921.307  11921.300  0.500  1.516311  61.827  13.5723  7.849024
  11921.591  11921.600  0.500  1.549990  61.83  13.1234  7.519451
  11921.894  11921.900  0.500  1.585433  61.8175  12.6639  7.186425
  11922.179  11922.200  0.500  1.618034  61.821  12.2584  6.893794
  11922.488  11922.500  0.500  1.649821  61.8218  11.875  6.611839
  11922.785  11922.800  0.500  1.675101  61.8199  11.5782  6.392416
  11923.088  11923.100  0.500  1.697288  61.8196  11.3241  6.198154
  11923.379  11923.400  0.500  1.712427  61.8019  11.1508  6.059785
  11923.701  11923.700  0.500  1.722537  61.7987  11.038  5.958548
  11923.985  11924.000  0.500  1.727264  61.7922  10.9848  5.898435
  11924.282  11924.300  0.500  1.727842  61.7895  10.978  5.866185
  11924.592  11924.600  0.500  1.725721  61.7854  11.0006  5.854200
  11924.901  11924.900  0.500  1.721827  61.7805  11.0426  5.855767
  11925.198  11925.200  0.500  1.717413  61.7819  11.0917  5.867937
  11925.502  11925.500  0.500  1.712993  61.7848  11.1414  5.880563
  11925.805  11925.800  0.500  1.708926  61.7705  11.1842  5.893783
  11926.102  11926.100  0.500  1.705887  61.7669  11.2176  5.904639
  11926.405  11926.400  0.500  1.703700  61.7767  11.2439  5.911880
  11926.703  11926.700  0.500  1.702973  61.7563  11.2484  5.911132
  11927.006  11927.000  0.500  1.702891  61.7502  11.2482  5.911352
  11927.291  11927.300  0.500  1.703548  61.7398  11.2389  5.906466
  11927.600  11927.600  0.500  1.704682  61.7416  11.2265  5.898699
  11927.885  11927.900  0.500  1.706235  61.7375  11.2083  5.890429
  11928.195  11928.200  0.500  1.708043  61.7359  11.1878  5.880867
  11928.486  11928.500  0.500  1.709635  61.7325  11.1694  5.869924
  11928.789  11928.800  0.500  1.711532  61.7347  11.1486  5.859168
  11929.080  11929.100  0.500  1.713270  61.7146  11.1256  5.844932
  11929.396  11929.400  0.500  1.714854  61.7229  11.1095  5.833090
  11929.687  11929.700  0.500  1.716589  61.7132  11.0885  5.820535
  11929.985  11930.000  0.500  1.718118  61.7029  11.0697  5.805842
  11930.288  11930.300  0.500  1.719825  61.7099  11.0521  5.790694
  11930.598  11930.600  0.500  1.721971  61.6969  11.0261  5.771823
  11930.902  11930.900  0.500  1.724175  61.683  10.9993  5.751023
  11931.199  11931.200  0.500  1.726694  61.6817  10.9714  5.729598
  11931.503  11931.500  0.500  1.729524  61.6788  10.9399  5.705524
  11931.800  11931.800  0.500  1.732714  61.6749  10.9044  5.677614
  11932.104  11932.100  0.500  1.735904  61.6619  10.8673  5.649974
  11932.389  11932.400  0.500  1.739036  61.6667  10.8342  5.623371
  11932.711  11932.700  0.500  1.742653  61.6509  10.7923  5.594880
  11933.002  11933.000  0.500  1.745821  61.633  10.7551  5.566139
  11933.312  11933.300  0.500  1.748994  61.6151  10.7179  5.536431
  11933.597  11933.600  0.500  1.751921  61.5914  10.6824  5.510837
  11933.913  11933.900  0.500  1.754605  61.525  10.6423  5.481939
  11934.199  11934.200  0.500  1.756797  61.3961  10.5968  5.451917
  11934.496  11934.500  0.500  1.759173  61.2446  10.5455  5.420580
  11934.775  11934.800  0.500  1.761037  61.0939  10.5  5.391112
  11935.097  11935.100  0.500  1.762526  60.9792  10.4647  5.366783
  11935.383  11935.400  0.500  1.763778  60.9342  10.4439  5.351982
  11935.686  11935.700  0.500  1.764675  60.9426  10.436  5.345289
  11935.984  11936.000  0.500  1.764932  61.0031  10.4436  5.344731
  11936.300  11936.300  0.500  1.765007  61.0958  10.4587  5.350118
  11936.586  11936.600  0.500  1.764908  61.1981  10.4773  5.358219
  11936.908  11936.900  0.500  1.764395  61.3286  10.505  5.370156
  11937.193  11937.200  0.500  1.763475  61.4338  10.5327  5.383461
  11937.510  11937.500  0.500  1.762311  61.486  10.5539  5.392681
  11937.795  11937.800  0.500  1.761160  61.518  10.5716  5.399832
  11938.111  11938.100  0.500  1.759666  61.5296  10.5894  5.408492
  11938.397  11938.400  0.500  1.758231  61.5251  10.6038  5.413421
  11938.713  11938.700  0.500  1.756769  61.5381  10.6216  5.421102
  11938.998  11939.000  0.500  1.755452  61.5342  10.6349  5.426033
  11939.309  11939.300  0.500  1.754090  61.5417  10.6507  5.432456
  11939.606  11939.600  0.500  1.753022  61.5313  10.6603  5.432908
  11939.917  11939.900  0.500  1.752202  61.5324  10.6692  5.434806
  11940.202  11940.200  0.500  1.751285  61.5334  10.6792  5.436872
  11940.506  11940.500  0.500  1.750701  61.5306  10.6849  5.436402
  11940.792  11940.800  0.500  1.750401  61.5184  10.686  5.434049
  11941.108  11941.100  0.500  1.750068  61.5094  10.688  5.432033
  11941.387  11941.400  0.500  1.750039  61.6578  10.7141  5.441137
  11941.698  11941.700  0.500  1.750184  61.6947  10.719  5.441754
  11941.990  11942.000  0.500  1.750392  61.6751  10.7133  5.436788
  11942.300  11942.300  0.500  1.751149  61.674  10.705  5.429710
  11942.592  11942.600  0.500  1.751914  61.6739  10.6968  5.421943
  11942.896  11942.900  0.500  1.752949  61.6723  10.6855  5.412365
  11943.188  11943.200  0.500  1.754139  61.6652  10.6715  5.400196
  11943.498  11943.500  0.500  1.755762  61.6644  10.6541  5.386352
  11943.703  11943.700  0.500  1.757052  61.6594  10.6395  5.373681
  11944.709  11944.690  0.500  1.765368  61.6409  10.5482  5.296394
  11945.696  11945.690  0.500  1.776268  61.6268  10.4315  5.194067
  11946.721  11946.710  0.500  1.789303  61.6143  10.2943  5.075340
  11947.753  11947.760  0.500  1.801369  61.601  10.1686  4.975741
  11948.821  11948.820  0.500  1.811153  61.5838  10.0668  4.911374
  11949.903  11949.900  0.500  1.817070  61.5726  10.0056  4.890287
  11951.028  11951.000  0.500  1.820316  61.5584  9.970896  4.900347
  11952.141  11952.120  0.500  1.821539  61.5363  9.955126  4.924400
  11953.279  11953.260  0.500  1.822782  61.5214  9.940358  4.945199
  11954.404  11954.410  0.500  1.824711  61.5138  9.919971  4.951875
  11955.593  11955.590  0.500  1.827539  61.4977  9.889375  4.942974
  11956.787  11956.780  0.500  1.830303  61.4745  9.858350  4.931587
  11958.020  11958.000  0.500  1.832259  61.4635  9.837329  4.927157
  11959.246  11959.230  0.500  1.834076  61.4337  9.814716  4.923898
  11960.497  11960.480  0.500  1.836396  61.4213  9.789996  4.918910
  11961.749  11961.750  0.500  1.839521  61.4014  9.756286  4.897644
  11963.051  11963.040  0.500  1.843674  61.3822  9.712818  4.865781
  11964.353  11964.350  0.500  1.848958  61.3672  9.659265  4.821824
  11965.699  11965.680  0.500  1.854663  61.3521  9.601947  4.769914
  11967.033  11967.030  0.500  1.860226  61.3233  9.544204  4.720739
  11968.404  11968.400  0.500  1.865064  61.3065  9.495539  4.676318
  11969.782  11969.780  0.500  1.868519  61.2837  9.459267  4.641406
  11971.211  11971.190  0.500  1.870196  61.2678  9.440971  4.622825
  11972.577  11972.610  0.500  1.869052  61.2502  9.449052  4.626358
  11974.031  11974.050  0.500  1.865166  61.2312  9.482903  4.650690
  11975.491  11975.510  0.500  1.859720  61.2036  9.530393  4.687646
  11976.965  11976.990  0.500  1.853443  61.1891  9.588133  4.730377
  11978.482  11978.490  0.500  1.846452  61.1594  9.650702  4.771852
  11979.994  11980.010  0.500  1.839631  61.1355  9.712973  4.813683
  11981.606  11981.550  0.500  1.832643  61.1136  9.777572  4.854829
  11983.056  11983.110  0.500  1.826552  61.0873  9.833071  4.890261
  11984.694  11984.680  0.500  1.820215  61.0572  9.890716  4.925461
  11986.238  11986.280  0.500  1.814756  61.0418  9.942344  4.956580
  11987.877  11987.890  0.500  1.809166  61.0129  9.993346  4.989821
  11989.529  11989.530  0.500  1.804251  60.9891  10.0387  5.026045
  11991.168  11991.180  0.500  1.799950  60.9664  10.0782  5.055690
  11992.827  11992.850  0.500  1.796884  60.9388  10.1046  5.076609
  11994.512  11994.540  0.500  1.795407  60.9145  10.1155  5.085752
  11996.215  11996.250  0.500  1.795040  60.8993  10.1166  5.086165
  11997.988  11997.980  0.500  1.795041  60.8633  10.1106  5.081095
  11999.724  11999.730  0.500  1.795875  60.8416  10.0986  5.069567
  12001.480  12001.490  0.500  1.797212  60.8225  10.082  5.053839
  12003.267  12003.280  0.500  1.799135  60.8037  10.0595  5.031798
  12005.061  12005.080  0.500  1.801442  60.785  10.0332  5.007987
  12006.893  12006.910  0.500  1.803339  60.7554  10.0093  4.985450
  12008.739  12008.750  0.500  1.805015  60.7252  9.987589  4.965284
  12010.603  12010.610  0.500  1.806413  60.7056  9.970424  4.954425
  12012.488  12012.490  0.500  1.807346  60.6806  9.957021  4.950022
  12014.385  12014.390  0.500  1.808254  60.6533  9.943515  4.948390
  12016.296  12016.310  0.500  1.809388  60.6341  9.929098  4.947087
  12018.238  12018.250  0.500  1.810845  60.6046  9.909809  4.942266
  12020.200  12020.210  0.500  1.812961  60.5797  9.884812  4.936893
  12022.176  12022.180  0.500  1.815483  60.5521  9.855422  4.927853
  12024.177  12024.180  0.500  1.818050  60.5316  9.826819  4.914887
  12026.191  12026.190  0.500  1.820501  60.5038  9.798272  4.903057
  12028.213  12028.220  0.500  1.822404  60.4726  9.774586  4.891529
  12030.254  12030.280  0.500  1.823332  60.4431  9.760766  4.884811
  12032.346  12032.350  0.500  1.822807  60.4145  9.761275  4.885297
  12034.439  12034.440  0.500  1.820879  60.3938  9.776757  4.896823
  12036.558  12036.550  0.500  1.817112  60.3578  9.807798  4.914851
  12038.690  12038.680  0.500  1.812213  60.3249  9.850597  4.942875
  12040.816  12040.820  0.500  1.806381  60.2943  9.903194  4.975726
  12042.988  12042.990  0.500  1.800324  60.2555  9.956935  5.009080
  12045.173  12045.180  0.500  1.794369  60.1866  10.005  5.039896
  12047.384  12047.380  0.500  1.789382  59.0309  9.861895  4.973796
  12049.603  12049.600  0.500  1.785263  59.2192  9.934196  5.013633
  12051.860  12051.850  0.500  1.781623  60.0538  10.1109  5.104869
  12054.105  12054.110  0.500  1.779302  60.0735  10.1378  5.116070
  12056.383  12056.390  0.500  1.777837  60.0544  10.1494  5.120642
  12058.693  12058.690  0.500  1.777139  60.0302  10.1524  5.118361
  12061.023  12061.010  0.500  1.776368  60.0021  10.1555  5.115989
  12063.361  12063.350  0.500  1.776332  59.9677  10.15  5.110744
  12065.693  12065.700  0.500  1.776099  59.9376  10.1473  5.106993
  12068.070  12068.080  0.500  1.776400  59.9021  10.1382  5.101962
  12070.473  12070.470  0.500  1.776715  59.8795  10.1312  5.095517
  12072.910  12072.890  0.500  1.776966  59.8431  10.1225  5.091006
  12075.334  12075.320  0.500  1.777376  59.8094  10.1127  5.084288
  12077.760  12077.770  0.500  1.777818  59.7733  10.1021  5.080804
  12080.225  12080.250  0.500  1.778669  59.7406  10.088  5.074805
  12082.741  12082.740  0.500  1.779291  59.7054  10.0757  5.070137
  12085.246  12085.250  0.500  1.780472  59.675  10.0587  5.063506
  12087.759  12087.770  0.500  1.781629  59.6403  10.0413  5.053703
  12090.317  12090.320  0.500  1.782937  59.5949  10.0205  5.043811
  12092.895  12092.890  0.500  1.784400  59.3959  9.972441  5.018195
  12095.480  12095.470  0.500  1.785304  59.5447  9.988383  5.027838
  12098.093  12098.080  0.500  1.786047  59.5137  9.975772  5.022817
  12100.706  12100.700  0.500  1.785612  59.4745  9.973544  5.026704
  12103.365  12103.350  0.500  1.784666  59.4405  9.977277  5.037690
  12106.013  12106.010  0.500  1.782813  59.4094  9.990540  5.051418
  12108.681  12108.690  0.500  1.780396  59.3704  10.0082  5.066991
  12111.388  12111.390  0.500  1.777777  59.3395  10.0292  5.082692
  12114.123  12114.110  0.500  1.775205  59.3028  10.0488  5.098270
  12116.858  12116.850  0.500  1.772348  59.2611  10.0704  5.111312
  12119.608  12119.600  0.500  1.769664  59.2276  10.0918  5.124014
  12122.403  12122.380  0.500  1.766873  59.1828  10.1124  5.136118
  12125.194  12125.170  0.500  1.764529  59.1451  10.1296  5.145729
  12127.992  12127.990  0.500  1.762347  59.0791  10.1404  5.151796
  12130.830  12130.820  0.500  1.760293  59.0066  10.1488  5.154598
  12133.682  12133.670  0.500  1.758647  59.0556  10.174  5.164526
  12136.549  12136.550  0.500  1.757333  59.0102  10.1795  5.165987
  12139.448  12139.440  0.500  1.756306  58.9685  10.1828  5.164118
  12142.382  12142.350  0.500  1.755331  58.9268  10.1855  5.160975
  12145.291  12145.270  0.500  1.754503  58.8821  10.1862  5.157551
  12148.214  12148.220  0.500  1.753570  58.8383  10.1881  5.156274
  12151.209  12151.190  0.500  1.752710  58.8002  10.1903  5.156522
  12154.193  12154.170  0.500  1.751582  58.759  10.1946  5.160018
  12157.192  12157.180  0.500  1.750331  58.7183  10.2003  5.166661
  12160.205  12160.200  0.500  1.749010  58.6606  10.2038  5.171394
  12163.271  12163.250  0.500  1.747594  58.4257  10.1773  5.165784
  12166.319  12166.310  0.500  1.746396  58.6034  10.2205  5.194515
  12169.394  12169.390  0.500  1.745146  58.5592  10.2256  5.207288
  12172.516  12172.490  0.500  1.744051  58.5133  10.2288  5.215916
  12175.608  12175.610  0.500  1.743116  58.467  10.2302  5.222247
  12178.766  12178.750  0.500  1.742709  58.4251  10.2271  5.226269
  12181.919  12181.900  0.500  1.742567  58.3824  10.221  5.226348
  12185.112  12185.080  0.500  1.742341  58.3385  10.2157  5.223033
  12188.262  12188.270  0.500  1.741946  58.2921  10.2116  5.220651
  12191.517  12191.490  0.500  1.741345  58.2457  10.2096  5.219838
  12194.741  12194.720  0.500  1.740178  58.1991  10.2133  5.222718
  12197.974  12197.970  0.500  1.739029  58.1505  10.2165  5.230519
  12201.286  12201.250  0.500  1.737004  57.896  10.1924  5.219397
  12204.567  12204.540  0.500  1.735477  58.0746  10.2395  5.244162
  12207.851  12207.850  0.500  1.734127  58.0353  10.2464  5.248813
  12211.194  12211.170  0.500  1.732670  57.9978  10.2547  5.250974
  12214.533  12214.520  0.500  1.730858  57.9457  10.2641  5.252933
  12217.887  12217.890  0.500  1.729504  57.909  10.2715  5.256698
  12221.295  12221.270  0.500  1.727672  57.8666  10.2827  5.259972
  12224.698  12224.680  0.500  1.725835  57.8227  10.2939  5.265940
  12228.109  12228.100  0.500  1.723731  57.776  10.3072  5.273681
  12231.568  12231.550  0.500  1.721557  57.7211  10.3198  5.283937
  12235.016  12235.010  0.500  1.718818  56.565  10.1408  5.196946
  12238.479  12238.490  0.500  1.716589  57.4874  10.3292  5.300681
  12242.003  12241.990  0.500  1.713877  57.5487  10.3683  5.326925
  12245.522  12245.510  0.500  1.711326  57.5148  10.3887  5.345010
  12249.070  12249.050  0.500  1.709159  57.4735  10.4037  5.358126
  12252.619  12252.600  0.500  1.707075  57.4249  10.4166  5.367612
  12256.191  12256.180  0.500  1.705421  57.2499  10.4021  5.363702
  12259.797  12259.780  0.500  1.704146  57.3292  10.4298  5.380341
  12263.392  12263.390  0.500  1.702827  56.8161  10.3501  5.342076
  12267.022  12267.020  0.500  1.701854  56.9696  10.3881  5.362604
  12270.700  12270.680  0.500  1.700807  57.0279  10.4097  5.375687
  12274.354  12274.350  0.500  1.699893  57.1373  10.4392  5.394355
  12278.063  12278.040  0.500  1.698820  57.0869  10.4412  5.396921
  12281.761  12281.750  0.500  1.697817  57.0296  10.4411  5.399307
  12285.481  12285.480  0.500  1.696910  56.9175  10.4301  5.396070
  12289.230  12289.220  0.500  1.696129  56.6985  10.3981  5.380469
  12292.994  12292.990  0.500  1.695332  56.4239  10.3559  5.357301
  12296.793  12296.780  0.500  1.694443  56.7864  10.4317  5.398136
  12300.602  12300.580  0.500  1.693360  56.7399  10.4345  5.400991
  12304.419  12304.410  0.500  1.691875  56.9004  10.4796  5.424954
  12308.285  12308.250  0.500  1.690402  56.8473  10.4852  5.429689
  12312.107  12312.110  0.500  1.688797  56.7952  10.4924  5.436467
  12316.011  12315.990  0.500  1.687057  56.7397  10.5004  5.441252
  12319.904  12319.890  0.500  1.684774  56.2733  10.4379  5.411608
  12323.819  12323.810  0.500  1.682807  56.4161  10.485  5.441550
  12327.790  12327.750  0.500  1.680484  56.5501  10.5344  5.473206
  12331.704  12331.710  0.500  1.677956  56.5165  10.5548  5.488634
  12335.700  12335.680  0.500  1.675427  56.4688  10.5726  5.504444
  12339.692  12339.680  0.500  1.673033  56.4199  10.5887  5.517648
  12343.707  12343.690  0.500  1.670685  56.3663  10.6035  5.529531
  12347.764  12347.730  0.500  1.668522  56.3052  10.615  5.538501
  12351.790  12351.780  0.500  1.666671  56.2566  10.6255  5.546912
  12355.866  12355.850  0.500  1.664646  56.2022  10.6367  5.554580
  12359.958  12359.940  0.500  1.663017  56.1648  10.6469  5.562104
  12364.079  12364.050  0.500  1.661228  56.0322  10.6408  5.560757
  12368.203  12368.180  0.500  1.659435  56.0556  10.6644  5.574541
  12372.343  12372.330  0.500  1.657765  55.9611  10.6642  5.574906
  12376.519  12376.490  0.500  1.656255  55.9488  10.678  5.583963
  12380.691  12380.680  0.500  1.654840  55.879  10.6797  5.586382
  12384.907  12384.880  0.500  1.653162  55.457  10.6169  5.556963
  12389.138  12389.110  0.500  1.651760  55.7954  10.6967  5.602201
  12393.393  12393.350  0.500  1.650261  55.7375  10.7016  5.608298
  12397.644  12397.610  0.500  1.648684  55.6774  10.7069  5.612187
  12401.911  12401.890  0.500  1.647014  55.6271  10.7151  5.618561
  12406.222  12406.190  0.500  1.645369  55.5654  10.7209  5.626160
  12410.535  12410.510  0.500  1.643807  55.4856  10.7222  5.630889
  12414.885  12414.850  0.500  1.642034  55.4477  10.7339  5.640418
  12419.238  12419.210  0.500  1.640204  55.3893  10.7422  5.649828
  12423.608  12423.590  0.500  1.638313  55.3145  10.748  5.657785
  12428.015  12427.980  0.500  1.636291  55.2711  10.7613  5.667300
  12432.445  12432.400  0.500  1.634418  55.205  10.7686  5.676998
  12436.857  12436.830  0.500  1.632333  54.7797  10.708  5.648234
  12441.321  12441.280  0.500  1.630229  55.1249  10.7981  5.699673
  12445.774  12445.750  0.500  1.628240  55.0559  10.8061  5.709379
  12450.270  12450.240  0.500  1.625909  54.9897  10.8183  5.718649
  12454.784  12454.750  0.500  1.624007  54.8757  10.8164  5.720783
  12459.301  12459.280  0.500  1.621902  54.8779  10.8396  5.735895
  12463.868  12463.830  0.500  1.619841  54.8197  10.8505  5.745039
  12468.419  12468.400  0.500  1.617852  54.7248  10.8533  5.749819
  12473.034  12472.980  0.500  1.615631  54.6985  10.8722  5.759373
  12477.626  12477.590  0.500  1.613563  54.6325  10.8815  5.768057
  12482.234  12482.210  0.500  1.611473  54.5583  10.8895  5.775828
  12486.900  12486.860  0.500  1.609478  54.2423  10.848  5.755407
  12491.536  12491.520  0.500  1.607398  54.4733  10.9169  5.796286
  12496.257  12496.200  0.500  1.605370  54.4115  10.9267  5.803167
  12500.927  12500.900  0.500  1.603341  54.3467  10.9358  5.811183
  12505.662  12505.620  0.500  1.601156  54.2836  10.947  5.821581
  12510.421  12510.360  0.500  1.599060  54.2158  10.9563  5.829357
  12515.156  12515.110  0.500  1.597032  54.1556  10.9663  5.840157
  12519.943  12519.890  0.500  1.594940  54.0905  10.9761  5.848271
  12524.733  12524.690  0.500  1.592910  54.0289  10.9859  5.858428
  12529.534  12529.500  0.500  1.590842  53.97  10.9966  5.869069
  12534.380  12534.330  0.500  1.588898  53.904  11.0045  5.877184
  12539.230  12539.190  0.500  1.586922  53.7853  11.002  5.879947
  12544.104  12544.060  0.500  1.584859  53.7966  11.027  5.898350
  12548.982  12548.950  0.500  1.582862  53.7292  11.0352  5.906733
  12553.918  12553.860  0.500  1.580839  53.6674  11.0449  5.915267
  12558.824  12558.790  0.500  1.578852  53.5989  11.0527  5.924614
  12563.769  12563.730  0.500  1.576777  53.54  11.0635  5.933971
  12568.745  12568.700  0.500  1.574661  53.4699  11.0724  5.943453
  12573.718  12573.690  0.500  1.572698  53.4092  11.0816  5.951925
  12578.730  12578.690  0.500  1.570796  53.3377  11.0878  5.957903
  12583.752  12583.720  0.500  1.568613  53.2805  11.1001  5.966109
  12588.799  12588.760  0.500  1.566491  53.2136  11.1098  5.976036
  12593.851  12593.820  0.500  1.564457  53.1523  11.1195  5.982392
  12598.948  12598.900  0.500  1.562294  53.0848  11.1295  5.991962
  12604.049  12604.000  0.500  1.560146  53.0179  11.1394  6.001163
  12609.161  12609.120  0.500  1.558060  52.951  11.1485  6.009618
  12614.299  12614.260  0.500  1.555776  52.8882  11.1608  6.019418
  12619.468  12619.420  0.500  1.553230  52.8192  11.1746  6.030596
  12624.656  12624.600  0.500  1.550839  52.7427  11.1851  6.041322
  12629.834  12629.790  0.500  1.548568  52.6641  11.1939  6.049366
  12635.037  12635.010  0.500  1.546215  52.5555  11.1971  6.057637
  12640.286  12640.240  0.500  1.543842  52.5569  11.224  6.075782
  12645.533  12645.490  0.500  1.541557  52.4982  11.2371  6.087771
  12650.798  12650.760  0.500  1.539077  52.4264  11.2496  6.099305
  12656.081  12656.050  0.500  1.536698  52.3644  11.2631  6.108310
  12661.397  12661.360  0.500  1.534611  52.3002  11.2727  6.120767
  12666.745  12666.690  0.500  1.532384  52.2324  11.2832  6.130531
  12672.070  12672.040  0.500  1.530227  52.1664  11.2933  6.140236
  12677.470  12677.410  0.500  1.527915  52.0948  11.3039  6.150288
  12682.825  12682.790  0.500  1.525694  52.0221  11.3133  6.159070
  12688.255  12688.200  0.500  1.523622  51.9576  11.3227  6.168801
  12693.654  12693.620  0.500  1.521462  51.8835  11.331  6.177143
  12699.115  12699.070  0.500  1.519389  51.8172  11.34  6.187681
  12704.573  12704.530  0.500  1.517126  51.7513  11.3512  6.197761
  12710.057  12710.010  0.500  1.514896  51.6787  11.3606  6.205743
  12715.553  12715.510  0.500  1.512878  51.6129  11.369  6.214064
  12721.061  12721.030  0.500  1.510518  51.5378  11.3793  6.224291
  12726.615  12726.570  0.500  1.508393  51.4662  11.3877  6.232868
  12732.154  12732.120  0.500  1.506038  51.3827  11.396  6.240439
  12737.740  12737.700  0.500  1.503757  50.694  11.269  6.176249
  12743.338  12743.300  0.500  1.501337  51.2678  11.4241  6.264002
  12748.962  12748.910  0.500  1.499137  51.1984  11.4338  6.275007
  12754.599  12754.550  0.500  1.496942  51.1276  11.443  6.285472
  12760.254  12760.200  0.500  1.494552  51.0566  11.4545  6.296367
  12765.915  12765.870  0.500  1.491849  50.9761  11.4674  6.306910
  12771.602  12771.560  0.500  1.489421  50.9094  11.4802  6.318404