File: xdidata/Au/Au-L3-La4LiAuO8.xdi
# XDI/1.0 BlueSky/1.10.0 BMM/2023-1.0-py310-tiled
# Beamline.name: BMM (06BM) -- Beamline for Materials Measurement (NIST)
# Beamline.xray_source: NSLS-II three-pole wiggler
# Beamline.collimation: paraboloid mirror, 5 nm Rh on 30 nm Pt
# Beamline.focusing: not in use
# Beamline.harmonic_rejection: flat mirror, Pt stripe, pitch = 7.0 mrad relative to beam
# Beamline.software: Bluesky 1.10.0, Ophyd 1.7.0, DataBroker 2.0.0b13, Python 3.10.8, 2023-1.0-py310-tiled
# Detector.I0: 10 cm N2
# Detector.I1: 25 cm N2
# Detector.I2: 25 cm N2
# Element.symbol: Au
# Element.edge: L3
# Element.reference: Au
# Element.reference_material: Au foil
# Facility.name: NSLS-II
# Facility.energy: 3.0
# Facility.current: 399.6
# Facility.mode: top-off
# Facility.GUP: 301027
# Facility.SAF: 310583
# Facility.cycle: 2023-2
# Mono.name: Si(111)
# Mono.d_spacing: 3.13519
# Mono.encoder_resolution: 0.0000050 deg/ct
# Mono.angle_offset: 16.0754 deg
# Mono.scan_mode: pseudo channel cut
# Mono.scan_type: step
# Mono.direction: forward in energy
# Sample.name: La4LiAuO8
# Sample.prep: powder on tape
# Sample.x: 145.711 mm
# Sample.y: 114.376 mm
# Sample.SDD_position: 205.000 mm
# Scan.experimenters: Bruce Ravel
# Scan.edge_energy: 11918.7
# Scan.start_time: 2023-06-27T18:15:36
# Scan.end_time: 2023-06-27T18:23:23
# Scan.transient_id: 85217
# Scan.uid: f5d821ce-a7ba-4166-845f-8c5996ea4c0d
# Scan.plot_hint: ln(I0/It)  --  ln($5/$6)
# Column.1: energy eV
# Column.2: requested_energy eV
# Column.3: measurement_time seconds
# Column.4: xmu
# Column.5: I0 nA
# Column.6: It nA
# Column.7: Ir nA
# ///////////
# sample courtesy Martin Stennett, University of Sheffield, see DOI: 10.1021/ic100486g
# -----------
# energy  requested_energy  measurement_time  xmu  I0  It  Ir
  11718.702  11718.700  0.500  1.224874  64.5281  18.958  12.0584
  11728.741  11728.700  0.500  1.221300  64.3925  18.9859  12.0908
  11738.738  11738.700  0.500  1.217544  64.2406  19.0124  12.119
  11748.728  11748.700  0.500  1.213798  64.0446  19.0255  12.1421
  11758.735  11758.700  0.500  1.210198  63.7907  19.0184  12.1501
  11768.741  11768.700  0.500  1.206542  63.8603  19.1089  12.2215
  11778.801  11778.700  0.500  1.202958  63.5516  19.0848  12.2192
  11788.733  11788.700  0.500  1.199441  63.5932  19.1646  12.2831
  11798.755  11798.700  0.500  1.195839  63.4531  19.1914  12.3153
  11808.751  11808.700  0.500  1.192127  63.2932  19.2142  12.3405
  11818.789  11818.700  0.500  1.188758  63.1596  19.2384  12.3683
  11828.693  11828.700  0.500  1.185200  63.0117  19.2617  12.3958
  11838.710  11838.700  0.500  1.181867  62.91  19.2948  12.4311
  11848.727  11848.700  0.500  1.178407  62.6022  19.267  12.4216
  11858.724  11858.700  0.500  1.175003  62.5548  19.3181  12.4642
  11868.732  11868.700  0.500  1.171854  62.5285  19.3708  12.5071
  11878.739  11878.700  0.500  1.168990  62.3879  19.3827  12.5174
  11888.720  11888.700  0.500  1.166649  62.2125  19.3735  12.5112
  11890.676  11890.700  0.500  1.166268  62.2001  19.377  12.5113
  11892.670  11892.700  0.500  1.165780  62.1687  19.3767  12.5066
  11894.671  11894.700  0.500  1.165526  62.1411  19.373  12.5004
  11896.660  11896.700  0.500  1.165565  62.1137  19.3637  12.4918
  11898.675  11898.700  0.500  1.165456  62.0659  19.3509  12.4768
  11900.671  11900.700  0.500  1.165645  61.9677  19.3167  12.4476
  11902.669  11902.700  0.500  1.165957  61.3812  19.1279  12.3151
  11904.673  11904.700  0.500  1.166615  61.9631  19.2965  12.4114
  11906.678  11906.700  0.500  1.167509  61.9877  19.2869  12.389
  11908.671  11908.700  0.500  1.169271  61.971  19.2478  12.3398
  11908.955  11909.000  0.500  1.169467  61.9631  19.2416  12.3301
  11909.245  11909.300  0.500  1.170002  61.9547  19.2287  12.3195
  11909.541  11909.600  0.500  1.170182  61.9474  19.2229  12.3101
  11909.844  11909.900  0.500  1.170705  61.9444  19.212  12.298
  11910.146  11910.200  0.500  1.171068  61.9404  19.2037  12.2871
  11910.449  11910.500  0.500  1.171660  61.9511  19.1957  12.2775
  11910.745  11910.800  0.500  1.172017  61.9436  19.1865  12.2638
  11911.054  11911.100  0.500  1.172562  62.063  19.213  12.274
  11911.344  11911.400  0.500  1.173301  62.1052  19.2119  12.2687
  11911.665  11911.700  0.500  1.173708  62.0946  19.2008  12.2537
  11911.956  11912.000  0.500  1.174585  62.0857  19.1812  12.2364
  11912.258  11912.300  0.500  1.175165  62.0799  19.1683  12.2189
  11912.573  11912.600  0.500  1.175858  62.0891  19.1578  12.2014
  11912.857  11912.900  0.500  1.176694  62.0701  19.136  12.1807
  11913.172  11913.200  0.500  1.177603  62.0786  19.1212  12.1624
  11913.481  11913.500  0.500  1.178591  62.0669  19.0987  12.1351
  11913.778  11913.800  0.500  1.179668  62.0542  19.0743  12.1104
  11914.080  11914.100  0.500  1.180861  62.0478  19.0496  12.0823
  11914.383  11914.400  0.500  1.182062  62.0446  19.0257  12.0543
  11914.698  11914.700  0.500  1.183525  62.0311  18.9938  12.0204
  11914.982  11915.000  0.500  1.185037  62.0193  18.9615  11.9854
  11915.285  11915.300  0.500  1.186600  62.0055  18.9276  11.9453
  11915.588  11915.600  0.500  1.188445  61.9741  18.8832  11.9008
  11915.884  11915.900  0.500  1.190518  61.9274  18.8299  11.8463
  11916.193  11916.200  0.500  1.192681  61.8286  18.7592  11.78
  11916.484  11916.500  0.500  1.195092  61.7052  18.6767  11.7055
  11916.793  11916.800  0.500  1.197797  61.567  18.5845  11.6214
  11917.077  11917.100  0.500  1.200606  61.4429  18.495  11.5387
  11917.386  11917.400  0.500  1.203962  61.3441  18.4034  11.4495
  11917.677  11917.700  0.500  1.207627  61.3268  18.3309  11.3725
  11917.980  11918.000  0.500  1.211908  61.3762  18.2673  11.296
  11918.270  11918.300  0.500  1.216130  61.4538  18.2134  11.2272
  11918.592  11918.600  0.500  1.221379  61.5572  18.1485  11.1409
  11918.882  11918.900  0.500  1.226928  61.6582  18.0777  11.0491
  11919.179  11919.200  0.500  1.233604  61.7877  17.9951  10.9425
  11919.482  11919.500  0.500  1.240768  61.8658  17.8892  10.8175
  11919.785  11919.800  0.500  1.248909  61.9136  17.7579  10.6694
  11920.100  11920.100  0.500  1.258162  61.934  17.6001  10.5057
  11920.391  11920.400  0.500  1.268414  61.9463  17.4241  10.3223
  11920.713  11920.700  0.500  1.280456  61.9546  17.2178  10.1128
  11920.997  11921.000  0.500  1.292675  61.9505  17.0076  9.903842
  11921.300  11921.300  0.500  1.306445  61.9477  16.7743  9.674585
  11921.591  11921.600  0.500  1.320184  61.9536  16.547  9.457014
  11921.913  11921.900  0.500  1.335701  61.949  16.291  9.218760
  11922.197  11922.200  0.500  1.349930  61.9462  16.0601  9.004288
  11922.507  11922.500  0.500  1.364228  61.9383  15.8301  8.793006
  11922.804  11922.800  0.500  1.376875  61.9358  15.6305  8.607544
  11923.094  11923.100  0.500  1.387046  61.9335  15.4718  8.451964
  11923.391  11923.400  0.500  1.395066  61.926  15.3463  8.326322
  11923.676  11923.700  0.500  1.400051  61.9273  15.2703  8.235900
  11923.998  11924.000  0.500  1.402651  61.9207  15.229  8.166298
  11924.282  11924.300  0.500  1.402242  61.914  15.2336  8.131794
  11924.586  11924.600  0.500  1.399652  61.9044  15.2707  8.119880
  11924.889  11924.900  0.500  1.395394  61.9077  15.3367  8.127469
  11925.192  11925.200  0.500  1.389542  61.9038  15.4258  8.152800
  11925.495  11925.500  0.500  1.383481  61.8901  15.5161  8.182852
  11925.786  11925.800  0.500  1.377358  61.8914  15.6117  8.220086
  11926.108  11926.100  0.500  1.370983  61.8884  15.7108  8.261644
  11926.399  11926.400  0.500  1.365295  61.8817  15.7987  8.300918
  11926.709  11926.700  0.500  1.359864  61.8732  15.8826  8.340241
  11927.000  11927.000  0.500  1.355176  61.8681  15.9559  8.378757
  11927.309  11927.300  0.500  1.350460  61.866  16.0308  8.417992
  11927.594  11927.600  0.500  1.346073  61.8566  16.0988  8.452035
  11927.904  11927.900  0.500  1.341614  61.8523  16.1696  8.490913
  11928.201  11928.200  0.500  1.337325  61.8435  16.2368  8.527907
  11928.504  11928.500  0.500  1.332816  61.8428  16.31  8.564840
  11928.796  11928.800  0.500  1.328719  61.8386  16.3759  8.600456
  11929.099  11929.100  0.500  1.324723  61.842  16.4423  8.631608
  11929.409  11929.400  0.500  1.320690  61.8345  16.5068  8.662596
  11929.687  11929.700  0.500  1.317115  61.8252  16.5634  8.687327
  11930.003  11930.000  0.500  1.313492  61.8186  16.6218  8.710423
  11930.276  11930.300  0.500  1.310560  61.823  16.6717  8.728631
  11930.598  11930.600  0.500  1.307585  61.8091  16.7177  8.744454
  11930.883  11930.900  0.500  1.304971  61.8025  16.7596  8.756673
  11931.199  11931.200  0.500  1.302519  61.8011  16.8004  8.766875
  11931.490  11931.500  0.500  1.300321  61.7917  16.8348  8.773193
  11931.800  11931.800  0.500  1.297862  61.7835  16.874  8.777723
  11932.091  11932.100  0.500  1.295761  61.7761  16.9075  8.781243
  11932.395  11932.400  0.500  1.293718  61.7658  16.9392  8.785201
  11932.705  11932.700  0.500  1.291900  61.7554  16.9672  8.788029
  11933.002  11933.000  0.500  1.289910  61.7533  17.0004  8.789075
  11933.318  11933.300  0.500  1.288160  61.7362  17.0255  8.789475
  11933.597  11933.600  0.500  1.286579  61.7109  17.0454  8.786755
  11933.913  11933.900  0.500  1.285186  61.6197  17.0439  8.773052
  11934.205  11934.200  0.500  1.284015  61.4905  17.0281  8.754818
  11934.521  11934.500  0.500  1.283230  61.337  16.999  8.729391
  11934.800  11934.800  0.500  1.282554  61.1928  16.9705  8.706332
  11935.104  11935.100  0.500  1.282418  61.0765  16.9405  8.683007
  11935.395  11935.400  0.500  1.282599  61.0419  16.9279  8.669030
  11935.705  11935.700  0.500  1.283030  61.0609  16.9259  8.661963
  11935.984  11936.000  0.500  1.283848  61.114  16.9267  8.658290
  11936.294  11936.300  0.500  1.284957  61.2107  16.9347  8.657369
  11936.586  11936.600  0.500  1.286148  61.3204  16.9448  8.660015
  11936.896  11936.900  0.500  1.287530  61.4379  16.9539  8.663708
  11937.181  11937.200  0.500  1.288696  61.5298  16.9595  8.661652
  11937.497  11937.500  0.500  1.290388  61.5939  16.9484  8.653241
  11937.783  11937.800  0.500  1.291928  61.6177  16.9289  8.642066
  11938.093  11938.100  0.500  1.293563  61.6359  16.9062  8.629413
  11938.390  11938.400  0.500  1.295188  61.6384  16.8795  8.611458
  11938.713  11938.700  0.500  1.296630  61.6464  16.8573  8.596624
  11939.005  11939.000  0.500  1.298034  61.629  16.8289  8.580031
  11939.302  11939.300  0.500  1.299375  61.634  16.8077  8.564926
  11939.613  11939.600  0.500  1.300465  61.6329  16.7891  8.551033
  11939.911  11939.900  0.500  1.301706  61.623  16.7656  8.533937
  11940.208  11940.200  0.500  1.302911  61.637  16.7492  8.520020
  11940.500  11940.500  0.500  1.303991  61.6263  16.7282  8.505219
  11940.810  11940.800  0.500  1.304918  61.6172  16.7103  8.490857
  11941.102  11941.100  0.500  1.305821  61.6202  16.696  8.478124
  11941.400  11941.400  0.500  1.306947  61.6137  16.6755  8.463275
  11941.698  11941.700  0.500  1.308001  61.6146  16.6581  8.450980
  11942.002  11942.000  0.500  1.309017  61.6051  16.6386  8.435552
  11942.287  11942.300  0.500  1.309921  61.5927  16.6203  8.422574
  11942.592  11942.600  0.500  1.311146  61.5935  16.6001  8.407397
  11942.877  11942.900  0.500  1.312142  61.5945  16.5839  8.393873
  11943.194  11943.200  0.500  1.313198  61.5867  16.5643  8.374685
  11943.486  11943.500  0.500  1.314398  61.5783  16.5421  8.354836
  11943.691  11943.700  0.500  1.315142  61.5698  16.5276  8.339896
  11944.703  11944.690  0.500  1.319049  61.5644  16.4617  8.258930
  11945.715  11945.690  0.500  1.322469  61.5501  16.4017  8.154898
  11946.734  11946.710  0.500  1.325639  61.5318  16.3449  8.050188
  11947.777  11947.760  0.500  1.328024  61.5121  16.3007  7.968919
  11948.828  11948.820  0.500  1.329233  61.4963  16.2769  7.934824
  11949.897  11949.900  0.500  1.329546  61.4887  16.2698  7.946160
  11951.009  11951.000  0.500  1.329277  61.4755  16.2706  7.989207
  11952.135  11952.120  0.500  1.328971  61.454  16.2699  8.045222
  11953.285  11953.260  0.500  1.328606  61.4425  16.2728  8.090805
  11954.436  11954.410  0.500  1.328334  61.4195  16.2712  8.117102
  11955.593  11955.590  0.500  1.328313  61.4056  16.2678  8.124852
  11956.781  11956.780  0.500  1.328496  61.3888  16.2604  8.129369
  11958.013  11958.000  0.500  1.329397  61.3737  16.2417  8.130636
  11959.246  11959.230  0.500  1.331083  61.3614  16.2111  8.129867
  11960.497  11960.480  0.500  1.333250  61.3375  16.1697  8.118858
  11961.761  11961.750  0.500  1.335982  61.3276  16.123  8.089143
  11963.044  11963.040  0.500  1.339686  61.3008  16.0564  8.038317
  11964.359  11964.350  0.500  1.344620  61.2855  15.9734  7.964322
  11965.699  11965.680  0.500  1.350351  61.2584  15.8751  7.882027
  11967.058  11967.030  0.500  1.356331  61.2367  15.7748  7.794746
  11968.429  11968.400  0.500  1.361191  61.2212  15.6944  7.721472
  11969.782  11969.780  0.500  1.363836  61.2029  15.6482  7.670116
  11971.192  11971.190  0.500  1.363419  61.1838  15.6499  7.656306
  11972.621  11972.610  0.500  1.359407  61.159  15.7064  7.683957
  11974.068  11974.050  0.500  1.353608  61.1319  15.7908  7.739982
  11975.523  11975.510  0.500  1.347098  61.1149  15.8895  7.809954
  11976.990  11976.990  0.500  1.340924  61.0959  15.9829  7.877844
  11978.507  11978.490  0.500  1.335373  61.0787  16.0674  7.939579
  11980.013  11980.010  0.500  1.330478  61.0555  16.1401  7.992546
  11981.575  11981.550  0.500  1.326203  61.0318  16.2029  8.037883
  11983.118  11983.110  0.500  1.323529  61.0159  16.2421  8.070627
  11984.687  11984.680  0.500  1.322016  60.9865  16.2588  8.088852
  11986.282  11986.280  0.500  1.321341  60.9632  16.2636  8.102915
  11987.908  11987.890  0.500  1.320700  60.9423  16.2684  8.118566
  11989.535  11989.530  0.500  1.319753  60.9261  16.2795  8.142843
  11991.175  11991.180  0.500  1.318826  60.8874  16.2843  8.163753
  11992.846  11992.850  0.500  1.318356  60.8694  16.2871  8.178824
  11994.549  11994.540  0.500  1.318473  60.8424  16.278  8.178375
  11996.272  11996.250  0.500  1.319783  60.827  16.2526  8.166564
  11997.976  11997.980  0.500  1.321347  60.7941  16.2184  8.144964
  11999.724  11999.730  0.500  1.322927  60.7895  16.1916  8.123087
  12001.505  12001.490  0.500  1.324004  60.7473  16.1629  8.095108
  12003.292  12003.280  0.500  1.324017  60.7313  16.1584  8.077900
  12005.086  12005.080  0.500  1.322393  60.7065  16.1781  8.065991
  12006.906  12006.910  0.500  1.319532  60.6779  16.2168  8.069092
  12008.757  12008.750  0.500  1.316093  60.6462  16.2642  8.080591
  12010.622  12010.610  0.500  1.313259  60.6331  16.3068  8.100541
  12012.481  12012.490  0.500  1.311007  60.6075  16.3367  8.116121
  12014.360  12014.390  0.500  1.309799  60.578  16.3484  8.129810
  12016.314  12016.310  0.500  1.309359  60.5587  16.3504  8.141596
  12018.244  12018.250  0.500  1.309274  60.5276  16.3434  8.148204
  12020.188  12020.210  0.500  1.309670  60.5026  16.3302  8.149668
  12022.232  12022.180  0.500  1.310601  60.473  16.307  8.146321
  12024.145  12024.180  0.500  1.311941  60.4432  16.2772  8.136505
  12026.405  12026.190  0.500  1.313462  60.4071  16.2427  8.120419
  12028.257  12028.220  0.500  1.314895  60.3808  16.2124  8.105675
  12030.336  12030.280  0.500  1.315926  60.3616  16.1905  8.095397
  12032.390  12032.350  0.500  1.316755  60.5128  16.2176  8.112189
  12034.483  12034.440  0.500  1.317460  60.49  16.2001  8.106656
  12036.595  12036.550  0.500  1.317932  60.4546  16.183  8.104504
  12038.728  12038.680  0.500  1.318260  60.4267  16.1702  8.106208
  12040.873  12040.820  0.500  1.317695  60.3868  16.1687  8.117912
  12043.032  12042.990  0.500  1.316835  60.3538  16.1737  8.131463
  12045.211  12045.180  0.500  1.315321  60.2786  16.1781  8.142429
  12047.422  12047.380  0.500  1.313653  59.0881  15.885  8.004763
  12049.647  12049.600  0.500  1.311834  59.3722  15.9905  8.064152
  12051.898  12051.850  0.500  1.309549  60.1576  16.2391  8.193479
  12054.149  12054.110  0.500  1.306974  60.1793  16.2868  8.214541
  12056.421  12056.390  0.500  1.304522  60.1571  16.3207  8.227063
  12058.718  12058.690  0.500  1.302177  60.1253  16.3504  8.237981
  12061.048  12061.010  0.500  1.300230  60.1  16.3754  8.244185
  12063.380  12063.350  0.500  1.298940  60.0775  16.3904  8.248367
  12065.724  12065.700  0.500  1.297546  60.0358  16.4019  8.248328
  12068.083  12068.080  0.500  1.296771  60.0128  16.4083  8.249474
  12070.480  12070.470  0.500  1.295884  59.9735  16.4121  8.249109
  12072.916  12072.890  0.500  1.295758  59.9458  16.4066  8.246329
  12075.353  12075.320  0.500  1.295825  59.9105  16.3958  8.238077
  12077.798  12077.770  0.500  1.296224  59.8817  16.3814  8.232107
  12080.257  12080.250  0.500  1.296297  59.8493  16.3714  8.228222
  12082.754  12082.740  0.500  1.296077  59.8096  16.3641  8.230483
  12085.265  12085.250  0.500  1.295206  59.7795  16.3701  8.234107
  12087.797  12087.770  0.500  1.294164  59.7396  16.3762  8.238517
  12090.342  12090.320  0.500  1.292759  59.6907  16.3858  8.243460
  12092.908  12092.890  0.500  1.291291  59.4944  16.356  8.227109
  12095.480  12095.470  0.500  1.290051  59.6508  16.4193  8.260412
  12098.099  12098.080  0.500  1.288956  59.6067  16.4251  8.266606
  12100.725  12100.700  0.500  1.287723  59.5724  16.4359  8.279721
  12103.365  12103.350  0.500  1.286565  59.5414  16.4464  8.297327
  12106.007  12106.010  0.500  1.285692  59.503  16.4502  8.312891
  12108.706  12108.690  0.500  1.284833  59.4668  16.4543  8.324185
  12111.408  12111.390  0.500  1.284669  59.4317  16.4473  8.331449
  12114.148  12114.110  0.500  1.284497  59.3914  16.4389  8.332904
  12116.852  12116.850  0.500  1.284590  59.3603  16.4288  8.332058
  12119.608  12119.600  0.500  1.284590  59.3269  16.4196  8.331734
  12122.397  12122.380  0.500  1.284568  59.283  16.4078  8.327136
  12125.187  12125.170  0.500  1.284372  59.2489  16.4015  8.324499
  12127.986  12127.990  0.500  1.284155  59.1719  16.3838  8.317863
  12130.811  12130.820  0.500  1.283778  59.1031  16.3709  8.309186
  12133.657  12133.670  0.500  1.283140  59.1516  16.3948  8.319574
  12136.561  12136.550  0.500  1.282069  59.1057  16.3996  8.315734
  12139.435  12139.440  0.500  1.281006  59.0676  16.4065  8.314539
  12142.350  12142.350  0.500  1.279466  59.0293  16.4211  8.315535
  12145.291  12145.270  0.500  1.277921  58.9916  16.436  8.316153
  12148.227  12148.220  0.500  1.276460  58.9439  16.4467  8.317342
  12151.190  12151.190  0.500  1.274650  58.8981  16.4637  8.323895
  12154.168  12154.170  0.500  1.273138  58.8603  16.478  8.332776
  12157.211  12157.180  0.500  1.271458  58.8252  16.4959  8.347439
  12160.211  12160.200  0.500  1.270127  58.7666  16.5014  8.358302
  12163.245  12163.250  0.500  1.269079  58.5244  16.4506  8.344840
  12166.325  12166.310  0.500  1.268064  58.7021  16.5173  8.390450
  12169.401  12169.390  0.500  1.267052  58.6625  16.5229  8.407138
  12172.491  12172.490  0.500  1.265754  58.6182  16.5319  8.421779
  12175.640  12175.610  0.500  1.264653  58.5721  16.5371  8.437597
  12178.779  12178.750  0.500  1.263659  58.5278  16.541  8.443796
  12181.912  12181.900  0.500  1.263167  58.4859  16.5373  8.446928
  12185.106  12185.080  0.500  1.262542  58.4434  16.5356  8.447181
  12188.294  12188.270  0.500  1.261864  58.3989  16.5342  8.446998
  12191.504  12191.490  0.500  1.260945  58.3521  16.5362  8.447790
  12194.748  12194.720  0.500  1.259641  58.3107  16.546  8.457088
  12197.993  12197.970  0.500  1.258032  58.2638  16.5593  8.468624
  12201.253  12201.250  0.500  1.256469  57.9978  16.5095  8.448526
  12204.561  12204.540  0.500  1.255077  58.1892  16.5871  8.488353
  12207.896  12207.850  0.500  1.253690  58.1445  16.5973  8.493386
  12211.168  12211.170  0.500  1.252229  58.0988  16.6085  8.498769
  12214.546  12214.520  0.500  1.250958  58.055  16.6171  8.498591
  12217.906  12217.890  0.500  1.249949  58.0127  16.6218  8.499343
  12221.282  12221.270  0.500  1.249130  57.9751  16.6246  8.498369
  12224.704  12224.680  0.500  1.248512  57.9336  16.623  8.498589
  12228.129  12228.100  0.500  1.247657  57.8856  16.6234  8.498622
  12231.562  12231.550  0.500  1.246922  57.8272  16.6188  8.501583
  12235.029  12235.010  0.500  1.245963  56.658  16.2984  8.347814
  12238.505  12238.490  0.500  1.245060  57.5929  16.5824  8.501734
  12242.003  12241.990  0.500  1.244263  57.6558  16.6137  8.529819
  12245.529  12245.510  0.500  1.243565  57.6329  16.6187  8.543396
  12249.070  12249.050  0.500  1.242826  57.5884  16.6181  8.552857
  12252.600  12252.600  0.500  1.241699  57.5378  16.6223  8.559647
  12256.197  12256.180  0.500  1.240898  57.3594  16.584  8.545509
  12259.790  12259.780  0.500  1.239840  57.4369  16.624  8.568468
  12263.405  12263.390  0.500  1.238725  56.9231  16.4937  8.503996
  12267.048  12267.020  0.500  1.237521  57.0919  16.5625  8.544153
  12270.707  12270.680  0.500  1.235624  57.1455  16.6095  8.571386
  12274.374  12274.350  0.500  1.233755  57.2481  16.6705  8.606788
  12278.063  12278.040  0.500  1.231705  57.1977  16.69  8.620844
  12281.748  12281.750  0.500  1.229973  57.1377  16.7014  8.631763
  12285.488  12285.480  0.500  1.228359  57.0289  16.6965  8.630652
  12289.223  12289.220  0.500  1.227008  56.8163  16.6567  8.612958
  12292.987  12292.990  0.500  1.225870  56.5306  16.5919  8.578124
  12296.800  12296.780  0.500  1.224677  56.8881  16.7167  8.644111
  12300.588  12300.580  0.500  1.223538  56.7818  16.7045  8.639185
  12304.412  12304.410  0.500  1.222396  56.8155  16.7335  8.656366
  12308.272  12308.250  0.500  1.221329  56.7653  16.7366  8.659902
  12312.107  12312.110  0.500  1.220378  56.7104  16.7363  8.663528
  12316.004  12315.990  0.500  1.219448  56.6565  16.7359  8.666958
  12319.897  12319.890  0.500  1.218453  56.2047  16.619  8.611174
  12323.826  12323.810  0.500  1.217643  56.3358  16.6713  8.645025
  12327.770  12327.750  0.500  1.216356  56.4684  16.732  8.687325
  12331.724  12331.710  0.500  1.215030  56.4318  16.7434  8.699761
  12335.707  12335.680  0.500  1.213306  56.3858  16.7586  8.718268
  12339.686  12339.680  0.500  1.211741  56.3405  16.7714  8.731851
  12343.720  12343.690  0.500  1.210239  56.2844  16.7798  8.745111
  12347.744  12347.730  0.500  1.208820  56.2323  16.7881  8.752874
  12351.777  12351.780  0.500  1.207334  56.1738  16.7956  8.763161
  12355.859  12355.850  0.500  1.205873  56.1225  16.8048  8.771700
  12359.958  12359.940  0.500  1.204300  56.0781  16.8179  8.779410
  12364.059  12364.050  0.500  1.203011  55.953  16.8021  8.774466
  12368.183  12368.180  0.500  1.201586  55.9735  16.8322  8.792419
  12372.329  12372.330  0.500  1.200342  55.8773  16.8242  8.790482
  12376.512  12376.490  0.500  1.199212  55.8632  16.8389  8.801141
  12380.698  12380.680  0.500  1.198103  55.7971  16.8377  8.802149
  12384.907  12384.880  0.500  1.197249  55.3756  16.7248  8.747671
  12389.112  12389.110  0.500  1.196359  55.7154  16.8424  8.812921
  12393.386  12393.350  0.500  1.195306  55.6533  16.8413  8.817563
  12397.624  12397.610  0.500  1.194329  55.5948  16.8401  8.821144
  12401.891  12401.890  0.500  1.193183  55.5388  16.8424  8.828195
  12406.228  12406.190  0.500  1.191558  55.4798  16.8519  8.835702
  12410.522  12410.510  0.500  1.190110  55.4007  16.8522  8.844339
  12414.865  12414.850  0.500  1.188399  55.3602  16.8687  8.859792
  12419.225  12419.210  0.500  1.186819  55.3093  16.8799  8.871040
  12423.615  12423.590  0.500  1.185342  55.2337  16.8817  8.880161
  12428.001  12427.980  0.500  1.183789  55.1851  16.8931  8.893031
  12432.431  12432.400  0.500  1.182141  55.1109  16.8982  8.902588
  12436.857  12436.830  0.500  1.180683  54.6961  16.7955  8.855113
  12441.294  12441.280  0.500  1.178892  55.0351  16.9299  8.932177
  12445.794  12445.750  0.500  1.177266  54.9717  16.9379  8.941011
  12450.250  12450.240  0.500  1.175619  54.9084  16.9463  8.951179
  12454.770  12454.750  0.500  1.173953  54.7849  16.9364  8.951817
  12459.308  12459.280  0.500  1.172511  54.7935  16.9635  8.969499
  12463.855  12463.830  0.500  1.171113  54.7266  16.9664  8.974599
  12468.453  12468.400  0.500  1.169889  54.6358  16.959  8.976372
  12472.980  12472.980  0.500  1.168581  54.6119  16.9738  8.987746
  12477.619  12477.590  0.500  1.167226  54.5503  16.9776  8.995354
  12482.234  12482.210  0.500  1.165925  54.4708  16.975  8.996805
  12486.873  12486.860  0.500  1.164557  54.142  16.8956  8.957267
  12491.563  12491.520  0.500  1.163209  54.3892  16.9956  9.015461
  12496.223  12496.200  0.500  1.161826  54.3254  16.9992  9.022221
  12500.933  12500.900  0.500  1.160365  54.2569  17.0026  9.029548
  12505.634  12505.620  0.500  1.158978  54.1952  17.0068  9.037968
  12510.414  12510.360  0.500  1.157399  54.1335  17.0143  9.048430
  12515.149  12515.110  0.500  1.156060  54.0721  17.0178  9.058072
  12519.908  12519.890  0.500  1.154223  54.0073  17.0287  9.067818
  12524.740  12524.690  0.500  1.152574  53.9467  17.0376  9.079424
  12529.527  12529.500  0.500  1.150798  53.8807  17.047  9.090819
  12534.373  12534.330  0.500  1.149325  53.8167  17.0518  9.101653
  12539.223  12539.190  0.500  1.147801  53.6979  17.0402  9.103646
  12544.111  12544.060  0.500  1.146160  53.7116  17.0725  9.126809
  12548.995  12548.950  0.500  1.144649  53.6453  17.0772  9.135203
  12553.884  12553.860  0.500  1.142990  53.5788  17.0844  9.144218
  12558.845  12558.790  0.500  1.141740  53.5154  17.0855  9.152919
  12563.783  12563.730  0.500  1.140275  53.4526  17.0905  9.162776
  12568.752  12568.700  0.500  1.138897  53.3916  17.0945  9.169190
  12573.725  12573.690  0.500  1.137470  53.3259  17.0978  9.175850
  12578.737  12578.690  0.500  1.135957  53.2507  17.0996  9.182132
  12583.773  12583.720  0.500  1.134485  53.1957  17.1071  9.191000
  12588.786  12588.760  0.500  1.133137  53.1302  17.1091  9.196414
  12593.872  12593.820  0.500  1.131494  53.0685  17.1173  9.205409
  12598.948  12598.900  0.500  1.129979  53.0025  17.1219  9.211476
  12604.035  12604.000  0.500  1.128345  52.93  17.1265  9.220154
  12609.168  12609.120  0.500  1.126671  52.8717  17.1363  9.229320
  12614.299  12614.260  0.500  1.124997  52.803  17.1427  9.241064
  12619.468  12619.420  0.500  1.123099  52.7405  17.1549  9.252980
  12624.635  12624.600  0.500  1.121247  52.6611  17.1608  9.262242
  12629.841  12629.790  0.500  1.119365  52.5836  17.1679  9.272108
  12635.051  12635.010  0.500  1.117707  52.4714  17.1596  9.277232
  12640.286  12640.240  0.500  1.116091  52.4709  17.1872  9.297970
  12645.547  12645.490  0.500  1.114606  52.4134  17.1939  9.309496
  12650.784  12650.760  0.500  1.112994  52.3433  17.1987  9.318810
  12656.095  12656.050  0.500  1.111324  52.28  17.2065  9.329015
  12661.397  12661.360  0.500  1.109756  52.2206  17.214  9.339478
  12666.745  12666.690  0.500  1.108089  52.1526  17.2202  9.349035
  12672.070  12672.040  0.500  1.106555  52.0814  17.2231  9.359634
  12677.449  12677.410  0.500  1.104899  52.0179  17.2306  9.370259
  12682.818  12682.790  0.500  1.103276  51.9519  17.2367  9.379083
  12688.241  12688.200  0.500  1.101884  51.8831  17.2379  9.388109
  12693.662  12693.620  0.500  1.100318  51.8148  17.2422  9.396573
  12699.115  12699.070  0.500  1.098723  51.738  17.2441  9.404090
  12704.580  12704.530  0.500  1.097071  51.6765  17.2521  9.412873
  12710.057  12710.010  0.500  1.095380  51.782  17.3166  9.454580
  12715.567  12715.510  0.500  1.093703  51.7177  17.3241  9.463194
  12721.053  12721.030  0.500  1.091971  51.6484  17.3309  9.473015
  12726.615  12726.570  0.500  1.090308  51.5745  17.3348  9.481903
  12732.154  12732.120  0.500  1.088361  51.4933  17.3413  9.491171
  12737.761  12737.700  0.500  1.086680  50.8336  17.1479  9.392184
  12743.352  12743.300  0.500  1.084895  51.3768  17.3621  9.516213
  12748.962  12748.910  0.500  1.083159  51.3037  17.3676  9.524288
  12754.606  12754.550  0.500  1.081571  51.2361  17.3723  9.534569
  12760.233  12760.200  0.500  1.079976  51.1621  17.3748  9.542905
  12765.915  12765.870  0.500  1.078241  51.094  17.3818  9.553649
  12771.588  12771.560  0.500  1.076543  51.0256  17.3881  9.566533