File: xdidata/Au/Au-L1-GoldThiomalate.xdi
# XDI/1.0 BlueSky/1.10.0 BMM/2023-1.0-py310-tiled
# Beamline.name: BMM (06BM) -- Beamline for Materials Measurement (NIST)
# Beamline.xray_source: NSLS-II three-pole wiggler
# Beamline.collimation: paraboloid mirror, 5 nm Rh on 30 nm Pt
# Beamline.focusing: not in use
# Beamline.harmonic_rejection: flat mirror, Pt stripe, pitch = 7.0 mrad relative to beam
# Beamline.software: Bluesky 1.10.0, Ophyd 1.7.0, DataBroker 2.0.0b13, Python 3.10.8, 2023-1.0-py310-tiled
# Detector.I0: 10 cm N2
# Detector.I1: 25 cm N2
# Detector.I2: 25 cm N2
# Element.symbol: Au
# Element.edge: L1
# Element.reference: Au
# Element.reference_material: Au foil
# Facility.name: NSLS-II
# Facility.energy: 3.0
# Facility.current: 400.1
# Facility.mode: top-off
# Facility.GUP: 301027
# Facility.SAF: 310583
# Facility.cycle: 2023-2
# Mono.name: Si(111)
# Mono.d_spacing: 3.13519
# Mono.encoder_resolution: 0.0000050 deg/ct
# Mono.angle_offset: 16.0754 deg
# Mono.scan_mode: pseudo channel cut
# Mono.scan_type: step
# Mono.direction: forward in energy
# Sample.name: C4H3AuNa2O4S, gold thiomalate
# Sample.prep: powder in BN pellet
# Sample.x: 145.711 mm
# Sample.y: 114.376 mm
# Sample.SDD_position: 205.000 mm
# Scan.experimenters: Bruce Ravel
# Scan.edge_energy: 14352.8
# Scan.start_time: 2023-06-27T20:11:09
# Scan.end_time: 2023-06-27T20:19:05
# Scan.transient_id: 85288
# Scan.uid: c4ce8052-448e-47de-90bc-c956a638349c
# Scan.plot_hint: ln(I0/It)  --  ln($5/$6)
# Column.1: energy eV
# Column.2: requested_energy eV
# Column.3: measurement_time seconds
# Column.4: xmu
# Column.5: I0 nA
# Column.6: It nA
# Column.7: Ir nA
# ///////////
# Welcome to BMM
# -----------
# energy  requested_energy  measurement_time  xmu  I0  It  Ir
  14152.730  14152.800  0.500  0.869474  34.5215  14.4704  8.179233
  14162.821  14162.800  0.500  0.866722  34.303  14.4185  8.158646
  14172.848  14172.800  0.500  0.863605  34.5516  14.5683  8.249321
  14182.871  14182.800  0.500  0.860872  34.4325  14.5578  8.247648
  14192.882  14192.800  0.500  0.858297  34.3574  14.5635  8.258209
  14202.882  14202.800  0.500  0.855788  34.2695  14.5628  8.263640
  14212.877  14212.800  0.500  0.853329  34.2011  14.5695  8.274050
  14222.923  14222.800  0.500  0.851090  34.1176  14.5665  8.280306
  14232.850  14232.800  0.500  0.848653  34.0422  14.5698  8.289724
  14242.852  14242.800  0.500  0.846631  33.954  14.5614  8.295342
  14252.870  14252.800  0.500  0.844782  33.8757  14.5547  8.303256
  14262.865  14262.800  0.500  0.842409  33.7839  14.5498  8.306440
  14272.884  14272.800  0.500  0.840172  31.9631  13.7964  7.882424
  14282.873  14282.800  0.500  0.837999  33.6666  14.5633  8.324594
  14292.867  14292.800  0.500  0.836014  33.6016  14.5641  8.332484
  14302.866  14302.800  0.500  0.834052  33.5024  14.5496  8.327827
  14312.914  14312.800  0.500  0.832443  33.4638  14.5563  8.335276
  14322.771  14322.800  0.500  0.831259  33.3662  14.531  8.322632
  14324.726  14324.800  0.500  0.831413  33.3709  14.5308  8.324115
  14326.736  14326.800  0.500  0.831127  33.3487  14.5253  8.319277
  14328.755  14328.800  0.500  0.831299  33.3507  14.5237  8.319336
  14330.766  14330.800  0.500  0.831294  33.3184  14.5097  8.309283
  14332.750  14332.800  0.500  0.831455  33.2971  14.4981  8.303363
  14334.744  14334.800  0.500  0.831861  33.3001  14.4935  8.301513
  14336.747  14336.800  0.500  0.832363  33.2828  14.4787  8.288113
  14338.760  14338.800  0.500  0.833037  33.2617  14.4598  8.276905
  14340.737  14340.800  0.500  0.834106  33.2522  14.4402  8.263807
  14342.751  14342.800  0.500  0.835412  33.2383  14.4153  8.244334
  14343.012  14343.100  0.500  0.835639  33.2205  14.4043  8.236102
  14343.318  14343.400  0.500  0.835723  33.216  14.4012  8.233814
  14343.632  14343.700  0.500  0.836032  33.2079  14.3932  8.228801
  14343.920  14344.000  0.500  0.836462  33.1965  14.3821  8.224449
  14344.253  14344.300  0.500  0.836873  33.1932  14.3747  8.218071
  14344.550  14344.600  0.500  0.836995  33.1855  14.3696  8.213058
  14344.856  14344.900  0.500  0.837322  33.1902  14.367  8.210149
  14345.153  14345.200  0.500  0.837535  33.1937  14.3655  8.206996
  14345.449  14345.500  0.500  0.838254  33.193  14.3548  8.202491
  14345.773  14345.800  0.500  0.838544  33.1999  14.3536  8.199749
  14346.088  14346.100  0.500  0.838880  33.2026  14.35  8.195328
  14346.349  14346.400  0.500  0.839302  33.195  14.3406  8.189475
  14346.664  14346.700  0.500  0.839960  33.1992  14.333  8.183397
  14346.952  14347.000  0.500  0.840332  33.2163  14.3351  8.182612
  14347.258  14347.300  0.500  0.840989  33.1963  14.317  8.172127
  14347.564  14347.600  0.500  0.841546  33.1941  14.3081  8.165582
  14347.852  14347.900  0.500  0.841964  33.1905  14.3006  8.159048
  14348.167  14348.200  0.500  0.842520  33.1876  14.2914  8.151114
  14348.455  14348.500  0.500  0.843098  33.1758  14.2781  8.142688
  14348.761  14348.800  0.500  0.843973  33.1783  14.2666  8.134204
  14349.076  14349.100  0.500  0.844483  33.1795  14.2599  8.127329
  14349.355  14349.400  0.500  0.845320  33.1733  14.2453  8.115864
  14349.661  14349.700  0.500  0.846083  33.172  14.2339  8.107397
  14349.967  14350.000  0.500  0.846835  33.1721  14.2232  8.100366
  14350.264  14350.300  0.500  0.847841  33.1735  14.2095  8.089178
  14350.579  14350.600  0.500  0.848773  33.1555  14.1885  8.075348
  14350.867  14350.900  0.500  0.849825  33.1577  14.1746  8.063324
  14351.164  14351.200  0.500  0.850765  33.1522  14.1589  8.050677
  14351.479  14351.500  0.500  0.851937  33.152  14.1422  8.038491
  14351.776  14351.800  0.500  0.853109  33.1519  14.1256  8.024013
  14352.082  14352.100  0.500  0.854412  33.1469  14.1051  8.008840
  14352.397  14352.400  0.500  0.855958  33.1531  14.086  7.994080
  14352.668  14352.700  0.500  0.857170  33.1462  14.066  7.978194
  14352.992  14353.000  0.500  0.858867  33.1435  14.041  7.960341
  14353.280  14353.300  0.500  0.860334  33.1279  14.0138  7.939446
  14353.595  14353.600  0.500  0.862238  33.1322  13.9889  7.920058
  14353.910  14353.900  0.500  0.864392  33.1308  13.9583  7.898293
  14354.199  14354.200  0.500  0.866030  33.1266  13.9337  7.876873
  14354.496  14354.500  0.500  0.868379  33.1312  13.9029  7.855529
  14354.784  14354.800  0.500  0.870202  33.1185  13.8722  7.830692
  14355.099  14355.100  0.500  0.872836  33.1196  13.8362  7.805087
  14355.406  14355.400  0.500  0.875304  33.118  13.8014  7.779541
  14355.712  14355.700  0.500  0.877834  33.109  13.7628  7.751016
  14356.009  14356.000  0.500  0.880421  33.1162  13.7302  7.725480
  14356.298  14356.300  0.500  0.882916  33.098  13.6885  7.693519
  14356.604  14356.600  0.500  0.886025  33.1088  13.6505  7.665983
  14356.892  14356.900  0.500  0.888528  33.0993  13.6124  7.637507
  14357.190  14357.200  0.500  0.891232  33.0907  13.5722  7.606112
  14357.487  14357.500  0.500  0.894138  33.0869  13.5312  7.577872
  14357.775  14357.800  0.500  0.896740  33.063  13.4863  7.544149
  14358.091  14358.100  0.500  0.899646  33.0547  13.4438  7.513322
  14358.370  14358.400  0.500  0.902056  33.0346  13.4033  7.484311
  14358.676  14358.700  0.500  0.904881  33.0202  13.3596  7.453815
  14358.965  14359.000  0.500  0.907235  33.0047  13.322  7.425477
  14359.289  14359.300  0.500  0.909909  32.9932  13.2818  7.395000
  14359.587  14359.600  0.500  0.912266  33.0894  13.2891  7.391718
  14359.884  14359.900  0.500  0.914268  33.0914  13.2634  7.369584
  14360.209  14360.200  0.500  0.916655  33.1004  13.2353  7.347733
  14360.479  14360.500  0.500  0.918532  33.1151  13.2164  7.330107
  14360.804  14360.800  0.500  0.920674  33.1276  13.1931  7.309703
  14361.110  14361.100  0.500  0.922597  33.1354  13.1708  7.289160
  14361.399  14361.400  0.500  0.924270  33.1444  13.1524  7.271398
  14361.705  14361.700  0.500  0.926036  33.1534  13.1328  7.254499
  14361.994  14362.000  0.500  0.927586  33.1699  13.1189  7.239522
  14362.318  14362.300  0.500  0.929433  33.1569  13.0896  7.215430
  14362.598  14362.600  0.500  0.930961  33.1601  13.0709  7.197591
  14362.896  14362.900  0.500  0.932438  33.1565  13.0502  7.178075
  14363.202  14363.200  0.500  0.934031  33.1569  13.0296  7.160938
  14363.500  14363.500  0.500  0.935456  33.1496  13.0081  7.142159
  14363.815  14363.800  0.500  0.936867  33.143  12.9872  7.124192
  14364.095  14364.100  0.500  0.938237  33.1579  12.9753  7.111138
  14364.420  14364.400  0.500  0.939643  33.1455  12.9522  7.092953
  14364.681  14364.700  0.500  0.940719  33.1463  12.9385  7.078179
  14365.006  14365.000  0.500  0.941898  33.145  12.9228  7.063156
  14365.277  14365.300  0.500  0.942850  33.1265  12.9033  7.046823
  14365.583  14365.600  0.500  0.943901  33.1236  12.8886  7.031933
  14365.890  14365.900  0.500  0.944811  33.1215  12.8761  7.019374
  14366.161  14366.200  0.500  0.945710  33.1164  12.8625  7.007611
  14366.504  14366.500  0.500  0.946613  33.1058  12.8468  6.993470
  14366.774  14366.800  0.500  0.947442  33.1083  12.8371  6.984338
  14367.108  14367.100  0.500  0.947971  33.0869  12.822  6.972207
  14367.388  14367.400  0.500  0.948629  33.0824  12.8119  6.963985
  14367.686  14367.700  0.500  0.949158  33.0598  12.7963  6.950466
  14368.001  14368.000  0.500  0.949730  33.0534  12.7866  6.942474
  14368.281  14368.300  0.500  0.950060  33.0456  12.7793  6.937149
  14368.606  14368.600  0.500  0.950533  33.0383  12.7705  6.930277
  14368.904  14368.900  0.500  0.950664  33.0423  12.7703  6.928003
  14369.202  14369.200  0.500  0.951142  33.0502  12.7673  6.924574
  14369.518  14369.500  0.500  0.951049  33.054  12.77  6.923017
  14369.807  14369.800  0.500  0.951319  33.0542  12.7665  6.922475
  14370.113  14370.100  0.500  0.951659  33.0717  12.769  6.924035
  14370.402  14370.400  0.500  0.951484  33.0761  12.7729  6.922958
  14370.718  14370.700  0.500  0.951762  33.072  12.7678  6.921981
  14371.025  14371.000  0.500  0.951767  33.0766  12.7695  6.922918
  14371.305  14371.300  0.500  0.951822  33.0738  12.7677  6.922123
  14371.612  14371.600  0.500  0.952118  33.0745  12.7642  6.923278
  14371.910  14371.900  0.500  0.952124  33.0729  12.7635  6.922205
  14372.208  14372.200  0.500  0.952048  33.0659  12.7618  6.921701
  14372.524  14372.500  0.500  0.952344  33.0701  12.7596  6.923915
  14372.795  14372.800  0.500  0.952210  33.0688  12.7608  6.923939
  14373.084  14373.100  0.500  0.952319  33.0642  12.7576  6.924325
  14373.382  14373.400  0.500  0.952375  33.0663  12.7577  6.924639
  14373.689  14373.700  0.500  0.952538  33.0573  12.7522  6.924332
  14374.005  14374.000  0.500  0.952694  33.0612  12.7517  6.927250
  14374.276  14374.300  0.500  0.952683  33.0488  12.7471  6.926195
  14374.592  14374.600  0.500  0.952745  33.0431  12.7441  6.923976
  14374.872  14374.900  0.500  0.953045  33.0438  12.7406  6.924832
  14375.207  14375.200  0.500  0.952978  33.043  12.7411  6.927346
  14375.505  14375.500  0.500  0.953220  33.0216  12.7297  6.923694
  14375.785  14375.800  0.500  0.953430  33.0072  12.7215  6.919576
  14376.092  14376.100  0.500  0.953573  32.996  12.7154  6.919896
  14376.399  14376.400  0.500  0.953696  32.9801  12.7077  6.916362
  14376.697  14376.700  0.500  0.954045  32.9701  12.6994  6.915753
  14377.032  14377.000  0.500  0.954019  32.9608  12.6962  6.914879
  14377.312  14377.300  0.500  0.954159  32.9553  12.6923  6.915521
  14377.610  14377.600  0.500  0.954307  32.9679  12.6953  6.919680
  14377.800  14377.800  0.500  0.954171  32.9616  12.6945  6.917978
  14378.830  14378.790  0.500  0.954967  33.0044  12.7009  6.930792
  14379.815  14379.790  0.500  0.955392  33.0042  12.6954  6.932247
  14380.828  14380.810  0.500  0.955633  33.0018  12.6915  6.931607
  14381.885  14381.860  0.500  0.956087  32.9896  12.681  6.927440
  14382.916  14382.920  0.500  0.956340  32.9804  12.6742  6.924138
  14384.011  14384.000  0.500  0.956559  32.961  12.664  6.914599
  14385.114  14385.100  0.500  0.956633  32.9309  12.6515  6.904229
  14386.245  14386.220  0.500  0.956586  32.898  12.6395  6.892145
  14387.385  14387.360  0.500  0.956352  32.8981  12.6425  6.885042
  14388.525  14388.510  0.500  0.956250  32.9166  12.6509  6.883842
  14389.711  14389.690  0.500  0.956047  32.9329  12.6597  6.880409
  14390.897  14390.880  0.500  0.955396  32.9227  12.664  6.876181
  14392.110  14392.100  0.500  0.954738  32.9248  12.6732  6.875249
  14393.342  14393.330  0.500  0.953896  32.9217  12.6827  6.877670
  14394.601  14394.580  0.500  0.952866  32.9017  12.688  6.881702
  14395.869  14395.850  0.500  0.951991  32.8888  12.6942  6.889346
  14397.174  14397.140  0.500  0.950619  32.8718  12.705  6.897140
  14398.470  14398.450  0.500  0.949561  32.8665  12.7164  6.912315
  14399.811  14399.780  0.500  0.948397  32.8659  12.731  6.928023
  14401.116  14401.130  0.500  0.947232  32.8405  12.736  6.936488
  14402.504  14402.500  0.500  0.946462  32.8445  12.7473  6.950851
  14403.900  14403.880  0.500  0.945778  32.8278  12.7496  6.956411
  14405.306  14405.290  0.500  0.945299  32.8168  12.7514  6.962962
  14406.740  14406.710  0.500  0.944718  32.8023  12.7532  6.962710
  14408.174  14408.150  0.500  0.944231  32.7925  12.7556  6.964760
  14409.599  14409.610  0.500  0.943981  32.7721  12.7508  6.961585
  14411.087  14411.090  0.500  0.943767  32.6854  12.7198  6.947684
  14412.595  14412.590  0.500  0.943546  32.6099  12.6932  6.931282
  14414.139  14414.110  0.500  0.943388  32.703  12.7315  6.952421
  14415.665  14415.650  0.500  0.943473  32.7261  12.7394  6.955708
  14417.227  14417.210  0.500  0.943079  32.7156  12.7403  6.954318
  14418.772  14418.780  0.500  0.943090  32.7092  12.7377  6.951971
  14420.372  14420.380  0.500  0.943041  32.6853  12.729  6.947807
  14421.981  14421.990  0.500  0.943092  32.6015  12.6958  6.927597
  14423.646  14423.630  0.500  0.942998  32.5165  12.6638  6.910631
  14425.301  14425.280  0.500  0.943005  32.6504  12.7159  6.936409
  14426.966  14426.950  0.500  0.943010  32.6619  12.7203  6.938421
  14428.650  14428.640  0.500  0.943235  32.6559  12.7151  6.934048
  14430.352  14430.350  0.500  0.943322  32.6305  12.7041  6.925958
  14432.082  14432.080  0.500  0.943544  32.5758  12.68  6.914573
  14433.821  14433.830  0.500  0.943773  32.4376  12.6233  6.884693
  14435.588  14435.590  0.500  0.943828  32.5642  12.6719  6.914751
  14437.338  14437.380  0.500  0.943804  32.5914  12.6828  6.922570
  14439.188  14439.180  0.500  0.943713  32.5863  12.682  6.927060
  14440.993  14441.010  0.500  0.943477  32.5675  12.6776  6.930065
  14442.862  14442.850  0.500  0.942854  32.5442  12.6765  6.934851
  14444.732  14444.710  0.500  0.941913  32.4645  12.6573  6.925691
  14446.602  14446.590  0.500  0.941108  32.3905  12.6386  6.919810
  14448.482  14448.490  0.500  0.939890  32.5034  12.6981  6.954941
  14450.371  14450.410  0.500  0.938648  32.5072  12.7154  6.965728
  14452.316  14452.350  0.500  0.937401  32.4953  12.7266  6.972309
  14454.270  14454.310  0.500  0.936448  32.4747  12.7307  6.976704
  14456.262  14456.280  0.500  0.935219  32.4422  12.7336  6.980263
  14458.336  14458.280  0.500  0.934021  32.4288  12.7436  6.985573
  14460.548  14460.290  0.500  0.933089  32.4082  12.7473  6.987699
  14462.231  14462.320  0.500  0.932118  32.3941  12.7542  6.992332
  14464.352  14464.380  0.500  0.931333  32.3725  12.7557  6.998111
  14466.466  14466.450  0.500  0.930518  32.3563  12.7597  7.001811
  14468.589  14468.540  0.500  0.929694  32.3444  12.7655  7.006029
  14470.648  14470.650  0.500  0.929022  32.3357  12.7707  7.011212
  14472.763  14472.780  0.500  0.928234  32.3157  12.7728  7.013986
  14474.925  14474.920  0.500  0.927640  32.3054  12.7763  7.017729
  14477.087  14477.090  0.500  0.927088  32.2758  12.7717  7.017293
  14479.296  14479.280  0.500  0.926223  32.2669  12.7792  7.019829
  14481.487  14481.480  0.500  0.925729  32.2194  12.7667  7.013099
  14483.724  14483.700  0.500  0.925316  32.2208  12.7725  7.017615
  14485.972  14485.950  0.500  0.924976  32.2148  12.7745  7.019321
  14488.202  14488.210  0.500  0.924380  32.2047  12.7781  7.020480
  14490.487  14490.490  0.500  0.924102  32.2011  12.7802  7.022211
  14492.792  14492.790  0.500  0.923886  32.175  12.7726  7.019598
  14495.125  14495.110  0.500  0.923529  32.157  12.77  7.021654
  14497.458  14497.450  0.500  0.923312  32.142  12.7668  7.020223
  14499.820  14499.800  0.500  0.923271  32.1261  12.761  7.020618
  14502.202  14502.180  0.500  0.922857  32.1112  12.7604  7.020778
  14504.574  14504.570  0.500  0.922625  32.0924  12.7559  7.023082
  14506.966  14506.990  0.500  0.922270  32.0832  12.7568  7.023814
  14509.414  14509.420  0.500  0.922131  32.0575  12.7483  7.022513
  14511.863  14511.870  0.500  0.921641  32.0413  12.7481  7.024818
  14514.368  14514.350  0.500  0.921063  32.0255  12.7492  7.027306
  14516.837  14516.840  0.500  0.920336  31.9699  12.7363  7.022725
  14519.381  14519.350  0.500  0.919704  31.996  12.7548  7.034459
  14521.879  14521.870  0.500  0.918873  31.9795  12.7588  7.039048
  14524.424  14524.420  0.500  0.918038  31.9622  12.7625  7.044210
  14526.989  14526.990  0.500  0.917387  31.9501  12.766  7.049564
  14529.564  14529.570  0.500  0.916360  31.9276  12.7701  7.053442
  14532.204  14532.180  0.500  0.915494  31.9007  12.7705  7.056986
  14534.818  14534.800  0.500  0.914466  31.8935  12.7807  7.064387
  14537.451  14537.450  0.500  0.913518  31.8591  12.779  7.064176
  14540.122  14540.110  0.500  0.912663  31.8466  12.7849  7.070515
  14542.775  14542.790  0.500  0.911868  31.8282  12.7877  7.072417
  14545.476  14545.490  0.500  0.910883  31.8131  12.7943  7.076451
  14548.224  14548.210  0.500  0.910030  31.7923  12.7968  7.077112
  14550.982  14550.950  0.500  0.909116  31.7262  12.7819  7.069692
  14553.714  14553.700  0.500  0.908354  31.7546  12.8031  7.082554
  14556.484  14556.480  0.500  0.907307  31.7477  12.8137  7.086987
  14559.282  14559.270  0.500  0.906612  31.7084  12.8067  7.085952
  14562.082  14562.090  0.500  0.905787  31.697  12.8127  7.089357
  14564.901  14564.920  0.500  0.905001  31.6771  12.8147  7.092715
  14567.768  14567.770  0.500  0.904135  31.6577  12.8179  7.096093
  14570.664  14570.650  0.500  0.903522  31.7385  12.8586  7.120918
  14573.542  14573.540  0.500  0.902830  31.719  12.8595  7.125161
  14576.412  14576.450  0.500  0.902201  31.6997  12.8598  7.129341
  14579.358  14579.370  0.500  0.901414  31.6757  12.8602  7.131172
  14582.333  14582.320  0.500  0.900953  31.6489  12.8552  7.133465
  14585.300  14585.290  0.500  0.900515  31.6305  12.8534  7.137626
  14588.267  14588.270  0.500  0.899766  31.6042  12.8523  7.139256
  14591.265  14591.280  0.500  0.899331  31.5836  12.8495  7.142197
  14594.282  14594.300  0.500  0.898652  31.5706  12.853  7.146831
  14597.365  14597.350  0.500  0.898100  31.5507  12.8519  7.150977
  14600.431  14600.410  0.500  0.897465  31.5232  12.8489  7.151353
  14603.471  14603.490  0.500  0.896778  31.5005  12.8485  7.152564
  14606.577  14606.590  0.500  0.895902  31.4789  12.8509  7.155372
  14609.712  14609.710  0.500  0.895134  31.4575  12.8521  7.157249
  14612.867  14612.850  0.500  0.894264  31.4385  12.8555  7.158751
  14616.024  14616.000  0.500  0.893423  31.3815  12.843  7.155091
  14619.164  14619.180  0.500  0.892714  31.3933  12.8569  7.162964
  14622.370  14622.370  0.500  0.891499  31.3722  12.8639  7.167511
  14625.615  14625.590  0.500  0.890635  31.3522  12.8668  7.172624
  14628.843  14628.820  0.500  0.889588  31.3331  12.8724  7.176357
  14632.072  14632.070  0.500  0.888431  31.3104  12.878  7.181946
  14635.378  14635.350  0.500  0.887544  31.2836  12.8784  7.183964
  14638.657  14638.640  0.500  0.886606  31.2627  12.8819  7.188190
  14641.965  14641.950  0.500  0.885485  31.236  12.8853  7.192706
  14645.276  14645.270  0.500  0.884499  31.1756  12.8731  7.188552
  14648.606  14648.620  0.500  0.883461  31.1923  12.8933  7.201395
  14652.013  14651.990  0.500  0.882519  31.1735  12.8977  7.207023
  14655.403  14655.370  0.500  0.881471  31.1477  12.9006  7.211248
  14658.785  14658.780  0.500  0.880558  31.0897  12.8883  7.209157
  14662.206  14662.200  0.500  0.879680  31.0804  12.8957  7.218811
  14665.667  14665.650  0.500  0.878654  31.0182  12.8832  7.214456
  14669.138  14669.110  0.500  0.877767  31.0578  12.911  7.233474
  14672.612  14672.590  0.500  0.876871  31.0281  12.9103  7.235500
  14676.096  14676.090  0.500  0.875943  31.0079  12.9138  7.239981
  14679.601  14679.610  0.500  0.875249  30.9823  12.9121  7.243491
  14683.173  14683.150  0.500  0.874218  30.9347  12.9056  7.240931
  14686.719  14686.700  0.500  0.873388  30.88  12.8935  7.235405
  14690.295  14690.280  0.500  0.872478  30.9099  12.9177  7.249879
  14693.882  14693.880  0.500  0.871843  30.8875  12.9166  7.252345
  14697.528  14697.490  0.500  0.870849  30.8631  12.9192  7.253407
  14701.147  14701.120  0.500  0.870107  30.8323  12.9159  7.255805
  14704.778  14704.780  0.500  0.869361  30.8017  12.9127  7.256485
  14708.448  14708.450  0.500  0.868291  30.7795  12.9172  7.260074
  14712.176  14712.140  0.500  0.867412  30.7625  12.9214  7.267297
  14715.878  14715.850  0.500  0.866456  30.7379  12.9234  7.271114
  14719.583  14719.580  0.500  0.865609  30.7094  12.9224  7.270863
  14723.326  14723.320  0.500  0.864699  30.6951  12.9281  7.276253
  14727.101  14727.090  0.500  0.863614  30.6548  12.9251  7.277960
  14730.915  14730.880  0.500  0.862834  30.6382  12.9282  7.284252
  14734.702  14734.680  0.500  0.861811  30.5594  12.9082  7.275301
  14738.549  14738.510  0.500  0.860900  30.4787  12.8858  7.265732
  14742.388  14742.350  0.500  0.859738  30.5507  12.9313  7.294054
  14746.248  14746.210  0.500  0.858588  30.5319  12.9382  7.300485
  14750.092  14750.090  0.500  0.857728  30.5043  12.9376  7.305223
  14754.013  14753.990  0.500  0.856683  30.4783  12.9401  7.309929
  14757.946  14757.910  0.500  0.855440  30.4459  12.9424  7.314693
  14761.862  14761.850  0.500  0.854337  30.421  12.9461  7.319875
  14765.818  14765.810  0.500  0.853447  30.3606  12.9319  7.315514
  14769.805  14769.780  0.500  0.852339  30.3772  12.9534  7.329618
  14773.823  14773.780  0.500  0.851318  30.3495  12.9547  7.333665
  14777.815  14777.790  0.500  0.850218  30.3243  12.9582  7.338242
  14781.856  14781.830  0.500  0.848987  30.2896  12.9593  7.340524
  14785.929  14785.880  0.500  0.848270  30.2515  12.9523  7.339578
  14789.984  14789.950  0.500  0.847259  30.0361  12.8731  7.296150
  14794.061  14794.040  0.500  0.846186  30.215  12.9637  7.350854
  14798.188  14798.150  0.500  0.845016  30.1854  12.9661  7.353180
  14802.317  14802.280  0.500  0.844162  30.1575  12.9652  7.356130
  14806.458  14806.430  0.500  0.842963  30.13  12.969  7.361758
  14810.602  14810.590  0.500  0.842009  30.1049  12.9705  7.365034
  14814.815  14814.780  0.500  0.840890  30.0766  12.9728  7.369669
  14818.992  14818.980  0.500  0.839959  30.0503  12.9735  7.373163
  14823.210  14823.210  0.500  0.838875  30.026  12.9771  7.377038
  14827.479  14827.450  0.500  0.837970  29.9921  12.9742  7.379746
  14831.750  14831.710  0.500  0.836961  29.962  12.9743  7.382426
  14836.004  14835.990  0.500  0.835780  29.9011  12.9632  7.380167
  14840.299  14840.290  0.500  0.834947  29.806  12.9328  7.366105
  14844.635  14844.610  0.500  0.833665  29.8647  12.9748  7.394478
  14848.993  14848.950  0.500  0.832684  29.838  12.9759  7.398680
  14853.325  14853.310  0.500  0.831723  29.8095  12.976  7.402166
  14857.707  14857.690  0.500  0.830633  29.7809  12.9777  7.405885
  14862.131  14862.080  0.500  0.829527  29.7272  12.9687  7.403683
  14866.519  14866.500  0.500  0.828360  29.7284  12.9843  7.415733
  14870.938  14870.930  0.500  0.827276  29.6972  12.9848  7.419039
  14875.418  14875.380  0.500  0.826048  29.6675  12.9877  7.422882
  14879.862  14879.850  0.500  0.824774  29.6447  12.9943  7.429473
  14884.358  14884.340  0.500  0.823997  29.6097  12.989  7.430831
  14888.904  14888.850  0.500  0.822747  29.5798  12.9922  7.434926
  14893.405  14893.380  0.500  0.821546  29.303  12.886  7.377909
  14897.938  14897.930  0.500  0.820440  29.5129  12.9927  7.440323
  14902.522  14902.500  0.500  0.819180  29.4821  12.9955  7.446311
  14907.118  14907.080  0.500  0.818063  29.4555  12.9983  7.450110
  14911.679  14911.690  0.500  0.816849  29.4298  13.0027  7.455562
  14916.339  14916.310  0.500  0.815830  29.4028  13.004  7.460401
  14920.993  14920.960  0.500  0.814631  29.3632  13.0021  7.463339
  14925.621  14925.620  0.500  0.813445  29.3416  13.008  7.470031
  14930.349  14930.300  0.500  0.812381  29.3122  13.0088  7.473240
  14935.050  14935.000  0.500  0.811197  29.2391  12.9917  7.468955
  14939.726  14939.720  0.500  0.810142  29.248  13.0094  7.481374
  14944.492  14944.460  0.500  0.809075  29.2212  13.0113  7.485783
  14949.252  14949.210  0.500  0.807632  29.19  13.0162  7.490756
  14954.014  14953.990  0.500  0.806554  29.164  13.0186  7.496238
  14958.829  14958.790  0.500  0.805589  29.1282  13.0152  7.499147
  14963.647  14963.600  0.500  0.804465  29.0904  13.0129  7.501127
  14968.448  14968.430  0.500  0.803220  29.0635  13.0171  7.506664
  14973.321  14973.290  0.500  0.802166  28.9907  12.9982  7.500100
  14978.178  14978.160  0.500  0.800813  28.9893  13.0152  7.510529
  14983.067  14983.050  0.500  0.799732  28.9475  13.0104  7.512297
  14988.009  14987.960  0.500  0.798503  28.9255  13.0166  7.519241
  14992.914  14992.890  0.500  0.797315  28.89  13.016  7.522733
  14997.843  14997.830  0.500  0.796140  28.8681  13.0215  7.529082
  15002.844  15002.800  0.500  0.795007  28.8329  13.0203  7.531181
  15007.808  15007.790  0.500  0.793755  28.8014  13.0224  7.535014
  15012.796  15012.790  0.500  0.792490  28.768  13.0237  7.539034
  15017.876  15017.820  0.500  0.791464  28.7416  13.0251  7.543913
  15022.861  15022.860  0.500  0.790176  28.7086  13.0269  7.548189
  15027.928  15027.920  0.500  0.788997  28.6564  13.0186  7.546513
  15033.028  15033.000  0.500  0.787688  28.6429  13.0295  7.556751
  15038.092  15038.100  0.500  0.786564  28.6102  13.0293  7.560792
  15043.248  15043.220  0.500  0.785271  28.5772  13.0311  7.565216
  15048.389  15048.360  0.500  0.783949  28.5425  13.0325  7.569811
  15053.533  15053.520  0.500  0.782731  28.5115  13.0342  7.575590
  15058.749  15058.700  0.500  0.781359  28.4743  13.0351  7.579502
  15063.910  15063.890  0.500  0.780381  28.4466  13.0351  7.582757
  15069.134  15069.110  0.500  0.778923  28.4105  13.0376  7.587075
  15074.382  15074.340  0.500  0.777711  28.3779  13.0384  7.592328
  15079.623  15079.590  0.500  0.776615  28.3441  13.0372  7.596020
  15084.879  15084.860  0.500  0.775152  28.3107  13.0409  7.600362
  15090.197  15090.150  0.500  0.773974  28.2823  13.0431  7.605501
  15095.469  15095.460  0.500  0.772801  28.2409  13.0393  7.607837
  15100.815  15100.790  0.500  0.771578  28.2081  13.0401  7.613464
  15106.165  15106.140  0.500  0.770180  28.1699  13.0407  7.615665
  15111.519  15111.510  0.500  0.769091  28.1403  13.0412  7.619612
  15116.936  15116.890  0.500  0.767872  28.1094  13.0428  7.626451
  15122.318  15122.300  0.500  0.766495  28.0756  13.045  7.627861
  15127.743  15127.720  0.500  0.765295  28.0338  13.0413  7.631400
  15133.212  15133.170  0.500  0.764045  28.0095  13.0462  7.637161
  15138.696  15138.630  0.500  0.762854  27.9717  13.0441  7.640824
  15144.133  15144.110  0.500  0.761443  27.9368  13.0463  7.645154
  15149.664  15149.610  0.500  0.760113  27.8924  13.0429  7.646370
  15155.180  15155.130  0.500  0.758888  27.8657  13.0463  7.651967
  15160.679  15160.670  0.500  0.757621  27.7759  13.0208  7.640839
  15166.263  15166.220  0.500  0.756362  27.7826  13.0403  7.657061
  15171.831  15171.800  0.500  0.755077  27.7571  13.0451  7.662601
  15177.413  15177.400  0.500  0.753901  27.7251  13.0454  7.667592
  15183.060  15183.010  0.500  0.752566  27.6926  13.0475  7.671341
  15188.691  15188.650  0.500  0.751169  27.6545  13.0478  7.676157
  15194.306  15194.300  0.500  0.749903  27.6201  13.0481  7.681185
  15200.056  15199.970  0.500  0.748412  27.5763  13.0468  7.683168
  15205.690  15205.660  0.500  0.747164  27.5478  13.0496  7.688077