File: xdidata/Au/Au-L1-La4LiAuO8.xdi
# XDI/1.0 BlueSky/1.10.0 BMM/2023-1.0-py310-tiled
# Beamline.name: BMM (06BM) -- Beamline for Materials Measurement (NIST)
# Beamline.xray_source: NSLS-II three-pole wiggler
# Beamline.collimation: paraboloid mirror, 5 nm Rh on 30 nm Pt
# Beamline.focusing: not in use
# Beamline.harmonic_rejection: flat mirror, Pt stripe, pitch = 7.0 mrad relative to beam
# Beamline.software: Bluesky 1.10.0, Ophyd 1.7.0, DataBroker 2.0.0b13, Python 3.10.8, 2023-1.0-py310-tiled
# Detector.I0: 10 cm N2
# Detector.I1: 25 cm N2
# Detector.I2: 25 cm N2
# Element.symbol: Au
# Element.edge: L1
# Element.reference: Au
# Element.reference_material: Au foil
# Facility.name: NSLS-II
# Facility.energy: 3.0
# Facility.current: 400.0
# Facility.mode: top-off
# Facility.GUP: 301027
# Facility.SAF: 310583
# Facility.cycle: 2023-2
# Mono.name: Si(111)
# Mono.d_spacing: 3.13519
# Mono.encoder_resolution: 0.0000050 deg/ct
# Mono.angle_offset: 16.0754 deg
# Mono.scan_mode: pseudo channel cut
# Mono.scan_type: step
# Mono.direction: forward in energy
# Sample.name: La4LiAuO8
# Sample.prep: powder on tape
# Sample.x: 145.711 mm
# Sample.y: 114.376 mm
# Sample.SDD_position: 205.000 mm
# Scan.experimenters: Bruce Ravel
# Scan.edge_energy: 14352.8
# Scan.start_time: 2023-06-27T20:28:02
# Scan.end_time: 2023-06-27T20:35:56
# Scan.transient_id: 85298
# Scan.uid: f0270cbe-5d36-4b96-b2c1-f7f115644796
# Scan.plot_hint: ln(I0/It)  --  ln($5/$6)
# Column.1: energy eV
# Column.2: requested_energy eV
# Column.3: measurement_time seconds
# Column.4: xmu
# Column.5: I0 nA
# Column.6: It nA
# Column.7: Ir nA
# ///////////
# sample courtesy Martin Stennett, University of Sheffield, see DOI: 10.1021/ic100486g
# -----------
# energy  requested_energy  measurement_time  xmu  I0  It  Ir
  14152.861  14152.800  0.500  0.806927  34.5235  15.4053  8.698080
  14162.839  14162.800  0.500  0.804349  34.2927  15.3418  8.671615
  14172.874  14172.800  0.500  0.801815  34.5424  15.4927  8.763595
  14182.880  14182.800  0.500  0.799505  34.4198  15.4735  8.758687
  14192.900  14192.800  0.500  0.797506  34.329  15.4635  8.757997
  14202.829  14202.800  0.500  0.795681  34.2442  15.4535  8.759043
  14212.842  14212.800  0.500  0.794058  34.1912  15.4546  8.770027
  14222.878  14222.800  0.500  0.791577  34.0999  15.4517  8.772021
  14232.903  14232.800  0.500  0.789299  34.0291  15.4548  8.787224
  14242.817  14242.800  0.500  0.787134  33.9468  15.4508  8.794430
  14252.816  14252.800  0.500  0.784696  33.8674  15.4523  8.804249
  14262.812  14262.800  0.500  0.782257  33.7751  15.4478  8.808830
  14272.840  14272.800  0.500  0.780180  31.9189  14.6292  8.351061
  14282.819  14282.800  0.500  0.778204  33.6574  15.4565  8.827642
  14292.840  14292.800  0.500  0.776178  33.5835  15.4538  8.830925
  14302.857  14302.800  0.500  0.774497  33.4799  15.4321  8.821506
  14312.825  14312.800  0.500  0.772838  33.444  15.4411  8.833050
  14322.852  14322.800  0.500  0.771085  33.367  15.4326  8.830366
  14324.807  14324.800  0.500  0.770655  33.3613  15.4366  8.832258
  14326.817  14326.800  0.500  0.770360  33.329  15.4262  8.827671
  14328.791  14328.800  0.500  0.770016  33.339  15.4361  8.832549
  14330.774  14330.800  0.500  0.769707  33.2987  15.4222  8.824151
  14332.777  14332.800  0.500  0.769398  33.2979  15.4267  8.825504
  14334.788  14334.800  0.500  0.769208  33.2816  15.422  8.821835
  14336.810  14336.800  0.500  0.769173  33.2787  15.4212  8.820472
  14338.805  14338.800  0.500  0.768767  33.2494  15.4139  8.813317
  14340.764  14340.800  0.500  0.768721  33.2371  15.4089  8.807634
  14342.778  14342.800  0.500  0.768761  33.2189  15.3999  8.798545
  14343.030  14343.100  0.500  0.768805  33.2137  15.3967  8.796474
  14343.327  14343.400  0.500  0.768927  33.2229  15.3992  8.798361
  14343.632  14343.700  0.500  0.768770  33.1967  15.3894  8.790133
  14343.956  14344.000  0.500  0.768822  33.1971  15.3888  8.787703
  14344.244  14344.300  0.500  0.768757  33.1949  15.3888  8.786961
  14344.541  14344.600  0.500  0.768808  33.1736  15.3781  8.779798
  14344.865  14344.900  0.500  0.768845  33.1799  15.3805  8.780308
  14345.153  14345.200  0.500  0.769017  33.1734  15.3748  8.777559
  14345.467  14345.500  0.500  0.769024  33.1829  15.3791  8.777481
  14345.773  14345.800  0.500  0.768884  33.1882  15.3837  8.778392
  14346.070  14346.100  0.500  0.768880  33.1797  15.3799  8.774304
  14346.367  14346.400  0.500  0.768995  33.1824  15.3793  8.774298
  14346.673  14346.700  0.500  0.769134  33.1845  15.3782  8.771798
  14346.961  14347.000  0.500  0.769132  33.1858  15.3788  8.770956
  14347.276  14347.300  0.500  0.769104  33.1779  15.3756  8.765668
  14347.591  14347.600  0.500  0.769237  33.1824  15.3756  8.766040
  14347.888  14347.900  0.500  0.769351  33.1846  15.3749  8.763812
  14348.176  14348.200  0.500  0.769511  33.1852  15.3727  8.760801
  14348.482  14348.500  0.500  0.769632  33.1829  15.3698  8.756847
  14348.779  14348.800  0.500  0.769513  33.1694  15.3654  8.750816
  14349.085  14349.100  0.500  0.769632  33.1728  15.3651  8.747779
  14349.382  14349.400  0.500  0.769986  33.1672  15.3571  8.742798
  14349.679  14349.700  0.500  0.769984  33.1733  15.3599  8.740647
  14349.976  14350.000  0.500  0.770104  33.1704  15.3567  8.735919
  14350.264  14350.300  0.500  0.770229  33.1588  15.3495  8.729046
  14350.561  14350.600  0.500  0.770303  33.1513  15.3448  8.723456
  14350.876  14350.900  0.500  0.770324  33.1539  15.3457  8.720258
  14351.173  14351.200  0.500  0.770576  33.15  15.34  8.712633
  14351.461  14351.500  0.500  0.770797  33.1442  15.334  8.707248
  14351.767  14351.800  0.500  0.770834  33.14  15.3314  8.699701
  14352.064  14352.100  0.500  0.771029  33.1382  15.3277  8.693917
  14352.370  14352.400  0.500  0.771335  33.1329  15.3205  8.685798
  14352.686  14352.700  0.500  0.771544  33.1367  15.319  8.680612
  14352.974  14353.000  0.500  0.771900  33.1306  15.3108  8.672321
  14353.289  14353.300  0.500  0.772151  33.1455  15.3138  8.666365
  14353.595  14353.600  0.500  0.772128  33.1323  15.3081  8.657156
  14353.865  14353.900  0.500  0.772597  33.1196  15.295  8.644025
  14354.199  14354.200  0.500  0.772795  33.1093  15.2873  8.634087
  14354.487  14354.500  0.500  0.773170  33.108  15.2809  8.624224
  14354.775  14354.800  0.500  0.773616  33.1204  15.2798  8.615441
  14355.099  14355.100  0.500  0.773980  33.1083  15.2687  8.603172
  14355.406  14355.400  0.500  0.774413  33.1049  15.2605  8.591534
  14355.703  14355.700  0.500  0.774998  33.1011  15.2498  8.578145
  14356.009  14356.000  0.500  0.775389  33.101  15.2438  8.566771
  14356.298  14356.300  0.500  0.775724  33.1114  15.2435  8.558169
  14356.604  14356.600  0.500  0.776392  33.2197  15.2832  8.572506
  14356.892  14356.900  0.500  0.776852  33.2086  15.271  8.558492
  14357.199  14357.200  0.500  0.777252  33.2007  15.2613  8.544105
  14357.505  14357.500  0.500  0.777992  33.1996  15.2495  8.529962
  14357.784  14357.800  0.500  0.778678  33.1907  15.235  8.515295
  14358.100  14358.100  0.500  0.779164  33.1696  15.2178  8.494939
  14358.388  14358.400  0.500  0.779721  33.16  15.205  8.480871
  14358.694  14358.700  0.500  0.780310  33.1312  15.1828  8.459699
  14358.983  14359.000  0.500  0.780961  33.1138  15.165  8.442470
  14359.271  14359.300  0.500  0.781577  33.1145  15.156  8.429193
  14359.596  14359.600  0.500  0.782180  33.0992  15.1398  8.410796
  14359.866  14359.900  0.500  0.782659  33.1024  15.134  8.400632
  14360.200  14360.200  0.500  0.783372  33.1099  15.1267  8.386961
  14360.488  14360.500  0.500  0.784059  33.1294  15.1252  8.378362
  14360.777  14360.800  0.500  0.784572  33.1274  15.1165  8.365185
  14361.110  14361.100  0.500  0.785418  33.1439  15.1113  8.352617
  14361.390  14361.400  0.500  0.785981  33.1505  15.1058  8.342948
  14361.705  14361.700  0.500  0.786671  33.1692  15.1039  8.333161
  14362.003  14362.000  0.500  0.787273  33.1605  15.0908  8.319022
  14362.291  14362.300  0.500  0.787900  33.1619  15.082  8.307001
  14362.616  14362.600  0.500  0.788515  33.1559  15.07  8.289076
  14362.896  14362.900  0.500  0.789163  33.1616  15.0628  8.277817
  14363.220  14363.200  0.500  0.789688  33.1592  15.0538  8.263902
  14363.509  14363.500  0.500  0.790287  33.1644  15.0472  8.252730
  14363.815  14363.800  0.500  0.790700  33.1498  15.0343  8.236593
  14364.113  14364.100  0.500  0.791303  33.147  15.024  8.223744
  14364.411  14364.400  0.500  0.792001  33.1507  15.0152  8.211174
  14364.717  14364.700  0.500  0.792612  33.1375  15.0001  8.194683
  14364.997  14365.000  0.500  0.793294  33.1319  14.9873  8.180819
  14365.313  14365.300  0.500  0.793803  33.1414  14.984  8.172656
  14365.601  14365.600  0.500  0.794500  33.1267  14.9669  8.157219
  14365.908  14365.900  0.500  0.794997  33.1255  14.9589  8.144564
  14366.215  14366.200  0.500  0.795894  33.1269  14.9461  8.132087
  14366.504  14366.500  0.500  0.796507  33.1087  14.9288  8.118503
  14366.801  14366.800  0.500  0.797154  33.1006  14.9155  8.103594
  14367.063  14367.100  0.500  0.797861  33.0781  14.8948  8.090552
  14367.397  14367.400  0.500  0.798714  33.0736  14.88  8.077986
  14367.686  14367.700  0.500  0.799481  33.059  14.8621  8.064112
  14367.974  14368.000  0.500  0.799917  33.0481  14.8507  8.053571
  14368.281  14368.300  0.500  0.800798  33.0395  14.8338  8.041194
  14368.579  14368.600  0.500  0.801669  33.0419  14.8219  8.032824
  14368.904  14368.900  0.500  0.802130  33.0571  14.8219  8.029540
  14369.193  14369.200  0.500  0.803062  33.0395  14.8002  8.019042
  14369.500  14369.500  0.500  0.803806  33.0512  14.7945  8.014152
  14369.779  14369.800  0.500  0.804466  33.0571  14.7873  8.007833
  14370.095  14370.100  0.500  0.805165  33.0724  14.7838  8.005686
  14370.411  14370.400  0.500  0.806121  33.0956  14.7801  8.004415
  14370.709  14370.700  0.500  0.806521  33.0731  14.7641  7.995042
  14371.007  14371.000  0.500  0.807236  33.0843  14.7585  7.991687
  14371.296  14371.300  0.500  0.807823  33.0776  14.7469  7.987775
  14371.621  14371.600  0.500  0.808304  33.0773  14.7397  7.983159
  14371.910  14371.900  0.500  0.809013  33.0796  14.7303  7.980662
  14372.208  14372.200  0.500  0.809318  33.0762  14.7243  7.976538
  14372.524  14372.500  0.500  0.809705  33.0716  14.7165  7.974275
  14372.804  14372.800  0.500  0.810357  33.0698  14.7061  7.972237
  14373.120  14373.100  0.500  0.810294  33.064  14.7044  7.970725
  14373.391  14373.400  0.500  0.810660  33.0725  14.7029  7.970907
  14373.698  14373.700  0.500  0.811005  33.065  14.6945  7.970424
  14373.996  14374.000  0.500  0.811006  33.0502  14.6879  7.966953
  14374.312  14374.300  0.500  0.811191  33.06  14.6895  7.971170
  14374.592  14374.600  0.500  0.811061  33.0504  14.6871  7.970580
  14374.872  14374.900  0.500  0.810965  33.0552  14.6907  7.974464
  14375.188  14375.200  0.500  0.810972  33.0265  14.6778  7.971172
  14375.469  14375.500  0.500  0.811008  33.026  14.6771  7.974017
  14375.776  14375.800  0.500  0.810838  33.0048  14.6702  7.972804
  14376.083  14376.100  0.500  0.810660  32.9848  14.6639  7.971452
  14376.381  14376.400  0.500  0.810524  32.9778  14.6628  7.972634
  14376.706  14376.700  0.500  0.810461  32.974  14.662  7.975372
  14376.995  14377.000  0.500  0.809998  32.9613  14.6631  7.977408
  14377.303  14377.300  0.500  0.809858  32.961  14.665  7.980152
  14377.601  14377.600  0.500  0.809667  32.9633  14.6689  7.985309
  14377.791  14377.800  0.500  0.809555  32.9808  14.6783  7.992292
  14378.821  14378.790  0.500  0.809223  32.988  14.6864  8.004788
  14379.833  14379.790  0.500  0.808534  33.0064  14.7047  8.018830
  14380.855  14380.810  0.500  0.808027  33.0105  14.714  8.028489
  14381.885  14381.860  0.500  0.807737  32.9916  14.7098  8.029118
  14382.943  14382.920  0.500  0.807603  32.9812  14.7071  8.024145
  14383.992  14384.000  0.500  0.807477  32.967  14.7027  8.019474
  14385.105  14385.100  0.500  0.807684  32.933  14.6845  8.005023
  14386.236  14386.220  0.500  0.807745  32.9053  14.6712  7.989766
  14387.385  14387.360  0.500  0.807987  32.9047  14.6674  7.980108
  14388.534  14388.510  0.500  0.807855  32.9333  14.6821  7.978462
  14389.729  14389.690  0.500  0.807195  32.9335  14.6919  7.974171
  14390.879  14390.880  0.500  0.806624  32.9213  14.6948  7.967473
  14392.119  14392.100  0.500  0.805586  32.921  14.71  7.971888
  14393.324  14393.330  0.500  0.804197  32.9094  14.7252  7.975878
  14394.610  14394.580  0.500  0.802841  32.8961  14.7393  7.985273
  14395.860  14395.850  0.500  0.801344  32.8891  14.7582  7.997870
  14397.165  14397.140  0.500  0.800049  32.8832  14.7747  8.012482
  14398.470  14398.450  0.500  0.798745  32.8806  14.7928  8.029659
  14399.811  14399.780  0.500  0.797468  32.8553  14.8003  8.043597
  14401.125  14401.130  0.500  0.796589  32.8414  14.807  8.055666
  14402.504  14402.500  0.500  0.795858  32.8326  14.8138  8.068717
  14403.882  14403.880  0.500  0.795344  32.8236  14.8174  8.076796
  14405.324  14405.290  0.500  0.795024  32.8112  14.8166  8.078547
  14406.722  14406.710  0.500  0.794956  32.8069  14.8156  8.080175
  14408.174  14408.150  0.500  0.794908  32.7795  14.804  8.073514
  14409.617  14409.610  0.500  0.795200  32.7656  14.7934  8.067674
  14411.087  14411.090  0.500  0.795737  32.6752  14.7446  8.042948
  14412.567  14412.590  0.500  0.795956  32.6142  14.7139  8.025678
  14414.129  14414.110  0.500  0.796298  32.7059  14.7502  8.044522
  14415.674  14415.650  0.500  0.796723  32.7246  14.7524  8.045476
  14417.227  14417.210  0.500  0.796813  32.7267  14.752  8.043539
  14418.791  14418.780  0.500  0.796811  32.7086  14.7438  8.038672
  14420.381  14420.380  0.500  0.796892  32.6935  14.7359  8.033289
  14421.981  14421.990  0.500  0.796706  32.605  14.6987  8.012433
  14423.655  14423.630  0.500  0.796596  32.5346  14.6686  7.994049
  14425.301  14425.280  0.500  0.796323  32.6455  14.7226  8.022552
  14426.975  14426.950  0.500  0.796135  32.6638  14.7336  8.026906
  14428.659  14428.640  0.500  0.795717  32.6461  14.7318  8.025676
  14430.352  14430.350  0.500  0.795167  32.6311  14.7331  8.023903
  14432.082  14432.080  0.500  0.794347  32.5735  14.7192  8.015044
  14433.839  14433.830  0.500  0.793646  32.4427  14.6704  7.990127
  14435.607  14435.590  0.500  0.792997  32.5701  14.7375  8.032030
  14437.401  14437.380  0.500  0.792500  32.6096  14.7627  8.049371
  14439.188  14439.180  0.500  0.792062  32.577  14.7545  8.049796
  14441.002  14441.010  0.500  0.791998  32.5605  14.7479  8.050964
  14442.853  14442.850  0.500  0.791959  32.541  14.7397  8.052459
  14444.723  14444.710  0.500  0.792148  32.4667  14.7032  8.037600
  14446.602  14446.590  0.500  0.792132  32.3999  14.6732  8.025878
  14448.482  14448.490  0.500  0.792134  32.5014  14.7191  8.053246
  14450.390  14450.410  0.500  0.791885  32.4962  14.7205  8.054721
  14452.353  14452.350  0.500  0.791446  32.4846  14.7216  8.056418
  14454.344  14454.310  0.500  0.790978  32.4627  14.7186  8.056929
  14456.308  14456.280  0.500  0.790294  32.4513  14.7235  8.058976
  14458.291  14458.280  0.500  0.789449  32.4385  14.7302  8.064675
  14460.265  14460.290  0.500  0.788647  32.4081  14.7282  8.066446
  14462.295  14462.320  0.500  0.787655  32.4017  14.7399  8.072568
  14464.380  14464.380  0.500  0.786618  32.3849  14.7475  8.080449
  14466.457  14466.450  0.500  0.785723  32.3783  14.7577  8.088373
  14468.516  14468.540  0.500  0.784902  32.3572  14.7602  8.092982
  14470.603  14470.650  0.500  0.784200  32.3397  14.7626  8.095164
  14472.763  14472.780  0.500  0.783542  32.3271  14.7665  8.099834
  14474.888  14474.920  0.500  0.782913  32.3082  14.7672  8.101820
  14477.069  14477.090  0.500  0.782234  32.2934  14.7704  8.104015
  14479.241  14479.280  0.500  0.781854  32.281  14.7704  8.104878
  14481.423  14481.480  0.500  0.781351  32.223  14.7513  8.094429
  14483.669  14483.700  0.500  0.780881  32.234  14.7632  8.102335
  14485.935  14485.950  0.500  0.780482  32.2357  14.7699  8.105531
  14488.670  14488.210  0.500  0.779950  32.2038  14.7631  8.102077
  14490.395  14490.490  0.500  0.779570  32.1866  14.7609  8.101941
  14492.985  14492.790  0.500  0.779374  32.1656  14.7541  8.099161
  14495.042  14495.110  0.500  0.778975  32.1555  14.7554  8.102962
  14497.468  14497.450  0.500  0.778800  32.1319  14.7471  8.101331
  14499.784  14499.800  0.500  0.778495  32.1204  14.7463  8.103403
  14502.183  14502.180  0.500  0.778195  32.1058  14.7441  8.104566
  14504.574  14504.570  0.500  0.777850  32.0817  14.7381  8.102330
  14506.994  14506.990  0.500  0.777600  32.0665  14.7348  8.106082
  14509.387  14509.420  0.500  0.776999  32.0559  14.7388  8.109450
  14511.854  14511.870  0.500  0.776504  32.0267  14.7326  8.109669
  14514.340  14514.350  0.500  0.775884  32.0112  14.7346  8.113239
  14516.837  14516.840  0.500  0.775535  31.97  14.7208  8.111074
  14519.362  14519.350  0.500  0.774914  31.9846  14.7367  8.119766
  14521.870  14521.870  0.500  0.774354  31.9715  14.7389  8.123819
  14524.433  14524.420  0.500  0.773599  31.9508  14.7405  8.125968
  14526.980  14526.990  0.500  0.773193  31.9336  14.7386  8.127149
  14529.564  14529.570  0.500  0.772655  31.9137  14.7373  8.131726
  14532.186  14532.180  0.500  0.772309  31.8996  14.7359  8.133297
  14534.809  14534.800  0.500  0.771630  31.8797  14.7367  8.136542
  14537.469  14537.450  0.500  0.771184  31.9215  14.7626  8.152270
  14540.131  14540.110  0.500  0.770791  31.939  14.7765  8.161519
  14542.775  14542.790  0.500  0.770453  31.9182  14.7719  8.159398
  14545.476  14545.490  0.500  0.769835  31.896  14.7707  8.160449
  14548.206  14548.210  0.500  0.769166  31.8674  14.7673  8.157609
  14550.945  14550.950  0.500  0.768639  31.8207  14.7534  8.150386
  14553.714  14553.700  0.500  0.767954  31.8461  14.7754  8.164304
  14556.511  14556.480  0.500  0.767033  31.8236  14.7785  8.165654
  14559.245  14559.270  0.500  0.766416  31.8  14.7767  8.166318
  14562.082  14562.090  0.500  0.765514  31.7804  14.7809  8.169197
  14564.910  14564.920  0.500  0.764976  31.7565  14.7777  8.171667
  14567.796  14567.770  0.500  0.763995  31.7449  14.7868  8.176988
  14570.673  14570.650  0.500  0.763320  31.7179  14.7842  8.178792
  14573.551  14573.540  0.500  0.762705  31.7008  14.7854  8.183844
  14576.449  14576.450  0.500  0.761826  31.6715  14.7847  8.186622
  14579.367  14579.370  0.500  0.761192  31.6551  14.7864  8.191397
  14582.314  14582.320  0.500  0.760446  31.6324  14.7868  8.196467
  14585.300  14585.290  0.500  0.759795  31.6121  14.7869  8.199800
  14588.295  14588.270  0.500  0.759302  31.5944  14.7859  8.204458
  14591.293  14591.280  0.500  0.758754  31.5724  14.7838  8.208458
  14594.300  14594.300  0.500  0.758308  31.5504  14.7801  8.210852
  14597.346  14597.350  0.500  0.757704  31.532  14.7803  8.212960
  14600.412  14600.410  0.500  0.757169  31.5099  14.7779  8.214663
  14603.499  14603.490  0.500  0.756478  31.488  14.7778  8.216108
  14606.595  14606.590  0.500  0.755853  31.4611  14.7744  8.216933
  14609.693  14609.710  0.500  0.755321  31.4388  14.7718  8.217076
  14612.830  14612.850  0.500  0.754824  31.4244  14.7724  8.219517
  14615.987  14616.000  0.500  0.754062  31.3626  14.7546  8.209887
  14619.182  14619.180  0.500  0.753468  31.3855  14.7741  8.222115
  14622.398  14622.370  0.500  0.752662  31.3697  14.7786  8.224568
  14625.587  14625.590  0.500  0.752095  31.3407  14.7733  8.225010
  14628.805  14628.820  0.500  0.751190  31.3186  14.7763  8.230159
  14632.053  14632.070  0.500  0.750219  31.2889  14.7766  8.231453
  14635.387  14635.350  0.500  0.749635  31.2644  14.7737  8.233870
  14638.638  14638.640  0.500  0.748903  31.2414  14.7736  8.235134
  14641.965  14641.950  0.500  0.748365  31.2171  14.77  8.235529
  14645.248  14645.270  0.500  0.747871  31.1608  14.7507  8.228458
  14648.644  14648.620  0.500  0.747019  31.1802  14.7724  8.240612
  14652.013  14651.990  0.500  0.746616  31.1536  14.7658  8.242733
  14655.347  14655.370  0.500  0.746066  31.138  14.7665  8.246444
  14658.795  14658.780  0.500  0.745353  31.0779  14.7485  8.242022
  14662.206  14662.200  0.500  0.744651  31.0713  14.7558  8.247961
  14665.667  14665.650  0.500  0.743776  31.0073  14.7382  8.242479
  14669.120  14669.110  0.500  0.743203  31.0425  14.7634  8.263018
  14672.583  14672.590  0.500  0.742238  31.0128  14.7635  8.264691
  14676.096  14676.090  0.500  0.741463  30.9918  14.765  8.269996
  14679.638  14679.610  0.500  0.740633  30.9655  14.7647  8.272240
  14683.154  14683.150  0.500  0.739949  30.9177  14.752  8.268302
  14686.691  14686.700  0.500  0.739152  30.8599  14.7362  8.258909
  14690.295  14690.280  0.500  0.738417  30.8985  14.7654  8.278785
  14693.901  14693.880  0.500  0.737540  30.8636  14.7617  8.278107
  14697.519  14697.490  0.500  0.736616  30.8481  14.7679  8.284212
  14701.119  14701.120  0.500  0.735784  30.8239  14.7687  8.287256
  14704.787  14704.780  0.500  0.734823  30.7868  14.765  8.289156
  14708.476  14708.450  0.500  0.734005  30.7637  14.766  8.292874
  14712.157  14712.140  0.500  0.733122  30.754  14.7744  8.299336
  14715.869  14715.850  0.500  0.732465  30.7193  14.7675  8.298427
  14719.592  14719.580  0.500  0.731693  30.697  14.7681  8.301936
  14723.345  14723.320  0.500  0.731102  30.6704  14.7641  8.300623
  14727.101  14727.090  0.500  0.730448  30.6449  14.7614  8.304317
  14730.896  14730.880  0.500  0.729724  30.625  14.7625  8.307459
  14734.721  14734.680  0.500  0.729054  30.5412  14.732  8.293982
  14738.540  14738.510  0.500  0.728456  30.4633  14.7032  8.283450
  14742.350  14742.350  0.500  0.727664  30.5317  14.7479  8.312274
  14746.229  14746.210  0.500  0.726729  30.5105  14.7514  8.315461
  14750.111  14750.090  0.500  0.725930  30.4897  14.7532  8.322127
  14754.023  14753.990  0.500  0.724895  30.4634  14.7557  8.325734
  14757.917  14757.910  0.500  0.724037  30.4381  14.7561  8.330455
  14761.872  14761.850  0.500  0.723338  30.4128  14.7542  8.333719
  14765.847  14765.810  0.500  0.722442  30.3536  14.7386  8.329740
  14769.805  14769.780  0.500  0.721491  30.358  14.7548  8.340619
  14773.795  14773.780  0.500  0.720613  30.3284  14.7534  8.341856
  14777.815  14777.790  0.500  0.719761  30.3036  14.7539  8.346745
  14781.856  14781.830  0.500  0.718934  30.2755  14.7524  8.346130
  14785.919  14785.880  0.500  0.718237  30.2421  14.7464  8.347708
  14789.965  14789.950  0.500  0.717529  30.0243  14.6505  8.294597
  14794.070  14794.040  0.500  0.716681  30.1984  14.748  8.353738
  14798.197  14798.150  0.500  0.715788  30.171  14.7478  8.355956
  14802.327  14802.280  0.500  0.714984  30.1389  14.744  8.356496
  14806.449  14806.430  0.500  0.714113  30.1176  14.7464  8.359335
  14810.631  14810.590  0.500  0.713318  30.0873  14.7432  8.363775
  14814.805  14814.780  0.500  0.712626  30.0614  14.7408  8.365389
  14818.983  14818.980  0.500  0.711732  30.0321  14.7396  8.366459
  14823.229  14823.210  0.500  0.711025  30.0105  14.7394  8.371733
  14827.479  14827.450  0.500  0.710047  29.9769  14.7373  8.373200
  14831.711  14831.710  0.500  0.709230  29.9562  14.7391  8.377427
  14836.013  14835.990  0.500  0.708332  29.8836  14.7166  8.369962
  14840.318  14840.290  0.500  0.707285  29.7908  14.6863  8.356979
  14844.635  14844.610  0.500  0.706316  29.8489  14.7292  8.386054
  14848.964  14848.950  0.500  0.705436  29.8247  14.7302  8.388807
  14853.344  14853.310  0.500  0.704461  29.8051  14.7349  8.396955
  14857.717  14857.690  0.500  0.703467  29.7619  14.7282  8.397296
  14862.112  14862.080  0.500  0.702499  29.707  14.7153  8.391872
  14866.509  14866.500  0.500  0.701731  29.7176  14.7318  8.406271
  14870.958  14870.930  0.500  0.700663  29.672  14.7249  8.403459
  14875.409  14875.380  0.500  0.699895  29.6513  14.7259  8.409196
  14879.862  14879.850  0.500  0.699118  29.6202  14.7219  8.411081
  14884.358  14884.340  0.500  0.698196  29.5981  14.7245  8.413937
  14888.894  14888.850  0.500  0.697426  29.5582  14.716  8.413433
  14893.376  14893.380  0.500  0.696454  29.2959  14.5996  8.349579
  14897.967  14897.930  0.500  0.695384  29.4907  14.7124  8.416932
  14902.522  14902.500  0.500  0.694667  29.4708  14.713  8.421466
  14907.089  14907.080  0.500  0.693750  29.4392  14.7108  8.424037
  14911.708  14911.690  0.500  0.692884  29.4141  14.7109  8.427912
  14916.359  14916.310  0.500  0.691877  29.385  14.7112  8.431356
  14920.974  14920.960  0.500  0.691126  29.3471  14.7033  8.430921
  14925.660  14925.620  0.500  0.690000  29.3296  14.711  8.438868
  14930.329  14930.300  0.500  0.689084  29.2954  14.7074  8.439303
  14935.021  14935.000  0.500  0.688181  29.2243  14.6849  8.433028
  14939.745  14939.720  0.500  0.687208  29.2356  14.7049  8.446374
  14944.502  14944.460  0.500  0.686345  29.2022  14.7008  8.448038
  14949.232  14949.210  0.500  0.685359  29.175  14.7015  8.453671
  14953.995  14953.990  0.500  0.684221  29.1414  14.7014  8.456697
  14958.829  14958.790  0.500  0.683481  29.1075  14.6951  8.459409
  14963.608  14963.600  0.500  0.682626  29.0753  14.6914  8.462195
  14968.458  14968.430  0.500  0.681380  29.0503  14.6971  8.465080
  14973.321  14973.290  0.500  0.680548  28.9731  14.6702  8.455301
  14978.198  14978.160  0.500  0.679541  28.9805  14.6888  8.468645
  14983.087  14983.050  0.500  0.678545  28.9328  14.6792  8.467722
  14987.999  14987.960  0.500  0.677712  28.9076  14.6786  8.472438
  14992.924  14992.890  0.500  0.676741  28.8748  14.6762  8.473392
  14997.882  14997.830  0.500  0.675811  28.8605  14.6826  8.479656
  15002.854  15002.800  0.500  0.674914  28.8242  14.6773  8.481327
  15007.799  15007.790  0.500  0.673889  28.7936  14.6767  8.484582
  15012.836  15012.790  0.500  0.672952  28.7617  14.6742  8.489639
  15017.837  15017.820  0.500  0.672044  28.7317  14.6722  8.491460
  15022.880  15022.860  0.500  0.670977  28.6974  14.6703  8.494132
  15027.967  15027.920  0.500  0.669793  28.6471  14.662  8.491345
  15033.018  15033.000  0.500  0.669068  28.6389  14.6684  8.500884
  15038.121  15038.100  0.500  0.667803  28.6029  14.6686  8.504421
  15043.248  15043.220  0.500  0.666791  28.5676  14.6653  8.505275
  15048.369  15048.360  0.500  0.665591  28.5356  14.6664  8.510511
  15053.523  15053.520  0.500  0.664649  28.5044  14.6642  8.513925
  15058.730  15058.700  0.500  0.663777  28.4701  14.6593  8.516472
  15063.890  15063.890  0.500  0.662771  28.4389  14.658  8.520383
  15069.154  15069.110  0.500  0.661657  28.4063  14.6575  8.523135
  15074.342  15074.340  0.500  0.660601  28.3711  14.6548  8.525245
  15079.594  15079.590  0.500  0.659537  28.3377  14.6532  8.526997
  15084.879  15084.860  0.500  0.658587  28.3059  14.6506  8.533589
  15090.147  15090.150  0.500  0.657639  28.276  14.649  8.534960
  15095.479  15095.460  0.500  0.656592  28.237  14.6441  8.537400
  15100.825  15100.790  0.500  0.655647  28.2051  14.6415  8.538516
  15106.135  15106.140  0.500  0.654541  28.1717  14.6403  8.542512
  15111.519  15111.510  0.500  0.653474  28.1362  14.6375  8.544826
  15116.926  15116.890  0.500  0.652491  28.0992  14.6326  8.546839
  15122.298  15122.300  0.500  0.651404  28.0661  14.6312  8.547861
  15127.743  15127.720  0.500  0.650501  28.0316  14.6264  8.550957
  15133.222  15133.170  0.500  0.649487  28  14.6248  8.553126
  15138.656  15138.630  0.500  0.648316  27.9676  14.625  8.557859
  15144.173  15144.110  0.500  0.647234  27.9341  14.6233  8.560283
  15149.634  15149.610  0.500  0.646357  27.8849  14.6103  8.558417
  15155.160  15155.130  0.500  0.645181  27.8628  14.6159  8.565875
  15160.709  15160.670  0.500  0.644008  27.7677  14.5831  8.548414
  15166.253  15166.220  0.500  0.643080  27.78  14.6031  8.566579
  15171.831  15171.800  0.500  0.641932  27.7566  14.6076  8.572713
  15177.474  15177.400  0.500  0.640835  27.7221  14.6055  8.576614
  15183.030  15183.010  0.500  0.639739  27.6848  14.6018  8.578436
  15188.691  15188.650  0.500  0.638640  27.6513  14.6002  8.581696
  15194.326  15194.300  0.500  0.637610  27.613  14.595  8.583002
  15200.026  15199.970  0.500  0.636628  27.5803  14.592  8.585939
  15205.680  15205.660  0.500  0.635572  27.5453  14.5889  8.588812