File: xdidata/Au/Au-L3-GoldThiomalate.xdi
# XDI/1.0 BlueSky/1.10.0 BMM/2023-1.0-py310-tiled
# Beamline.name: BMM (06BM) -- Beamline for Materials Measurement (NIST)
# Beamline.xray_source: NSLS-II three-pole wiggler
# Beamline.collimation: paraboloid mirror, 5 nm Rh on 30 nm Pt
# Beamline.focusing: not in use
# Beamline.harmonic_rejection: flat mirror, Pt stripe, pitch = 7.0 mrad relative to beam
# Beamline.software: Bluesky 1.10.0, Ophyd 1.7.0, DataBroker 2.0.0b13, Python 3.10.8, 2023-1.0-py310-tiled
# Detector.I0: 10 cm N2
# Detector.I1: 25 cm N2
# Detector.I2: 25 cm N2
# Element.symbol: Au
# Element.edge: L3
# Element.reference: Au
# Element.reference_material: Au foil
# Facility.name: NSLS-II
# Facility.energy: 3.0
# Facility.current: 399.9
# Facility.mode: top-off
# Facility.GUP: 301027
# Facility.SAF: 310583
# Facility.cycle: 2023-2
# Mono.name: Si(111)
# Mono.d_spacing: 3.13519
# Mono.encoder_resolution: 0.0000050 deg/ct
# Mono.angle_offset: 16.0754 deg
# Mono.scan_mode: pseudo channel cut
# Mono.scan_type: step
# Mono.direction: forward in energy
# Sample.name: C4H3AuNa2O4S, gold thiomalate
# Sample.prep: powder in BN pellet
# Sample.x: 145.711 mm
# Sample.y: 114.376 mm
# Sample.SDD_position: 205.000 mm
# Scan.experimenters: Bruce Ravel
# Scan.edge_energy: 11918.7
# Scan.start_time: 2023-06-27T17:58:55
# Scan.end_time: 2023-06-27T18:06:44
# Scan.transient_id: 85207
# Scan.uid: 70e42fbc-7773-44d1-b20a-9d1a595e210e
# Scan.plot_hint: ln(I0/It)  --  ln($5/$6)
# Column.1: energy eV
# Column.2: requested_energy eV
# Column.3: measurement_time seconds
# Column.4: xmu
# Column.5: I0 nA
# Column.6: It nA
# Column.7: Ir nA
# ///////////
# Welcome to BMM
# -----------
# energy  requested_energy  measurement_time  xmu  I0  It  Ir
  11718.678  11718.700  0.500  0.657696  64.5302  33.4294  21.2645
  11728.723  11728.700  0.500  0.654526  64.3958  33.4658  21.3138
  11738.708  11738.700  0.500  0.651309  64.2553  33.5003  21.3612
  11748.734  11748.700  0.500  0.648174  64.0362  33.4909  21.3776
  11758.735  11758.700  0.500  0.645046  63.7981  33.4709  21.3897
  11768.765  11768.700  0.500  0.641834  63.8557  33.609  21.5003
  11778.770  11778.700  0.500  0.638846  63.5271  33.5361  21.4773
  11788.739  11788.700  0.500  0.635642  63.5931  33.6786  21.5886
  11798.730  11798.700  0.500  0.632648  63.45  33.7036  21.6302
  11808.782  11808.700  0.500  0.629613  63.2892  33.7204  21.6603
  11818.692  11818.700  0.500  0.626769  63.1569  33.7457  21.7012
  11828.717  11828.700  0.500  0.623814  63.0104  33.7671  21.7319
  11838.735  11838.700  0.500  0.621091  62.9249  33.8132  21.7834
  11848.727  11848.700  0.500  0.618398  62.5969  33.7277  21.7495
  11858.730  11858.700  0.500  0.615972  62.5474  33.7828  21.8018
  11868.732  11868.700  0.500  0.613994  62.5171  33.8333  21.8449
  11878.727  11878.700  0.500  0.612573  62.3846  33.8096  21.8385
  11888.732  11888.700  0.500  0.612452  62.221  33.725  21.7816
  11890.676  11890.700  0.500  0.612691  62.2008  33.7061  21.7647
  11892.670  11892.700  0.500  0.613220  62.1791  33.6765  21.7464
  11894.671  11894.700  0.500  0.613586  62.1461  33.6463  21.7198
  11896.666  11896.700  0.500  0.614299  62.121  33.6087  21.6853
  11898.687  11898.700  0.500  0.615332  62.0851  33.5546  21.6416
  11900.659  11900.700  0.500  0.616562  61.9716  33.4521  21.5631
  11902.663  11902.700  0.500  0.618206  61.3866  33.0819  21.3038
  11904.673  11904.700  0.500  0.620639  61.9612  33.3104  21.4341
  11906.684  11906.700  0.500  0.623732  61.9998  33.2282  21.3512
  11908.683  11908.700  0.500  0.627836  61.9806  33.0818  21.2128
  11908.936  11909.000  0.500  0.628574  61.983  33.0588  21.1932
  11909.245  11909.300  0.500  0.629362  61.9718  33.0267  21.1631
  11909.541  11909.600  0.500  0.630155  61.9684  32.9987  21.1375
  11909.844  11909.900  0.500  0.630987  61.9521  32.9626  21.1051
  11910.159  11910.200  0.500  0.632026  61.9523  32.9285  21.0757
  11910.443  11910.500  0.500  0.632921  61.9441  32.8947  21.0433
  11910.758  11910.800  0.500  0.634046  61.9456  32.8585  21.0108
  11911.060  11911.100  0.500  0.635055  61.9337  32.819  20.9738
  11911.350  11911.400  0.500  0.636308  62.1182  32.8756  21.0011
  11911.671  11911.700  0.500  0.637561  62.1161  32.8333  20.9586
  11911.968  11912.000  0.500  0.638748  62.1077  32.7899  20.9191
  11912.270  11912.300  0.500  0.640200  62.1009  32.7388  20.8744
  11912.585  11912.600  0.500  0.641513  62.0888  32.6894  20.8282
  11912.876  11912.900  0.500  0.643060  62.0908  32.64  20.783
  11913.172  11913.200  0.500  0.644590  62.0877  32.5884  20.7328
  11913.487  11913.500  0.500  0.646425  62.082  32.5257  20.6728
  11913.784  11913.800  0.500  0.648367  62.0666  32.4545  20.6101
  11914.086  11914.100  0.500  0.650454  62.0663  32.3867  20.55
  11914.389  11914.400  0.500  0.652566  62.0557  32.3129  20.4796
  11914.673  11914.700  0.500  0.654817  62.0438  32.234  20.4074
  11915.001  11915.000  0.500  0.657411  62.0321  32.1445  20.3199
  11915.297  11915.300  0.500  0.660167  62.0178  32.0486  20.2343
  11915.594  11915.600  0.500  0.663171  61.9916  31.939  20.1359
  11915.891  11915.900  0.500  0.666433  61.9317  31.8043  20.0188
  11916.181  11916.200  0.500  0.669626  61.8493  31.6606  19.8928
  11916.484  11916.500  0.500  0.673620  61.7133  31.4651  19.7291
  11916.793  11916.800  0.500  0.677679  61.5867  31.2734  19.5705
  11917.083  11917.100  0.500  0.682053  61.456  31.0708  19.3971
  11917.386  11917.400  0.500  0.686841  61.3655  30.8769  19.225
  11917.664  11917.700  0.500  0.691916  61.334  30.7048  19.0652
  11917.986  11918.000  0.500  0.698162  61.3942  30.5435  18.9023
  11918.276  11918.300  0.500  0.704315  61.4561  30.3868  18.7398
  11918.592  11918.600  0.500  0.711541  61.5595  30.2188  18.5626
  11918.876  11918.900  0.500  0.719158  61.6694  30.043  18.377
  11919.191  11919.200  0.500  0.728307  61.7758  29.8208  18.1463
  11919.482  11919.500  0.500  0.738049  61.8653  29.5744  17.9003
  11919.791  11919.800  0.500  0.749223  61.9252  29.2742  17.6083
  11920.076  11920.100  0.500  0.761098  61.9468  28.9387  17.2946
  11920.391  11920.400  0.500  0.775779  61.9572  28.5217  16.9126
  11920.707  11920.700  0.500  0.791757  61.9603  28.071  16.5092
  11920.997  11921.000  0.500  0.809002  61.9754  27.5978  16.0939
  11921.300  11921.300  0.500  0.828659  61.9649  27.056  15.6317
  11921.610  11921.600  0.500  0.851091  61.96  26.4537  15.1355
  11921.888  11921.900  0.500  0.873815  61.9449  25.8531  14.655
  11922.203  11922.200  0.500  0.900275  61.9484  25.1794  14.1353
  11922.500  11922.500  0.500  0.926534  61.9471  24.5263  13.6458
  11922.804  11922.800  0.500  0.954876  61.9424  23.8392  13.1479
  11923.094  11923.100  0.500  0.981151  61.9351  23.2182  12.7117
  11923.391  11923.400  0.500  1.007691  61.9413  22.6123  12.2942
  11923.695  11923.700  0.500  1.032425  61.9315  22.0564  11.9146
  11923.992  11924.000  0.500  1.054811  61.9304  21.5678  11.5894
  11924.282  11924.300  0.500  1.073961  61.9255  21.157  11.3133
  11924.573  11924.600  0.500  1.089641  61.9225  20.8268  11.0947
  11924.883  11924.900  0.500  1.102980  61.9161  20.5488  10.9095
  11925.186  11925.200  0.500  1.112585  61.9066  20.3492  10.7726
  11925.502  11925.500  0.500  1.119608  61.9018  20.2052  10.673
  11925.786  11925.800  0.500  1.123746  61.9071  20.1235  10.6116
  11926.102  11926.100  0.500  1.126447  61.8995  20.0668  10.5684
  11926.387  11926.400  0.500  1.127367  61.8903  20.0453  10.5474
  11926.709  11926.700  0.500  1.127705  61.8927  20.0393  10.5396
  11927.000  11927.000  0.500  1.127625  61.874  20.0349  10.5369
  11927.303  11927.300  0.500  1.127509  61.8719  20.0365  10.5345
  11927.607  11927.600  0.500  1.127591  61.8685  20.0338  10.5331
  11927.898  11927.900  0.500  1.128134  61.8713  20.0238  10.531
  11928.213  11928.200  0.500  1.129238  61.8584  19.9976  10.5169
  11928.492  11928.500  0.500  1.130704  61.8575  19.968  10.4994
  11928.814  11928.800  0.500  1.133042  61.8528  19.9198  10.4739
  11929.099  11929.100  0.500  1.135715  61.8399  19.8625  10.4399
  11929.396  11929.400  0.500  1.138998  61.8356  19.796  10.4021
  11929.694  11929.700  0.500  1.142538  61.8332  19.7253  10.359
  11929.991  11930.000  0.500  1.146343  61.8322  19.6501  10.3113
  11930.288  11930.300  0.500  1.150381  61.8258  19.5689  10.2588
  11930.586  11930.600  0.500  1.154698  61.8197  19.4827  10.2034
  11930.889  11930.900  0.500  1.158721  61.8147  19.4029  10.1515
  11931.180  11931.200  0.500  1.162463  61.8114  19.3294  10.0988
  11931.490  11931.500  0.500  1.166298  61.8024  19.2525  10.0461
  11931.788  11931.800  0.500  1.169699  61.788  19.1827  9.993540
  11932.097  11932.100  0.500  1.172777  61.7794  19.1211  9.945146
  11932.389  11932.400  0.500  1.175312  61.7716  19.0703  9.904531
  11932.711  11932.700  0.500  1.177535  61.7666  19.0264  9.864320
  11933.002  11933.000  0.500  1.179293  61.7562  18.9898  9.829737
  11933.306  11933.300  0.500  1.180910  61.7473  18.9564  9.797181
  11933.610  11933.600  0.500  1.181781  61.7049  18.9269  9.768029
  11933.901  11933.900  0.500  1.182768  61.6319  18.8858  9.734494
  11934.217  11934.200  0.500  1.183377  61.5112  18.8374  9.698055
  11934.502  11934.500  0.500  1.183823  61.3615  18.7831  9.659105
  11934.806  11934.800  0.500  1.184199  61.2064  18.7286  9.620917
  11935.110  11935.100  0.500  1.184385  61.1089  18.6953  9.593346
  11935.407  11935.400  0.500  1.184448  61.0543  18.6774  9.577502
  11935.699  11935.700  0.500  1.184563  61.0689  18.6797  9.572827
  11936.003  11936.000  0.500  1.184697  61.1366  18.698  9.577481
  11936.288  11936.300  0.500  1.184668  61.2236  18.7251  9.585940
  11936.598  11936.600  0.500  1.184781  61.3319  18.7561  9.598320
  11936.877  11936.900  0.500  1.184961  61.4507  18.789  9.611121
  11937.200  11937.200  0.500  1.185222  61.5517  18.815  9.621091
  11937.485  11937.500  0.500  1.185428  61.6076  18.8282  9.627549
  11937.801  11937.800  0.500  1.185717  61.6554  18.8374  9.629744
  11938.093  11938.100  0.500  1.185998  61.6515  18.8309  9.625419
  11938.415  11938.400  0.500  1.186395  61.6583  18.8255  9.616371
  11938.694  11938.700  0.500  1.186841  61.6569  18.8167  9.608527
  11939.011  11939.000  0.500  1.187714  61.6719  18.8048  9.600493
  11939.302  11939.300  0.500  1.188253  61.6561  18.7899  9.589260
  11939.613  11939.600  0.500  1.189143  61.6708  18.7777  9.575861
  11939.898  11939.900  0.500  1.189996  61.656  18.7571  9.562386
  11940.208  11940.200  0.500  1.191009  61.657  18.7385  9.544912
  11940.494  11940.500  0.500  1.192152  61.647  18.714  9.528011
  11940.810  11940.800  0.500  1.193158  61.6408  18.6933  9.510077
  11941.108  11941.100  0.500  1.194382  61.6387  18.6698  9.492809
  11941.406  11941.400  0.500  1.195671  61.6367  18.6451  9.476308
  11941.698  11941.700  0.500  1.196915  61.6394  18.6228  9.461256
  11942.002  11942.000  0.500  1.198192  61.6223  18.5939  9.441253
  11942.300  11942.300  0.500  1.199592  61.6209  18.5674  9.420821
  11942.598  11942.600  0.500  1.201108  61.619  18.5387  9.401744
  11942.890  11942.900  0.500  1.202427  61.6179  18.514  9.382713
  11943.206  11943.200  0.500  1.203855  61.6158  18.4869  9.360430
  11943.492  11943.500  0.500  1.205261  61.6083  18.4587  9.335661
  11943.691  11943.700  0.500  1.206243  61.6111  18.4414  9.320107
  11944.690  11944.690  0.500  1.211242  61.5911  18.3435  9.214596
  11945.709  11945.690  0.500  1.216207  61.5708  18.2466  9.087780
  11946.746  11946.710  0.500  1.221132  61.5614  18.1542  8.954496
  11947.777  11947.760  0.500  1.225754  61.5459  18.066  8.845459
  11948.846  11948.820  0.500  1.229857  61.5279  17.9867  8.781833
  11949.909  11949.900  0.500  1.233515  61.5116  17.9163  8.763302
  11951.009  11951.000  0.500  1.237375  61.4936  17.842  8.773769
  11952.128  11952.120  0.500  1.241037  61.4813  17.7733  8.800168
  11953.279  11953.260  0.500  1.244179  61.4666  17.7133  8.817994
  11954.429  11954.410  0.500  1.247217  61.4568  17.6567  8.818403
  11955.599  11955.590  0.500  1.250080  61.4262  17.5975  8.802080
  11956.781  11956.780  0.500  1.252752  61.4149  17.5473  8.783739
  11958.007  11958.000  0.500  1.255338  61.3973  17.497  8.772841
  11959.240  11959.230  0.500  1.257671  61.3818  17.4518  8.763029
  11960.503  11960.480  0.500  1.259924  61.3625  17.4071  8.748600
  11961.768  11961.750  0.500  1.261903  61.3389  17.366  8.723219
  11963.026  11963.040  0.500  1.264013  61.3274  17.3261  8.686010
  11964.347  11964.350  0.500  1.265688  61.3066  17.2912  8.635471
  11965.686  11965.680  0.500  1.267282  61.2979  17.2613  8.584691
  11967.058  11967.030  0.500  1.268333  61.2669  17.2344  8.528108
  11968.417  11968.400  0.500  1.269055  61.2458  17.216  8.482735
  11969.795  11969.780  0.500  1.269685  61.2273  17.2  8.445319
  11971.198  11971.190  0.500  1.270011  61.2039  17.1878  8.420097
  11972.608  11972.610  0.500  1.270181  61.185  17.1796  8.417393
  11974.068  11974.050  0.500  1.269868  61.162  17.1785  8.434133
  11975.529  11975.510  0.500  1.269022  61.1461  17.1885  8.461613
  11976.984  11976.990  0.500  1.267410  61.1226  17.2097  8.496021
  11978.495  11978.490  0.500  1.265270  61.1047  17.2415  8.533894
  11980.025  11980.010  0.500  1.262077  61.0795  17.2895  8.576076
  11981.556  11981.550  0.500  1.258113  61.0589  17.3523  8.621387
  11983.106  11983.110  0.500  1.253849  61.0306  17.4184  8.667559
  11984.656  11984.680  0.500  1.249243  61.0087  17.4925  8.715784
  11986.276  11986.280  0.500  1.244240  60.986  17.5737  8.766979
  11987.890  11987.890  0.500  1.239634  60.9712  17.6506  8.820645
  11989.510  11989.530  0.500  1.235282  60.9462  17.7203  8.875227
  11991.143  11991.180  0.500  1.231542  60.9228  17.7798  8.925213
  11992.840  11992.850  0.500  1.228361  60.8911  17.8272  8.964753
  11994.518  11994.540  0.500  1.225991  60.8707  17.8635  8.989324
  11996.240  11996.250  0.500  1.224151  60.8467  17.8894  8.999740
  11997.957  11997.980  0.500  1.223119  60.8249  17.9014  9.002813
  11999.718  11999.730  0.500  1.222407  60.8029  17.9077  8.996679
  12001.611  12001.490  0.500  1.222134  60.7761  17.9047  8.980433
  12003.223  12003.280  0.500  1.222128  60.7332  17.8922  8.955276
  12005.343  12005.080  0.500  1.222654  60.7145  17.8773  8.924381
  12007.019  12006.910  0.500  1.223252  60.6839  17.8576  8.897497
  12008.789  12008.750  0.500  1.223976  60.6617  17.8381  8.875135
  12010.629  12010.610  0.500  1.224835  60.638  17.8158  8.860397
  12012.525  12012.490  0.500  1.225642  60.6068  17.7923  8.851923
  12014.429  12014.390  0.500  1.226842  60.5923  17.7667  8.847507
  12016.333  12016.310  0.500  1.228063  60.5586  17.7351  8.844206
  12018.257  12018.250  0.500  1.229475  60.5343  17.703  8.839212
  12020.213  12020.210  0.500  1.230746  60.5078  17.6728  8.832796
  12022.194  12022.180  0.500  1.232286  60.4874  17.6396  8.824632
  12024.202  12024.180  0.500  1.233588  60.4542  17.607  8.812861
  12026.216  12026.190  0.500  1.235116  60.4254  17.5718  8.798793
  12028.232  12028.220  0.500  1.236356  60.3982  17.5421  8.785558
  12030.285  12030.280  0.500  1.237181  60.3719  17.52  8.774902
  12032.352  12032.350  0.500  1.237634  60.5495  17.5636  8.798524
  12034.451  12034.440  0.500  1.237447  60.5142  17.5566  8.799223
  12036.576  12036.550  0.500  1.236539  60.4862  17.5644  8.808501
  12038.715  12038.680  0.500  1.234837  60.4562  17.5856  8.828090
  12040.835  12040.820  0.500  1.232527  60.4305  17.6188  8.858222
  12042.982  12042.990  0.500  1.229504  60.3786  17.657  8.888586
  12045.186  12045.180  0.500  1.226169  60.3154  17.6974  8.921904
  12047.397  12047.380  0.500  1.222671  59.1477  17.4156  8.788136
  12049.622  12049.600  0.500  1.219114  59.3774  17.5455  8.859642
  12051.866  12051.850  0.500  1.216302  60.191  17.836  9.011602
  12054.118  12054.110  0.500  1.213861  60.2097  17.8852  9.034244
  12056.389  12056.390  0.500  1.211685  60.1828  17.9161  9.046033
  12058.706  12058.690  0.500  1.209924  60.1559  17.9397  9.051473
  12061.029  12061.010  0.500  1.208712  60.1265  17.9527  9.052329
  12063.373  12063.350  0.500  1.207599  60.1  17.9647  9.051490
  12065.712  12065.700  0.500  1.206855  60.0705  17.9693  9.049975
  12068.083  12068.080  0.500  1.206109  60.0336  17.9716  9.047507
  12070.461  12070.470  0.500  1.205500  60.0032  17.9735  9.047412
  12072.903  12072.890  0.500  1.205072  59.964  17.9694  9.044368
  12075.347  12075.320  0.500  1.204712  59.938  17.9681  9.042248
  12077.779  12077.770  0.500  1.204191  59.9065  17.968  9.041824
  12080.238  12080.250  0.500  1.203934  59.8602  17.9587  9.039704
  12082.748  12082.740  0.500  1.203849  59.832  17.9518  9.038099
  12085.278  12085.250  0.500  1.203951  59.796  17.9392  9.037430
  12087.791  12087.770  0.500  1.204228  59.7624  17.9242  9.028907
  12090.329  12090.320  0.500  1.204657  59.7222  17.9044  9.020416
  12092.895  12092.890  0.500  1.205160  59.5177  17.8341  8.982637
  12095.474  12095.470  0.500  1.206008  59.6673  17.8638  8.999658
  12098.099  12098.080  0.500  1.206632  59.6363  17.8434  8.991872
  12100.725  12100.700  0.500  1.207359  59.5998  17.8195  8.988385
  12103.333  12103.350  0.500  1.208109  59.5624  17.795  8.989638
  12105.994  12106.010  0.500  1.208505  59.5325  17.779  8.996369
  12108.700  12108.690  0.500  1.208541  59.492  17.7662  9.002677
  12111.395  12111.390  0.500  1.208163  59.457  17.7625  9.010685
  12114.104  12114.110  0.500  1.207377  59.4253  17.767  9.018177
  12116.839  12116.850  0.500  1.206177  59.3822  17.7754  9.026185
  12119.614  12119.600  0.500  1.204770  59.3528  17.7916  9.039180
  12122.391  12122.380  0.500  1.203270  59.3119  17.8061  9.051197
  12125.155  12125.170  0.500  1.201271  59.2708  17.8294  9.062583
  12127.998  12127.990  0.500  1.199334  59.2062  17.8444  9.071204
  12130.824  12130.820  0.500  1.197409  59.1325  17.8566  9.076455
  12133.676  12133.670  0.500  1.195506  59.176  17.9037  9.098568
  12136.555  12136.550  0.500  1.193578  59.1332  17.9253  9.104218
  12139.455  12139.440  0.500  1.191666  59.0958  17.9483  9.107295
  12142.362  12142.350  0.500  1.189939  59.0565  17.9673  9.111397
  12145.271  12145.270  0.500  1.188303  59.0151  17.9841  9.113153
  12148.233  12148.220  0.500  1.186678  58.9715  18.0001  9.115454
  12151.216  12151.190  0.500  1.185154  58.931  18.0152  9.121600
  12154.174  12154.170  0.500  1.183822  58.8933  18.0276  9.129340
  12157.179  12157.180  0.500  1.182564  58.8458  18.0358  9.141166
  12160.224  12160.200  0.500  1.181347  58.7974  18.0429  9.152753
  12163.271  12163.250  0.500  1.180117  58.5531  17.99  9.137152
  12166.319  12166.310  0.500  1.179301  58.7316  18.0596  9.184913
  12169.426  12169.390  0.500  1.178607  58.6908  18.0596  9.201571
  12172.504  12172.490  0.500  1.177913  58.6448  18.058  9.212051
  12175.621  12175.610  0.500  1.177347  58.5991  18.0541  9.222630
  12178.779  12178.750  0.500  1.177146  58.5557  18.0443  9.227053
  12181.919  12181.900  0.500  1.176727  58.5082  18.0373  9.225933
  12185.099  12185.080  0.500  1.176458  58.4637  18.0284  9.223292
  12188.294  12188.270  0.500  1.176104  58.4186  18.0209  9.218519
  12191.517  12191.490  0.500  1.175915  58.3747  18.0107  9.215668
  12194.728  12194.720  0.500  1.175547  58.3311  18.0039  9.215574
  12197.987  12197.970  0.500  1.174899  58.2855  18.0015  9.218935
  12201.266  12201.250  0.500  1.174203  58.0197  17.9319  9.187627
  12204.535  12204.540  0.500  1.173406  58.2127  18.0059  9.228947
  12207.877  12207.850  0.500  1.172228  58.1678  18.0132  9.231124
  12211.194  12211.170  0.500  1.170998  58.1192  18.0203  9.233348
  12214.533  12214.520  0.500  1.169605  58.0768  18.0322  9.235598
  12217.919  12217.890  0.500  1.168142  58.0304  18.0442  9.239664
  12221.308  12221.270  0.500  1.166518  57.9885  18.0605  9.245514
  12224.678  12224.680  0.500  1.164882  57.9451  18.0765  9.253130
  12228.116  12228.100  0.500  1.163186  57.9014  18.0936  9.264154
  12231.575  12231.550  0.500  1.161479  57.8453  18.1069  9.276255
  12235.023  12235.010  0.500  1.159833  56.6781  17.7708  9.113864
  12238.505  12238.490  0.500  1.158004  57.614  18.0973  9.292030
  12242.023  12241.990  0.500  1.156278  57.676  18.1481  9.330570
  12245.516  12245.510  0.500  1.154612  57.6453  18.1686  9.352167
  12249.076  12249.050  0.500  1.153030  57.6008  18.1833  9.369560
  12252.613  12252.600  0.500  1.151327  57.5534  18.1993  9.384291
  12256.197  12256.180  0.500  1.149987  57.3716  18.1662  9.374088
  12259.803  12259.780  0.500  1.148438  57.449  18.2189  9.404327
  12263.405  12263.390  0.500  1.147055  56.9367  18.0814  9.336991
  12267.029  12267.020  0.500  1.145665  57.09  18.1553  9.377837
  12270.700  12270.680  0.500  1.144381  57.1557  18.1996  9.404591
  12274.341  12274.350  0.500  1.143086  57.2578  18.2557  9.437009
  12278.063  12278.040  0.500  1.141995  57.2104  18.2605  9.444532
  12281.761  12281.750  0.500  1.140925  57.1505  18.2609  9.449308
  12285.488  12285.480  0.500  1.139863  57.0362  18.2438  9.444067
  12289.243  12289.220  0.500  1.139055  56.8191  18.189  9.418611
  12293.000  12292.990  0.500  1.137949  56.531  18.1168  9.379688
  12296.787  12296.780  0.500  1.137251  56.9043  18.2492  9.449172
  12300.602  12300.580  0.500  1.136158  56.7943  18.2338  9.442860
  12304.419  12304.410  0.500  1.135104  56.823  18.2623  9.459827
  12308.258  12308.250  0.500  1.134351  56.7749  18.2605  9.462198
  12312.120  12312.110  0.500  1.133079  56.7175  18.2653  9.468021
  12315.991  12315.990  0.500  1.132030  56.6643  18.2673  9.471457
  12319.904  12319.890  0.500  1.130759  56.2008  18.1409  9.412087
  12323.819  12323.810  0.500  1.129459  56.3379  18.2089  9.456013
  12327.770  12327.750  0.500  1.128251  56.4771  18.2759  9.500259
  12331.711  12331.710  0.500  1.126692  56.4405  18.2926  9.518539
  12335.707  12335.680  0.500  1.125143  56.392  18.3052  9.535237
  12339.705  12339.680  0.500  1.123667  56.3432  18.3163  9.550075
  12343.713  12343.690  0.500  1.122175  56.2922  18.3271  9.564871
  12347.777  12347.730  0.500  1.120445  56.229  18.3382  9.576835
  12351.777  12351.780  0.500  1.118708  56.1778  18.3534  9.587096
  12355.879  12355.850  0.500  1.117088  56.126  18.3662  9.596308
  12359.944  12359.940  0.500  1.115439  56.0858  18.3833  9.609862
  12364.065  12364.050  0.500  1.113734  55.9625  18.3742  9.607487
  12368.216  12368.180  0.500  1.111960  55.9829  18.4136  9.629698
  12372.336  12372.330  0.500  1.110281  55.8848  18.4122  9.632869
  12376.526  12376.490  0.500  1.108645  55.8766  18.4396  9.648756
  12380.691  12380.680  0.500  1.107096  55.8025  18.4437  9.656094
  12384.907  12384.880  0.500  1.105377  55.39  18.3389  9.604871
  12389.118  12389.110  0.500  1.104004  55.727  18.4758  9.679974
  12393.366  12393.350  0.500  1.102467  55.6625  18.4828  9.690226
  12397.651  12397.610  0.500  1.100995  55.6084  18.492  9.698540
  12401.911  12401.890  0.500  1.099416  55.5463  18.5006  9.706887
  12406.215  12406.190  0.500  1.098220  55.4885  18.5034  9.717260
  12410.542  12410.510  0.500  1.096930  55.4112  18.5015  9.722052
  12414.878  12414.850  0.500  1.095480  55.3731  18.5156  9.735398
  12419.238  12419.210  0.500  1.094098  55.3136  18.5213  9.746382
  12423.588  12423.590  0.500  1.092923  55.2416  18.5189  9.753662
  12428.021  12427.980  0.500  1.091404  55.194  18.5311  9.767107
  12432.404  12432.400  0.500  1.090135  55.1258  18.5317  9.775352
  12436.864  12436.830  0.500  1.088668  54.7041  18.4169  9.720767
  12441.314  12441.280  0.500  1.087211  55.047  18.5594  9.802323
  12445.780  12445.750  0.500  1.085821  54.9835  18.5638  9.813141
  12450.270  12450.240  0.500  1.084235  54.9116  18.5689  9.820880
  12454.764  12454.750  0.500  1.082626  54.7971  18.56  9.822234
  12459.308  12459.280  0.500  1.081134  54.8078  18.5914  9.843745
  12463.862  12463.830  0.500  1.079459  54.7445  18.6011  9.852528
  12468.446  12468.400  0.500  1.077926  54.6518  18.598  9.857314
  12473.021  12472.980  0.500  1.076098  54.6277  18.6239  9.876135
  12477.612  12477.590  0.500  1.074465  54.559  18.6308  9.882696
  12482.247  12482.210  0.500  1.072593  54.4866  18.641  9.890863
  12486.873  12486.860  0.500  1.070874  54.1632  18.5622  9.854355
  12491.556  12491.520  0.500  1.069057  54.4065  18.6795  9.922827
  12496.229  12496.200  0.500  1.067257  54.3391  18.69  9.931546
  12500.933  12500.900  0.500  1.065508  54.2759  18.7009  9.943401
  12505.655  12505.620  0.500  1.063779  54.2083  18.7099  9.954272
  12510.400  12510.360  0.500  1.062016  54.1513  18.7232  9.968315
  12515.142  12515.110  0.500  1.060206  54.0903  18.736  9.980519
  12519.936  12519.890  0.500  1.058537  54.028  18.7457  9.994622
  12524.719  12524.690  0.500  1.056879  53.9635  18.7544  10.0069
  12529.548  12529.500  0.500  1.055075  53.8988  18.7658  10.0215
  12534.353  12534.330  0.500  1.053566  53.8321  18.7708  10.0315
  12539.264  12539.190  0.500  1.051842  53.7092  18.7603  10.0338
  12544.056  12544.060  0.500  1.050089  53.731  18.8008  10.0617
  12548.982  12548.950  0.500  1.048600  53.6641  18.8054  10.0718
  12553.884  12553.860  0.500  1.047026  53.5957  18.811  10.0819
  12558.811  12558.790  0.500  1.045402  53.5244  18.8165  10.0921
  12563.783  12563.730  0.500  1.043729  53.4699  18.8289  10.1062
  12568.738  12568.700  0.500  1.042122  53.4027  18.8354  10.1152
  12573.732  12573.690  0.500  1.040478  53.3408  18.8446  10.1256
  12578.723  12578.690  0.500  1.038948  53.2667  18.8472  10.1324
  12583.745  12583.720  0.500  1.037187  53.2066  18.8591  10.1434
  12588.813  12588.760  0.500  1.035635  53.1451  18.8666  10.1532
  12593.844  12593.820  0.500  1.033922  53.079  18.8754  10.1647
  12598.948  12598.900  0.500  1.032120  53.0133  18.886  10.1741
  12604.042  12604.000  0.500  1.030356  52.9449  18.895  10.184
  12609.148  12609.120  0.500  1.028694  52.8833  18.9044  10.1964
  12614.320  12614.260  0.500  1.026939  52.8201  18.915  10.2069
  12619.433  12619.420  0.500  1.025234  52.7565  18.9244  10.2193
  12624.663  12624.600  0.500  1.023371  52.676  18.9308  10.2302
  12629.820  12629.790  0.500  1.021463  52.598  18.9388  10.2408
  12635.058  12635.010  0.500  1.019500  52.4887  18.9366  10.2484
  12640.265  12640.240  0.500  1.017606  52.4876  18.9721  10.2767
  12645.547  12645.490  0.500  1.015786  52.4308  18.9861  10.292
  12650.798  12650.760  0.500  1.014005  52.3578  18.9935  10.3022
  12656.088  12656.050  0.500  1.012148  52.304  19.0092  10.318
  12661.397  12661.360  0.500  1.010272  52.2344  19.0196  10.3312
  12666.710  12666.690  0.500  1.008474  52.1627  19.0277  10.3448
  12672.084  12672.040  0.500  1.006499  52.1006  19.0426  10.3588
  12677.435  12677.410  0.500  1.004745  52.0321  19.0509  10.3732
  12682.839  12682.790  0.500  1.002833  51.9565  19.0597  10.383
  12688.241  12688.200  0.500  1.001011  51.8946  19.0717  10.3977
  12693.647  12693.620  0.500  0.999129  51.8268  19.0826  10.4116
  12699.115  12699.070  0.500  0.997222  51.7566  19.0932  10.4227
  12704.566  12704.530  0.500  0.995502  51.6914  19.1019  10.4336
  12710.057  12710.010  0.500  0.993585  51.6174  19.1112  10.4475
  12715.546  12715.510  0.500  0.992059  51.6276  19.1441  10.473
  12721.082  12721.030  0.500  0.989951  51.5503  19.1558  10.4823
  12726.601  12726.570  0.500  0.988157  51.4778  19.1632  10.4945
  12732.168  12732.120  0.500  0.986362  51.4298  19.1798  10.509
  12737.747  12737.700  0.500  0.984593  50.7363  18.9546  10.3923
  12743.338  12743.300  0.500  0.982753  51.3034  19.2018  10.5351
  12748.962  12748.910  0.500  0.980813  51.2279  19.2108  10.5476
  12754.584  12754.550  0.500  0.979080  51.165  19.2205  10.5603
  12760.261  12760.200  0.500  0.977087  51.0891  19.2303  10.5733
  12765.915  12765.870  0.500  0.975246  51.0211  19.24  10.5884
  12771.609  12771.560  0.500  0.973398  50.9547  19.2505  10.6013