File: xdidata/Au/Au-L1-GoldOxide.xdi
# XDI/1.0 BlueSky/1.10.0 BMM/2023-1.0-py310-tiled
# Beamline.name: BMM (06BM) -- Beamline for Materials Measurement (NIST)
# Beamline.xray_source: NSLS-II three-pole wiggler
# Beamline.collimation: paraboloid mirror, 5 nm Rh on 30 nm Pt
# Beamline.focusing: not in use
# Beamline.harmonic_rejection: flat mirror, Pt stripe, pitch = 7.0 mrad relative to beam
# Beamline.software: Bluesky 1.10.0, Ophyd 1.7.0, DataBroker 2.0.0b13, Python 3.10.8, 2023-1.0-py310-tiled
# Detector.I0: 10 cm N2
# Detector.I1: 25 cm N2
# Detector.I2: 25 cm N2
# Element.symbol: Au
# Element.edge: L1
# Element.reference: Au
# Element.reference_material: Au foil
# Facility.name: NSLS-II
# Facility.energy: 3.0
# Facility.current: 399.9
# Facility.mode: top-off
# Facility.GUP: 301027
# Facility.SAF: 310583
# Facility.cycle: 2023-2
# Mono.name: Si(111)
# Mono.d_spacing: 3.13519
# Mono.encoder_resolution: 0.0000050 deg/ct
# Mono.angle_offset: 16.0754 deg
# Mono.scan_mode: pseudo channel cut
# Mono.scan_type: step
# Mono.direction: forward in energy
# Sample.name: Au2O3, Gold oxide
# Sample.prep: powder on tape
# Sample.x: 145.711 mm
# Sample.y: 114.376 mm
# Sample.SDD_position: 205.000 mm
# Scan.experimenters: Bruce Ravel
# Scan.edge_energy: 14352.8
# Scan.start_time: 2023-06-27T20:44:48
# Scan.end_time: 2023-06-27T20:52:37
# Scan.transient_id: 85308
# Scan.uid: d4ce6a27-e782-4207-bf33-a93cd29eed75
# Scan.plot_hint: ln(I0/It)  --  ln($5/$6)
# Column.1: energy eV
# Column.2: requested_energy eV
# Column.3: measurement_time seconds
# Column.4: xmu
# Column.5: I0 nA
# Column.6: It nA
# Column.7: Ir nA
# ///////////
# sample courtesy Martin Stennett, University of Sheffield
# -----------
# energy  requested_energy  measurement_time  xmu  I0  It  Ir
  14152.564  14152.800  0.500  1.795380  34.299  5.695840  3.217571
  14162.821  14162.800  0.500  1.791167  34.0539  5.679011  3.212427
  14172.848  14172.800  0.500  1.788939  34.3182  5.735862  3.246145
  14182.836  14182.800  0.500  1.786777  34.2026  5.728910  3.244695
  14192.847  14192.800  0.500  1.784373  34.1161  5.728180  3.245595
  14202.917  14202.800  0.500  1.781962  34.0352  5.728385  3.249514
  14212.851  14212.800  0.500  1.779000  33.9688  5.734164  3.254856
  14222.834  14222.800  0.500  1.775486  33.8818  5.739611  3.261466
  14232.894  14232.800  0.500  1.771547  33.8036  5.748964  3.270580
  14242.879  14242.800  0.500  1.767765  33.726  5.757514  3.278528
  14252.932  14252.800  0.500  1.763915  33.6545  5.767466  3.287571
  14262.785  14262.800  0.500  1.760854  33.5594  5.768791  3.292085
  14272.786  14272.800  0.500  1.758540  31.6811  5.458535  3.117330
  14282.819  14282.800  0.500  1.755930  33.4391  5.776491  3.299942
  14292.795  14292.800  0.500  1.754457  33.3786  5.774531  3.301033
  14302.830  14302.800  0.500  1.752785  33.2731  5.765927  3.297804
  14312.825  14312.800  0.500  1.751940  33.2346  5.764121  3.299282
  14322.825  14322.800  0.500  1.751016  33.1579  5.756121  3.295996
  14324.771  14324.800  0.500  1.751080  33.1498  5.754359  3.294727
  14326.772  14326.800  0.500  1.751122  33.1268  5.750123  3.293029
  14328.764  14328.800  0.500  1.751060  33.1134  5.748150  3.290738
  14330.748  14330.800  0.500  1.751419  33.1062  5.744837  3.289426
  14332.741  14332.800  0.500  1.751913  33.0767  5.736874  3.282916
  14334.761  14334.800  0.500  1.752765  33.09  5.734307  3.282942
  14336.783  14336.800  0.500  1.753527  33.0657  5.725729  3.277390
  14338.760  14338.800  0.500  1.754681  33.0524  5.716824  3.271240
  14340.782  14340.800  0.500  1.756258  33.0328  5.704440  3.262257
  14342.751  14342.800  0.500  1.758322  33.0156  5.689710  3.252581
  14343.030  14343.100  0.500  1.758853  32.9999  5.683986  3.249928
  14343.327  14343.400  0.500  1.759163  33.0087  5.683738  3.249145
  14343.623  14343.700  0.500  1.759440  33.0108  5.682510  3.247827
  14343.947  14344.000  0.500  1.760273  32.9783  5.672198  3.241064
  14344.253  14344.300  0.500  1.760536  32.9787  5.670776  3.239587
  14344.541  14344.600  0.500  1.761417  32.9763  5.665363  3.237377
  14344.847  14344.900  0.500  1.761752  32.9704  5.662467  3.234964
  14345.144  14345.200  0.500  1.762190  32.9855  5.662577  3.233965
  14345.467  14345.500  0.500  1.762869  32.9654  5.655280  3.229500
  14345.755  14345.800  0.500  1.763646  32.9779  5.653022  3.227143
  14346.070  14346.100  0.500  1.764232  32.9811  5.650269  3.225165
  14346.376  14346.400  0.500  1.764920  32.9808  5.646335  3.223213
  14346.655  14346.700  0.500  1.765838  32.9764  5.640405  3.217970
  14346.970  14347.000  0.500  1.766403  32.9887  5.639317  3.218315
  14347.276  14347.300  0.500  1.767446  32.9714  5.630482  3.212652
  14347.564  14347.600  0.500  1.768230  32.9704  5.625897  3.209358
  14347.879  14347.900  0.500  1.769089  32.9904  5.624465  3.208070
  14348.167  14348.200  0.500  1.770167  32.9693  5.614815  3.201392
  14348.446  14348.500  0.500  1.771053  32.9759  5.610974  3.198661
  14348.770  14348.800  0.500  1.772323  32.9641  5.601849  3.193132
  14349.058  14349.100  0.500  1.773420  32.9686  5.596461  3.189148
  14349.355  14349.400  0.500  1.774581  32.959  5.588355  3.182269
  14349.679  14349.700  0.500  1.776023  32.9626  5.580908  3.177619
  14349.958  14350.000  0.500  1.776998  32.9592  5.574885  3.172548
  14350.255  14350.300  0.500  1.778567  32.9502  5.564630  3.166056
  14350.570  14350.600  0.500  1.780020  32.9536  5.557126  3.160777
  14350.858  14350.900  0.500  1.781507  32.941  5.546742  3.153244
  14351.182  14351.200  0.500  1.783331  32.9373  5.536017  3.146046
  14351.461  14351.500  0.500  1.785000  32.9516  5.529174  3.141271
  14351.776  14351.800  0.500  1.786996  32.9457  5.517158  3.132811
  14352.100  14352.100  0.500  1.788894  32.9288  5.503877  3.123597
  14352.370  14352.400  0.500  1.791090  32.9316  5.492268  3.116073
  14352.704  14352.700  0.500  1.793436  32.9246  5.478240  3.105009
  14352.983  14353.000  0.500  1.795647  32.9296  5.466980  3.097323
  14353.289  14353.300  0.500  1.798378  32.914  5.449487  3.085469
  14353.595  14353.600  0.500  1.800999  32.9165  5.435626  3.075796
  14353.883  14353.900  0.500  1.803862  32.9177  5.420279  3.065416
  14354.199  14354.200  0.500  1.806708  32.9131  5.404133  3.054040
  14354.469  14354.500  0.500  1.809810  32.9128  5.387345  3.043143
  14354.802  14354.800  0.500  1.813422  33.0331  5.387536  3.040695
  14355.099  14355.100  0.500  1.816346  33.0208  5.369810  3.027454
  14355.397  14355.400  0.500  1.819941  33.0071  5.348311  3.012454
  14355.694  14355.700  0.500  1.823476  33.0073  5.329479  3.000500
  14355.982  14356.000  0.500  1.827162  32.9993  5.308578  2.985332
  14356.289  14356.300  0.500  1.831188  32.9924  5.286139  2.970226
  14356.577  14356.600  0.500  1.834453  32.9911  5.268713  2.957520
  14356.910  14356.900  0.500  1.838743  32.98  5.244383  2.940864
  14357.181  14357.200  0.500  1.842458  32.9788  5.224757  2.926601
  14357.496  14357.500  0.500  1.846505  32.9725  5.202657  2.911501
  14357.784  14357.800  0.500  1.850251  32.964  5.181860  2.897070
  14358.073  14358.100  0.500  1.854162  32.9457  5.158773  2.881552
  14358.379  14358.400  0.500  1.858310  32.9255  5.134270  2.866469
  14358.685  14358.700  0.500  1.862206  32.9122  5.112231  2.849902
  14359.010  14359.000  0.500  1.866548  32.8898  5.086620  2.833104
  14359.289  14359.300  0.500  1.870142  32.8815  5.067103  2.818089
  14359.614  14359.600  0.500  1.874113  32.8879  5.048002  2.806065
  14359.884  14359.900  0.500  1.878102  32.873  5.025630  2.790887
  14360.209  14360.200  0.500  1.882702  32.8948  5.005872  2.777401
  14360.506  14360.500  0.500  1.886463  32.9049  4.988610  2.764868
  14360.804  14360.800  0.500  1.890739  32.9185  4.969384  2.752682
  14361.110  14361.100  0.500  1.894895  32.9266  4.949985  2.738513
  14361.399  14361.400  0.500  1.898750  32.9446  4.933640  2.727079
  14361.705  14361.700  0.500  1.902896  32.952  4.914332  2.713703
  14362.003  14362.000  0.500  1.907148  32.9365  4.891180  2.698121
  14362.318  14362.300  0.500  1.911179  32.9458  4.872882  2.685241
  14362.598  14362.600  0.500  1.915186  32.9377  4.852197  2.671120
  14362.923  14362.900  0.500  1.919617  32.9344  4.830261  2.655770
  14363.202  14363.200  0.500  1.923658  32.9323  4.810470  2.643464
  14363.500  14363.500  0.500  1.927380  32.9338  4.792827  2.630602
  14363.788  14363.800  0.500  1.931203  32.936  4.774856  2.617101
  14364.095  14364.100  0.500  1.935096  32.9323  4.755773  2.604252
  14364.393  14364.400  0.500  1.939132  32.9276  4.735937  2.591295
  14364.681  14364.700  0.500  1.942757  32.9196  4.717648  2.579121
  14364.979  14365.000  0.500  1.946459  32.9159  4.699695  2.566924
  14365.277  14365.300  0.500  1.949650  32.9217  4.685549  2.557266
  14365.583  14365.600  0.500  1.953356  32.9159  4.667393  2.545116
  14365.881  14365.900  0.500  1.956470  32.9052  4.651366  2.534730
  14366.188  14366.200  0.500  1.959671  32.9167  4.638119  2.525898
  14366.486  14366.500  0.500  1.962229  32.8899  4.622500  2.514498
  14366.792  14366.800  0.500  1.964821  32.8848  4.609817  2.507127
  14367.099  14367.100  0.500  1.967341  32.8711  4.596311  2.497612
  14367.388  14367.400  0.500  1.969501  32.8641  4.585409  2.490671
  14367.722  14367.700  0.500  1.971766  32.8434  4.572154  2.481725
  14367.992  14368.000  0.500  1.973425  32.8356  4.563496  2.477394
  14368.308  14368.300  0.500  1.974933  32.822  4.554724  2.471215
  14368.606  14368.600  0.500  1.976096  32.825  4.549844  2.467348
  14368.913  14368.900  0.500  1.977178  32.8262  4.545100  2.463879
  14369.211  14369.200  0.500  1.978096  32.8336  4.541955  2.461858
  14369.500  14369.500  0.500  1.978634  32.854  4.542329  2.461999
  14369.825  14369.800  0.500  1.979373  32.8654  4.540555  2.460630
  14370.113  14370.100  0.500  1.979869  32.854  4.536717  2.458127
  14370.411  14370.400  0.500  1.979978  32.8595  4.536993  2.457912
  14370.700  14370.700  0.500  1.980090  32.872  4.538200  2.459764
  14370.998  14371.000  0.500  1.980165  32.8695  4.537523  2.458903
  14371.314  14371.300  0.500  1.979765  32.858  4.537743  2.458825
  14371.594  14371.600  0.500  1.979467  32.8562  4.538843  2.460688
  14371.883  14371.900  0.500  1.979226  32.853  4.539497  2.460709
  14372.181  14372.200  0.500  1.978880  32.8511  4.540806  2.462498
  14372.479  14372.500  0.500  1.978103  32.8429  4.543206  2.464004
  14372.795  14372.800  0.500  1.977654  32.8471  4.545831  2.465520
  14373.075  14373.100  0.500  1.976761  32.8557  4.551080  2.468834
  14373.382  14373.400  0.500  1.975958  32.8433  4.553019  2.469522
  14373.671  14373.700  0.500  1.975235  32.8337  4.554983  2.472693
  14373.996  14374.000  0.500  1.973956  32.8346  4.560937  2.475633
  14374.285  14374.300  0.500  1.973065  32.827  4.563947  2.477792
  14374.583  14374.600  0.500  1.972423  32.8337  4.567800  2.480627
  14374.908  14374.900  0.500  1.971160  32.8192  4.571551  2.483638
  14375.188  14375.200  0.500  1.970300  32.8142  4.574796  2.486492
  14375.523  14375.500  0.500  1.968831  32.8028  4.579929  2.489667
  14375.803  14375.800  0.500  1.967901  32.7915  4.582614  2.491851
  14376.101  14376.100  0.500  1.966716  32.7736  4.585543  2.494056
  14376.408  14376.400  0.500  1.965280  32.7676  4.591284  2.496805
  14376.697  14376.700  0.500  1.964384  32.7674  4.595374  2.501586
  14377.022  14377.000  0.500  1.963298  32.7359  4.595946  2.502570
  14377.312  14377.300  0.500  1.962120  32.7447  4.602600  2.506819
  14377.610  14377.600  0.500  1.961061  32.7474  4.607855  2.511383
  14377.800  14377.800  0.500  1.959997  32.7553  4.613879  2.513658
  14378.830  14378.790  0.500  1.956951  32.771  4.630172  2.525078
  14379.797  14379.790  0.500  1.954354  32.7827  4.643872  2.533936
  14380.800  14380.810  0.500  1.952571  32.7914  4.653387  2.540648
  14381.876  14381.860  0.500  1.951689  32.7744  4.655084  2.540722
  14382.934  14382.920  0.500  1.952479  32.7637  4.649878  2.539309
  14384.029  14384.000  0.500  1.954176  32.7563  4.640951  2.533348
  14385.123  14385.100  0.500  1.956384  32.7251  4.626307  2.523202
  14386.263  14386.220  0.500  1.960047  32.674  4.602188  2.507450
  14387.394  14387.360  0.500  1.964119  32.6912  4.585899  2.495801
  14388.525  14388.510  0.500  1.968304  32.711  4.569512  2.484626
  14389.693  14389.690  0.500  1.972361  32.7192  4.552149  2.472664
  14390.888  14390.880  0.500  1.975976  32.7138  4.534977  2.460945
  14392.128  14392.100  0.500  1.978503  32.6999  4.521610  2.452220
  14393.351  14393.330  0.500  1.979729  32.7131  4.517893  2.449314
  14394.610  14394.580  0.500  1.979557  32.6858  4.514906  2.447882
  14395.878  14395.850  0.500  1.977563  32.6731  4.522151  2.452555
  14397.156  14397.140  0.500  1.974952  32.6618  4.532416  2.459184
  14398.451  14398.450  0.500  1.971297  32.6548  4.548036  2.470973
  14399.793  14399.780  0.500  1.966692  32.6582  4.569495  2.484537
  14401.153  14401.130  0.500  1.962642  32.6455  4.586259  2.498102
  14402.540  14402.500  0.500  1.958961  32.6268  4.600533  2.506231
  14403.900  14403.880  0.500  1.956483  32.6033  4.608627  2.513413
  14405.324  14405.290  0.500  1.954755  32.5959  4.615547  2.517717
  14406.713  14406.710  0.500  1.953971  32.5926  4.618702  2.520037
  14408.164  14408.150  0.500  1.953643  32.5807  4.618533  2.520497
  14409.599  14409.610  0.500  1.953622  32.5616  4.615919  2.518827
  14411.078  14411.090  0.500  1.953551  32.4672  4.602871  2.511377
  14412.613  14412.590  0.500  1.954461  32.4083  4.590336  2.506170
  14414.139  14414.110  0.500  1.954284  32.4989  4.603980  2.512360
  14415.665  14415.650  0.500  1.954913  32.5237  4.604607  2.512325
  14417.227  14417.210  0.500  1.955505  32.5136  4.600448  2.510178
  14418.800  14418.780  0.500  1.955852  32.519  4.599609  2.508393
  14420.381  14420.380  0.500  1.956676  32.4769  4.589872  2.503433
  14422.000  14421.990  0.500  1.957145  32.3842  4.574624  2.495166
  14423.637  14423.630  0.500  1.957957  32.3157  4.561247  2.486902
  14425.283  14425.280  0.500  1.958918  32.443  4.574819  2.494355
  14426.957  14426.950  0.500  1.959759  32.4508  4.572070  2.491857
  14428.650  14428.640  0.500  1.960649  32.4408  4.566603  2.488638
  14430.379  14430.350  0.500  1.961007  32.4229  4.562442  2.485638
  14432.091  14432.080  0.500  1.960947  32.3593  4.553768  2.481689
  14433.848  14433.830  0.500  1.960097  32.221  4.538158  2.472868
  14435.607  14435.590  0.500  1.958988  32.3614  4.562990  2.488105
  14437.374  14437.380  0.500  1.956832  32.3938  4.577420  2.496841
  14439.170  14439.180  0.500  1.954506  32.3715  4.584927  2.503044
  14441.020  14441.010  0.500  1.952087  32.3584  4.594168  2.509602
  14442.871  14442.850  0.500  1.949699  32.3393  4.602436  2.515755
  14444.723  14444.710  0.500  1.947611  32.2548  4.599999  2.516081
  14446.602  14446.590  0.500  1.946272  32.193  4.597328  2.516028
  14448.482  14448.490  0.500  1.944730  32.3136  4.621688  2.530064
  14450.426  14450.410  0.500  1.944133  32.2828  4.620027  2.530563
  14452.353  14452.350  0.500  1.943089  32.2789  4.624303  2.532391
  14454.334  14454.310  0.500  1.942907  32.2609  4.622561  2.532667
  14456.280  14456.280  0.500  1.942385  32.259  4.624699  2.533351
  14458.272  14458.280  0.500  1.941985  32.246  4.624689  2.533440
  14460.283  14460.290  0.500  1.941380  32.2064  4.621804  2.532512
  14462.350  14462.320  0.500  1.940264  32.2065  4.626972  2.535061
  14464.416  14464.380  0.500  1.939780  32.189  4.626712  2.537787
  14466.438  14466.450  0.500  1.938431  32.1758  4.631047  2.540536
  14468.552  14468.540  0.500  1.937208  32.1568  4.633983  2.542066
  14470.667  14470.650  0.500  1.936166  32.1421  4.636688  2.544052
  14472.782  14472.780  0.500  1.935345  32.1257  4.638131  2.546007
  14474.943  14474.920  0.500  1.934612  32.1142  4.639876  2.546672
  14477.060  14477.090  0.500  1.934345  32.1066  4.640012  2.547614
  14479.287  14479.280  0.500  1.934058  32.0799  4.637476  2.546380
  14481.496  14481.480  0.500  1.934045  32.0177  4.628548  2.541540
  14483.688  14483.700  0.500  1.933944  32.0297  4.630750  2.543165
  14485.953  14485.950  0.500  1.934207  32.0295  4.629505  2.542860
  14488.137  14488.210  0.500  1.934061  32.0174  4.628439  2.542393
  14490.460  14490.490  0.500  1.933497  31.9944  4.627724  2.541739
  14492.746  14492.790  0.500  1.932880  31.9854  4.629268  2.543189
  14495.060  14495.110  0.500  1.932012  31.9746  4.631731  2.544435
  14497.403  14497.450  0.500  1.930907  31.952  4.633571  2.546868
  14499.774  14499.800  0.500  1.929866  31.9375  4.636293  2.548744
  14502.156  14502.180  0.500  1.928759  31.9194  4.638802  2.551654
  14504.768  14504.570  0.500  1.927180  31.8872  4.641436  2.552659
  14506.911  14506.990  0.500  1.925942  31.8829  4.646565  2.557010
  14509.460  14509.420  0.500  1.924669  31.8649  4.649863  2.559798
  14511.974  14511.870  0.500  1.923246  31.8439  4.653413  2.562623
  14514.387  14514.350  0.500  1.922331  31.8162  4.653624  2.565098
  14516.865  14516.840  0.500  1.920993  31.7752  4.653847  2.564921
  14519.353  14519.350  0.500  1.920183  31.7948  4.660490  2.569613
  14521.916  14521.870  0.500  1.919165  31.7712  4.661774  2.570914
  14524.433  14524.420  0.500  1.918048  31.7557  4.664699  2.573425
  14526.998  14526.990  0.500  1.916954  31.7356  4.666848  2.575614
  14529.582  14529.570  0.500  1.915425  31.7213  4.671885  2.579903
  14532.186  14532.180  0.500  1.913840  31.7086  4.677423  2.583334
  14534.836  14534.800  0.500  1.912711  31.8075  4.697323  2.594355
  14537.488  14537.450  0.500  1.911604  31.7757  4.697819  2.595483
  14540.150  14540.110  0.500  1.911358  31.761  4.696799  2.595518
  14542.831  14542.790  0.500  1.911161  31.7469  4.695639  2.594021
  14545.467  14545.490  0.500  1.911167  31.7254  4.692428  2.593625
  14548.196  14548.210  0.500  1.911442  31.6972  4.686976  2.590930
  14550.973  14550.950  0.500  1.911518  31.6537  4.680180  2.588466
  14553.723  14553.700  0.500  1.911258  31.6649  4.683052  2.588786
  14556.502  14556.480  0.500  1.910768  31.6478  4.682825  2.588327
  14559.291  14559.270  0.500  1.910539  31.6243  4.680415  2.588488
  14562.119  14562.090  0.500  1.909233  31.6025  4.683298  2.589811
  14564.920  14564.920  0.500  1.909029  31.5877  4.682066  2.590273
  14567.759  14567.770  0.500  1.908040  31.5688  4.683894  2.591859
  14570.673  14570.650  0.500  1.906305  31.559  4.690566  2.596015
  14573.570  14573.540  0.500  1.905262  31.5311  4.691313  2.598256
  14576.468  14576.450  0.500  1.903327  31.5128  4.697663  2.602425
  14579.367  14579.370  0.500  1.901369  31.487  4.703023  2.606628
  14582.314  14582.320  0.500  1.899659  31.4714  4.708737  2.611889
  14585.300  14585.290  0.500  1.897594  31.4422  4.714100  2.616853
  14588.295  14588.270  0.500  1.895604  31.4227  4.720560  2.621338
  14591.311  14591.280  0.500  1.893663  31.3982  4.726040  2.625332
  14594.319  14594.300  0.500  1.892032  31.3798  4.730986  2.629200
  14597.356  14597.350  0.500  1.890289  31.3608  4.736362  2.633307
  14600.403  14600.410  0.500  1.889195  31.3438  4.738981  2.636243
  14603.489  14603.490  0.500  1.887837  31.3225  4.742186  2.637845
  14606.595  14606.590  0.500  1.887384  31.2948  4.740153  2.638479
  14609.731  14609.710  0.500  1.886821  31.2802  4.740606  2.639432
  14612.858  14612.850  0.500  1.886113  31.2498  4.739345  2.638565
  14615.996  14616.000  0.500  1.886046  31.2039  4.732702  2.635451
  14619.192  14619.180  0.500  1.885403  31.2309  4.739847  2.639206
  14622.370  14622.370  0.500  1.885086  31.1944  4.735811  2.637599
  14625.596  14625.590  0.500  1.883933  31.1678  4.737225  2.638745
  14628.833  14628.820  0.500  1.883002  31.1523  4.739286  2.640580
  14632.081  14632.070  0.500  1.881976  31.1307  4.740863  2.643033
  14635.331  14635.350  0.500  1.880990  31.1138  4.742967  2.644667
  14638.666  14638.640  0.500  1.880051  31.0913  4.743979  2.646630
  14641.965  14641.950  0.500  1.879082  31.0615  4.744028  2.646654
  14645.266  14645.270  0.500  1.878079  31.0112  4.741109  2.645698
  14648.615  14648.620  0.500  1.876686  31.0285  4.750353  2.651850
  14651.994  14651.990  0.500  1.875107  31.0104  4.755083  2.656157
  14655.384  14655.370  0.500  1.873519  30.9727  4.756866  2.659001
  14658.804  14658.780  0.500  1.871677  30.9181  4.757223  2.659997
  14662.188  14662.200  0.500  1.869357  30.9094  4.766934  2.666211
  14665.639  14665.650  0.500  1.867818  30.8542  4.765749  2.668098
  14669.148  14669.110  0.500  1.865727  30.8847  4.780437  2.676666
  14672.602  14672.590  0.500  1.864499  30.8512  4.781129  2.679404
  14676.077  14676.090  0.500  1.863092  30.8395  4.786040  2.682864
  14679.620  14679.610  0.500  1.862020  30.8049  4.785803  2.682411
  14683.173  14683.150  0.500  1.861138  30.7639  4.783642  2.681530
  14686.710  14686.700  0.500  1.860543  30.7119  4.778403  2.680095
  14690.295  14690.280  0.500  1.859855  30.7493  4.787513  2.685310
  14693.882  14693.880  0.500  1.859168  30.7147  4.785426  2.685310
  14697.519  14697.490  0.500  1.857959  30.6964  4.788348  2.686816
  14701.128  14701.120  0.500  1.856790  30.6689  4.789663  2.689652
  14704.759  14704.780  0.500  1.855578  30.6304  4.789439  2.690396
  14708.457  14708.450  0.500  1.854388  30.6104  4.792024  2.693336
  14712.186  14712.140  0.500  1.852792  30.6102  4.799641  2.698329
  14715.878  14715.850  0.500  1.851494  30.5733  4.800076  2.698768
  14719.583  14719.580  0.500  1.850552  30.5509  4.801091  2.700553
  14723.336  14723.320  0.500  1.848993  30.5404  4.806921  2.703663
  14727.120  14727.090  0.500  1.847619  30.5029  4.807629  2.705251
  14730.896  14730.880  0.500  1.846474  30.4802  4.809548  2.708148
  14734.702  14734.680  0.500  1.844952  30.4033  4.804727  2.707049
  14738.530  14738.510  0.500  1.843377  30.3156  4.798410  2.704888
  14742.398  14742.350  0.500  1.841874  30.3844  4.816542  2.715663
  14746.239  14746.210  0.500  1.840199  30.3662  4.821725  2.720345
  14750.092  14750.090  0.500  1.838588  30.3439  4.825944  2.723096
  14754.013  14753.990  0.500  1.836781  30.3169  4.830380  2.726856
  14757.956  14757.910  0.500  1.835111  30.2911  4.834336  2.731693
  14761.862  14761.850  0.500  1.833435  30.2606  4.837566  2.734100
  14765.847  14765.810  0.500  1.831829  30.2039  4.836264  2.733948
  14769.825  14769.780  0.500  1.830582  30.2131  4.843769  2.739288
  14773.814  14773.780  0.500  1.829403  30.192  4.846105  2.742077
  14777.796  14777.790  0.500  1.828209  30.1663  4.847762  2.743414
  14781.847  14781.830  0.500  1.827001  30.1361  4.848764  2.745282
  14785.909  14785.880  0.500  1.826238  30.0952  4.845871  2.744345
  14789.984  14789.950  0.500  1.825324  29.8815  4.815867  2.728312
  14794.051  14794.040  0.500  1.823794  30.058  4.851735  2.748951
  14798.169  14798.150  0.500  1.822498  30.0355  4.854385  2.751704
  14802.317  14802.280  0.500  1.821570  30.007  4.854284  2.753249
  14806.468  14806.430  0.500  1.819747  29.9889  4.860208  2.757208
  14810.602  14810.590  0.500  1.818827  29.9529  4.858835  2.757799
  14814.796  14814.780  0.500  1.817154  29.9251  4.862454  2.760783
  14819.011  14818.980  0.500  1.815888  29.8959  4.863859  2.763438
  14823.210  14823.210  0.500  1.814018  29.8674  4.868329  2.766352
  14827.469  14827.450  0.500  1.812631  29.8341  4.869639  2.767739
  14831.759  14831.710  0.500  1.810962  29.8164  4.874888  2.773723
  14835.994  14835.990  0.500  1.809155  29.7466  4.872272  2.772470
  14840.318  14840.290  0.500  1.807688  29.6639  4.865850  2.769810
  14844.635  14844.610  0.500  1.805949  29.717  4.883056  2.781365
  14848.983  14848.950  0.500  1.804260  29.6959  4.887838  2.785555
  14853.305  14853.310  0.500  1.802623  29.6684  4.891302  2.788560
  14857.707  14857.690  0.500  1.800828  29.6292  4.893623  2.790642
  14862.112  14862.080  0.500  1.799311  29.5836  4.893507  2.792327
  14866.528  14866.500  0.500  1.797970  29.582  4.899806  2.796457
  14870.938  14870.930  0.500  1.796701  29.539  4.898900  2.797962
  14875.428  14875.380  0.500  1.795379  29.5265  4.903296  2.801639
  14879.882  14879.850  0.500  1.793835  29.4992  4.906336  2.804209
  14884.338  14884.340  0.500  1.792780  29.465  4.905821  2.805143
  14888.875  14888.850  0.500  1.791168  29.4301  4.907918  2.807171
  14893.415  14893.380  0.500  1.789679  29.1581  4.869799  2.785845
  14897.918  14897.930  0.500  1.788466  29.371  4.911312  2.811101
  14902.531  14902.500  0.500  1.786703  29.3436  4.915395  2.814057
  14907.108  14907.080  0.500  1.785317  29.3129  4.917051  2.817240
  14911.698  14911.690  0.500  1.783649  29.2902  4.921449  2.820356
  14916.330  14916.310  0.500  1.782018  29.2708  4.926230  2.824870
  14921.013  14920.960  0.500  1.780296  29.2279  4.927474  2.827437
  14925.650  14925.620  0.500  1.778870  29.1973  4.929339  2.829298
  14930.310  14930.300  0.500  1.777090  29.1705  4.933596  2.832624
  14935.031  14935.000  0.500  1.775439  29.0951  4.928981  2.831878
  14939.726  14939.720  0.500  1.773731  29.11  4.939928  2.839638
  14944.492  14944.460  0.500  1.771927  29.0891  4.945287  2.844209
  14949.252  14949.210  0.500  1.769974  29.0621  4.950360  2.848200
  14954.005  14953.990  0.500  1.768551  29.0276  4.951521  2.849740
  14958.790  14958.790  0.500  1.766999  28.9949  4.953630  2.852676
  14963.657  14963.600  0.500  1.765325  28.9566  4.955375  2.855421
  14968.438  14968.430  0.500  1.763608  28.9291  4.959179  2.858753
  14973.321  14973.290  0.500  1.762129  28.8601  4.954668  2.856887
  14978.207  14978.160  0.500  1.760590  28.8654  4.963214  2.862618
  14983.077  14983.050  0.500  1.759007  28.8137  4.962176  2.864128
  14987.989  14987.960  0.500  1.757240  28.7925  4.967289  2.868283
  14992.944  14992.890  0.500  1.755593  28.7627  4.970335  2.870630
  14997.873  14997.830  0.500  1.753997  28.7425  4.974772  2.875046
  15002.844  15002.800  0.500  1.752542  28.7167  4.977537  2.878010
  15007.828  15007.790  0.500  1.750983  28.6814  4.979176  2.879506
  15012.816  15012.790  0.500  1.749384  28.642  4.980301  2.882572
  15017.866  15017.820  0.500  1.747954  28.619  4.983425  2.884861
  15022.890  15022.860  0.500  1.746333  28.5845  4.985492  2.887738
  15027.938  15027.920  0.500  1.744773  28.5353  4.984681  2.888834
  15033.048  15033.000  0.500  1.742962  28.5227  4.991516  2.893540
  15038.121  15038.100  0.500  1.741228  28.4914  4.994690  2.895718
  15043.238  15043.220  0.500  1.739544  28.4654  4.998533  2.900496
  15048.408  15048.360  0.500  1.737721  28.4283  5.001128  2.903387
  15053.542  15053.520  0.500  1.735970  28.3957  5.004147  2.906794
  15058.739  15058.700  0.500  1.734194  28.3586  5.006503  2.910448
  15063.910  15063.890  0.500  1.732232  28.3288  5.011049  2.913618
  15069.115  15069.110  0.500  1.730158  28.3014  5.016601  2.917612
  15074.372  15074.340  0.500  1.728335  28.2655  5.019391  2.920817
  15079.614  15079.590  0.500  1.727124  28.2411  5.021123  2.924676
  15084.869  15084.860  0.500  1.724818  28.2116  5.027460  2.928230
  15090.187  15090.150  0.500  1.723257  28.1668  5.027319  2.930010
  15095.469  15095.460  0.500  1.721514  28.127  5.028979  2.932343
  15100.815  15100.790  0.500  1.719913  28.1019  5.032543  2.936196
  15106.175  15106.140  0.500  1.718147  28.0611  5.034103  2.939069
  15111.509  15111.510  0.500  1.716360  28.0442  5.040077  2.943382
  15116.916  15116.890  0.500  1.714793  28.0005  5.040121  2.945719
  15122.328  15122.300  0.500  1.713058  27.9719  5.043710  2.948104
  15127.753  15127.720  0.500  1.711333  27.9387  5.046425  2.951267
  15133.222  15133.170  0.500  1.709692  27.9022  5.048101  2.954356
  15138.636  15138.630  0.500  1.708204  27.867  5.049241  2.956260
  15144.133  15144.110  0.500  1.706037  27.8359  5.054557  2.959938
  15149.664  15149.610  0.500  1.704600  27.7961  5.054584  2.961735
  15155.150  15155.130  0.500  1.702704  27.7627  5.058086  2.964690
  15160.709  15160.670  0.500  1.700770  27.6696  5.050898  2.962490
  15166.273  15166.220  0.500  1.699162  27.6822  5.061328  2.970652
  15171.821  15171.800  0.500  1.697474  27.6616  5.066107  2.975036
  15177.443  15177.400  0.500  1.695234  27.6307  5.071782  2.978602
  15183.060  15183.010  0.500  1.693648  27.5969  5.073628  2.982429
  15188.671  15188.650  0.500  1.691799  27.5605  5.076305  2.985735
  15194.326  15194.300  0.500  1.689898  27.5292  5.080191  2.989717
  15200.006  15199.970  0.500  1.688159  27.4881  5.081428  2.992368
  15205.690  15205.660  0.500  1.685818  27.4623  5.088568  2.996541