File: xdidata/Au/Au-L1-GoldSulfide.xdi
# XDI/1.0 BlueSky/1.10.0 BMM/2023-1.0-py310-tiled
# Beamline.name: BMM (06BM) -- Beamline for Materials Measurement (NIST)
# Beamline.xray_source: NSLS-II three-pole wiggler
# Beamline.collimation: paraboloid mirror, 5 nm Rh on 30 nm Pt
# Beamline.focusing: not in use
# Beamline.harmonic_rejection: flat mirror, Pt stripe, pitch = 7.0 mrad relative to beam
# Beamline.software: Bluesky 1.10.0, Ophyd 1.7.0, DataBroker 2.0.0b13, Python 3.10.8, 2023-1.0-py310-tiled
# Detector.I0: 10 cm N2
# Detector.I1: 25 cm N2
# Detector.I2: 25 cm N2
# Element.symbol: Au
# Element.edge: L1
# Element.reference: Au
# Element.reference_material: Au foil
# Facility.name: NSLS-II
# Facility.energy: 3.0
# Facility.current: 400.0
# Facility.mode: top-off
# Facility.GUP: 301027
# Facility.SAF: 310583
# Facility.cycle: 2023-2
# Mono.name: Si(111)
# Mono.d_spacing: 3.13519
# Mono.encoder_resolution: 0.0000050 deg/ct
# Mono.angle_offset: 16.0754 deg
# Mono.scan_mode: pseudo channel cut
# Mono.scan_type: step
# Mono.direction: forward in energy
# Sample.name: Au2S
# Sample.prep: powder on tape
# Sample.x: 145.711 mm
# Sample.y: 114.376 mm
# Sample.SDD_position: 205.000 mm
# Scan.experimenters: Bruce Ravel
# Scan.edge_energy: 14352.8
# Scan.start_time: 2023-06-27T19:54:41
# Scan.end_time: 2023-06-27T20:02:03
# Scan.transient_id: 85278
# Scan.uid: c473002f-bf3f-4d91-9b39-b417a42211b0
# Scan.plot_hint: ln(I0/It)  --  ln($5/$6)
# Column.1: energy eV
# Column.2: requested_energy eV
# Column.3: measurement_time seconds
# Column.4: xmu
# Column.5: I0 nA
# Column.6: It nA
# Column.7: Ir nA
# ///////////
# Welcome to BMM
# -----------
# energy  requested_energy  measurement_time  xmu  I0  It  Ir
  14152.730  14152.800  0.500  0.815223  34.5023  15.2687  8.631737
  14162.795  14162.800  0.500  0.812363  34.2491  15.2  8.602802
  14172.786  14172.800  0.500  0.809754  34.4963  15.3497  8.695350
  14182.845  14182.800  0.500  0.806744  34.3898  15.3485  8.698980
  14192.838  14192.800  0.500  0.804195  34.2949  15.3452  8.703987
  14202.837  14202.800  0.500  0.801603  34.2191  15.351  8.713761
  14212.842  14212.800  0.500  0.799079  34.1357  15.3523  8.721966
  14222.825  14222.800  0.500  0.796698  34.0647  15.3569  8.734094
  14232.779  14232.800  0.500  0.794586  33.9903  15.3558  8.742396
  14242.790  14242.800  0.500  0.792226  33.9092  15.3553  8.752024
  14252.728  14252.800  0.500  0.790074  33.821  15.3483  8.758015
  14262.848  14262.800  0.500  0.787864  33.8729  15.4059  8.799219
  14272.831  14272.800  0.500  0.784738  31.9226  14.5643  8.325385
  14282.828  14282.800  0.500  0.783498  33.7828  15.4322  8.825359
  14292.840  14292.800  0.500  0.781492  33.7088  15.4293  8.828487
  14302.821  14302.800  0.500  0.779338  33.5949  15.4103  8.822748
  14312.825  14312.800  0.500  0.777685  33.5557  15.4178  8.830972
  14322.825  14322.800  0.500  0.776628  33.481  15.3997  8.823038
  14324.726  14324.800  0.500  0.776428  33.4713  15.3983  8.822210
  14326.745  14326.800  0.500  0.776413  33.446  15.3869  8.815880
  14328.737  14328.800  0.500  0.776374  33.4343  15.3822  8.812931
  14330.730  14330.800  0.500  0.776623  33.4209  15.3722  8.808407
  14332.732  14332.800  0.500  0.776784  33.3941  15.3573  8.798158
  14334.744  14334.800  0.500  0.777339  33.3971  15.3502  8.793624
  14336.756  14336.800  0.500  0.777651  33.3833  15.3391  8.785332
  14338.751  14338.800  0.500  0.778251  33.3631  15.3206  8.773419
  14340.746  14340.800  0.500  0.779162  33.3439  15.2979  8.756894
  14342.715  14342.800  0.500  0.780377  33.3153  15.2662  8.734137
  14343.012  14343.100  0.500  0.780726  33.3204  15.2632  8.731985
  14343.309  14343.400  0.500  0.780887  33.3171  15.2592  8.728314
  14343.623  14343.700  0.500  0.781094  33.3005  15.2485  8.722505
  14343.920  14344.000  0.500  0.781469  33.2968  15.241  8.717261
  14344.217  14344.300  0.500  0.781602  33.3042  15.2424  8.715511
  14344.541  14344.600  0.500  0.781986  33.2912  15.2306  8.708999
  14344.847  14344.900  0.500  0.782282  33.2891  15.2251  8.704613
  14345.153  14345.200  0.500  0.782696  33.2877  15.2182  8.700345
  14345.449  14345.500  0.500  0.783088  33.2856  15.2113  8.693251
  14345.737  14345.800  0.500  0.783434  33.2865  15.2064  8.688393
  14346.052  14346.100  0.500  0.783843  33.2901  15.2019  8.685576
  14346.349  14346.400  0.500  0.784304  33.2917  15.1956  8.681477
  14346.646  14346.700  0.500  0.784686  33.2937  15.1907  8.674962
  14346.934  14347.000  0.500  0.785178  33.2977  15.185  8.672599
  14347.258  14347.300  0.500  0.785798  33.3006  15.1769  8.666235
  14347.573  14347.600  0.500  0.786184  33.2921  15.1672  8.658789
  14347.879  14347.900  0.500  0.786845  33.2891  15.1558  8.648957
  14348.176  14348.200  0.500  0.787495  33.2867  15.1449  8.642209
  14348.473  14348.500  0.500  0.787890  33.2897  15.1403  8.635830
  14348.779  14348.800  0.500  0.788655  33.2802  15.1244  8.625643
  14349.076  14349.100  0.500  0.789258  33.2775  15.114  8.615627
  14349.382  14349.400  0.500  0.790086  33.2822  15.1036  8.607698
  14349.670  14349.700  0.500  0.790802  33.2669  15.0859  8.596934
  14349.976  14350.000  0.500  0.791678  33.2739  15.0759  8.589764
  14350.291  14350.300  0.500  0.792470  33.2695  15.062  8.577531
  14350.588  14350.600  0.500  0.793356  33.2566  15.0428  8.562385
  14350.885  14350.900  0.500  0.794238  33.2613  15.0316  8.553180
  14351.173  14351.200  0.500  0.795461  33.2592  15.0123  8.539385
  14351.479  14351.500  0.500  0.796418  33.2426  14.9905  8.524544
  14351.794  14351.800  0.500  0.797635  33.2478  14.9746  8.510505
  14352.091  14352.100  0.500  0.798768  33.2566  14.9616  8.498735
  14352.379  14352.400  0.500  0.800022  33.2477  14.9388  8.481368
  14352.677  14352.700  0.500  0.801553  33.2398  14.9124  8.462702
  14352.983  14353.000  0.500  0.802943  33.2332  14.8887  8.443606
  14353.298  14353.300  0.500  0.804807  33.2343  14.8615  8.424302
  14353.595  14353.600  0.500  0.806311  33.2284  14.8366  8.403787
  14353.883  14353.900  0.500  0.807811  33.2292  14.8147  8.384427
  14354.181  14354.200  0.500  0.809974  33.2109  14.7745  8.358562
  14354.478  14354.500  0.500  0.811854  33.2088  14.7458  8.335480
  14354.784  14354.800  0.500  0.813958  33.2196  14.7196  8.313281
  14355.072  14355.100  0.500  0.816223  33.2167  14.685  8.288970
  14355.388  14355.400  0.500  0.818421  33.2233  14.6557  8.265326
  14355.703  14355.700  0.500  0.820963  33.2257  14.6195  8.236201
  14355.982  14356.000  0.500  0.823468  33.2116  14.5768  8.206431
  14356.271  14356.300  0.500  0.825918  33.202  14.5369  8.174616
  14356.568  14356.600  0.500  0.828701  33.1989  14.4952  8.143168
  14356.883  14356.900  0.500  0.831428  33.2011  14.4567  8.114266
  14357.172  14357.200  0.500  0.834086  33.1878  14.4125  8.085428
  14357.469  14357.500  0.500  0.836729  33.1887  14.3748  8.053963
  14357.766  14357.800  0.500  0.839627  33.1736  14.3267  8.020655
  14358.091  14358.100  0.500  0.842555  33.1525  14.2758  7.982330
  14358.370  14358.400  0.500  0.845277  33.1359  14.2298  7.949193
  14358.676  14358.700  0.500  0.847645  33.1178  14.1884  7.919035
  14358.992  14359.000  0.500  0.850328  33.0983  14.1421  7.885294
  14359.289  14359.300  0.500  0.853033  33.0932  14.1017  7.856876
  14359.587  14359.600  0.500  0.855323  33.0677  14.0586  7.822451
  14359.875  14359.900  0.500  0.857615  33.0739  14.029  7.798830
  14360.191  14360.200  0.500  0.859964  33.1718  14.0376  7.798974
  14360.497  14360.500  0.500  0.862191  33.2127  14.0236  7.780557
  14360.795  14360.800  0.500  0.864342  33.2316  14.0014  7.762256
  14361.083  14361.100  0.500  0.866418  33.2361  13.9743  7.738451
  14361.390  14361.400  0.500  0.868608  33.2454  13.9476  7.715831
  14361.705  14361.700  0.500  0.870557  33.2512  13.9229  7.694877
  14362.003  14362.000  0.500  0.872421  33.2545  13.8983  7.673503
  14362.291  14362.300  0.500  0.874249  33.2558  13.8735  7.653591
  14362.598  14362.600  0.500  0.876043  33.2574  13.8493  7.632344
  14362.905  14362.900  0.500  0.877792  33.2497  13.8219  7.609370
  14363.202  14363.200  0.500  0.879654  33.2435  13.7936  7.587056
  14363.500  14363.500  0.500  0.881115  33.2422  13.7729  7.565920
  14363.815  14363.800  0.500  0.882705  33.2459  13.7526  7.547694
  14364.104  14364.100  0.500  0.884151  33.2404  13.7304  7.528418
  14364.402  14364.400  0.500  0.885643  33.2468  13.7126  7.514186
  14364.690  14364.700  0.500  0.886819  33.2345  13.6914  7.494697
  14364.997  14365.000  0.500  0.887944  33.2336  13.6757  7.477176
  14365.322  14365.300  0.500  0.889172  33.2268  13.6561  7.459008
  14365.601  14365.600  0.500  0.890272  33.2224  13.6393  7.445110
  14365.899  14365.900  0.500  0.891240  33.2222  13.626  7.431731
  14366.197  14366.200  0.500  0.892211  33.2249  13.6139  7.419546
  14366.513  14366.500  0.500  0.893231  33.207  13.5927  7.403947
  14366.810  14366.800  0.500  0.893792  33.1946  13.58  7.392194
  14367.090  14367.100  0.500  0.894572  33.1995  13.5714  7.383482
  14367.406  14367.400  0.500  0.895370  33.1736  13.55  7.366935
  14367.713  14367.700  0.500  0.895859  33.1789  13.5455  7.362241
  14367.992  14368.000  0.500  0.896162  33.1425  13.5265  7.346798
  14368.290  14368.300  0.500  0.896571  33.1336  13.5174  7.340323
  14368.579  14368.600  0.500  0.897068  33.1434  13.5147  7.338240
  14368.895  14368.900  0.500  0.897315  33.1363  13.5084  7.330504
  14369.193  14369.200  0.500  0.897671  33.139  13.5047  7.330183
  14369.473  14369.500  0.500  0.897870  33.1495  13.5063  7.327510
  14369.789  14369.800  0.500  0.897937  33.1538  13.5072  7.326059
  14370.095  14370.100  0.500  0.898040  33.1611  13.5087  7.328072
  14370.393  14370.400  0.500  0.898334  33.1642  13.506  7.326088
  14370.673  14370.700  0.500  0.898458  33.175  13.5088  7.327676
  14370.980  14371.000  0.500  0.898470  33.1687  13.506  7.324334
  14371.287  14371.300  0.500  0.898532  33.1759  13.5081  7.326255
  14371.576  14371.600  0.500  0.898705  33.1715  13.504  7.325093
  14371.874  14371.900  0.500  0.899044  33.1739  13.5004  7.324466
  14372.190  14372.200  0.500  0.899110  33.1641  13.4955  7.323155
  14372.497  14372.500  0.500  0.899198  33.1667  13.4954  7.325050
  14372.795  14372.800  0.500  0.899248  33.1725  13.4971  7.327047
  14373.093  14373.100  0.500  0.899165  33.155  13.4911  7.324422
  14373.391  14373.400  0.500  0.899166  33.1571  13.4919  7.325445
  14373.698  14373.700  0.500  0.899358  33.1637  13.492  7.327554
  14373.987  14374.000  0.500  0.899429  33.1472  13.4843  7.324763
  14374.294  14374.300  0.500  0.899523  33.1478  13.4833  7.326630
  14374.601  14374.600  0.500  0.899647  33.1377  13.4775  7.326890
  14374.917  14374.900  0.500  0.899791  33.1329  13.4736  7.325612
  14375.207  14375.200  0.500  0.899976  33.1329  13.4712  7.328639
  14375.505  14375.500  0.500  0.900024  33.1249  13.4673  7.327516
  14375.803  14375.800  0.500  0.900059  33.0964  13.4552  7.322112
  14376.101  14376.100  0.500  0.900395  33.0878  13.4472  7.320824
  14376.399  14376.400  0.500  0.900467  33.0752  13.4411  7.319678
  14376.697  14376.700  0.500  0.900527  33.0703  13.4383  7.320567
  14377.022  14377.000  0.500  0.900679  33.0495  13.4278  7.318754
  14377.330  14377.300  0.500  0.900577  33.0541  13.4311  7.320287
  14377.601  14377.600  0.500  0.900749  33.058  13.4303  7.322866
  14377.800  14377.800  0.500  0.900995  33.0535  13.4252  7.323187
  14378.803  14378.790  0.500  0.901235  33.077  13.4315  7.331718
  14379.806  14379.790  0.500  0.901702  33.088  13.4297  7.336472
  14380.828  14380.810  0.500  0.902034  33.0977  13.4292  7.338790
  14381.876  14381.860  0.500  0.902297  33.0802  13.4186  7.335264
  14382.925  14382.920  0.500  0.902593  33.0709  13.4108  7.330215
  14384.011  14384.000  0.500  0.902779  33.054  13.4014  7.321745
  14385.105  14385.100  0.500  0.903044  33.0197  13.384  7.306641
  14386.245  14386.220  0.500  0.903183  32.9827  13.3672  7.291904
  14387.385  14387.360  0.500  0.903043  32.9862  13.3704  7.284264
  14388.534  14388.510  0.500  0.903003  33.0078  13.3797  7.283476
  14389.702  14389.690  0.500  0.902894  33.0159  13.3845  7.276672
  14390.906  14390.880  0.500  0.902387  33.0102  13.3889  7.273042
  14392.110  14392.100  0.500  0.901946  33.0019  13.3915  7.270645
  14393.342  14393.330  0.500  0.901162  32.9928  13.3983  7.269843
  14394.583  14394.580  0.500  0.900292  32.9857  13.4071  7.274780
  14395.851  14395.850  0.500  0.899214  32.9749  13.4172  7.282575
  14397.146  14397.140  0.500  0.897928  32.9721  13.4333  7.296107
  14398.451  14398.450  0.500  0.896694  32.9614  13.4455  7.310563
  14399.811  14399.780  0.500  0.895339  32.9482  13.4583  7.326785
  14401.144  14401.130  0.500  0.894152  32.9415  13.4716  7.341271
  14402.522  14402.500  0.500  0.892959  32.9283  13.4822  7.353198
  14403.909  14403.880  0.500  0.891937  32.9044  13.4862  7.361147
  14405.315  14405.290  0.500  0.891450  32.9134  13.4965  7.370780
  14406.731  14406.710  0.500  0.890780  32.8876  13.495  7.372023
  14408.146  14408.150  0.500  0.890432  32.876  13.4949  7.372045
  14409.608  14409.610  0.500  0.890054  32.8661  13.4959  7.371915
  14411.096  14411.090  0.500  0.889987  32.7662  13.4558  7.350302
  14412.604  14412.590  0.500  0.889702  32.7026  13.4335  7.339041
  14414.139  14414.110  0.500  0.889556  32.79  13.4714  7.358651
  14415.683  14415.650  0.500  0.889516  32.8108  13.4805  7.362819
  14417.227  14417.210  0.500  0.889509  32.8074  13.4792  7.361992
  14418.827  14418.780  0.500  0.889388  32.7947  13.4756  7.359230
  14420.381  14420.380  0.500  0.889563  32.7778  13.4663  7.352956
  14421.991  14421.990  0.500  0.889464  32.6939  13.4331  7.332713
  14423.655  14423.630  0.500  0.889349  32.6005  13.3963  7.314457
  14425.283  14425.280  0.500  0.889380  32.7388  13.4527  7.344129
  14426.966  14426.950  0.500  0.889354  32.758  13.461  7.345020
  14428.668  14428.640  0.500  0.889236  32.7317  13.4518  7.337919
  14430.370  14430.350  0.500  0.889548  32.7152  13.4408  7.332330
  14432.100  14432.080  0.500  0.889471  32.6629  13.4203  7.320565
  14433.830  14433.830  0.500  0.889601  32.5212  13.3603  7.290037
  14435.597  14435.590  0.500  0.889599  32.6385  13.4086  7.318581
  14437.383  14437.380  0.500  0.889702  32.6726  13.4212  7.330357
  14439.206  14439.180  0.500  0.889560  32.6736  13.4235  7.336309
  14441.029  14441.010  0.500  0.889330  32.6469  13.4156  7.337794
  14442.889  14442.850  0.500  0.888914  32.6259  13.4126  7.339684
  14444.732  14444.710  0.500  0.888394  32.5613  13.393  7.332689
  14446.593  14446.590  0.500  0.887400  32.4725  13.3698  7.324647
  14448.491  14448.490  0.500  0.886387  32.5885  13.4311  7.359234
  14450.426  14450.410  0.500  0.885292  32.5877  13.4455  7.369806
  14452.353  14452.350  0.500  0.884055  32.5651  13.4528  7.374666
  14454.325  14454.310  0.500  0.882840  32.5535  13.4643  7.380698
  14456.308  14456.280  0.500  0.881830  32.5331  13.4695  7.385273
  14458.291  14458.280  0.500  0.880656  32.5204  13.4801  7.392547
  14460.302  14460.290  0.500  0.879601  32.4925  13.4827  7.395395
  14462.322  14462.320  0.500  0.878745  32.4898  13.4931  7.402147
  14464.380  14464.380  0.500  0.877822  32.477  13.5003  7.409117
  14466.475  14466.450  0.500  0.876881  32.4596  13.5058  7.413552
  14468.580  14468.540  0.500  0.876185  32.4509  13.5115  7.420176
  14470.676  14470.650  0.500  0.875344  32.4316  13.5148  7.421868
  14472.809  14472.780  0.500  0.874668  32.417  13.5179  7.425939
  14474.934  14474.920  0.500  0.873932  32.3999  13.5207  7.428651
  14477.105  14477.090  0.500  0.873263  32.3821  13.5223  7.430312
  14479.287  14479.280  0.500  0.872748  32.3742  13.526  7.433494
  14481.496  14481.480  0.500  0.872387  32.3071  13.5029  7.421992
  14483.706  14483.700  0.500  0.871535  32.3144  13.5174  7.428452
  14485.972  14485.950  0.500  0.871213  32.3128  13.5211  7.431686
  14488.229  14488.210  0.500  0.870668  32.3  13.5231  7.432644
  14490.505  14490.490  0.500  0.870189  32.2835  13.5227  7.432503
  14492.819  14492.790  0.500  0.869901  32.2694  13.5206  7.433186
  14495.143  14495.110  0.500  0.869504  32.248  13.5171  7.433608
  14497.486  14497.450  0.500  0.869193  32.2368  13.5166  7.436058
  14499.802  14499.800  0.500  0.868796  32.2274  13.518  7.439316
  14502.174  14502.180  0.500  0.868555  32.2059  13.5122  7.437438
  14504.565  14504.570  0.500  0.868344  32.1917  13.5091  7.437691
  14507.003  14506.990  0.500  0.868152  32.172  13.5035  7.438683
  14509.433  14509.420  0.500  0.867693  32.1585  13.504  7.442059
  14511.891  14511.870  0.500  0.867147  32.1347  13.5013  7.442251
  14514.359  14514.350  0.500  0.866734  32.1153  13.4988  7.444183
  14516.837  14516.840  0.500  0.865982  32.0607  13.486  7.439393
  14519.371  14519.350  0.500  0.865310  32.0832  13.5045  7.452987
  14521.907  14521.870  0.500  0.864538  32.073  13.5106  7.456857
  14524.461  14524.420  0.500  0.863762  32.0552  13.5136  7.461031
  14526.998  14526.990  0.500  0.862808  32.0436  13.5216  7.468635
  14529.564  14529.570  0.500  0.862043  32.0295  13.526  7.474899
  14532.195  14532.180  0.500  0.861165  31.9937  13.5228  7.477118
  14534.827  14534.800  0.500  0.860218  31.9771  13.5285  7.481597
  14537.488  14537.450  0.500  0.859350  31.956  13.5314  7.485136
  14540.113  14540.110  0.500  0.858604  31.9452  13.5369  7.489519
  14542.775  14542.790  0.500  0.857747  31.9263  13.5405  7.492517
  14545.495  14545.490  0.500  0.856846  31.9103  13.5459  7.494773
  14548.243  14548.210  0.500  0.855948  31.8823  13.5462  7.493882
  14550.982  14550.950  0.500  0.855035  31.8185  13.5314  7.487524
  14553.695  14553.700  0.500  0.854157  31.8422  13.5534  7.499499
  14556.484  14556.480  0.500  0.853300  31.8221  13.5564  7.501151
  14559.310  14559.270  0.500  0.852435  31.8043  13.5606  7.503709
  14562.110  14562.090  0.500  0.851642  31.7979  13.5686  7.511534
  14564.948  14564.920  0.500  0.850914  31.7741  13.5683  7.512915
  14567.777  14567.770  0.500  0.850119  31.7502  13.5689  7.513615
  14570.664  14570.650  0.500  0.849489  31.7239  13.5662  7.515943
  14573.570  14573.540  0.500  0.848631  31.7069  13.5706  7.522199
  14576.468  14576.450  0.500  0.848043  31.6923  13.5723  7.526690
  14579.386  14579.370  0.500  0.847350  31.6701  13.5722  7.528416
  14582.314  14582.320  0.500  0.846778  31.6416  13.5677  7.532644
  14585.300  14585.290  0.500  0.846032  31.6221  13.5695  7.535747
  14588.286  14588.270  0.500  0.845464  31.597  13.5664  7.541357
  14591.311  14591.280  0.500  0.844592  31.5736  13.5682  7.543895
  14594.291  14594.300  0.500  0.844087  31.5611  13.5697  7.549487
  14597.384  14597.350  0.500  0.843308  31.5276  13.5658  7.549352
  14600.450  14600.410  0.500  0.842779  31.5076  13.5644  7.550073
  14603.536  14603.490  0.500  0.841876  31.4877  13.5681  7.556739
  14606.586  14606.590  0.500  0.841186  31.4642  13.5673  7.558195
  14609.740  14609.710  0.500  0.840338  31.4472  13.5715  7.561755
  14612.867  14612.850  0.500  0.839558  31.4195  13.5701  7.561137
  14616.024  14616.000  0.500  0.838663  31.3698  13.5608  7.558124
  14619.210  14619.180  0.500  0.837850  31.3783  13.5755  7.566471
  14622.398  14622.370  0.500  0.836972  31.3615  13.5801  7.572668
  14625.606  14625.590  0.500  0.835940  31.3421  13.5858  7.575493
  14628.843  14628.820  0.500  0.835151  31.3223  13.5879  7.579548
  14632.063  14632.070  0.500  0.834034  31.2914  13.5897  7.581765
  14635.359  14635.350  0.500  0.833100  31.2923  13.6027  7.591681
  14638.666  14638.640  0.500  0.832049  31.2772  13.6105  7.599648
  14641.994  14641.950  0.500  0.831034  31.2523  13.6135  7.601133
  14645.276  14645.270  0.500  0.830117  31.231  13.6167  7.606749
  14648.625  14648.620  0.500  0.828984  31.2495  13.6402  7.620598
  14652.013  14651.990  0.500  0.828129  31.2224  13.64  7.625703
  14655.394  14655.370  0.500  0.826969  31.1929  13.6429  7.629707
  14658.776  14658.780  0.500  0.826214  31.1379  13.6292  7.626699
  14662.206  14662.200  0.500  0.825057  31.137  13.6445  7.639212
  14665.676  14665.650  0.500  0.824187  31.0773  13.6303  7.636329
  14669.129  14669.110  0.500  0.823146  31.1099  13.6587  7.655991
  14672.574  14672.590  0.500  0.822010  31.0844  13.6631  7.660465
  14676.105  14676.090  0.500  0.821203  31.0605  13.6636  7.663635
  14679.648  14679.610  0.500  0.820293  31.0298  13.6625  7.665936
  14683.154  14683.150  0.500  0.819476  30.9901  13.6562  7.664556
  14686.719  14686.700  0.500  0.818676  30.9231  13.6376  7.656027
  14690.333  14690.280  0.500  0.817715  30.9583  13.6662  7.673059
  14693.901  14693.880  0.500  0.816878  30.9298  13.6651  7.675262
  14697.500  14697.490  0.500  0.816010  30.909  13.6677  7.679184
  14701.147  14701.120  0.500  0.815140  30.894  13.673  7.685402
  14704.806  14704.780  0.500  0.814174  30.8476  13.6656  7.682914
  14708.476  14708.450  0.500  0.813441  30.8306  13.6681  7.685932
  14712.167  14712.140  0.500  0.812548  30.8073  13.67  7.691786
  14715.888  14715.850  0.500  0.811570  30.7927  13.6769  7.697279
  14719.592  14719.580  0.500  0.810631  30.771  13.6801  7.700810
  14723.345  14723.320  0.500  0.809682  30.7384  13.6786  7.703041
  14727.129  14727.090  0.500  0.808792  30.7159  13.6807  7.708680
  14730.905  14730.880  0.500  0.807644  30.6861  13.6831  7.711111
  14734.702  14734.680  0.500  0.806696  30.6099  13.6621  7.703988
  14738.568  14738.510  0.500  0.805665  30.5201  13.6361  7.692696
  14742.379  14742.350  0.500  0.804724  30.6066  13.6876  7.723703
  14746.229  14746.210  0.500  0.803687  30.5866  13.6929  7.732520
  14750.130  14750.090  0.500  0.802623  30.5587  13.6949  7.734317
  14754.003  14753.990  0.500  0.801573  30.527  13.6951  7.741455
  14757.937  14757.910  0.500  0.800449  30.4985  13.6977  7.744620
  14761.872  14761.850  0.500  0.799473  30.4695  13.698  7.747131
  14765.847  14765.810  0.500  0.798158  30.4007  13.6851  7.743440
  14769.815  14769.780  0.500  0.797288  30.4179  13.7048  7.759258
  14773.776  14773.780  0.500  0.796126  30.397  13.7113  7.764800
  14777.815  14777.790  0.500  0.795236  30.3707  13.7116  7.769283
  14781.847  14781.830  0.500  0.794081  30.33  13.7091  7.768527
  14785.890  14785.880  0.500  0.792956  30.2926  13.7076  7.769764
  14789.965  14789.950  0.500  0.791953  30.069  13.62  7.723802
  14794.080  14794.040  0.500  0.790768  30.2534  13.7198  7.781494
  14798.169  14798.150  0.500  0.789878  30.2329  13.7227  7.786218
  14802.269  14802.280  0.500  0.788842  30.1982  13.7212  7.788032
  14806.468  14806.430  0.500  0.787781  30.1755  13.7254  7.794586
  14810.631  14810.590  0.500  0.786680  30.1461  13.7271  7.798645
  14814.777  14814.780  0.500  0.785634  30.1217  13.7304  7.800276
  14819.002  14818.980  0.500  0.784566  30.0894  13.7303  7.806544
  14823.249  14823.210  0.500  0.783730  30.063  13.7297  7.811037
  14827.459  14827.450  0.500  0.782683  30.034  13.7309  7.814904
  14831.750  14831.710  0.500  0.781456  30.0033  13.7337  7.817768
  14836.033  14835.990  0.500  0.780589  29.9437  13.7183  7.813670
  14840.318  14840.290  0.500  0.779220  29.8481  13.6932  7.802157
  14844.625  14844.610  0.500  0.778351  29.9014  13.7296  7.827587
  14848.983  14848.950  0.500  0.777143  29.8758  13.7344  7.833095
  14853.363  14853.310  0.500  0.776024  29.857  13.7412  7.841075
  14857.678  14857.690  0.500  0.775015  29.831  13.743  7.843931
  14862.112  14862.080  0.500  0.773920  29.7675  13.7288  7.840235
  14866.538  14866.500  0.500  0.772865  29.7619  13.7407  7.851218
  14870.967  14870.930  0.500  0.771758  29.7325  13.7424  7.855760
  14875.409  14875.380  0.500  0.770532  29.7045  13.7463  7.859272
  14879.901  14879.850  0.500  0.769386  29.6749  13.7483  7.864782
  14884.406  14884.340  0.500  0.768176  29.6435  13.7504  7.868630
  14888.865  14888.850  0.500  0.767140  29.6087  13.7485  7.870968
  14893.424  14893.380  0.500  0.765835  29.3319  13.6377  7.809621
  14897.957  14897.930  0.500  0.764705  29.5422  13.751  7.877428
  14902.560  14902.500  0.500  0.763493  29.5206  13.7576  7.884690
  14907.128  14907.080  0.500  0.762422  29.4835  13.7551  7.887082
  14911.747  14911.690  0.500  0.761284  29.4609  13.7602  7.893617
  14916.369  14916.310  0.500  0.760047  29.43  13.7628  7.896664
  14921.003  14920.960  0.500  0.758904  29.3927  13.7611  7.900860
  14925.660  14925.620  0.500  0.757678  29.3725  13.7685  7.907561
  14930.339  14930.300  0.500  0.756484  29.3362  13.7679  7.912056
  14935.060  14935.000  0.500  0.755460  29.2683  13.7501  7.907199
  14939.775  14939.720  0.500  0.754164  29.2727  13.77  7.922936
  14944.492  14944.460  0.500  0.753140  29.2459  13.7715  7.926231
  14949.232  14949.210  0.500  0.752012  29.211  13.7705  7.930606
  14954.063  14953.990  0.500  0.750746  29.1819  13.7743  7.934208
  14958.839  14958.790  0.500  0.749637  29.1488  13.7739  7.937282
  14963.627  14963.600  0.500  0.748412  29.1119  13.7733  7.940981
  14968.468  14968.430  0.500  0.747318  29.0833  13.7749  7.945099
  14973.341  14973.290  0.500  0.746126  29.0131  13.758  7.940078
  14978.217  14978.160  0.500  0.744945  29.0091  13.7724  7.952142
  14983.107  14983.050  0.500  0.743609  28.9666  13.7706  7.953138
  14988.009  14987.960  0.500  0.742591  28.9371  13.7706  7.959199
  14992.954  14992.890  0.500  0.741384  28.9037  13.7713  7.962422
  14997.873  14997.830  0.500  0.740021  28.885  13.7811  7.970899
  15002.814  15002.800  0.500  0.738826  28.8516  13.7817  7.973947
  15007.818  15007.790  0.500  0.737858  28.8192  13.7795  7.977018
  15012.836  15012.790  0.500  0.736439  28.7844  13.7824  7.982666
  15017.856  15017.820  0.500  0.735262  28.7528  13.7835  7.986902
  15022.880  15022.860  0.500  0.734166  28.7209  13.7833  7.989770
  15027.938  15027.920  0.500  0.732761  28.671  13.7787  7.989353
  15033.048  15033.000  0.500  0.731442  28.6497  13.7867  7.997508
  15038.151  15038.100  0.500  0.730160  28.6189  13.7895  8.004903
  15043.238  15043.220  0.500  0.729142  28.5881  13.7887  8.008923
  15048.399  15048.360  0.500  0.727724  28.5548  13.7922  8.012175
  15053.552  15053.520  0.500  0.726588  28.5199  13.791  8.018557
  15058.730  15058.700  0.500  0.725309  28.4887  13.7935  8.022601
  15063.890  15063.890  0.500  0.723984  28.4517  13.7939  8.026912
  15069.134  15069.110  0.500  0.722925  28.4216  13.7939  8.031681
  15074.392  15074.340  0.500  0.721355  28.3867  13.7986  8.037271
  15079.623  15079.590  0.500  0.720192  28.3523  13.7979  8.041266
  15084.888  15084.860  0.500  0.718950  28.3162  13.7975  8.043450
  15090.197  15090.150  0.500  0.717641  28.2829  13.7993  8.049992
  15095.519  15095.460  0.500  0.716362  28.25  13.8008  8.054313
  15100.815  15100.790  0.500  0.715299  28.2127  13.7973  8.058552
  15106.165  15106.140  0.500  0.713986  28.1827  13.8007  8.064445
  15111.549  15111.510  0.500  0.712579  28.1456  13.802  8.066206
  15116.936  15116.890  0.500  0.711431  28.1141  13.8024  8.072350
  15122.318  15122.300  0.500  0.710098  28.0798  13.8039  8.076022
  15127.763  15127.720  0.500  0.708670  28.0385  13.8033  8.080418
  15133.232  15133.170  0.500  0.707600  28.0099  13.804  8.083813
  15138.666  15138.630  0.500  0.706259  27.9722  13.8039  8.087772
  15144.143  15144.110  0.500  0.705086  27.9391  13.8038  8.091951
  15149.654  15149.610  0.500  0.703706  27.8967  13.8018  8.095202
  15155.170  15155.130  0.500  0.702451  27.8709  13.8064  8.100710
  15160.669  15160.670  0.500  0.701150  27.7742  13.7764  8.086847
  15166.233  15166.220  0.500  0.699649  27.7818  13.8009  8.104871
  15171.831  15171.800  0.500  0.698538  27.7607  13.8057  8.113270
  15177.443  15177.400  0.500  0.697192  27.7261  13.8071  8.118624
  15183.010  15183.010  0.500  0.696026  27.6935  13.807  8.124056
  15188.691  15188.650  0.500  0.694518  27.6575  13.8098  8.127481
  15194.346  15194.300  0.500  0.693167  27.6198  13.8096  8.132153
  15200.036  15199.970  0.500  0.691802  27.5814  13.8093  8.135164
  15205.669  15205.660  0.500  0.690398  27.5472  13.8115  8.141662