File: xdidata/Au/Au-L1-GoldFoil.xdi
# XDI/1.0 BlueSky/1.10.0 BMM/2023-1.0-py310-tiled
# Beamline.name: BMM (06BM) -- Beamline for Materials Measurement (NIST)
# Beamline.xray_source: NSLS-II three-pole wiggler
# Beamline.collimation: paraboloid mirror, 5 nm Rh on 30 nm Pt
# Beamline.focusing: not in use
# Beamline.harmonic_rejection: flat mirror, Pt stripe, pitch = 7.0 mrad relative to beam
# Beamline.software: Bluesky 1.10.0, Ophyd 1.7.0, DataBroker 2.0.0b13, Python 3.10.8, 2023-1.0-py310-tiled
# Detector.I0: 10 cm N2
# Detector.I1: 25 cm N2
# Detector.I2: 25 cm N2
# Element.symbol: Au
# Element.edge: L1
# Element.reference: Au
# Element.reference_material: Au foil
# Facility.name: NSLS-II
# Facility.energy: 3.0
# Facility.current: 399.3
# Facility.mode: top-off
# Facility.GUP: 301027
# Facility.SAF: 310583
# Facility.cycle: 2023-2
# Mono.name: Si(111)
# Mono.d_spacing: 3.13519
# Mono.encoder_resolution: 0.0000050 deg/ct
# Mono.angle_offset: 16.0754 deg
# Mono.scan_mode: pseudo channel cut
# Mono.scan_type: step
# Mono.direction: forward in energy
# Sample.name: Au foil
# Sample.prep: reference foil
# Sample.x: 109.138 mm
# Sample.y: 153.150 mm
# Sample.SDD_position: 205.000 mm
# Scan.experimenters: Bruce Ravel
# Scan.edge_energy: 14352.8
# Scan.start_time: 2023-05-28T21:16:02
# Scan.end_time: 2023-05-28T21:23:30
# Scan.transient_id: 79022
# Scan.uid: 98e7ac45-160f-475e-a7c4-6604776e5a9e
# Scan.plot_hint: ln(It/Ir)  --  ln($6/$7)
# Column.1: energy eV
# Column.2: requested_energy eV
# Column.3: measurement_time seconds
# Column.4: xmu
# Column.5: I0 nA
# Column.6: It nA
# Column.7: Ir nA
# ///////////
# Welcome to BMM
# -----------
# energy  requested_energy  measurement_time  xmu  I0  It  Ir
  14152.730  14152.800  0.500  0.594283  33.7992  60.5635  33.4285
  14162.795  14162.800  0.500  0.593173  33.5053  60.0548  33.1845
  14172.786  14172.800  0.500  0.592425  33.8136  60.6106  33.5167
  14182.810  14182.800  0.500  0.591612  33.699  60.4195  33.4382
  14192.838  14192.800  0.500  0.590809  33.5994  60.2487  33.3705
  14202.820  14202.800  0.500  0.589934  33.5126  60.104  33.3195
  14212.771  14212.800  0.500  0.589140  33.4806  60.0537  33.3181
  14222.870  14222.800  0.500  0.588132  33.4806  60.0724  33.362
  14232.912  14232.800  0.500  0.586899  33.5227  60.1507  33.4467
  14242.746  14242.800  0.500  0.585737  33.4669  60.0661  33.4385
  14252.790  14252.800  0.500  0.584701  33.3831  59.9331  33.3991
  14262.785  14262.800  0.500  0.583552  33.3036  59.793  33.3593
  14272.778  14272.800  0.500  0.582660  32.4427  58.2584  32.5321
  14282.802  14282.800  0.500  0.582146  33.1875  59.6137  33.3061
  14292.768  14292.800  0.500  0.581576  33.1249  59.5069  33.2654
  14302.767  14302.800  0.500  0.580927  33.0593  59.3916  33.2225
  14312.798  14312.800  0.500  0.580315  32.9663  59.2349  33.1551
  14322.816  14322.800  0.500  0.580004  32.9214  59.1656  33.1266
  14324.744  14324.800  0.500  0.579909  32.9004  59.1316  33.1107
  14326.727  14326.800  0.500  0.579972  32.8596  59.0607  33.0689
  14328.728  14328.800  0.500  0.579880  32.8651  59.0692  33.0767
  14330.739  14330.800  0.500  0.579997  32.8227  58.9976  33.0328
  14332.732  14332.800  0.500  0.580003  32.8263  58.9999  33.0338
  14334.735  14334.800  0.500  0.580161  32.8285  59.0179  33.0387
  14336.747  14336.800  0.500  0.580226  32.7999  58.9611  33.0048
  14338.751  14338.800  0.500  0.580583  32.7867  58.9388  32.9805
  14340.746  14340.800  0.500  0.581034  32.7571  58.8898  32.9382
  14342.751  14342.800  0.500  0.581450  32.7316  58.8406  32.897
  14343.030  14343.100  0.500  0.581609  32.7519  58.881  32.9144
  14343.327  14343.400  0.500  0.581701  32.7377  58.8562  32.8975
  14343.614  14343.700  0.500  0.581907  32.737  58.8543  32.8896
  14343.929  14344.000  0.500  0.581914  32.7204  58.8256  32.8734
  14344.226  14344.300  0.500  0.582013  32.7178  58.8257  32.8702
  14344.559  14344.600  0.500  0.582170  32.7009  58.7946  32.8476
  14344.838  14344.900  0.500  0.582301  32.7099  58.813  32.8536
  14345.126  14345.200  0.500  0.582402  32.7051  58.7986  32.8422
  14345.431  14345.500  0.500  0.582635  32.7202  58.8311  32.8528
  14345.746  14345.800  0.500  0.582834  32.7095  58.8061  32.8323
  14346.043  14346.100  0.500  0.582959  32.7195  58.8258  32.8392
  14346.322  14346.400  0.500  0.583162  32.7191  58.8261  32.8327
  14346.628  14346.700  0.500  0.583411  32.7092  58.8091  32.815
  14346.952  14347.000  0.500  0.583480  32.7096  58.809  32.8127
  14347.258  14347.300  0.500  0.583825  32.7022  58.798  32.7952
  14347.564  14347.600  0.500  0.584013  32.712  58.8151  32.7986
  14347.843  14347.900  0.500  0.584270  32.6996  58.7981  32.7807
  14348.149  14348.200  0.500  0.584410  32.6922  58.7812  32.7667
  14348.446  14348.500  0.500  0.584775  32.7018  58.8044  32.7677
  14348.770  14348.800  0.500  0.585057  32.6946  58.7833  32.7467
  14349.049  14349.100  0.500  0.585300  32.6874  58.7777  32.7356
  14349.364  14349.400  0.500  0.585611  32.6995  58.7989  32.7372
  14349.661  14349.700  0.500  0.586000  32.678  58.7638  32.705
  14349.994  14350.000  0.500  0.586353  32.6635  58.7303  32.6748
  14350.282  14350.300  0.500  0.586704  32.6692  58.7445  32.6712
  14350.561  14350.600  0.500  0.587151  32.6666  58.7373  32.6526
  14350.867  14350.900  0.500  0.587441  32.6664  58.7381  32.6436
  14351.200  14351.200  0.500  0.588111  32.6528  58.7195  32.6114
  14351.488  14351.500  0.500  0.588586  32.6565  58.7179  32.595
  14351.785  14351.800  0.500  0.588947  32.6664  58.7328  32.5915
  14352.091  14352.100  0.500  0.589391  32.6594  58.7193  32.5696
  14352.397  14352.400  0.500  0.590040  32.6621  58.7278  32.5531
  14352.713  14352.700  0.500  0.590672  32.6493  58.709  32.5221
  14353.001  14353.000  0.500  0.591323  32.6382  58.6941  32.4927
  14353.280  14353.300  0.500  0.591781  32.6478  58.7002  32.4812
  14353.604  14353.600  0.500  0.592596  32.6362  58.6793  32.4432
  14353.901  14353.900  0.500  0.593364  32.639  58.6859  32.4219
  14354.208  14354.200  0.500  0.594217  32.6251  58.6733  32.3873
  14354.496  14354.500  0.500  0.595014  32.6197  58.6625  32.3556
  14354.793  14354.800  0.500  0.595830  32.6308  58.6776  32.3375
  14355.099  14355.100  0.500  0.596667  32.6343  58.6843  32.3141
  14355.415  14355.400  0.500  0.597620  32.6194  58.6594  32.2696
  14355.694  14355.700  0.500  0.598454  32.62  58.6621  32.2443
  14356.000  14356.000  0.500  0.599281  32.6187  58.6519  32.212
  14356.298  14356.300  0.500  0.600307  32.6137  58.6511  32.1785
  14356.604  14356.600  0.500  0.601169  32.6167  58.6529  32.1518
  14356.883  14356.900  0.500  0.602110  32.595  58.6107  32.0985
  14357.190  14357.200  0.500  0.603220  32.5815  58.5957  32.0546
  14357.496  14357.500  0.500  0.604125  32.5618  58.555  32.0034
  14357.802  14357.800  0.500  0.605135  32.5354  58.5109  31.947
  14358.100  14358.100  0.500  0.606031  32.5093  58.4677  31.8948
  14358.379  14358.400  0.500  0.606893  32.5241  58.4889  31.8789
  14358.685  14358.700  0.500  0.607945  32.5028  58.452  31.8253
  14359.001  14359.000  0.500  0.608876  32.5178  58.473  31.8071
  14359.289  14359.300  0.500  0.609640  32.4979  58.4376  31.7636
  14359.569  14359.600  0.500  0.610624  32.5134  58.4704  31.7501
  14359.875  14359.900  0.500  0.611595  32.5171  58.4814  31.7253
  14360.209  14360.200  0.500  0.612602  32.5264  58.4928  31.6995
  14360.488  14360.500  0.500  0.613592  32.5454  58.5279  31.6872
  14360.786  14360.800  0.500  0.614544  32.5436  58.5305  31.6584
  14361.074  14361.100  0.500  0.615426  32.5511  58.5405  31.6359
  14361.390  14361.400  0.500  0.616412  32.5675  58.5637  31.6172
  14361.678  14361.700  0.500  0.617400  32.5413  58.5238  31.5645
  14361.967  14362.000  0.500  0.618271  32.5411  58.5162  31.5329
  14362.264  14362.300  0.500  0.619280  32.5459  58.5311  31.5091
  14362.598  14362.600  0.500  0.620326  32.5425  58.5262  31.4736
  14362.896  14362.900  0.500  0.621342  32.5429  58.5267  31.4419
  14363.193  14363.200  0.500  0.622226  32.5495  58.539  31.4207
  14363.491  14363.500  0.500  0.623102  32.5254  58.5008  31.3727
  14363.797  14363.800  0.500  0.624028  32.5286  58.5023  31.3445
  14364.104  14364.100  0.500  0.624924  32.5424  58.5328  31.3327
  14364.384  14364.400  0.500  0.625827  32.5116  58.4739  31.273
  14364.690  14364.700  0.500  0.626633  32.5325  58.5046  31.2642
  14365.006  14365.000  0.500  0.627560  32.5153  58.4889  31.2268
  14365.322  14365.300  0.500  0.628355  32.5076  58.4727  31.1934
  14365.619  14365.600  0.500  0.628926  32.5  58.4629  31.1703
  14365.908  14365.900  0.500  0.629633  32.5033  58.457  31.1452
  14366.215  14366.200  0.500  0.630227  32.4926  58.4374  31.1162
  14366.513  14366.500  0.500  0.630749  32.4738  58.4023  31.0813
  14366.792  14366.800  0.500  0.631181  32.457  58.3736  31.0526
  14367.099  14367.100  0.500  0.631697  32.4495  58.3631  31.031
  14367.415  14367.400  0.500  0.632145  32.4449  58.3524  31.0114
  14367.713  14367.700  0.500  0.632474  32.4363  58.3379  30.9935
  14368.011  14368.000  0.500  0.632757  32.44  58.3424  30.9871
  14368.317  14368.300  0.500  0.632822  32.4334  58.3346  30.981
  14368.606  14368.600  0.500  0.633092  32.4491  58.3672  30.9899
  14368.922  14368.900  0.500  0.633093  32.4615  58.3836  30.9986
  14369.211  14369.200  0.500  0.633217  32.4644  58.3942  31.0004
  14369.491  14369.500  0.500  0.633376  32.4742  58.4149  31.0064
  14369.807  14369.800  0.500  0.633364  32.4632  58.3921  30.9947
  14370.123  14370.100  0.500  0.633310  32.4685  58.4042  31.0028
  14370.402  14370.400  0.500  0.633198  32.4824  58.4241  31.0168
  14370.691  14370.700  0.500  0.633210  32.4938  58.4555  31.0331
  14371.007  14371.000  0.500  0.633115  32.452  58.3733  30.9925
  14371.314  14371.300  0.500  0.633002  32.4686  58.3976  31.0089
  14371.585  14371.600  0.500  0.632873  32.4646  58.393  31.0104
  14371.883  14371.900  0.500  0.632679  32.4548  58.3793  31.0092
  14372.190  14372.200  0.500  0.632548  32.4444  58.3638  31.005
  14372.515  14372.500  0.500  0.632306  32.4441  58.3606  31.0108
  14372.795  14372.800  0.500  0.632030  32.4541  58.3762  31.0276
  14373.075  14373.100  0.500  0.631888  32.4363  58.3438  31.0148
  14373.382  14373.400  0.500  0.631575  32.4348  58.3393  31.0221
  14373.689  14373.700  0.500  0.631267  32.4231  58.3264  31.0248
  14373.969  14374.000  0.500  0.631031  32.425  58.3266  31.0323
  14374.276  14374.300  0.500  0.630794  32.4121  58.3037  31.0274
  14374.601  14374.600  0.500  0.630535  32.4043  58.2887  31.0275
  14374.908  14374.900  0.500  0.630180  32.4017  58.2805  31.0341
  14375.188  14375.200  0.500  0.629960  32.3884  58.2642  31.0323
  14375.459  14375.500  0.500  0.629585  32.378  58.2439  31.0331
  14375.776  14375.800  0.500  0.629294  32.3609  58.2074  31.0227
  14376.092  14376.100  0.500  0.628875  32.3435  58.1767  31.0193
  14376.381  14376.400  0.500  0.628630  32.3355  58.1709  31.0238
  14376.688  14376.700  0.500  0.628348  32.3403  58.183  31.039
  14376.986  14377.000  0.500  0.627977  32.3461  58.1899  31.0542
  14377.312  14377.300  0.500  0.627640  32.3489  58.1902  31.0648
  14377.592  14377.600  0.500  0.627475  32.3582  58.2061  31.0785
  14377.782  14377.800  0.500  0.627259  32.3682  58.225  31.0953
  14378.812  14378.790  0.500  0.626568  32.3787  58.2474  31.1287
  14379.833  14379.790  0.500  0.626022  32.3805  58.2503  31.1473
  14380.837  14380.810  0.500  0.625781  32.3857  58.2659  31.1631
  14381.894  14381.860  0.500  0.625632  32.3712  58.2343  31.1508
  14382.952  14382.920  0.500  0.626008  32.3549  58.2086  31.1254
  14384.029  14384.000  0.500  0.626552  32.322  58.1462  31.0752
  14385.105  14385.100  0.500  0.627423  32.2915  58.0976  31.0221
  14386.218  14386.220  0.500  0.628276  32.2724  58.061  30.9762
  14387.349  14387.360  0.500  0.629300  32.2983  58.1086  30.9698
  14388.507  14388.510  0.500  0.630467  32.3129  58.135  30.9478
  14389.702  14389.690  0.500  0.631556  32.3216  58.1587  30.9267
  14390.870  14390.880  0.500  0.632341  32.3098  58.1354  30.89
  14392.119  14392.100  0.500  0.632744  32.2883  58.1034  30.8606
  14393.360  14393.330  0.500  0.632786  32.2799  58.0848  30.8494
  14394.610  14394.580  0.500  0.632575  32.2844  58.096  30.8619
  14395.887  14395.850  0.500  0.631987  32.2787  58.0843  30.8738
  14397.183  14397.140  0.500  0.631262  32.2568  58.0475  30.8766
  14398.488  14398.450  0.500  0.630060  32.2462  58.0285  30.9036
  14399.784  14399.780  0.500  0.629031  32.2533  58.0426  30.943
  14401.125  14401.130  0.500  0.627989  32.3244  58.1722  31.0444
  14402.486  14402.500  0.500  0.627198  32.3046  58.138  31.0507
  14403.873  14403.880  0.500  0.626715  32.3078  58.1463  31.0701
  14405.315  14405.290  0.500  0.626284  32.2916  58.12  31.0695
  14406.740  14406.710  0.500  0.626045  32.2917  58.1087  31.0709
  14408.201  14408.150  0.500  0.626150  32.2836  58.1063  31.0663
  14409.617  14409.610  0.500  0.626085  32.2462  58.0399  31.0328
  14411.105  14411.090  0.500  0.626024  32.1095  57.7957  30.9041
  14412.604  14412.590  0.500  0.626013  32.1512  57.8772  30.9481
  14414.111  14414.110  0.500  0.626231  32.212  57.9863  30.9996
  14415.646  14415.650  0.500  0.626226  32.2349  58.0291  31.0227
  14417.218  14417.210  0.500  0.626358  32.2004  57.9654  30.9846
  14418.818  14418.780  0.500  0.626467  32.1895  57.9461  30.9709
  14420.399  14420.380  0.500  0.626659  32.1593  57.8919  30.9359
  14422.027  14421.990  0.500  0.626741  32.0344  57.6701  30.8149
  14423.664  14423.630  0.500  0.626831  32.1016  57.7946  30.8786
  14425.301  14425.280  0.500  0.627051  32.1786  57.9317  30.9451
  14426.948  14426.950  0.500  0.627158  32.1467  57.8802  30.9142
  14428.641  14428.640  0.500  0.627281  32.1291  57.8419  30.89
  14430.343  14430.350  0.500  0.627306  32.1136  57.8188  30.8769
  14432.136  14432.080  0.500  0.627221  32.0094  57.6302  30.7788
  14433.858  14433.830  0.500  0.626822  31.9828  57.5867  30.7678
  14435.616  14435.590  0.500  0.626423  32.0941  57.7868  30.887
  14437.401  14437.380  0.500  0.625899  32.0731  57.7521  30.8847
  14439.170  14439.180  0.500  0.625250  32.0713  57.7603  30.9092
  14441.002  14441.010  0.500  0.624527  32.0529  57.7236  30.9119
  14442.844  14442.850  0.500  0.623911  32.0303  57.6782  30.9066
  14444.741  14444.710  0.500  0.623480  31.8772  57.4033  30.7725
  14446.602  14446.590  0.500  0.623092  31.9719  57.5806  30.8795
  14448.509  14448.490  0.500  0.622676  32.0061  57.6379  30.9232
  14450.426  14450.410  0.500  0.622534  31.9912  57.6178  30.9167
  14452.334  14452.350  0.500  0.622362  31.9682  57.5815  30.9026
  14454.316  14454.310  0.500  0.622155  31.9622  57.5645  30.8998
  14456.299  14456.280  0.500  0.622079  31.9408  57.5317  30.8846
  14458.272  14458.280  0.500  0.622005  31.9211  57.5031  30.8715
  14460.302  14460.290  0.500  0.621663  31.9117  57.483  30.8713
  14462.359  14462.320  0.500  0.621325  31.905  57.4614  30.8701
  14464.398  14464.380  0.500  0.621177  31.8817  57.4323  30.8591
  14466.447  14466.450  0.500  0.620802  31.8633  57.4016  30.8541
  14468.552  14468.540  0.500  0.620620  31.8618  57.4022  30.8601
  14470.685  14470.650  0.500  0.620297  31.8618  57.4016  30.8697
  14472.818  14472.780  0.500  0.620061  31.8167  57.3277  30.8372
  14474.943  14474.920  0.500  0.619949  31.8047  57.3065  30.8293
  14477.096  14477.090  0.500  0.619718  31.8012  57.298  30.8319
  14479.268  14479.280  0.500  0.619775  31.7715  57.2479  30.8031
  14481.478  14481.480  0.500  0.619679  31.7142  57.1491  30.7529
  14483.715  14483.700  0.500  0.619568  31.7436  57.2045  30.7861
  14485.999  14485.950  0.500  0.619582  31.7595  57.2363  30.8028
  14488.238  14488.210  0.500  0.619509  31.7168  57.1578  30.7628
  14490.487  14490.490  0.500  0.619288  31.7033  57.1375  30.7587
  14492.783  14492.790  0.500  0.619037  31.6878  57.1107  30.752
  14495.097  14495.110  0.500  0.618927  31.6624  57.0719  30.7345
  14497.477  14497.450  0.500  0.618487  31.6513  57.0443  30.7331
  14499.830  14499.800  0.500  0.618256  31.6334  57.0191  30.7267
  14502.211  14502.180  0.500  0.617848  31.6195  57.0013  30.7296
  14504.565  14504.570  0.500  0.617472  31.6006  56.9618  30.7198
  14506.976  14506.990  0.500  0.617127  31.5969  56.9651  30.7322
  14509.433  14509.420  0.500  0.616574  31.5735  56.9213  30.7256
  14511.891  14511.870  0.500  0.616391  31.5479  56.8763  30.7069
  14514.377  14514.350  0.500  0.615931  31.5183  56.8298  30.6959
  14516.865  14516.840  0.500  0.615662  31.508  56.815  30.6962
  14519.344  14519.350  0.500  0.615354  31.5078  56.806  30.7008
  14521.907  14521.870  0.500  0.615044  31.4865  56.7775  30.6949
  14524.461  14524.420  0.500  0.614835  31.4645  56.7369  30.6793
  14527.007  14526.990  0.500  0.614380  31.4505  56.7099  30.6787
  14529.582  14529.570  0.500  0.614008  31.4251  56.6741  30.6708
  14532.176  14532.180  0.500  0.613488  31.4274  56.6722  30.6857
  14534.827  14534.800  0.500  0.613110  31.3873  56.6057  30.6613
  14537.488  14537.450  0.500  0.612951  31.3798  56.5956  30.6606
  14540.150  14540.110  0.500  0.612719  31.3573  56.552  30.6441
  14542.812  14542.790  0.500  0.612630  31.3533  56.5519  30.6468
  14545.495  14545.490  0.500  0.612739  31.3215  56.497  30.6137
  14548.215  14548.210  0.500  0.612660  31.2797  56.4252  30.5773
  14550.982  14550.950  0.500  0.612599  31.2579  56.3837  30.5566
  14553.732  14553.700  0.500  0.612536  31.2727  56.4136  30.5748
  14556.493  14556.480  0.500  0.612416  31.247  56.3737  30.5568
  14559.254  14559.270  0.500  0.612163  31.2296  56.3411  30.5469
  14562.110  14562.090  0.500  0.611983  31.2084  56.3102  30.5356
  14564.938  14564.920  0.500  0.611711  31.1843  56.263  30.5183
  14567.805  14567.770  0.500  0.611284  31.1679  56.2394  30.5185
  14570.654  14570.650  0.500  0.610958  31.153  56.2089  30.5119
  14573.533  14573.540  0.500  0.610534  31.1229  56.1647  30.5008
  14576.496  14576.450  0.500  0.610005  31.108  56.1448  30.5062
  14579.395  14579.370  0.500  0.609441  31.1011  56.1286  30.5146
  14582.333  14582.320  0.500  0.608992  31.0601  56.0624  30.4923
  14585.281  14585.290  0.500  0.608413  31.0419  56.0228  30.4884
  14588.314  14588.270  0.500  0.607941  31.0271  56.0083  30.4949
  14591.302  14591.280  0.500  0.607419  30.9974  55.9532  30.4808
  14594.300  14594.300  0.500  0.606919  30.9912  55.9503  30.4945
  14597.365  14597.350  0.500  0.606404  30.9671  55.8998  30.4826
  14600.440  14600.410  0.500  0.606124  30.9411  55.8549  30.4666
  14603.508  14603.490  0.500  0.605893  30.9288  55.8418  30.4666
  14606.605  14606.590  0.500  0.605563  30.9059  55.7978  30.4526
  14609.721  14609.710  0.500  0.605441  30.8799  55.7571  30.4341
  14612.886  14612.850  0.500  0.605272  30.8446  55.699  30.4075
  14616.024  14616.000  0.500  0.605107  30.808  55.6381  30.3793
  14619.182  14619.180  0.500  0.604988  30.8179  55.6569  30.3932
  14622.370  14622.370  0.500  0.604579  30.804  55.6318  30.3919
  14625.624  14625.590  0.500  0.604414  30.7853  55.6004  30.3798
  14628.852  14628.820  0.500  0.604062  30.7573  55.5542  30.3652
  14632.072  14632.070  0.500  0.603857  30.7306  55.5101  30.3473
  14635.378  14635.350  0.500  0.603446  30.7154  55.4848  30.346
  14638.685  14638.640  0.500  0.603185  30.6841  55.4297  30.3237
  14641.994  14641.950  0.500  0.602993  30.6508  55.3789  30.3017
  14645.266  14645.270  0.500  0.602579  30.6181  55.3209  30.2826
  14648.644  14648.620  0.500  0.602159  30.6251  55.3302  30.3004
  14652.023  14651.990  0.500  0.601733  30.6  55.2981  30.2957
  14655.384  14655.370  0.500  0.601131  30.5712  55.2378  30.2809
  14658.776  14658.780  0.500  0.600727  30.5158  55.1422  30.2407
  14662.225  14662.200  0.500  0.600035  30.5144  55.1383  30.2595
  14665.676  14665.650  0.500  0.599620  30.4922  55.1053  30.2539
  14669.129  14669.110  0.500  0.599050  30.4983  55.1176  30.2779
  14672.602  14672.590  0.500  0.598687  30.4631  55.058  30.2562
  14676.134  14676.090  0.500  0.598279  30.455  55.0459  30.2619
  14679.638  14679.610  0.500  0.598036  30.4339  55.0162  30.2529
  14683.173  14683.150  0.500  0.597708  30.3871  54.9344  30.2178
  14686.719  14686.700  0.500  0.597518  30.3777  54.9198  30.2155
  14690.305  14690.280  0.500  0.597254  30.3988  54.9601  30.2457
  14693.864  14693.880  0.500  0.596954  30.382  54.9287  30.2375
  14697.509  14697.490  0.500  0.596731  30.3799  54.9299  30.2449
  14701.157  14701.120  0.500  0.596331  30.3619  54.896  30.2383
  14704.825  14704.780  0.500  0.595841  30.3117  54.809  30.2052
  14708.467  14708.450  0.500  0.595482  30.3267  54.8428  30.2346
  14712.157  14712.140  0.500  0.595012  30.2967  54.7911  30.2203
  14715.869  14715.850  0.500  0.594791  30.2673  54.7372  30.1973
  14719.573  14719.580  0.500  0.594449  30.2409  54.6925  30.1829
  14723.345  14723.320  0.500  0.594109  30.2044  54.6313  30.1594
  14727.129  14727.090  0.500  0.593658  30.1798  54.5892  30.1498
  14730.886  14730.880  0.500  0.593239  30.1587  54.5515  30.1416
  14734.664  14734.680  0.500  0.592793  29.9973  54.2664  29.9975
  14738.549  14738.510  0.500  0.592387  30.0722  54.4071  30.0874
  14742.360  14742.350  0.500  0.591943  30.0871  54.4371  30.1174
  14746.220  14746.210  0.500  0.591419  30.0485  54.3746  30.0986
  14750.111  14750.090  0.500  0.591007  30.0264  54.3386  30.0911
  14754.032  14753.990  0.500  0.590379  29.9987  54.2875  30.0816
  14757.927  14757.910  0.500  0.589976  29.9742  54.2449  30.0701
  14761.843  14761.850  0.500  0.589582  29.9358  54.1818  30.047
  14765.857  14765.810  0.500  0.588976  29.9019  54.1188  30.0303
  14769.805  14769.780  0.500  0.588690  29.8852  54.1017  30.0293
  14773.747  14773.780  0.500  0.588245  29.8647  54.0621  30.0208
  14777.815  14777.790  0.500  0.587911  29.8342  54.0103  30.002
  14781.885  14781.830  0.500  0.587656  29.8078  53.9624  29.983
  14785.881  14785.880  0.500  0.587332  29.7492  53.858  29.9347
  14789.936  14789.950  0.500  0.586884  29.641  53.6673  29.8421
  14794.051  14794.040  0.500  0.586654  29.7236  53.828  29.9384
  14798.169  14798.150  0.500  0.586213  29.6996  53.7817  29.9258
  14802.298  14802.280  0.500  0.585827  29.6741  53.7402  29.9142
  14806.449  14806.430  0.500  0.585469  29.6445  53.6863  29.8949
  14810.631  14810.590  0.500  0.585062  29.62  53.6435  29.8832
  14814.815  14814.780  0.500  0.584539  29.5917  53.5973  29.8731
  14819.011  14818.980  0.500  0.584119  29.5648  53.5509  29.8598
  14823.220  14823.210  0.500  0.583768  29.5328  53.5  29.8419
  14827.488  14827.450  0.500  0.583252  29.5119  53.4625  29.8364
  14831.721  14831.710  0.500  0.582788  29.4769  53.4017  29.8163
  14836.023  14835.990  0.500  0.582368  29.3542  53.1825  29.7063
  14840.308  14840.290  0.500  0.581703  29.3823  53.242  29.7594
  14844.635  14844.610  0.500  0.581325  29.3722  53.2238  29.7605
  14848.964  14848.950  0.500  0.580898  29.3571  53.2053  29.7628
  14853.363  14853.310  0.500  0.580389  29.3325  53.1622  29.7538
  14857.678  14857.690  0.500  0.579950  29.2921  53.0926  29.728
  14862.121  14862.080  0.500  0.579500  29.2231  52.966  29.6704
  14866.528  14866.500  0.500  0.578957  29.2469  53.0155  29.7142
  14870.958  14870.930  0.500  0.578606  29.2112  52.9521  29.6892
  14875.418  14875.380  0.500  0.578123  29.1933  52.9277  29.6898
  14879.892  14879.850  0.500  0.577750  29.2136  52.9721  29.7258
  14884.377  14884.340  0.500  0.577350  29.2179  52.9718  29.7376
  14888.875  14888.850  0.500  0.576893  29.1621  52.8776  29.6982
  14893.434  14893.380  0.500  0.576617  29.027  52.6384  29.572
  14898.006  14897.930  0.500  0.576030  29.1333  52.832  29.6982
  14902.570  14902.500  0.500  0.575681  29.1122  52.8013  29.6913
  14907.128  14907.080  0.500  0.575272  29.0906  52.7639  29.6824
  14911.766  14911.690  0.500  0.574809  29.0467  52.6843  29.6514
  14916.388  14916.310  0.500  0.574280  29.0215  52.6401  29.6422
  14921.052  14920.960  0.500  0.573888  28.9823  52.5826  29.6214
  14925.640  14925.620  0.500  0.573260  28.9643  52.5456  29.6191
  14930.368  14930.300  0.500  0.572722  28.9244  52.4748  29.5952
  14935.089  14935.000  0.500  0.572326  28.8698  52.3835  29.5554
  14939.775  14939.720  0.500  0.571751  28.87  52.391  29.5766
  14944.482  14944.460  0.500  0.571238  28.8382  52.3305  29.5576
  14949.252  14949.210  0.500  0.570861  28.8106  52.2871  29.5442
  14954.024  14953.990  0.500  0.570265  28.7795  52.2325  29.531
  14958.878  14958.790  0.500  0.569675  28.7494  52.1795  29.5184
  14963.617  14963.600  0.500  0.569380  28.7274  52.1477  29.5091
  14968.468  14968.430  0.500  0.568935  28.6894  52.0783  29.483
  14973.321  14973.290  0.500  0.568460  28.6428  51.998  29.4515
  14978.227  14978.160  0.500  0.567997  28.6089  51.9456  29.4355
  14983.067  14983.050  0.500  0.567571  28.586  51.9086  29.427
  14987.970  14987.960  0.500  0.567102  28.5546  51.8514  29.4084
  14992.924  14992.890  0.500  0.566582  28.5299  51.814  29.4025
  14997.892  14997.830  0.500  0.566153  28.4957  51.7509  29.3792
  15002.804  15002.800  0.500  0.565732  28.466  51.6985  29.3619
  15007.828  15007.790  0.500  0.565180  28.4337  51.6427  29.3464
  15012.826  15012.790  0.500  0.564724  28.4002  51.5842  29.3265
  15017.866  15017.820  0.500  0.564369  28.3788  51.5464  29.3154
  15022.890  15022.860  0.500  0.563931  28.3362  51.4785  29.2896
  15027.967  15027.920  0.500  0.563357  28.296  51.4071  29.2658
  15033.018  15033.000  0.500  0.562969  28.2765  51.3742  29.2584
  15038.141  15038.100  0.500  0.562432  28.2412  51.321  29.2438
  15043.238  15043.220  0.500  0.561884  28.2147  51.2717  29.2317
  15048.399  15048.360  0.500  0.561332  28.1876  51.2281  29.223
  15053.562  15053.520  0.500  0.560814  28.1541  51.1656  29.2025
  15058.749  15058.700  0.500  0.560314  28.1109  51.0944  29.1764
  15063.920  15063.890  0.500  0.559698  28.0805  51.0433  29.1652
  15069.164  15069.110  0.500  0.559291  28.0498  50.9911  29.1472
  15074.392  15074.340  0.500  0.558722  28.0151  50.94  29.1346
  15079.604  15079.590  0.500  0.558178  27.9859  50.8825  29.1176
  15084.888  15084.860  0.500  0.557620  27.9589  50.8288  29.1031
  15090.187  15090.150  0.500  0.557168  27.9173  50.7663  29.0804
  15095.519  15095.460  0.500  0.556673  27.8834  50.7104  29.0628
  15100.806  15100.790  0.500  0.556096  27.8511  50.6541  29.0472
  15106.145  15106.140  0.500  0.555640  27.8165  50.5913  29.0245
  15111.529  15111.510  0.500  0.555124  27.7813  50.5321  29.0055
  15116.926  15116.890  0.500  0.554782  27.7554  50.4877  28.9899
  15122.288  15122.300  0.500  0.554163  27.7187  50.4257  28.9722
  15127.763  15127.720  0.500  0.553786  27.6873  50.3736  28.9532
  15133.182  15133.170  0.500  0.553158  27.652  50.3076  28.9334
  15138.636  15138.630  0.500  0.552686  27.6211  50.2594  28.9194
  15144.113  15144.110  0.500  0.552212  27.5861  50.1989  28.8983
  15149.654  15149.610  0.500  0.551786  27.54  50.1193  28.8647
  15155.170  15155.130  0.500  0.551146  27.5117  50.0757  28.8581
  15160.719  15160.670  0.500  0.550687  27.4327  49.9264  28.7852
  15166.263  15166.220  0.500  0.550137  27.439  49.948  28.8136
  15171.851  15171.800  0.500  0.549577  27.4108  49.9028  28.8036
  15177.423  15177.400  0.500  0.549068  27.3824  49.8485  28.7869
  15183.030  15183.010  0.500  0.548608  27.3521  49.7937  28.7684
  15188.681  15188.650  0.500  0.547900  27.312  49.7296  28.7518
  15194.346  15194.300  0.500  0.547472  27.2775  49.6736  28.7317
  15199.996  15199.970  0.500  0.546987  27.2432  49.6127  28.7104
  15205.690  15205.660  0.500  0.546417  27.2053  49.5508  28.6909