File: xdidata/Au/Au-L1-GoldAcetate.xdi
# XDI/1.0 BlueSky/1.10.0 BMM/2023-1.0-py310-tiled
# Beamline.name: BMM (06BM) -- Beamline for Materials Measurement (NIST)
# Beamline.xray_source: NSLS-II three-pole wiggler
# Beamline.collimation: paraboloid mirror, 5 nm Rh on 30 nm Pt
# Beamline.focusing: not in use
# Beamline.harmonic_rejection: flat mirror, Pt stripe, pitch = 7.0 mrad relative to beam
# Beamline.software: Bluesky 1.10.0, Ophyd 1.7.0, DataBroker 2.0.0b13, Python 3.10.8, 2023-1.0-py310-tiled
# Detector.I0: 10 cm N2
# Detector.I1: 25 cm N2
# Detector.I2: 25 cm N2
# Element.symbol: Au
# Element.edge: L1
# Element.reference: Au
# Element.reference_material: Au foil
# Facility.name: NSLS-II
# Facility.energy: 3.0
# Facility.current: 400.2
# Facility.mode: top-off
# Facility.GUP: 301027
# Facility.SAF: 310583
# Facility.cycle: 2023-2
# Mono.name: Si(111)
# Mono.d_spacing: 3.13519
# Mono.encoder_resolution: 0.0000050 deg/ct
# Mono.angle_offset: 16.0754 deg
# Mono.scan_mode: pseudo channel cut
# Mono.scan_type: step
# Mono.direction: forward in energy
# Sample.name: Au(C2H3O2)3, gold scetate
# Sample.prep: powder on tape
# Sample.x: 145.711 mm
# Sample.y: 114.376 mm
# Sample.SDD_position: 205.000 mm
# Scan.experimenters: Bruce Ravel
# Scan.edge_energy: 14352.8
# Scan.start_time: 2023-06-27T20:36:29
# Scan.end_time: 2023-06-27T20:44:16
# Scan.transient_id: 85303
# Scan.uid: e0957071-d6e3-4ff7-96a0-32c466f3bf60
# Scan.plot_hint: ln(I0/It)  --  ln($5/$6)
# Column.1: energy eV
# Column.2: requested_energy eV
# Column.3: measurement_time seconds
# Column.4: xmu
# Column.5: I0 nA
# Column.6: It nA
# Column.7: Ir nA
# ///////////
# sample courtesy Martin Stennett, University of Sheffield
# -----------
# energy  requested_energy  measurement_time  xmu  I0  It  Ir
  14152.564  14152.800  0.500  1.067533  34.4572  11.8483  6.699823
  14162.839  14162.800  0.500  1.064604  34.2217  11.8019  6.681686
  14172.821  14172.800  0.500  1.062387  34.4729  11.9149  6.748830
  14182.871  14182.800  0.500  1.060909  34.3583  11.8928  6.742780
  14192.882  14192.800  0.500  1.058985  34.2661  11.8838  6.741285
  14202.864  14202.800  0.500  1.056949  34.1979  11.8843  6.746392
  14212.877  14212.800  0.500  1.054528  34.1145  11.884  6.751746
  14222.870  14222.800  0.500  1.051881  34.0366  11.8883  6.760312
  14232.912  14232.800  0.500  1.048927  33.9623  11.8974  6.772457
  14242.835  14242.800  0.500  1.046006  33.8894  11.9066  6.786294
  14252.843  14252.800  0.500  1.043084  33.8094  11.9133  6.798105
  14262.848  14262.800  0.500  1.040366  33.7238  11.9155  6.805162
  14272.849  14272.800  0.500  1.038003  31.8943  11.2957  6.456710
  14282.864  14282.800  0.500  1.036856  33.6159  11.9191  6.817480
  14292.858  14292.800  0.500  1.035640  33.5351  11.9049  6.813760
  14302.875  14302.800  0.500  1.034521  33.4322  11.8817  6.804842
  14312.879  14312.800  0.500  1.033467  33.3912  11.8796  6.803973
  14322.861  14322.800  0.500  1.032669  33.3234  11.865  6.799387
  14324.843  14324.800  0.500  1.032699  33.3068  11.8587  6.794669
  14326.826  14326.800  0.500  1.032964  33.2765  11.8448  6.789042
  14328.818  14328.800  0.500  1.032748  33.2868  11.851  6.789761
  14330.810  14330.800  0.500  1.032854  33.2459  11.8352  6.780414
  14332.813  14332.800  0.500  1.033019  33.2343  11.8291  6.776661
  14334.815  14334.800  0.500  1.033581  33.236  11.8231  6.773043
  14336.801  14336.800  0.500  1.034108  33.2266  11.8135  6.766857
  14338.796  14338.800  0.500  1.035160  33.2071  11.7941  6.755140
  14340.791  14340.800  0.500  1.036566  33.1785  11.7674  6.737829
  14342.787  14342.800  0.500  1.037838  33.173  11.7505  6.722029
  14343.066  14343.100  0.500  1.038360  33.1559  11.7384  6.717317
  14343.363  14343.400  0.500  1.038553  33.1456  11.7324  6.711279
  14343.677  14343.700  0.500  1.038779  33.1437  11.7291  6.709188
  14343.956  14344.000  0.500  1.039040  33.141  11.7251  6.705601
  14344.280  14344.300  0.500  1.039488  33.1346  11.7176  6.700799
  14344.586  14344.600  0.500  1.039933  33.1281  11.7101  6.695976
  14344.865  14344.900  0.500  1.040247  33.1302  11.7071  6.692909
  14345.180  14345.200  0.500  1.040638  33.1321  11.7032  6.689222
  14345.467  14345.500  0.500  1.041376  33.1382  11.6967  6.685551
  14345.791  14345.800  0.500  1.041595  33.1382  11.6942  6.683731
  14346.088  14346.100  0.500  1.042234  33.1384  11.6868  6.679060
  14346.376  14346.400  0.500  1.042619  33.1415  11.6834  6.674398
  14346.682  14346.700  0.500  1.043262  33.1364  11.6741  6.668237
  14346.979  14347.000  0.500  1.043758  33.1316  11.6666  6.663390
  14347.267  14347.300  0.500  1.044248  33.135  11.6621  6.657992
  14347.582  14347.600  0.500  1.045148  33.1349  11.6516  6.651333
  14347.861  14347.900  0.500  1.045589  33.1259  11.6433  6.646184
  14348.167  14348.200  0.500  1.046264  33.1214  11.6338  6.637874
  14348.473  14348.500  0.500  1.047226  33.1268  11.6245  6.632718
  14348.752  14348.800  0.500  1.047902  33.1166  11.6131  6.622965
  14349.058  14349.100  0.500  1.048848  33.1236  11.6046  6.617077
  14349.364  14349.400  0.500  1.049613  33.1336  11.5992  6.611320
  14349.661  14349.700  0.500  1.050583  33.1062  11.5784  6.598146
  14349.994  14350.000  0.500  1.051570  33.1089  11.5679  6.590049
  14350.282  14350.300  0.500  1.052634  33.1138  11.5573  6.581113
  14350.579  14350.600  0.500  1.053679  33.1108  11.5442  6.570158
  14350.894  14350.900  0.500  1.055019  33.1077  11.5276  6.560407
  14351.173  14351.200  0.500  1.056128  33.0958  11.5107  6.546367
  14351.506  14351.500  0.500  1.057577  33.0974  11.4946  6.535770
  14351.776  14351.800  0.500  1.058790  33.0914  11.4786  6.522729
  14352.091  14352.100  0.500  1.060454  33.0804  11.4557  6.507790
  14352.397  14352.400  0.500  1.061999  33.09  11.4413  6.495896
  14352.695  14352.700  0.500  1.063654  33.0787  11.4185  6.478402
  14353.001  14353.000  0.500  1.065487  33.0827  11.399  6.464361
  14353.289  14353.300  0.500  1.067315  33.0739  11.3751  6.448088
  14353.613  14353.600  0.500  1.069397  33.0745  11.3517  6.427874
  14353.892  14353.900  0.500  1.071512  33.0669  11.3251  6.410062
  14354.199  14354.200  0.500  1.073712  33.0671  11.3003  6.391545
  14354.496  14354.500  0.500  1.075817  33.0604  11.2742  6.371562
  14354.811  14354.800  0.500  1.078318  33.0546  11.2441  6.349912
  14355.099  14355.100  0.500  1.080737  33.0548  11.217  6.328289
  14355.379  14355.400  0.500  1.083152  33.0631  11.1927  6.310544
  14355.685  14355.700  0.500  1.085886  33.0591  11.1608  6.286147
  14355.982  14356.000  0.500  1.088608  33.0495  11.1273  6.263773
  14356.289  14356.300  0.500  1.091421  33.0448  11.0944  6.236962
  14356.586  14356.600  0.500  1.094238  33.0366  11.0605  6.213110
  14356.883  14356.900  0.500  1.097202  33.0292  11.0253  6.188120
  14357.172  14357.200  0.500  1.100167  33.0268  10.9918  6.162951
  14357.496  14357.500  0.500  1.103019  33.018  10.9576  6.137335
  14357.784  14357.800  0.500  1.106122  33.0216  10.9249  6.112673
  14358.091  14358.100  0.500  1.109055  32.9897  10.8824  6.084108
  14358.397  14358.400  0.500  1.112074  32.9795  10.8462  6.056462
  14358.694  14358.700  0.500  1.115048  32.9572  10.8067  6.030780
  14359.010  14359.000  0.500  1.118235  32.9421  10.7673  6.000620
  14359.298  14359.300  0.500  1.120802  32.9207  10.7327  5.977712
  14359.605  14359.600  0.500  1.123851  32.9206  10.7  5.952194
  14359.893  14359.900  0.500  1.126672  32.927  10.672  5.931120
  14360.218  14360.200  0.500  1.129756  32.9424  10.6441  5.909347
  14360.506  14360.500  0.500  1.132688  32.9507  10.6156  5.888031
  14360.813  14360.800  0.500  1.135819  32.9734  10.5897  5.868105
  14361.092  14361.100  0.500  1.138617  32.9784  10.5617  5.846559
  14361.408  14361.400  0.500  1.141746  32.9914  10.5329  5.824950
  14361.714  14361.700  0.500  1.144632  32.9785  10.4984  5.800515
  14361.985  14362.000  0.500  1.147612  32.9866  10.4697  5.779215
  14362.291  14362.300  0.500  1.150559  33.0011  10.4435  5.758598
  14362.598  14362.600  0.500  1.153480  33.0002  10.4128  5.735011
  14362.905  14362.900  0.500  1.156712  32.9804  10.3729  5.708015
  14363.175  14363.200  0.500  1.159500  32.9855  10.3457  5.686766
  14363.482  14363.500  0.500  1.162579  32.9787  10.3117  5.663039
  14363.779  14363.800  0.500  1.165148  32.9871  10.2879  5.644091
  14364.086  14364.100  0.500  1.168460  32.9776  10.2509  5.618990
  14364.393  14364.400  0.500  1.171056  32.9699  10.222  5.596596
  14364.690  14364.700  0.500  1.174145  32.9721  10.1911  5.575754
  14364.997  14365.000  0.500  1.176595  32.9756  10.1673  5.556837
  14365.286  14365.300  0.500  1.179291  32.9636  10.1362  5.535977
  14365.592  14365.600  0.500  1.181836  32.9655  10.111  5.517601
  14365.890  14365.900  0.500  1.184263  32.9502  10.0818  5.498010
  14366.206  14366.200  0.500  1.186552  32.9458  10.0574  5.480090
  14366.504  14366.500  0.500  1.188406  32.9462  10.0389  5.467604
  14366.819  14366.800  0.500  1.190510  32.9237  10.011  5.447105
  14367.099  14367.100  0.500  1.192096  32.9102  9.991006  5.433635
  14367.424  14367.400  0.500  1.193770  32.9034  9.972242  5.421294
  14367.695  14367.700  0.500  1.195253  32.8892  9.953184  5.408083
  14368.020  14368.000  0.500  1.196262  32.89  9.943379  5.398837
  14368.308  14368.300  0.500  1.197540  32.8697  9.924546  5.389704
  14368.606  14368.600  0.500  1.198287  32.8722  9.917876  5.383232
  14368.922  14368.900  0.500  1.198879  32.8695  9.911197  5.377692
  14369.193  14369.200  0.500  1.199636  32.8746  9.905247  5.374167
  14369.509  14369.500  0.500  1.200161  32.888  9.904079  5.371945
  14369.798  14369.800  0.500  1.200554  32.8971  9.902940  5.371178
  14370.086  14370.100  0.500  1.200638  32.9042  9.904246  5.369449
  14370.384  14370.400  0.500  1.200769  32.9088  9.904335  5.370903
  14370.691  14370.700  0.500  1.200767  32.9199  9.907682  5.374044
  14371.007  14371.000  0.500  1.200733  32.9006  9.902192  5.371496
  14371.278  14371.300  0.500  1.200395  32.9029  9.906256  5.372980
  14371.585  14371.600  0.500  1.200092  32.9028  9.909208  5.376240
  14371.892  14371.900  0.500  1.199613  32.8973  9.912318  5.377470
  14372.199  14372.200  0.500  1.199136  32.8954  9.916473  5.380394
  14372.488  14372.500  0.500  1.198717  32.9006  9.922209  5.385406
  14372.795  14372.800  0.500  1.198208  32.9066  9.929053  5.390049
  14373.075  14373.100  0.500  1.197579  32.8965  9.932266  5.392010
  14373.391  14373.400  0.500  1.196867  32.9038  9.941527  5.399593
  14373.716  14373.700  0.500  1.196199  32.8879  9.943367  5.400005
  14373.996  14374.000  0.500  1.195527  32.884  9.948865  5.405605
  14374.312  14374.300  0.500  1.194753  32.8833  9.956366  5.411190
  14374.601  14374.600  0.500  1.193881  32.8736  9.962115  5.415850
  14374.936  14374.900  0.500  1.193170  32.8621  9.965705  5.419213
  14375.207  14375.200  0.500  1.192124  32.8553  9.974089  5.425966
  14375.514  14375.500  0.500  1.191255  32.8468  9.980150  5.430128
  14375.794  14375.800  0.500  1.190446  32.8503  9.989294  5.437500
  14376.110  14376.100  0.500  1.189546  32.8279  9.991491  5.438901
  14376.426  14376.400  0.500  1.188445  32.8073  9.996206  5.443118
  14376.697  14376.700  0.500  1.187816  32.7958  9.998985  5.447852
  14376.995  14377.000  0.500  1.186704  32.7831  10.0062  5.452629
  14377.294  14377.300  0.500  1.185829  32.7857  10.0158  5.459330
  14377.592  14377.600  0.500  1.185163  32.7932  10.0248  5.465977
  14377.800  14377.800  0.500  1.184509  32.7895  10.0302  5.470899
  14378.785  14378.790  0.500  1.181916  32.8169  10.0646  5.492957
  14379.797  14379.790  0.500  1.179892  32.8376  10.0914  5.513388
  14380.819  14380.810  0.500  1.178509  32.8286  10.1026  5.521150
  14381.876  14381.860  0.500  1.177827  32.8132  10.1047  5.522290
  14382.952  14382.920  0.500  1.178231  32.8153  10.1013  5.519312
  14384.029  14384.000  0.500  1.179644  32.7937  10.0804  5.507161
  14385.132  14385.100  0.500  1.181777  32.7593  10.0484  5.485348
  14386.236  14386.220  0.500  1.184237  32.7265  10.0136  5.461035
  14387.358  14387.360  0.500  1.187371  32.7309  9.983665  5.439495
  14388.525  14388.510  0.500  1.190938  32.7649  9.958438  5.419190
  14389.711  14389.690  0.500  1.194157  32.7643  9.926230  5.395633
  14390.897  14390.880  0.500  1.196922  32.7556  9.896200  5.374450
  14392.119  14392.100  0.500  1.199185  32.7522  9.872816  5.359479
  14393.360  14393.330  0.500  1.200188  32.7322  9.856900  5.348218
  14394.601  14394.580  0.500  1.200087  32.7338  9.858380  5.348790
  14395.860  14395.850  0.500  1.198856  32.7157  9.865070  5.355162
  14397.146  14397.140  0.500  1.197167  32.7084  9.879523  5.367108
  14398.479  14398.450  0.500  1.194141  32.6976  9.906209  5.387262
  14399.802  14399.780  0.500  1.190825  32.7056  9.941516  5.411653
  14401.162  14401.130  0.500  1.187428  32.8056  10.0059  5.453625
  14402.522  14402.500  0.500  1.184816  32.8008  10.0306  5.470916
  14403.918  14403.880  0.500  1.182894  32.7871  10.0457  5.482878
  14405.288  14405.290  0.500  1.181611  32.7783  10.0558  5.490093
  14406.704  14406.710  0.500  1.180895  32.7593  10.0572  5.494264
  14408.155  14408.150  0.500  1.180556  32.7617  10.0614  5.495879
  14409.626  14409.610  0.500  1.180498  32.7291  10.052  5.492151
  14411.105  14411.090  0.500  1.180616  32.6304  10.0204  5.473435
  14412.631  14412.590  0.500  1.180778  32.5847  10.0048  5.466200
  14414.120  14414.110  0.500  1.180907  32.6633  10.0276  5.478560
  14415.628  14415.650  0.500  1.181326  32.6893  10.0314  5.478982
  14417.218  14417.210  0.500  1.181832  32.6839  10.0247  5.475415
  14418.818  14418.780  0.500  1.182003  32.6841  10.023  5.473506
  14420.381  14420.380  0.500  1.182640  32.6604  10.0094  5.464652
  14422.009  14421.990  0.500  1.183028  32.5543  9.972985  5.443626
  14423.627  14423.630  0.500  1.183408  32.485  9.947999  5.429810
  14425.283  14425.280  0.500  1.184230  32.6192  9.980871  5.446704
  14426.948  14426.950  0.500  1.184842  32.6234  9.976060  5.442363
  14428.659  14428.640  0.500  1.185475  32.6052  9.964190  5.436568
  14430.361  14430.350  0.500  1.185700  32.588  9.956697  5.431193
  14432.109  14432.080  0.500  1.185552  32.5322  9.941125  5.422928
  14433.848  14433.830  0.500  1.184920  32.3951  9.905458  5.404814
  14435.588  14435.590  0.500  1.183898  32.529  9.956592  5.435421
  14437.383  14437.380  0.500  1.182245  32.5611  9.982897  5.451340
  14439.197  14439.180  0.500  1.180428  32.5446  9.995979  5.462107
  14441.047  14441.010  0.500  1.178308  32.5388  10.0154  5.475321
  14442.871  14442.850  0.500  1.176630  32.5072  10.0225  5.484337
  14444.704  14444.710  0.500  1.175145  32.4303  10.0136  5.482555
  14446.584  14446.590  0.500  1.173863  32.358  10.0041  5.480250
  14448.500  14448.490  0.500  1.172924  32.4633  10.0461  5.504799
  14450.435  14450.410  0.500  1.172212  32.4583  10.0517  5.510074
  14452.362  14452.350  0.500  1.171708  32.4478  10.0535  5.510528
  14454.316  14454.310  0.500  1.171428  32.4232  10.0487  5.509520
  14456.299  14456.280  0.500  1.171085  32.4175  10.0504  5.509773
  14458.281  14458.280  0.500  1.170771  32.3944  10.0464  5.509309
  14460.292  14460.290  0.500  1.170274  32.3879  10.0494  5.511337
  14462.340  14462.320  0.500  1.169875  32.3653  10.0464  5.512310
  14464.362  14464.380  0.500  1.168919  32.3492  10.051  5.514438
  14466.438  14466.450  0.500  1.168213  32.3401  10.0552  5.519093
  14468.543  14468.540  0.500  1.167196  32.3191  10.059  5.522787
  14470.657  14470.650  0.500  1.166574  32.3081  10.0618  5.526717
  14472.773  14472.780  0.500  1.165897  32.2933  10.064  5.529374
  14474.861  14474.920  0.500  1.165449  32.275  10.0628  5.529157
  14477.078  14477.090  0.500  1.165207  32.266  10.0624  5.529231
  14479.250  14479.280  0.500  1.164928  32.2456  10.0589  5.528062
  14481.450  14481.480  0.500  1.164937  32.1833  10.0393  5.518787
  14483.651  14483.700  0.500  1.164798  32.1984  10.0454  5.521305
  14485.908  14485.950  0.500  1.164902  32.1961  10.0437  5.519604
  14488.183  14488.210  0.500  1.164783  32.176  10.0386  5.518055
  14490.469  14490.490  0.500  1.164468  32.1631  10.0377  5.517261
  14492.746  14492.790  0.500  1.164070  32.1638  10.0419  5.521590
  14495.060  14495.110  0.500  1.163284  32.1407  10.0426  5.522837
  14497.403  14497.450  0.500  1.162408  32.1171  10.0441  5.524477
  14500.197  14499.800  0.500  1.161463  32.0885  10.0446  5.527463
  14502.100  14502.180  0.500  1.160682  32.0715  10.0471  5.530432
  14504.694  14504.570  0.500  1.159764  32.0574  10.0519  5.535774
  14507.123  14506.990  0.500  1.158840  32.0398  10.0557  5.539468
  14509.433  14509.420  0.500  1.157823  32.0232  10.0607  5.545191
  14511.845  14511.870  0.500  1.156702  31.9957  10.0633  5.548570
  14514.331  14514.350  0.500  1.155669  31.9903  10.072  5.555495
  14516.837  14516.840  0.500  1.154744  31.9265  10.0613  5.550180
  14519.325  14519.350  0.500  1.153981  31.9548  10.0779  5.562584
  14521.879  14521.870  0.500  1.153275  31.9389  10.08  5.565587
  14524.406  14524.420  0.500  1.152435  31.9281  10.085  5.568947
  14526.961  14526.990  0.500  1.151417  31.9175  10.0919  5.573772
  14529.555  14529.570  0.500  1.150358  31.8827  10.0916  5.576465
  14532.167  14532.180  0.500  1.149374  31.8838  10.1019  5.584944
  14534.809  14534.800  0.500  1.148336  31.8517  10.1022  5.587016
  14537.469  14537.450  0.500  1.147454  31.8329  10.1052  5.588633
  14540.103  14540.110  0.500  1.147149  31.8282  10.1068  5.590852
  14542.785  14542.790  0.500  1.147085  31.7989  10.0981  5.587830
  14545.458  14545.490  0.500  1.147058  31.7725  10.09  5.582631
  14548.187  14548.210  0.500  1.147271  31.7552  10.0823  5.578426
  14550.945  14550.950  0.500  1.147134  31.6969  10.0652  5.569114
  14553.714  14553.700  0.500  1.146918  31.7298  10.0778  5.576129
  14556.493  14556.480  0.500  1.146662  31.694  10.069  5.571559
  14559.264  14559.270  0.500  1.146354  31.6788  10.0673  5.571968
  14562.091  14562.090  0.500  1.145744  31.6598  10.0674  5.572885
  14564.910  14564.920  0.500  1.145015  31.6462  10.0704  5.576423
  14567.768  14567.770  0.500  1.144281  31.618  10.0688  5.577380
  14570.654  14570.650  0.500  1.143437  31.6098  10.0747  5.582462
  14573.542  14573.540  0.500  1.142339  31.5681  10.0725  5.582844
  14576.449  14576.450  0.500  1.141068  31.5554  10.0813  5.590645
  14579.349  14579.370  0.500  1.139595  31.5323  10.0887  5.596456
  14582.286  14582.320  0.500  1.138063  31.5186  10.0998  5.605966
  14585.281  14585.290  0.500  1.136562  31.4881  10.1052  5.612291
  14588.295  14588.270  0.500  1.135160  31.4734  10.1146  5.622668
  14591.302  14591.280  0.500  1.133665  31.4591  10.1252  5.630582
  14594.328  14594.300  0.500  1.132195  31.4312  10.1311  5.635761
  14597.365  14597.350  0.500  1.131131  31.4055  10.1336  5.639577
  14600.412  14600.410  0.500  1.130156  31.3871  10.1375  5.643499
  14603.489  14603.490  0.500  1.129331  31.3718  10.1409  5.646758
  14606.605  14606.590  0.500  1.128582  31.3389  10.1379  5.647565
  14609.731  14609.710  0.500  1.128210  31.3176  10.1348  5.646478
  14612.830  14612.850  0.500  1.127773  31.2965  10.1324  5.644481
  14615.968  14616.000  0.500  1.127398  31.2405  10.118  5.638313
  14619.182  14619.180  0.500  1.127151  31.2574  10.126  5.643976
  14622.389  14622.370  0.500  1.126753  31.2352  10.1228  5.644615
  14625.596  14625.590  0.500  1.125797  31.2148  10.1259  5.646648
  14628.815  14628.820  0.500  1.125051  31.2021  10.1293  5.650559
  14632.044  14632.070  0.500  1.124240  31.1773  10.1295  5.651775
  14635.368  14635.350  0.500  1.123629  31.1552  10.1285  5.653333
  14638.657  14638.640  0.500  1.122995  31.1285  10.1262  5.653156
  14641.965  14641.950  0.500  1.122178  31.1023  10.126  5.655068
  14645.248  14645.270  0.500  1.121498  31.0443  10.114  5.650053
  14648.625  14648.620  0.500  1.120386  31.0614  10.1308  5.661916
  14652.004  14651.990  0.500  1.119129  31.0368  10.1355  5.666797
  14655.394  14655.370  0.500  1.117766  31.0098  10.1405  5.671110
  14658.766  14658.780  0.500  1.116391  30.9536  10.1361  5.672031
  14662.197  14662.200  0.500  1.114669  30.9536  10.1535  5.683352
  14665.658  14665.650  0.500  1.113361  30.8869  10.1449  5.683351
  14669.129  14669.110  0.500  1.112080  30.9186  10.1683  5.698860
  14672.583  14672.590  0.500  1.110675  30.8915  10.1737  5.704670
  14676.096  14676.090  0.500  1.109565  30.8743  10.1793  5.709268
  14679.629  14679.610  0.500  1.108954  30.8464  10.1763  5.711135
  14683.145  14683.150  0.500  1.108277  30.8006  10.1681  5.706188
  14686.710  14686.700  0.500  1.107967  30.7486  10.1541  5.700713
  14690.295  14690.280  0.500  1.107317  30.7752  10.1695  5.709280
  14693.901  14693.880  0.500  1.106659  30.7525  10.1687  5.710167
  14697.500  14697.490  0.500  1.105892  30.7409  10.1726  5.714469
  14701.138  14701.120  0.500  1.105011  30.7056  10.1699  5.714899
  14704.797  14704.780  0.500  1.104175  30.6799  10.1699  5.716142
  14708.476  14708.450  0.500  1.103083  30.6456  10.1696  5.720098
  14712.167  14712.140  0.500  1.102004  30.6311  10.1758  5.724225
  14715.869  14715.850  0.500  1.100898  30.6102  10.1801  5.729084
  14719.583  14719.580  0.500  1.099990  30.5836  10.1805  5.731486
  14723.345  14723.320  0.500  1.099206  30.5608  10.1809  5.734506
  14727.120  14727.090  0.500  1.098124  30.5337  10.1829  5.737254
  14730.877  14730.880  0.500  1.097040  30.5018  10.1833  5.737586
  14734.664  14734.680  0.500  1.095961  30.4242  10.1683  5.734904
  14738.540  14738.510  0.500  1.094659  30.3464  10.1555  5.729178
  14742.379  14742.350  0.500  1.093400  30.4179  10.1923  5.752369
  14746.239  14746.210  0.500  1.092191  30.3987  10.1982  5.758365
  14750.101  14750.090  0.500  1.090826  30.3889  10.2088  5.766590
  14754.032  14753.990  0.500  1.089402  30.3543  10.2117  5.770332
  14757.946  14757.910  0.500  1.088168  30.3196  10.2127  5.774035
  14761.853  14761.850  0.500  1.087015  30.3074  10.2203  5.781427
  14765.828  14765.810  0.500  1.085640  30.2358  10.2102  5.776686
  14769.805  14769.780  0.500  1.084663  30.244  10.2229  5.786517
  14773.785  14773.780  0.500  1.083901  30.2227  10.2235  5.790226
  14777.796  14777.790  0.500  1.082762  30.1911  10.2245  5.792147
  14781.847  14781.830  0.500  1.082008  30.1642  10.2231  5.792398
  14785.919  14785.880  0.500  1.081455  30.1263  10.2159  5.790737
  14789.955  14789.950  0.500  1.080496  29.9098  10.1522  5.756418
  14794.042  14794.040  0.500  1.079663  30.0881  10.2212  5.798089
  14798.169  14798.150  0.500  1.078379  30.0681  10.2276  5.801648
  14802.308  14802.280  0.500  1.077716  30.0364  10.2236  5.803177
  14806.420  14806.430  0.500  1.076677  30.0038  10.2231  5.805143
  14810.612  14810.590  0.500  1.075485  29.9782  10.2265  5.810089
  14814.796  14814.780  0.500  1.074341  29.9474  10.2277  5.812314
  14819.011  14818.980  0.500  1.073484  29.9179  10.2264  5.814574
  14823.220  14823.210  0.500  1.072100  29.899  10.2341  5.820483
  14827.498  14827.450  0.500  1.070726  29.866  10.2369  5.824350
  14831.740  14831.710  0.500  1.069611  29.8321  10.2366  5.828033
  14835.994  14835.990  0.500  1.068324  29.7806  10.2321  5.827472
  14840.289  14840.290  0.500  1.066910  29.6836  10.2132  5.820956
  14844.645  14844.610  0.500  1.065776  29.7437  10.2455  5.840285
  14848.983  14848.950  0.500  1.064347  29.7111  10.2489  5.845257
  14853.325  14853.310  0.500  1.063043  29.6906  10.2552  5.850999
  14857.707  14857.690  0.500  1.061760  29.6589  10.2574  5.855327
  14862.131  14862.080  0.500  1.060846  29.6996  10.2809  5.871385
  14866.509  14866.500  0.500  1.059707  29.7038  10.2941  5.881708
  14870.967  14870.930  0.500  1.058467  29.6651  10.2934  5.882738
  14875.409  14875.380  0.500  1.057481  29.6454  10.2967  5.887503
  14879.862  14879.850  0.500  1.056376  29.6176  10.2984  5.891431
  14884.358  14884.340  0.500  1.055304  29.5848  10.2981  5.892376
  14888.885  14888.850  0.500  1.054446  29.5491  10.2945  5.893862
  14893.386  14893.380  0.500  1.053334  29.2784  10.2115  5.848493
  14897.947  14897.930  0.500  1.052307  29.4856  10.2943  5.897581
  14902.580  14902.500  0.500  1.051101  29.466  10.2999  5.904379
  14907.118  14907.080  0.500  1.049860  29.4335  10.3013  5.906040
  14911.718  14911.690  0.500  1.048582  29.4088  10.3059  5.911447
  14916.349  14916.310  0.500  1.047460  29.3767  10.3062  5.914661
  14921.003  14920.960  0.500  1.046235  29.3419  10.3066  5.918159
  14925.601  14925.620  0.500  1.044798  29.3158  10.3122  5.923850
  14930.339  14930.300  0.500  1.043585  29.2903  10.3157  5.927853
  14935.021  14935.000  0.500  1.042220  29.2198  10.305  5.925166
  14939.736  14939.720  0.500  1.040798  29.2296  10.3231  5.938592
  14944.492  14944.460  0.500  1.039602  29.1968  10.3239  5.942742
  14949.232  14949.210  0.500  1.038296  29.1682  10.3272  5.946041
  14953.995  14953.990  0.500  1.036973  29.1393  10.3306  5.951447
  14958.829  14958.790  0.500  1.035683  29.1064  10.3323  5.955456
  14963.617  14963.600  0.500  1.034497  29.0736  10.3329  5.959003
  14968.448  14968.430  0.500  1.033178  29.0474  10.3372  5.964682
  14973.331  14973.290  0.500  1.032111  28.9687  10.3202  5.956798
  14978.207  14978.160  0.500  1.030825  28.9676  10.3331  5.967250
  14983.087  14983.050  0.500  1.029807  28.935  10.332  5.969599
  14988.009  14987.960  0.500  1.028281  28.903  10.3363  5.972776
  14992.905  14992.890  0.500  1.027210  28.871  10.3359  5.976334
  14997.853  14997.830  0.500  1.025942  28.8469  10.3404  5.980071
  15002.834  15002.800  0.500  1.024768  28.8228  10.3439  5.987181
  15007.808  15007.790  0.500  1.023717  28.7902  10.3431  5.988349
  15012.796  15012.790  0.500  1.022464  28.7654  10.3471  5.993524
  15017.846  15017.820  0.500  1.021145  28.7232  10.3456  5.994077
  15022.890  15022.860  0.500  1.019854  28.6917  10.3476  5.998322
  15027.987  15027.920  0.500  1.018735  28.6444  10.3421  5.997345
  15033.048  15033.000  0.500  1.017362  28.6313  10.3516  6.005356
  15038.112  15038.100  0.500  1.016071  28.5959  10.3521  6.010251
  15043.268  15043.220  0.500  1.014555  28.5662  10.3571  6.014976
  15048.399  15048.360  0.500  1.013207  28.5407  10.3618  6.020987
  15053.523  15053.520  0.500  1.011889  28.4981  10.36  6.022660
  15058.739  15058.700  0.500  1.010392  28.4648  10.3633  6.028418
  15063.900  15063.890  0.500  1.008963  28.4372  10.3681  6.033230
  15069.115  15069.110  0.500  1.007534  28.4009  10.3697  6.036765
  15074.372  15074.340  0.500  1.006291  28.3715  10.3718  6.042763
  15079.594  15079.590  0.500  1.004903  28.33  10.3711  6.044088
  15084.879  15084.860  0.500  1.003548  28.299  10.3737  6.050077
  15090.187  15090.150  0.500  1.002294  28.271  10.3765  6.054711
  15095.450  15095.460  0.500  1.000651  28.2373  10.3812  6.059716
  15100.796  15100.790  0.500  0.999627  28.1996  10.3779  6.059391
  15106.145  15106.140  0.500  0.998316  28.1652  10.3788  6.064791
  15111.529  15111.510  0.500  0.997061  28.1294  10.3787  6.067772
  15116.916  15116.890  0.500  0.995591  28.0998  10.383  6.072370
  15122.318  15122.300  0.500  0.994582  28.0698  10.3824  6.073770
  15127.733  15127.720  0.500  0.993046  28.0367  10.3861  6.080537
  15133.212  15133.170  0.500  0.991786  28.0083  10.3887  6.083943
  15138.656  15138.630  0.500  0.990561  27.9668  10.386  6.085588
  15144.163  15144.110  0.500  0.988995  27.9293  10.3883  6.088513
  15149.674  15149.610  0.500  0.987850  27.8876  10.3847  6.090372
  15155.140  15155.130  0.500  0.986409  27.8634  10.3906  6.097650
  15160.709  15160.670  0.500  0.985106  27.7759  10.3715  6.089185
  15166.263  15166.220  0.500  0.983721  27.7787  10.387  6.100792
  15171.811  15171.800  0.500  0.982271  27.7588  10.3946  6.107925
  15177.433  15177.400  0.500  0.980942  27.7226  10.3948  6.112270
  15183.050  15183.010  0.500  0.979451  27.6925  10.399  6.118548
  15188.691  15188.650  0.500  0.977963  27.6507  10.3988  6.121036
  15194.356  15194.300  0.500  0.976490  27.6171  10.4014  6.124962
  15200.036  15199.970  0.500  0.974986  27.5786  10.4026  6.129644
  15205.669  15205.660  0.500  0.973721  27.5522  10.4058  6.134919