File: xdidata/Au/Au-L1-GoldThiosulfate.xdi
# XDI/1.0 BlueSky/1.10.0 BMM/2023-1.0-py310-tiled
# Beamline.name: BMM (06BM) -- Beamline for Materials Measurement (NIST)
# Beamline.xray_source: NSLS-II three-pole wiggler
# Beamline.collimation: paraboloid mirror, 5 nm Rh on 30 nm Pt
# Beamline.focusing: not in use
# Beamline.harmonic_rejection: flat mirror, Pt stripe, pitch = 7.0 mrad relative to beam
# Beamline.software: Bluesky 1.10.0, Ophyd 1.7.0, DataBroker 2.0.0b13, Python 3.10.8, 2023-1.0-py310-tiled
# Detector.I0: 10 cm N2
# Detector.I1: 25 cm N2
# Detector.I2: 25 cm N2
# Element.symbol: Au
# Element.edge: L1
# Element.reference: Au
# Element.reference_material: Au foil
# Facility.name: NSLS-II
# Facility.energy: 3.0
# Facility.current: 399.2
# Facility.mode: top-off
# Facility.GUP: 301027
# Facility.SAF: 310583
# Facility.cycle: 2023-2
# Mono.name: Si(111)
# Mono.d_spacing: 3.13519
# Mono.encoder_resolution: 0.0000050 deg/ct
# Mono.angle_offset: 16.0754 deg
# Mono.scan_mode: pseudo channel cut
# Mono.scan_type: step
# Mono.direction: forward in energy
# Sample.name: AuH2Na3O6S4+, gold thiosulfate
# Sample.prep: powder in BN pellet
# Sample.x: 145.711 mm
# Sample.y: 114.376 mm
# Sample.SDD_position: 205.000 mm
# Scan.experimenters: Bruce Ravel
# Scan.edge_energy: 14352.8
# Scan.start_time: 2023-06-27T20:19:36
# Scan.end_time: 2023-06-27T20:27:27
# Scan.transient_id: 85293
# Scan.uid: 289ddec2-cfc7-4133-a3b1-768e51580132
# Scan.plot_hint: ln(I0/It)  --  ln($5/$6)
# Column.1: energy eV
# Column.2: requested_energy eV
# Column.3: measurement_time seconds
# Column.4: xmu
# Column.5: I0 nA
# Column.6: It nA
# Column.7: Ir nA
# ///////////
# Welcome to BMM
# -----------
# energy  requested_energy  measurement_time  xmu  I0  It  Ir
  14152.739  14152.800  0.500  1.061696  34.5072  11.935  6.743869
  14162.830  14162.800  0.500  1.059151  34.4011  11.9286  6.748531
  14172.839  14172.800  0.500  1.056020  34.62  12.0421  6.816284
  14182.845  14182.800  0.500  1.052804  34.508  12.0418  6.820533
  14192.882  14192.800  0.500  1.050006  34.4364  12.0505  6.831314
  14202.864  14202.800  0.500  1.046910  34.338  12.0533  6.837859
  14212.877  14212.800  0.500  1.044076  34.2661  12.0622  6.848843
  14222.887  14222.800  0.500  1.041552  34.1869  12.0648  6.856519
  14232.903  14232.800  0.500  1.039185  34.1214  12.0702  6.867576
  14242.826  14242.800  0.500  1.036760  34.0288  12.0667  6.872878
  14252.852  14252.800  0.500  1.034811  33.954  12.0636  6.879960
  14262.839  14262.800  0.500  1.032434  33.8508  12.0556  6.880040
  14272.867  14272.800  0.500  1.030804  31.9896  11.4113  6.516960
  14282.828  14282.800  0.500  1.028233  33.7486  12.0698  6.900361
  14292.867  14292.800  0.500  1.026001  33.6779  12.0714  6.903881
  14302.866  14302.800  0.500  1.023816  33.5715  12.0596  6.900971
  14312.852  14312.800  0.500  1.022125  33.5337  12.0664  6.908335
  14322.888  14322.800  0.500  1.021019  33.445  12.0478  6.897625
  14324.816  14324.800  0.500  1.020799  33.4453  12.0506  6.900088
  14326.808  14326.800  0.500  1.020892  33.4219  12.041  6.896606
  14328.791  14328.800  0.500  1.021076  33.4091  12.0342  6.893712
  14330.783  14330.800  0.500  1.020872  33.3899  12.0297  6.888148
  14332.804  14332.800  0.500  1.021264  33.3697  12.0177  6.881602
  14334.815  14334.800  0.500  1.021520  33.3715  12.0153  6.880237
  14336.810  14336.800  0.500  1.021956  33.3631  12.0071  6.873494
  14338.787  14338.800  0.500  1.022638  33.3387  11.9901  6.861585
  14340.800  14340.800  0.500  1.023637  33.3317  11.9756  6.850556
  14342.787  14342.800  0.500  1.025080  33.3171  11.9531  6.834705
  14343.057  14343.100  0.500  1.025216  33.2962  11.944  6.828306
  14343.372  14343.400  0.500  1.025535  33.2938  11.9393  6.826435
  14343.668  14343.700  0.500  1.025750  33.2807  11.932  6.822288
  14343.974  14344.000  0.500  1.026054  33.2719  11.9253  6.817835
  14344.262  14344.300  0.500  1.026373  33.2772  11.9233  6.814038
  14344.550  14344.600  0.500  1.026673  33.261  11.914  6.808951
  14344.883  14344.900  0.500  1.027248  33.2596  11.9066  6.804753
  14345.180  14345.200  0.500  1.027418  33.257  11.9037  6.800210
  14345.476  14345.500  0.500  1.027751  33.2708  11.9046  6.800620
  14345.791  14345.800  0.500  1.028241  33.2684  11.898  6.794534
  14346.070  14346.100  0.500  1.028654  33.2769  11.8961  6.793104
  14346.376  14346.400  0.500  1.029146  33.2683  11.8872  6.787078
  14346.682  14346.700  0.500  1.029589  33.2673  11.8815  6.782991
  14346.961  14347.000  0.500  1.030086  33.266  11.8752  6.778783
  14347.267  14347.300  0.500  1.030577  33.2759  11.8729  6.775373
  14347.564  14347.600  0.500  1.031279  33.2665  11.8612  6.766896
  14347.852  14347.900  0.500  1.031824  33.2654  11.8544  6.762692
  14348.176  14348.200  0.500  1.032392  33.2666  11.848  6.756155
  14348.464  14348.500  0.500  1.033071  33.2598  11.8376  6.748321
  14348.770  14348.800  0.500  1.033754  33.2608  11.8298  6.742706
  14349.076  14349.100  0.500  1.034595  33.2553  11.818  6.735163
  14349.364  14349.400  0.500  1.035319  33.2559  11.8096  6.727076
  14349.661  14349.700  0.500  1.036414  33.2593  11.7979  6.720950
  14349.976  14350.000  0.500  1.037161  33.253  11.7869  6.712832
  14350.282  14350.300  0.500  1.038054  33.2427  11.7727  6.700220
  14350.588  14350.600  0.500  1.039110  33.244  11.7607  6.690890
  14350.885  14350.900  0.500  1.040027  33.2396  11.7484  6.680571
  14351.182  14351.200  0.500  1.041167  33.2418  11.7358  6.673113
  14351.506  14351.500  0.500  1.042626  33.2361  11.7167  6.658156
  14351.785  14351.800  0.500  1.043855  33.2394  11.7034  6.649160
  14352.100  14352.100  0.500  1.045181  33.2305  11.6848  6.633646
  14352.397  14352.400  0.500  1.046511  33.2253  11.6674  6.620049
  14352.695  14352.700  0.500  1.048052  33.2247  11.6492  6.606824
  14353.010  14353.000  0.500  1.049966  33.2366  11.6311  6.592072
  14353.298  14353.300  0.500  1.051683  33.2137  11.6032  6.573409
  14353.604  14353.600  0.500  1.053520  33.2176  11.5833  6.557856
  14353.901  14353.900  0.500  1.055347  33.2069  11.5584  6.538077
  14354.190  14354.200  0.500  1.057529  33.2016  11.5313  6.518937
  14354.514  14354.500  0.500  1.059900  33.2064  11.5057  6.499469
  14354.784  14354.800  0.500  1.061845  33.2025  11.482  6.480527
  14355.090  14355.100  0.500  1.064438  33.2023  11.4522  6.458733
  14355.388  14355.400  0.500  1.067119  33.2023  11.4215  6.437759
  14355.685  14355.700  0.500  1.069895  33.2126  11.3934  6.415626
  14355.991  14356.000  0.500  1.072599  33.1922  11.3556  6.388525
  14356.271  14356.300  0.500  1.075397  33.1936  11.3244  6.366907
  14356.586  14356.600  0.500  1.078522  33.188  11.2872  6.338759
  14356.874  14356.900  0.500  1.081161  33.1818  11.2553  6.314743
  14357.172  14357.200  0.500  1.084249  33.1792  11.2197  6.288461
  14357.487  14357.500  0.500  1.087191  33.1669  11.1826  6.260767
  14357.775  14357.800  0.500  1.090164  33.1538  11.145  6.234033
  14358.100  14358.100  0.500  1.093346  33.141  11.1053  6.206725
  14358.370  14358.400  0.500  1.095774  33.1236  11.0726  6.183220
  14358.703  14358.700  0.500  1.098614  33.0991  11.033  6.153251
  14358.992  14359.000  0.500  1.101023  33.0927  11.0043  6.131372
  14359.298  14359.300  0.500  1.103401  33.0741  10.972  6.106086
  14359.614  14359.600  0.500  1.105838  33.078  10.9466  6.087831
  14359.911  14359.900  0.500  1.108034  33.0778  10.9226  6.068822
  14360.209  14360.200  0.500  1.110238  33.0857  10.9011  6.049923
  14360.506  14360.500  0.500  1.111736  33.0908  10.8864  6.035592
  14360.804  14360.800  0.500  1.113723  33.1152  10.8728  6.021520
  14361.101  14361.100  0.500  1.115447  33.1282  10.8584  6.010120
  14361.417  14361.400  0.500  1.116932  33.1263  10.8417  5.992957
  14361.714  14361.700  0.500  1.118293  33.1336  10.8293  5.980270
  14362.003  14362.000  0.500  1.119860  33.1362  10.8132  5.965815
  14362.318  14362.300  0.500  1.121340  33.1384  10.7979  5.951813
  14362.589  14362.600  0.500  1.122772  33.1387  10.7825  5.937241
  14362.914  14362.900  0.500  1.124034  33.1306  10.7663  5.921728
  14363.193  14363.200  0.500  1.125183  33.1241  10.7518  5.907247
  14363.491  14363.500  0.500  1.126580  33.1364  10.7408  5.896105
  14363.770  14363.800  0.500  1.128076  33.1206  10.7197  5.880259
  14364.086  14364.100  0.500  1.129285  33.1243  10.7079  5.868519
  14364.402  14364.400  0.500  1.130648  33.1177  10.6912  5.852515
  14364.681  14364.700  0.500  1.131897  33.1131  10.6763  5.840026
  14364.988  14365.000  0.500  1.133079  33.1102  10.6628  5.824930
  14365.268  14365.300  0.500  1.134262  33.1174  10.6525  5.815748
  14365.610  14365.600  0.500  1.135524  33.1123  10.6374  5.803384
  14365.899  14365.900  0.500  1.136519  33.0976  10.6222  5.789612
  14366.197  14366.200  0.500  1.137481  33.0942  10.6109  5.777704
  14366.486  14366.500  0.500  1.138576  33.089  10.5976  5.769170
  14366.810  14366.800  0.500  1.139503  33.089  10.5878  5.759237
  14367.117  14367.100  0.500  1.140170  33.0632  10.5724  5.746901
  14367.397  14367.400  0.500  1.140826  33.0481  10.5607  5.737756
  14367.722  14367.700  0.500  1.141532  33.0331  10.5485  5.728258
  14368.001  14368.000  0.500  1.142015  33.0301  10.5424  5.722774
  14368.326  14368.300  0.500  1.142651  33.0166  10.5314  5.714943
  14368.597  14368.600  0.500  1.142973  33.0166  10.528  5.711311
  14368.913  14368.900  0.500  1.143573  33.0208  10.523  5.707723
  14369.202  14369.200  0.500  1.143701  33.0191  10.5211  5.704366
  14369.500  14369.500  0.500  1.144226  33.0243  10.5173  5.701718
  14369.807  14369.800  0.500  1.144409  33.0404  10.5205  5.703433
  14370.095  14370.100  0.500  1.144695  33.051  10.5208  5.702083
  14370.402  14370.400  0.500  1.144853  33.0548  10.5204  5.702641
  14370.700  14370.700  0.500  1.144826  33.0566  10.5212  5.702530
  14370.989  14371.000  0.500  1.145028  33.0534  10.5181  5.701239
  14371.305  14371.300  0.500  1.145324  33.0677  10.5195  5.702654
  14371.576  14371.600  0.500  1.145247  33.0519  10.5153  5.700094
  14371.901  14371.900  0.500  1.145251  33.066  10.5198  5.703921
  14372.163  14372.200  0.500  1.145406  33.0566  10.5151  5.702430
  14372.488  14372.500  0.500  1.145385  33.0454  10.5118  5.700872
  14372.777  14372.800  0.500  1.145459  33.045  10.5109  5.702461
  14373.084  14373.100  0.500  1.145424  33.0506  10.513  5.702755
  14373.391  14373.400  0.500  1.145472  33.0372  10.5083  5.701403
  14373.689  14373.700  0.500  1.145596  33.0253  10.5032  5.702473
  14374.005  14374.000  0.500  1.145545  33.0218  10.5026  5.702169
  14374.294  14374.300  0.500  1.145496  33.0201  10.5026  5.703113
  14374.610  14374.600  0.500  1.145832  33.0239  10.5002  5.704149
  14374.899  14374.900  0.500  1.145783  33.018  10.4989  5.704971
  14375.198  14375.200  0.500  1.145719  33.0171  10.4993  5.706060
  14375.523  14375.500  0.500  1.145863  32.9961  10.4911  5.704181
  14375.803  14375.800  0.500  1.145992  32.9813  10.485  5.704002
  14376.110  14376.100  0.500  1.146000  32.9726  10.4822  5.702524
  14376.408  14376.400  0.500  1.146251  32.9542  10.4737  5.700845
  14376.688  14376.700  0.500  1.146344  32.9591  10.4743  5.703398
  14377.032  14377.000  0.500  1.146443  32.94  10.4672  5.700432
  14377.312  14377.300  0.500  1.146537  32.9398  10.4661  5.700951
  14377.610  14377.600  0.500  1.146507  32.9399  10.4665  5.701939
  14377.809  14377.800  0.500  1.146761  32.9547  10.4685  5.705059
  14378.812  14378.790  0.500  1.147217  32.9656  10.4672  5.708814
  14379.770  14379.790  0.500  1.147632  32.9764  10.4663  5.713254
  14380.819  14380.810  0.500  1.148172  32.9744  10.46  5.712695
  14381.885  14381.860  0.500  1.148439  32.9682  10.4553  5.710913
  14382.925  14382.920  0.500  1.148795  32.954  10.447  5.706046
  14384.020  14384.000  0.500  1.149238  32.9444  10.4394  5.698465
  14385.123  14385.100  0.500  1.149452  32.9117  10.4268  5.689215
  14386.263  14386.220  0.500  1.149907  32.8712  10.4092  5.674468
  14387.376  14387.360  0.500  1.149915  32.8884  10.4146  5.670029
  14388.525  14388.510  0.500  1.150341  32.9082  10.4164  5.665159
  14389.675  14389.690  0.500  1.150248  32.9082  10.4174  5.661201
  14390.906  14390.880  0.500  1.150073  32.9052  10.4183  5.655627
  14392.119  14392.100  0.500  1.149502  32.9039  10.4238  5.654488
  14393.351  14393.330  0.500  1.148811  32.8861  10.4254  5.653516
  14394.610  14394.580  0.500  1.147801  32.8904  10.4372  5.659934
  14395.878  14395.850  0.500  1.146524  32.8781  10.4467  5.667164
  14397.137  14397.140  0.500  1.145072  32.8522  10.4536  5.675688
  14398.460  14398.450  0.500  1.143378  32.8438  10.4686  5.687687
  14399.793  14399.780  0.500  1.141913  32.8363  10.4816  5.702658
  14401.153  14401.130  0.500  1.140269  32.8177  10.4929  5.713893
  14402.522  14402.500  0.500  1.138943  32.8109  10.5047  5.726823
  14403.891  14403.880  0.500  1.138024  32.8047  10.5123  5.735326
  14405.306  14405.290  0.500  1.137199  32.8032  10.5205  5.741248
  14406.704  14406.710  0.500  1.136659  32.7833  10.5198  5.742179
  14408.137  14408.150  0.500  1.136315  32.7704  10.5193  5.742978
  14409.626  14409.610  0.500  1.136212  32.7549  10.5154  5.740332
  14411.105  14411.090  0.500  1.136025  32.654  10.485  5.724717
  14412.604  14412.590  0.500  1.136114  32.5975  10.4659  5.714060
  14414.139  14414.110  0.500  1.135900  32.6798  10.4946  5.728474
  14415.656  14415.650  0.500  1.136280  32.8108  10.5326  5.750375
  14417.209  14417.210  0.500  1.135999  32.8138  10.5366  5.749400
  14418.781  14418.780  0.500  1.136141  32.8081  10.5332  5.747435
  14420.399  14420.380  0.500  1.135929  32.775  10.5248  5.743006
  14422.000  14421.990  0.500  1.135674  32.7011  10.5038  5.730101
  14423.646  14423.630  0.500  1.135521  32.6027  10.4738  5.712538
  14425.274  14425.280  0.500  1.135026  32.7309  10.5202  5.737097
  14426.939  14426.950  0.500  1.135062  32.7522  10.5266  5.740221
  14428.641  14428.640  0.500  1.134631  32.7262  10.5228  5.738320
  14430.370  14430.350  0.500  1.134491  32.7076  10.5183  5.733251
  14432.100  14432.080  0.500  1.134322  32.6569  10.5038  5.724910
  14433.858  14433.830  0.500  1.134552  32.5221  10.458  5.702466
  14435.588  14435.590  0.500  1.134681  32.6497  10.4977  5.725993
  14437.392  14437.380  0.500  1.135157  32.686  10.5044  5.734338
  14439.188  14439.180  0.500  1.135194  32.66  10.4956  5.731353
  14441.029  14441.010  0.500  1.135326  32.6447  10.4893  5.732408
  14442.853  14442.850  0.500  1.135234  32.6247  10.4838  5.733782
  14444.695  14444.710  0.500  1.135048  32.5495  10.4616  5.723723
  14446.593  14446.590  0.500  1.134591  32.4753  10.4426  5.717267
  14448.509  14448.490  0.500  1.133565  32.5886  10.4898  5.743623
  14450.444  14450.410  0.500  1.132669  32.5752  10.4948  5.747647
  14452.389  14452.350  0.500  1.131590  32.5724  10.5052  5.754690
  14454.298  14454.310  0.500  1.130569  32.5491  10.5084  5.757817
  14456.244  14456.280  0.500  1.129072  32.5352  10.5197  5.764274
  14458.254  14458.280  0.500  1.127678  32.5154  10.528  5.768906
  14460.256  14460.290  0.500  1.126649  32.4968  10.5328  5.772211
  14462.286  14462.320  0.500  1.125130  32.4856  10.5451  5.780329
  14464.316  14464.380  0.500  1.124036  32.4699  10.5516  5.785619
  14466.393  14466.450  0.500  1.122802  32.4523  10.5589  5.792440
  14468.497  14468.540  0.500  1.121793  32.4392  10.5653  5.797781
  14470.639  14470.650  0.500  1.120993  32.4205  10.5676  5.800724
  14472.763  14472.780  0.500  1.119840  32.404  10.5745  5.804889
  14474.861  14474.920  0.500  1.119057  32.3923  10.5789  5.809180
  14477.573  14477.090  0.500  1.118402  32.3681  10.578  5.809483
  14479.195  14479.280  0.500  1.117665  32.3504  10.58  5.810211
  14481.634  14481.480  0.500  1.117109  32.2811  10.5632  5.801076
  14483.816  14483.700  0.500  1.116368  32.3025  10.578  5.809375
  14485.999  14485.950  0.500  1.116126  32.2897  10.5764  5.809604
  14488.165  14488.210  0.500  1.115704  32.2754  10.5761  5.811053
  14490.478  14490.490  0.500  1.115108  32.2589  10.577  5.809467
  14492.755  14492.790  0.500  1.114900  32.2454  10.5748  5.810386
  14495.097  14495.110  0.500  1.114512  32.2311  10.5742  5.812902
  14497.431  14497.450  0.500  1.114203  32.2277  10.5764  5.814773
  14499.793  14499.800  0.500  1.114067  32.1977  10.568  5.811411
  14502.165  14502.180  0.500  1.113936  32.1841  10.5649  5.812732
  14504.556  14504.570  0.500  1.113708  32.1815  10.5664  5.816111
  14506.966  14506.990  0.500  1.113569  32.1578  10.5601  5.813997
  14509.396  14509.420  0.500  1.113132  32.1414  10.5594  5.815754
  14511.845  14511.870  0.500  1.112629  32.1076  10.5536  5.813926
  14514.359  14514.350  0.500  1.112348  32.1028  10.555  5.817361
  14516.846  14516.840  0.500  1.111577  32.0372  10.5415  5.811824
  14519.353  14519.350  0.500  1.110846  32.0628  10.5576  5.820399
  14521.870  14521.870  0.500  1.110084  32.0482  10.5609  5.826595
  14524.387  14524.420  0.500  1.109145  32.0312  10.5652  5.829085
  14526.970  14526.990  0.500  1.108256  32.0162  10.5696  5.834672
  14529.545  14529.570  0.500  1.107222  31.9945  10.5734  5.838957
  14532.186  14532.180  0.500  1.106415  31.9813  10.5776  5.843579
  14534.809  14534.800  0.500  1.105649  31.9647  10.5802  5.847361
  14537.432  14537.450  0.500  1.104647  31.9324  10.5801  5.849212
  14540.113  14540.110  0.500  1.103682  31.9216  10.5867  5.853308
  14542.766  14542.790  0.500  1.102727  31.9046  10.5912  5.856641
  14545.458  14545.490  0.500  1.101794  31.8822  10.5936  5.857430
  14548.215  14548.210  0.500  1.100893  31.8586  10.5953  5.858250
  14550.973  14550.950  0.500  1.100052  31.8038  10.586  5.854128
  14553.695  14553.700  0.500  1.099228  31.82  10.6001  5.861853
  14556.465  14556.480  0.500  1.098337  31.8077  10.6055  5.864398
  14559.273  14559.270  0.500  1.097263  31.7814  10.6081  5.867508
  14562.091  14562.090  0.500  1.096703  31.7688  10.6098  5.871070
  14564.920  14564.920  0.500  1.095550  31.7454  10.6143  5.874167
  14567.777  14567.770  0.500  1.094523  31.7255  10.6185  5.877946
  14570.682  14570.650  0.500  1.093746  31.706  10.6202  5.881929
  14573.570  14573.540  0.500  1.092904  31.6859  10.6224  5.884384
  14576.459  14576.450  0.500  1.091998  31.6659  10.6254  5.889016
  14579.349  14579.370  0.500  1.091344  31.6447  10.6252  5.892780
  14582.305  14582.320  0.500  1.090376  31.6182  10.6266  5.895141
  14585.281  14585.290  0.500  1.089712  31.5993  10.6273  5.898408
  14588.267  14588.270  0.500  1.089235  31.584  10.6272  5.901713
  14591.283  14591.280  0.500  1.088642  31.5635  10.6266  5.904886
  14594.282  14594.300  0.500  1.088060  31.5426  10.6257  5.908382
  14597.318  14597.350  0.500  1.087406  31.5183  10.6245  5.908279
  14600.422  14600.410  0.500  1.086915  31.5006  10.6238  5.911063
  14603.489  14603.490  0.500  1.086203  31.479  10.624  5.914677
  14606.595  14606.590  0.500  1.085558  31.4516  10.6216  5.914993
  14609.703  14609.710  0.500  1.084701  31.4272  10.6225  5.914657
  14612.821  14612.850  0.500  1.083993  31.4056  10.6227  5.915646
  14616.005  14616.000  0.500  1.083224  31.352  10.6127  5.911401
  14619.192  14619.180  0.500  1.082230  31.3661  10.6281  5.920422
  14622.351  14622.370  0.500  1.081233  31.3446  10.6314  5.923177
  14625.587  14625.590  0.500  1.080196  31.3278  10.6367  5.926195
  14628.805  14628.820  0.500  1.079353  31.3095  10.6394  5.931188
  14632.081  14632.070  0.500  1.078255  31.2756  10.6396  5.933568
  14635.359  14635.350  0.500  1.077031  31.2516  10.6445  5.935911
  14638.629  14638.640  0.500  1.076086  31.2306  10.6474  5.939953
  14641.965  14641.950  0.500  1.075043  31.2019  10.6487  5.943582
  14645.276  14645.270  0.500  1.073914  31.1428  10.6405  5.939954
  14648.644  14648.620  0.500  1.072819  31.1679  10.6608  5.952670
  14651.994  14651.990  0.500  1.071620  31.1361  10.6627  5.956358
  14655.365  14655.370  0.500  1.070797  31.1245  10.6675  5.963419
  14658.795  14658.780  0.500  1.069610  31.0606  10.6582  5.960843
  14662.216  14662.200  0.500  1.068498  31.0599  10.6698  5.969733
  14665.639  14665.650  0.500  1.067470  30.9977  10.6594  5.968040
  14669.110  14669.110  0.500  1.066493  31.0296  10.6808  5.982641
  14672.621  14672.590  0.500  1.065407  31.0031  10.6833  5.987312
  14676.115  14676.090  0.500  1.064385  30.9768  10.6851  5.990716
  14679.610  14679.610  0.500  1.063430  30.9578  10.6888  5.993306
  14683.173  14683.150  0.500  1.062564  30.9082  10.6809  5.991221
  14686.719  14686.700  0.500  1.061334  30.8479  10.6732  5.987373
  14690.286  14690.280  0.500  1.060647  30.8814  10.6921  6.000512
  14693.920  14693.880  0.500  1.059764  30.8587  10.6937  6.002734
  14697.490  14697.490  0.500  1.058737  30.8321  10.6954  6.003339
  14701.138  14701.120  0.500  1.057831  30.8041  10.6954  6.007174
  14704.815  14704.780  0.500  1.056849  30.7717  10.6947  6.009405
  14708.467  14708.450  0.500  1.056127  30.7516  10.6954  6.012022
  14712.148  14712.140  0.500  1.055112  30.7444  10.7038  6.017502
  14715.860  14715.850  0.500  1.054335  30.7155  10.702  6.018935
  14719.611  14719.580  0.500  1.053208  30.6849  10.7034  6.021318
  14723.317  14723.320  0.500  1.052345  30.6682  10.7068  6.025429
  14727.091  14727.090  0.500  1.051266  30.6299  10.705  6.027833
  14730.924  14730.880  0.500  1.050501  30.6175  10.7088  6.032594
  14734.721  14734.680  0.500  1.049353  30.5401  10.694  6.025856
  14738.502  14738.510  0.500  1.048313  30.4517  10.6742  6.016173
  14742.360  14742.350  0.500  1.047372  30.5297  10.7116  6.041900
  14746.248  14746.210  0.500  1.046106  30.5087  10.7178  6.047659
  14750.120  14750.090  0.500  1.045241  30.4849  10.7187  6.052264
  14753.975  14753.990  0.500  1.044091  30.4538  10.7201  6.055721
  14757.946  14757.910  0.500  1.043016  30.4258  10.7218  6.058763
  14761.872  14761.850  0.500  1.041913  30.396  10.7231  6.062463
  14765.866  14765.810  0.500  1.040850  30.3366  10.7135  6.059655
  14769.786  14769.780  0.500  1.039781  30.3535  10.7309  6.071673
  14773.814  14773.780  0.500  1.038494  30.3242  10.7344  6.075118
  14777.815  14777.790  0.500  1.037227  30.2977  10.7386  6.078894
  14781.837  14781.830  0.500  1.036139  30.2668  10.7393  6.081710
  14785.890  14785.880  0.500  1.035051  30.2402  10.7416  6.084319
  14789.965  14789.950  0.500  1.033802  30.0092  10.6729  6.047505
  14794.090  14794.040  0.500  1.032640  30.1898  10.7496  6.092910
  14798.159  14798.150  0.500  1.031823  30.1629  10.7488  6.095472
  14802.308  14802.280  0.500  1.030595  30.138  10.7531  6.099972
  14806.487  14806.430  0.500  1.029377  30.1071  10.7551  6.102656
  14810.631  14810.590  0.500  1.028393  30.0836  10.7573  6.106362
  14814.805  14814.780  0.500  1.027326  30.0529  10.7578  6.112710
  14819.011  14818.980  0.500  1.026156  30.0315  10.7627  6.116384
  14823.239  14823.210  0.500  1.024916  30.001  10.7652  6.119828
  14827.459  14827.450  0.500  1.024027  29.9642  10.7615  6.121611
  14831.721  14831.710  0.500  1.022940  29.9369  10.7634  6.124250
  14836.023  14835.990  0.500  1.021676  29.8759  10.7551  6.121770
  14840.318  14840.290  0.500  1.020708  29.7823  10.7318  6.111737
  14844.645  14844.610  0.500  1.019438  29.8411  10.7666  6.134572
  14848.983  14848.950  0.500  1.018257  29.8164  10.7704  6.138965
  14853.334  14853.310  0.500  1.017430  29.794  10.7712  6.142578
  14857.698  14857.690  0.500  1.016131  29.7568  10.7717  6.144592
  14862.102  14862.080  0.500  1.015151  29.7019  10.7624  6.144356
  14866.548  14866.500  0.500  1.013810  29.7018  10.7768  6.153641
  14870.958  14870.930  0.500  1.012623  29.671  10.7784  6.156371
  14875.399  14875.380  0.500  1.011533  29.646  10.7811  6.161096
  14879.882  14879.850  0.500  1.010308  29.6213  10.7853  6.165301
  14884.367  14884.340  0.500  1.009035  29.5899  10.7876  6.170022
  14888.875  14888.850  0.500  1.007888  29.5522  10.7862  6.170381
  14893.415  14893.380  0.500  1.006611  29.3662  10.732  6.142874
  14897.967  14897.930  0.500  1.005354  29.5767  10.8226  6.195853
  14902.502  14902.500  0.500  1.004150  29.5531  10.8269  6.202794
  14907.108  14907.080  0.500  1.003061  29.5238  10.828  6.204537
  14911.737  14911.690  0.500  1.001738  29.4945  10.8316  6.211211
  14916.330  14916.310  0.500  1.000515  29.4637  10.8335  6.212885
  14920.983  14920.960  0.500  0.999076  29.4301  10.8367  6.218314
  14925.660  14925.620  0.500  0.997966  29.4031  10.8388  6.224107
  14930.319  14930.300  0.500  0.996717  29.3705  10.8403  6.227152
  14935.021  14935.000  0.500  0.995550  29.3006  10.8272  6.223513
  14939.755  14939.720  0.500  0.994320  29.3146  10.8457  6.236175
  14944.463  14944.460  0.500  0.993036  29.2836  10.8481  6.239839
  14949.252  14949.210  0.500  0.991806  29.2543  10.8506  6.246273
  14954.024  14953.990  0.500  0.990590  29.2181  10.8504  6.247854
  14958.790  14958.790  0.500  0.989374  29.1906  10.8533  6.251883
  14963.627  14963.600  0.500  0.988023  29.1597  10.8565  6.255855
  14968.497  14968.430  0.500  0.986879  29.1217  10.8548  6.257243
  14973.321  14973.290  0.500  0.985807  29.0523  10.8405  6.251971
  14978.178  14978.160  0.500  0.984472  29.052  10.8549  6.263593
  14983.087  14983.050  0.500  0.983396  29.0111  10.8513  6.264315
  14987.970  14987.960  0.500  0.982107  28.9848  10.8554  6.269844
  14992.924  14992.890  0.500  0.980786  28.9487  10.8562  6.272298
  14997.892  14997.830  0.500  0.979524  28.9348  10.8647  6.280880
  15002.814  15002.800  0.500  0.978301  28.8991  10.8646  6.282913
  15007.838  15007.790  0.500  0.977158  28.8658  10.8645  6.287607
  15012.826  15012.790  0.500  0.975648  28.8397  10.8711  6.292750
  15017.837  15017.820  0.500  0.974590  28.8039  10.8691  6.293859
  15022.880  15022.860  0.500  0.973226  28.7688  10.8706  6.297900
  15027.957  15027.920  0.500  0.972079  28.723  10.8658  6.297882
  15033.018  15033.000  0.500  0.970594  28.7036  10.8746  6.305929
  15038.131  15038.100  0.500  0.969151  28.6772  10.8803  6.311551
  15043.219  15043.220  0.500  0.968182  28.6455  10.8788  6.314402
  15048.369  15048.360  0.500  0.966619  28.6102  10.8824  6.319796
  15053.523  15053.520  0.500  0.965444  28.5773  10.8826  6.324269
  15058.690  15058.700  0.500  0.964057  28.5406  10.8837  6.328751
  15063.920  15063.890  0.500  0.962699  28.5025  10.884  6.331553
  15069.144  15069.110  0.500  0.961465  28.4743  10.8866  6.337073
  15074.352  15074.340  0.500  0.960106  28.4371  10.8872  6.340004
  15079.614  15079.590  0.500  0.958761  28.411  10.8918  6.345352
  15084.869  15084.860  0.500  0.957405  28.3713  10.8914  6.347948
  15090.177  15090.150  0.500  0.956103  28.3436  10.895  6.353749
  15095.509  15095.460  0.500  0.954523  28.305  10.8973  6.357810
  15100.796  15100.790  0.500  0.953410  28.2732  10.8972  6.361412
  15106.165  15106.140  0.500  0.951971  28.2417  10.9007  6.366526
  15111.549  15111.510  0.500  0.950686  28.2081  10.9018  6.369668
  15116.896  15116.890  0.500  0.949335  28.1762  10.9041  6.372245
  15122.328  15122.300  0.500  0.948012  28.1373  10.9035  6.377345
  15127.773  15127.720  0.500  0.946545  28.1022  10.9059  6.379460
  15133.182  15133.170  0.500  0.945329  28.0656  10.9049  6.384377
  15138.696  15138.630  0.500  0.943827  28.0324  10.9084  6.387757
  15144.143  15144.110  0.500  0.942636  27.9988  10.9083  6.390968
  15149.614  15149.610  0.500  0.941386  27.9536  10.9043  6.392097
  15155.170  15155.130  0.500  0.939737  27.9222  10.9101  6.397416
  15160.689  15160.670  0.500  0.938536  27.8335  10.8884  6.390246
  15166.233  15166.220  0.500  0.937167  27.8433  10.9072  6.403399
  15171.851  15171.800  0.500  0.935827  27.8196  10.9125  6.410106
  15177.433  15177.400  0.500  0.934381  27.7872  10.9156  6.414281
  15183.060  15183.010  0.500  0.933070  27.7543  10.917  6.419197
  15188.721  15188.650  0.500  0.931547  27.7138  10.9177  6.420995
  15194.336  15194.300  0.500  0.930243  27.6792  10.9183  6.425482
  15200.006  15199.970  0.500  0.928872  27.6376  10.9168  6.429084
  15205.700  15205.660  0.500  0.927544  27.6063  10.9189  6.435200