File: xdidata/Au/Au-L3-GoldAcetate.xdi
# XDI/1.0 BlueSky/1.10.0 BMM/2023-1.0-py310-tiled
# Beamline.name: BMM (06BM) -- Beamline for Materials Measurement (NIST)
# Beamline.xray_source: NSLS-II three-pole wiggler
# Beamline.collimation: paraboloid mirror, 5 nm Rh on 30 nm Pt
# Beamline.focusing: not in use
# Beamline.harmonic_rejection: flat mirror, Pt stripe, pitch = 7.0 mrad relative to beam
# Beamline.software: Bluesky 1.10.0, Ophyd 1.7.0, DataBroker 2.0.0b13, Python 3.10.8, 2023-1.0-py310-tiled
# Detector.I0: 10 cm N2
# Detector.I1: 25 cm N2
# Detector.I2: 25 cm N2
# Element.symbol: Au
# Element.edge: L3
# Element.reference: Au
# Element.reference_material: Au foil
# Facility.name: NSLS-II
# Facility.energy: 3.0
# Facility.current: 400.5
# Facility.mode: top-off
# Facility.GUP: 301027
# Facility.SAF: 310583
# Facility.cycle: 2023-2
# Mono.name: Si(111)
# Mono.d_spacing: 3.13519
# Mono.encoder_resolution: 0.0000050 deg/ct
# Mono.angle_offset: 16.0754 deg
# Mono.scan_mode: pseudo channel cut
# Mono.scan_type: step
# Mono.direction: forward in energy
# Sample.name: Au(C2H3O2)3, gold scetate
# Sample.prep: powder on tape
# Sample.x: 145.711 mm
# Sample.y: 114.376 mm
# Sample.SDD_position: 205.000 mm
# Scan.experimenters: Bruce Ravel
# Scan.edge_energy: 11918.7
# Scan.start_time: 2023-06-27T18:23:55
# Scan.end_time: 2023-06-27T18:31:45
# Scan.transient_id: 85222
# Scan.uid: f8778dea-1743-4ebf-81bb-6d42f9572a59
# Scan.plot_hint: ln(I0/It)  --  ln($5/$6)
# Column.1: energy eV
# Column.2: requested_energy eV
# Column.3: measurement_time seconds
# Column.4: xmu
# Column.5: I0 nA
# Column.6: It nA
# Column.7: Ir nA
# ///////////
# sample courtesy Martin Stennett, University of Sheffield
# -----------
# energy  requested_energy  measurement_time  xmu  I0  It  Ir
  11718.684  11718.700  0.500  0.523983  64.655  38.2859  24.3706
  11728.729  11728.700  0.500  0.521145  64.517  38.3128  24.4112
  11738.750  11738.700  0.500  0.518360  64.3696  38.3319  24.448
  11748.734  11748.700  0.500  0.515654  64.1531  38.3064  24.4622
  11758.735  11758.700  0.500  0.512835  63.9179  38.2738  24.4682
  11768.735  11768.700  0.500  0.510208  63.9958  38.4212  24.5845
  11778.770  11778.700  0.500  0.507484  63.6647  38.3267  24.5501
  11788.751  11788.700  0.500  0.504872  63.7363  38.4701  24.6694
  11798.773  11798.700  0.500  0.502340  63.5846  38.4759  24.7029
  11808.733  11808.700  0.500  0.499687  63.4099  38.4721  24.7208
  11818.789  11818.700  0.500  0.497170  63.2797  38.4898  24.7597
  11828.705  11828.700  0.500  0.494877  63.1226  38.4824  24.7776
  11838.729  11838.700  0.500  0.492584  63.0269  38.5123  24.8224
  11848.733  11848.700  0.500  0.490578  62.7188  38.401  24.7706
  11858.736  11858.700  0.500  0.488769  62.6705  38.4409  24.815
  11868.726  11868.700  0.500  0.487722  62.6398  38.4623  24.8487
  11878.721  11878.700  0.500  0.487436  62.5221  38.401  24.8128
  11888.732  11888.700  0.500  0.488943  62.3316  38.2264  24.697
  11890.676  11890.700  0.500  0.489647  62.3187  38.1915  24.6739
  11892.670  11892.700  0.500  0.490594  62.2998  38.1439  24.634
  11894.665  11894.700  0.500  0.491686  62.2674  38.0824  24.5909
  11896.666  11896.700  0.500  0.493184  62.2418  38.0098  24.5374
  11898.656  11898.700  0.500  0.494909  62.2012  37.9195  24.4629
  11900.678  11900.700  0.500  0.497395  62.1001  37.7639  24.3537
  11902.669  11902.700  0.500  0.500296  61.5132  37.2986  24.0318
  11904.673  11904.700  0.500  0.504074  62.0805  37.5007  24.1357
  11906.678  11906.700  0.500  0.509098  62.1063  37.3282  23.9932
  11908.671  11908.700  0.500  0.515955  62.0796  37.0572  23.7737
  11908.949  11909.000  0.500  0.517202  62.0826  37.0128  23.7381
  11909.251  11909.300  0.500  0.518432  62.0768  36.9639  23.6981
  11909.548  11909.600  0.500  0.519845  62.0662  36.9053  23.6505
  11909.862  11909.900  0.500  0.521304  62.0636  36.85  23.606
  11910.153  11910.200  0.500  0.522795  62.0543  36.7896  23.5546
  11910.455  11910.500  0.500  0.524505  62.0521  36.7254  23.5025
  11910.758  11910.800  0.500  0.526226  62.0612  36.6677  23.4556
  11911.060  11911.100  0.500  0.528048  62.0395  36.5881  23.389
  11911.369  11911.400  0.500  0.529964  62.0341  36.5149  23.3318
  11911.647  11911.700  0.500  0.531905  62.0291  36.4412  23.2731
  11911.956  11912.000  0.500  0.533987  62.0387  36.371  23.2146
  11912.252  11912.300  0.500  0.536115  62.0227  36.2843  23.1419
  11912.555  11912.600  0.500  0.538563  62.018  36.1928  23.0735
  11912.870  11912.900  0.500  0.541241  62.0133  36.0933  22.9914
  11913.166  11913.200  0.500  0.543824  62.0122  35.9995  22.9126
  11913.469  11913.500  0.500  0.546786  61.9994  35.8857  22.8226
  11913.759  11913.800  0.500  0.550170  62.0006  35.7652  22.7258
  11914.062  11914.100  0.500  0.553514  61.9844  35.6364  22.6183
  11914.371  11914.400  0.500  0.557338  61.9888  35.5029  22.5097
  11914.667  11914.700  0.500  0.561343  61.964  35.3469  22.3865
  11914.976  11915.000  0.500  0.565846  61.9477  35.1788  22.2514
  11915.273  11915.300  0.500  0.570577  61.9372  35.0069  22.1114
  11915.575  11915.600  0.500  0.575985  61.9098  34.8027  21.9491
  11915.878  11915.900  0.500  0.581684  61.8753  34.5856  21.7768
  11916.193  11916.200  0.500  0.588016  61.7713  34.3095  21.5616
  11916.490  11916.500  0.500  0.594826  61.6331  34.0004  21.3265
  11916.793  11916.800  0.500  0.602537  61.4926  33.6623  21.0675
  11917.102  11917.100  0.500  0.610699  61.369  33.3216  20.8098
  11917.386  11917.400  0.500  0.619655  61.2917  32.9829  20.5404
  11917.689  11917.700  0.500  0.629713  61.2585  32.6351  20.2644
  11917.992  11918.000  0.500  0.640780  61.3088  32.3025  19.9955
  11918.301  11918.300  0.500  0.653420  61.3913  31.9397  19.6987
  11918.598  11918.600  0.500  0.666573  61.4977  31.5769  19.402
  11918.889  11918.900  0.500  0.681502  61.5952  31.1583  19.0606
  11919.179  11919.200  0.500  0.697817  61.7017  30.7071  18.6947
  11919.482  11919.500  0.500  0.716430  61.79  30.184  18.2756
  11919.779  11919.800  0.500  0.737084  61.8306  29.5864  17.804
  11920.076  11920.100  0.500  0.758836  61.8492  28.9585  17.3152
  11920.385  11920.400  0.500  0.784272  61.865  28.2384  16.7588
  11920.676  11920.700  0.500  0.811004  61.8564  27.4897  16.1864
  11920.991  11921.000  0.500  0.841383  61.8586  26.6681  15.5608
  11921.288  11921.300  0.500  0.870863  61.8593  25.8937  14.9753
  11921.603  11921.600  0.500  0.903254  61.8563  25.0672  14.3547
  11921.888  11921.900  0.500  0.933446  61.8643  24.3248  13.7998
  11922.197  11922.200  0.500  0.964922  61.8436  23.5632  13.2382
  11922.494  11922.500  0.500  0.995150  61.8368  22.8591  12.7233
  11922.804  11922.800  0.500  1.022250  61.8308  22.2458  12.2754
  11923.101  11923.100  0.500  1.046986  61.8322  21.7027  11.8809
  11923.398  11923.400  0.500  1.068497  61.8218  21.2373  11.5452
  11923.713  11923.700  0.500  1.089187  61.813  20.7994  11.2324
  11924.010  11924.000  0.500  1.105641  61.8078  20.4583  10.9914
  11924.307  11924.300  0.500  1.119901  61.7929  20.1638  10.7828
  11924.598  11924.600  0.500  1.131868  61.793  19.924  10.6118
  11924.895  11924.900  0.500  1.141809  61.7889  19.7256  10.4728
  11925.198  11925.200  0.500  1.150305  61.78  19.5558  10.3548
  11925.483  11925.500  0.500  1.156753  61.7725  19.4278  10.2654
  11925.805  11925.800  0.500  1.162265  61.7645  19.3185  10.1868
  11926.077  11926.100  0.500  1.165889  61.7603  19.2473  10.1391
  11926.381  11926.400  0.500  1.168663  61.7599  19.1939  10.1035
  11926.690  11926.700  0.500  1.170220  61.7474  19.1601  10.0804
  11926.994  11927.000  0.500  1.171177  61.7437  19.1407  10.0678
  11927.291  11927.300  0.500  1.171394  61.7373  19.1345  10.063
  11927.582  11927.600  0.500  1.171443  61.7305  19.1315  10.063
  11927.916  11927.900  0.500  1.171328  61.7157  19.1291  10.0628
  11928.201  11928.200  0.500  1.171070  61.7136  19.1334  10.065
  11928.504  11928.500  0.500  1.171227  61.7107  19.1295  10.0631
  11928.802  11928.800  0.500  1.171604  61.7032  19.12  10.0566
  11929.111  11929.100  0.500  1.172435  61.6957  19.1017  10.0443
  11929.403  11929.400  0.500  1.173582  61.6858  19.0768  10.025
  11929.706  11929.700  0.500  1.175460  61.6806  19.0394  10.0013
  11930.003  11930.000  0.500  1.177733  61.673  18.9938  9.969542
  11930.307  11930.300  0.500  1.180594  61.6699  18.9386  9.931424
  11930.610  11930.600  0.500  1.183798  61.6702  18.8781  9.891292
  11930.889  11930.900  0.500  1.187317  61.6606  18.8089  9.843424
  11931.199  11931.200  0.500  1.191357  61.653  18.7307  9.788143
  11931.484  11931.500  0.500  1.195415  61.6431  18.6519  9.734561
  11931.788  11931.800  0.500  1.200101  61.6366  18.5627  9.673740
  11932.079  11932.100  0.500  1.204557  61.6257  18.4769  9.614439
  11932.401  11932.400  0.500  1.209701  61.6143  18.3787  9.546043
  11932.674  11932.700  0.500  1.214446  61.6156  18.2921  9.488807
  11932.996  11933.000  0.500  1.219638  61.599  18.1925  9.421189
  11933.281  11933.300  0.500  1.224183  61.5829  18.1052  9.363506
  11933.597  11933.600  0.500  1.228817  61.5432  18.0099  9.298902
  11933.895  11933.900  0.500  1.233133  61.4764  17.9129  9.237682
  11934.199  11934.200  0.500  1.237074  61.3426  17.8036  9.169229
  11934.502  11934.500  0.500  1.240769  61.1806  17.6911  9.101514
  11934.800  11934.800  0.500  1.243839  61.0351  17.5949  9.040811
  11935.104  11935.100  0.500  1.246785  60.9325  17.5137  8.989972
  11935.401  11935.400  0.500  1.249197  60.891  17.4596  8.956811
  11935.724  11935.700  0.500  1.251259  60.9107  17.4293  8.933010
  11936.003  11936.000  0.500  1.253053  60.9754  17.4165  8.923791
  11936.319  11936.300  0.500  1.254624  61.0599  17.4132  8.916597
  11936.604  11936.600  0.500  1.255891  61.174  17.4237  8.919404
  11936.908  11936.900  0.500  1.256948  61.29  17.4383  8.923930
  11937.200  11937.200  0.500  1.257739  61.3757  17.4489  8.928401
  11937.497  11937.500  0.500  1.258637  61.447  17.4535  8.928166
  11937.789  11937.800  0.500  1.259347  61.475  17.449  8.923569
  11938.099  11938.100  0.500  1.259959  61.6705  17.4938  8.942593
  11938.390  11938.400  0.500  1.260778  61.6806  17.4823  8.933775
  11938.688  11938.700  0.500  1.261967  61.6832  17.4623  8.921864
  11938.980  11939.000  0.500  1.262959  61.671  17.4415  8.907136
  11939.302  11939.300  0.500  1.264485  61.6671  17.4138  8.889212
  11939.588  11939.600  0.500  1.266067  61.669  17.3868  8.870391
  11939.898  11939.900  0.500  1.267857  61.673  17.3569  8.850918
  11940.190  11940.200  0.500  1.269594  61.6691  17.3257  8.828636
  11940.512  11940.500  0.500  1.271669  61.6669  17.2891  8.805629
  11940.798  11940.800  0.500  1.273460  61.6524  17.2541  8.781945
  11941.108  11941.100  0.500  1.275271  61.6558  17.2239  8.759401
  11941.406  11941.400  0.500  1.277104  61.6542  17.1919  8.740927
  11941.698  11941.700  0.500  1.278701  61.6427  17.1613  8.721842
  11942.002  11942.000  0.500  1.280325  61.6379  17.1321  8.701778
  11942.300  11942.300  0.500  1.282103  61.6302  17.0995  8.680319
  11942.604  11942.600  0.500  1.284050  61.6242  17.0646  8.656427
  11942.908  11942.900  0.500  1.286518  61.6285  17.0237  8.630390
  11943.200  11943.200  0.500  1.289181  61.6165  16.9751  8.597755
  11943.504  11943.500  0.500  1.292506  61.6191  16.9195  8.560895
  11943.684  11943.700  0.500  1.295029  61.6154  16.8758  8.531502
  11944.696  11944.690  0.500  1.312925  61.5995  16.5722  8.329595
  11945.690  11945.690  0.500  1.338400  61.5875  16.1523  8.050987
  11946.715  11946.710  0.500  1.366559  61.5747  15.7005  7.748256
  11947.771  11947.760  0.500  1.389256  61.5591  15.3443  7.516683
  11948.834  11948.820  0.500  1.398072  61.5478  15.2068  7.427589
  11949.909  11949.900  0.500  1.392727  61.5267  15.283  7.477828
  11951.009  11951.000  0.500  1.376981  61.5074  15.5207  7.637865
  11952.141  11952.120  0.500  1.357315  61.4941  15.8256  7.838150
  11953.297  11953.260  0.500  1.340370  61.4763  16.0914  8.013584
  11954.436  11954.410  0.500  1.330847  61.4644  16.2422  8.116027
  11955.611  11955.590  0.500  1.326554  61.4442  16.3067  8.159842
  11956.787  11956.780  0.500  1.324076  61.4304  16.3435  8.185888
  11958.001  11958.000  0.500  1.319893  61.4169  16.4084  8.228652
  11959.227  11959.230  0.500  1.314866  61.3952  16.4853  8.282514
  11960.497  11960.480  0.500  1.312007  61.3826  16.529  8.313671
  11961.768  11961.750  0.500  1.313953  61.3599  16.4908  8.288836
  11963.063  11963.040  0.500  1.320901  61.3411  16.3716  8.210120
  11964.353  11964.350  0.500  1.331786  61.3243  16.1899  8.088266
  11965.674  11965.680  0.500  1.345245  61.308  15.9692  7.942917
  11967.039  11967.030  0.500  1.359388  61.2911  15.7407  7.790916
  11968.410  11968.400  0.500  1.372529  61.2687  15.5295  7.654033
  11969.788  11969.780  0.500  1.383148  61.2449  15.3595  7.543341
  11971.198  11971.190  0.500  1.389302  61.2279  15.261  7.479914
  11972.621  11972.610  0.500  1.389162  61.2082  15.2582  7.478309
  11974.068  11974.050  0.500  1.383708  61.1888  15.3368  7.529980
  11975.523  11975.510  0.500  1.375834  61.1612  15.4511  7.610772
  11977.002  11976.990  0.500  1.367608  61.1416  15.5737  7.691740
  11978.495  11978.490  0.500  1.360454  61.122  15.6805  7.762648
  11980.019  11980.010  0.500  1.354393  61.1002  15.7702  7.823381
  11981.556  11981.550  0.500  1.348892  61.0769  15.8512  7.877337
  11983.137  11983.110  0.500  1.344058  61.0581  15.9231  7.925605
  11984.687  11984.680  0.500  1.340538  61.0355  15.9733  7.959272
  11986.288  11986.280  0.500  1.336860  61.0112  16.0257  7.999238
  11987.883  11987.890  0.500  1.331832  60.991  16.1012  8.051334
  11989.547  11989.530  0.500  1.324960  60.9654  16.2054  8.119542
  11991.200  11991.180  0.500  1.318211  60.9382  16.3079  8.189531
  11992.840  11992.850  0.500  1.313751  60.9243  16.3771  8.237531
  11994.543  11994.540  0.500  1.311862  60.8923  16.3994  8.255755
  11996.247  11996.250  0.500  1.312064  60.866  16.389  8.249577
  11998.001  11997.980  0.500  1.313907  60.8495  16.3544  8.225618
  11999.737  11999.730  0.500  1.316710  60.83  16.3034  8.192852
  12001.499  12001.490  0.500  1.321346  60.7959  16.2189  8.138504
  12003.280  12003.280  0.500  1.327783  60.7722  16.1085  8.065903
  12005.086  12005.080  0.500  1.334997  60.7513  15.9873  7.985239
  12006.925  12006.910  0.500  1.341569  60.7289  15.8767  7.914531
  12008.732  12008.750  0.500  1.345858  60.7106  15.8039  7.866930
  12010.597  12010.610  0.500  1.347605  60.6783  15.768  7.845482
  12012.494  12012.490  0.500  1.346740  60.6577  15.7763  7.851014
  12014.398  12014.390  0.500  1.344075  60.6303  15.8112  7.876748
  12016.302  12016.310  0.500  1.340450  60.608  15.8628  7.911878
  12018.263  12018.250  0.500  1.336721  60.5785  15.9143  7.947758
  12020.207  12020.210  0.500  1.333801  60.5626  15.9567  7.977521
  12022.163  12022.180  0.500  1.331237  60.5344  15.9902  8.002549
  12024.145  12024.180  0.500  1.329589  60.506  16.009  8.016366
  12026.172  12026.190  0.500  1.328835  60.473  16.0124  8.019187
  12028.358  12028.220  0.500  1.328652  60.4345  16.0051  8.017262
  12030.247  12030.280  0.500  1.328466  60.419  16.004  8.016184
  12032.623  12032.350  0.500  1.327984  60.3907  16.0042  8.017844
  12034.407  12034.440  0.500  1.326601  60.3493  16.0154  8.026970
  12036.589  12036.550  0.500  1.324352  60.3165  16.0427  8.047220
  12038.696  12038.680  0.500  1.321361  60.2965  16.0854  8.079399
  12040.835  12040.820  0.500  1.317469  60.2622  16.139  8.116578
  12042.988  12042.990  0.500  1.313664  60.2257  16.1907  8.154419
  12045.167  12045.180  0.500  1.310044  60.1561  16.2306  8.183699
  12047.365  12047.380  0.500  1.307081  59.0214  15.9717  8.061147
  12049.596  12049.600  0.500  1.304588  59.1759  16.0535  8.108685
  12051.866  12051.850  0.500  1.303961  60.0315  16.2958  8.236290
  12054.124  12054.110  0.500  1.304488  60.0459  16.2911  8.231089
  12056.389  12056.390  0.500  1.306002  60.0223  16.2601  8.212613
  12058.680  12058.690  0.500  1.307962  59.9964  16.2213  8.187666
  12061.017  12061.010  0.500  1.310229  59.9743  16.1786  8.160171
  12063.367  12063.350  0.500  1.312055  59.935  16.1385  8.134606
  12065.712  12065.700  0.500  1.313779  59.9096  16.1039  8.112721
  12068.095  12068.080  0.500  1.315183  59.8788  16.073  8.095237
  12070.461  12070.470  0.500  1.315983  59.8427  16.0504  8.080401
  12072.891  12072.890  0.500  1.316753  59.8135  16.0303  8.071909
  12075.322  12075.320  0.500  1.317025  59.7735  16.0152  8.060933
  12077.779  12077.770  0.500  1.317073  59.7445  16.0066  8.057067
  12080.250  12080.250  0.500  1.316493  59.7073  16.006  8.059362
  12082.735  12082.740  0.500  1.315687  59.6805  16.0117  8.066256
  12085.240  12085.250  0.500  1.315089  59.6412  16.0107  8.067569
  12087.791  12087.770  0.500  1.314815  59.6056  16.0055  8.065545
  12090.336  12090.320  0.500  1.315204  59.565  15.9884  8.056695
  12092.895  12092.890  0.500  1.315363  59.36  15.9309  8.024683
  12095.468  12095.470  0.500  1.315485  59.521  15.9721  8.048061
  12098.086  12098.080  0.500  1.314202  59.4874  15.9836  8.058619
  12100.713  12100.700  0.500  1.311605  59.4479  16.0145  8.081818
  12103.353  12103.350  0.500  1.307566  59.4126  16.0698  8.120843
  12106.007  12106.010  0.500  1.302776  59.3759  16.137  8.167740
  12108.687  12108.690  0.500  1.298834  59.3441  16.192  8.207064
  12111.414  12111.390  0.500  1.295748  59.3073  16.232  8.237562
  12114.129  12114.110  0.500  1.293624  59.2702  16.2563  8.254189
  12116.858  12116.850  0.500  1.292355  59.2376  16.268  8.266329
  12119.589  12119.600  0.500  1.291123  59.1986  16.2774  8.273980
  12122.403  12122.380  0.500  1.290282  59.1548  16.279  8.277059
  12125.181  12125.170  0.500  1.290117  59.1203  16.2722  8.274646
  12127.998  12127.990  0.500  1.290161  59.0492  16.2519  8.264817
  12130.798  12130.820  0.500  1.290835  58.9782  16.2214  8.247909
  12133.682  12133.670  0.500  1.291930  59.0187  16.2148  8.240956
  12136.555  12136.550  0.500  1.293919  58.9819  16.1725  8.215865
  12139.442  12139.440  0.500  1.296045  58.9414  16.127  8.186849
  12142.337  12142.350  0.500  1.298686  58.8998  16.0732  8.152498
  12145.278  12145.270  0.500  1.301024  58.863  16.0256  8.122568
  12148.227  12148.220  0.500  1.302803  58.8179  15.9849  8.097502
  12151.177  12151.190  0.500  1.303688  58.7801  15.9605  8.083649
  12154.168  12154.170  0.500  1.303377  58.7407  15.9547  8.081846
  12157.205  12157.180  0.500  1.301557  58.693  15.9708  8.095718
  12160.205  12160.200  0.500  1.298904  58.6417  15.9993  8.116800
  12163.238  12163.250  0.500  1.295174  58.3999  15.9928  8.124057
  12166.319  12166.310  0.500  1.291177  58.5822  16.107  8.194314
  12169.414  12169.390  0.500  1.286581  58.5315  16.1672  8.238323
  12172.497  12172.490  0.500  1.282210  58.4916  16.2269  8.282498
  12175.614  12175.610  0.500  1.278664  58.4433  16.2711  8.317099
  12178.785  12178.750  0.500  1.276341  58.3989  16.2966  8.336972
  12181.893  12181.900  0.500  1.275049  58.3537  16.305  8.343537
  12185.073  12185.080  0.500  1.274793  58.311  16.2973  8.339816
  12188.275  12188.270  0.500  1.274962  58.2686  16.2827  8.332280
  12191.504  12191.490  0.500  1.274995  58.2226  16.2693  8.325922
  12194.722  12194.720  0.500  1.273901  58.1781  16.2746  8.332257
  12197.993  12197.970  0.500  1.272302  58.133  16.2881  8.343617
  12201.260  12201.250  0.500  1.271023  57.8718  16.2356  8.322300
  12204.548  12204.540  0.500  1.270496  58.0566  16.296  8.354664
  12207.890  12207.850  0.500  1.270907  58.0156  16.2778  8.345361
  12211.181  12211.170  0.500  1.271943  57.9639  16.2465  8.327678
  12214.533  12214.520  0.500  1.273138  57.9272  16.2168  8.309362
  12217.919  12217.890  0.500  1.274082  57.8844  16.1896  8.290152
  12221.288  12221.270  0.500  1.274964  57.8398  16.1628  8.275385
  12224.698  12224.680  0.500  1.275438  57.7919  16.1418  8.265737
  12228.129  12228.100  0.500  1.275083  57.752  16.1364  8.264688
  12231.562  12231.550  0.500  1.273576  57.7012  16.1465  8.274081
  12235.023  12235.010  0.500  1.271079  56.5607  15.8669  8.140435
  12238.499  12238.490  0.500  1.267431  57.4645  16.1794  8.308388
  12242.003  12241.990  0.500  1.263734  57.5316  16.2582  8.361754
  12245.522  12245.510  0.500  1.260118  57.4996  16.3081  8.397312
  12249.076  12249.050  0.500  1.257172  57.4574  16.3442  8.424919
  12252.606  12252.600  0.500  1.255249  57.4092  16.3619  8.440507
  12256.197  12256.180  0.500  1.253749  57.2349  16.3367  8.430806
  12259.803  12259.780  0.500  1.252713  57.3115  16.3755  8.455232
  12263.392  12263.390  0.500  1.252052  56.816  16.2447  8.390172
  12267.055  12267.020  0.500  1.251025  56.9496  16.2996  8.421251
  12270.700  12270.680  0.500  1.249937  57.0215  16.338  8.445098
  12274.374  12274.350  0.500  1.248907  57.1289  16.3856  8.472945
  12278.083  12278.040  0.500  1.247629  57.0797  16.3924  8.481716
  12281.768  12281.750  0.500  1.246394  57.0177  16.3948  8.487756
  12285.494  12285.480  0.500  1.245373  56.9048  16.3791  8.481536
  12289.236  12289.220  0.500  1.245263  56.8885  16.3762  8.482024
  12293.000  12292.990  0.500  1.245109  56.5782  16.2894  8.437688
  12296.793  12296.780  0.500  1.245366  56.957  16.3943  8.492023
  12300.602  12300.580  0.500  1.244936  56.8498  16.3704  8.480615
  12304.399  12304.410  0.500  1.244370  56.8789  16.3881  8.490727
  12308.278  12308.250  0.500  1.243852  56.8338  16.3836  8.491287
  12312.107  12312.110  0.500  1.243011  56.7805  16.382  8.494667
  12315.998  12315.990  0.500  1.241889  56.7273  16.385  8.499320
  12319.917  12319.890  0.500  1.240589  56.2818  16.2775  8.447552
  12323.806  12323.810  0.500  1.238340  56.4012  16.3487  8.492819
  12327.790  12327.750  0.500  1.235607  56.5464  16.4357  8.544173
  12331.724  12331.710  0.500  1.232919  56.5178  16.4716  8.572473
  12335.680  12335.680  0.500  1.229822  56.4651  16.5073  8.601234
  12339.719  12339.680  0.500  1.227127  56.4221  16.5392  8.626598
  12343.680  12343.690  0.500  1.225031  56.3679  16.558  8.644485
  12347.757  12347.730  0.500  1.223317  56.3119  16.5699  8.653844
  12351.790  12351.780  0.500  1.222202  56.2566  16.5721  8.660180
  12355.873  12355.850  0.500  1.221319  56.2088  16.5726  8.663851
  12359.958  12359.940  0.500  1.220731  56.1711  16.5713  8.665104
  12364.052  12364.050  0.500  1.220043  56.0479  16.5463  8.654271
  12368.203  12368.180  0.500  1.219281  56.0662  16.5643  8.665589
  12372.323  12372.330  0.500  1.218727  55.9697  16.545  8.657536
  12376.512  12376.490  0.500  1.218093  55.9584  16.5522  8.664219
  12380.698  12380.680  0.500  1.217306  55.8913  16.5453  8.662885
  12384.880  12384.880  0.500  1.216300  55.4588  16.4338  8.608485
  12389.132  12389.110  0.500  1.215281  55.8129  16.5556  8.676970
  12393.353  12393.350  0.500  1.214233  55.7584  16.5568  8.680704
  12397.651  12397.610  0.500  1.213060  55.7011  16.5592  8.686772
  12401.898  12401.890  0.500  1.211531  55.6463  16.5682  8.695679
  12406.215  12406.190  0.500  1.209762  55.586  16.5796  8.707428
  12410.542  12410.510  0.500  1.207888  55.5035  16.586  8.717036
  12414.865  12414.850  0.500  1.205977  55.4737  16.6088  8.734872
  12419.238  12419.210  0.500  1.204081  55.4167  16.6232  8.750824
  12423.615  12423.590  0.500  1.201949  55.343  16.6365  8.764246
  12428.015  12427.980  0.500  1.200018  55.3042  16.657  8.781937
  12432.404  12432.400  0.500  1.197855  55.2315  16.6711  8.795234
  12436.857  12436.830  0.500  1.195837  54.8151  16.5789  8.753842
  12441.307  12441.280  0.500  1.193813  55.1562  16.7158  8.832644
  12445.747  12445.750  0.500  1.192027  55.0891  16.7253  8.841962
  12450.277  12450.240  0.500  1.190347  55.0269  16.7345  8.853676
  12454.784  12454.750  0.500  1.188822  54.9066  16.7235  8.850864
  12459.314  12459.280  0.500  1.187806  54.9151  16.743  8.868267
  12463.835  12463.830  0.500  1.186589  54.8531  16.7445  8.872548
  12468.453  12468.400  0.500  1.185475  54.7608  16.735  8.871276
  12473.000  12472.980  0.500  1.184449  54.7428  16.7466  8.880325
  12477.619  12477.590  0.500  1.183447  54.6753  16.7427  8.883720
  12482.261  12482.210  0.500  1.182423  54.6047  16.7382  8.882944
  12486.887  12486.860  0.500  1.181161  54.2732  16.6577  8.845122
  12491.556  12491.520  0.500  1.180009  54.5216  16.7532  8.899157
  12496.223  12496.200  0.500  1.178809  54.4551  16.7528  8.904817
  12500.927  12500.900  0.500  1.177213  54.3913  16.7599  8.913207
  12505.641  12505.620  0.500  1.175781  54.3286  16.7646  8.922856
  12510.386  12510.360  0.500  1.174109  54.2672  16.7737  8.931843
  12515.156  12515.110  0.500  1.172230  54.2065  16.7864  8.946398
  12519.902  12519.890  0.500  1.170245  54.1508  16.8025  8.961900
  12524.733  12524.690  0.500  1.168135  54.0799  16.8159  8.974946
  12529.527  12529.500  0.500  1.166078  54.0209  16.8322  8.989563
  12534.373  12534.330  0.500  1.164050  53.9541  16.8455  9.003999
  12539.216  12539.190  0.500  1.162234  53.8386  16.84  9.009877
  12544.076  12544.060  0.500  1.160011  53.8502  16.8811  9.036124
  12548.995  12548.950  0.500  1.158367  53.7845  16.8882  9.047896
  12553.884  12553.860  0.500  1.156479  53.7179  16.8992  9.060395
  12558.831  12558.790  0.500  1.154591  53.6555  16.9115  9.072716
  12563.783  12563.730  0.500  1.152786  53.5885  16.9209  9.084398
  12568.724  12568.700  0.500  1.151008  53.5239  16.9306  9.093229
  12573.746  12573.690  0.500  1.149592  53.4575  16.9335  9.101514
  12578.716  12578.690  0.500  1.148272  53.387  16.9335  9.106887
  12583.773  12583.720  0.500  1.147014  53.3333  16.9378  9.112700
  12588.793  12588.760  0.500  1.145778  53.2685  16.9381  9.118949
  12593.865  12593.820  0.500  1.144709  53.2032  16.9355  9.121052
  12598.941  12598.900  0.500  1.143398  53.1376  16.9368  9.126048
  12604.042  12604.000  0.500  1.142033  53.0676  16.9375  9.131202
  12609.168  12609.120  0.500  1.140528  53.0028  16.9424  9.140881
  12614.278  12614.260  0.500  1.138851  52.9363  16.9495  9.149869
  12619.482  12619.420  0.500  1.137011  52.8719  16.9601  9.160181
  12624.642  12624.600  0.500  1.135278  52.7899  16.9631  9.169410
  12629.834  12629.790  0.500  1.133044  52.7086  16.9749  9.182809
  12635.051  12635.010  0.500  1.131166  52.611  16.9753  9.188782
  12640.272  12640.240  0.500  1.129064  52.6102  17.0108  9.215585
  12645.554  12645.490  0.500  1.127117  52.5489  17.0241  9.230547
  12650.777  12650.760  0.500  1.125112  52.4688  17.0322  9.240831
  12656.102  12656.050  0.500  1.123198  52.4196  17.0488  9.257840
  12661.390  12661.360  0.500  1.121222  52.3469  17.0589  9.269832
  12666.738  12666.690  0.500  1.119203  52.2857  17.0734  9.283897
  12672.070  12672.040  0.500  1.117442  52.2163  17.0808  9.296583
  12677.456  12677.410  0.500  1.115556  52.1509  17.0916  9.307632
  12682.825  12682.790  0.500  1.113693  52.0783  17.0996  9.317658
  12688.241  12688.200  0.500  1.111822  52.0151  17.1108  9.330084
  12693.669  12693.620  0.500  1.110267  51.9432  17.1138  9.339511
  12699.108  12699.070  0.500  1.108495  51.8742  17.1213  9.348799
  12704.573  12704.530  0.500  1.106809  51.8016  17.1262  9.356147
  12710.043  12710.010  0.500  1.105173  51.7346  17.1321  9.366789
  12715.553  12715.510  0.500  1.103437  51.6646  17.1386  9.374254
  12721.089  12721.030  0.500  1.102013  51.5908  17.1385  9.381054
  12726.623  12726.570  0.500  1.100381  51.5207  17.1432  9.390081
  12732.168  12732.120  0.500  1.098838  51.4433  17.1439  9.395548
  12737.740  12737.700  0.500  1.097034  50.7989  16.9597  9.301185
  12743.366  12743.300  0.500  1.095230  51.3127  17.1622  9.418893
  12748.906  12748.910  0.500  1.093409  51.2502  17.1725  9.430704
  12754.577  12754.550  0.500  1.091461  51.1717  17.1797  9.440144
  12760.219  12760.200  0.500  1.089521  51.1028  17.1898  9.453454
  12765.915  12765.870  0.500  1.087528  51.032  17.2003  9.466964
  12771.595  12771.560  0.500  1.085510  50.9658  17.2127  9.482233