File: xdidata/Au/Au-L1-GoldThiocyanate.xdi
# XDI/1.0 BlueSky/1.10.0 BMM/2023-1.0-py310-tiled
# Beamline.name: BMM (06BM) -- Beamline for Materials Measurement (NIST)
# Beamline.xray_source: NSLS-II three-pole wiggler
# Beamline.collimation: paraboloid mirror, 5 nm Rh on 30 nm Pt
# Beamline.focusing: not in use
# Beamline.harmonic_rejection: flat mirror, Pt stripe, pitch = 7.0 mrad relative to beam
# Beamline.software: Bluesky 1.10.0, Ophyd 1.7.0, DataBroker 2.0.0b13, Python 3.10.8, 2023-1.0-py310-tiled
# Detector.I0: 10 cm N2
# Detector.I1: 25 cm N2
# Detector.I2: 25 cm N2
# Element.symbol: Au
# Element.edge: L1
# Element.reference: Au
# Element.reference_material: Au foil
# Facility.name: NSLS-II
# Facility.energy: 3.0
# Facility.current: 399.1
# Facility.mode: top-off
# Facility.GUP: 301027
# Facility.SAF: 310583
# Facility.cycle: 2023-2
# Mono.name: Si(111)
# Mono.d_spacing: 3.13519
# Mono.encoder_resolution: 0.0000050 deg/ct
# Mono.angle_offset: 16.0754 deg
# Mono.scan_mode: pseudo channel cut
# Mono.scan_type: step
# Mono.direction: forward in energy
# Sample.name: KAu(SCN)4, gold potassium thocyanate
# Sample.prep: powder in BN pellet
# Sample.x: 145.711 mm
# Sample.y: 114.376 mm
# Sample.SDD_position: 205.000 mm
# Scan.experimenters: Bruce Ravel
# Scan.edge_energy: 14352.8
# Scan.start_time: 2023-06-27T20:02:36
# Scan.end_time: 2023-06-27T20:10:37
# Scan.transient_id: 85283
# Scan.uid: e065face-919d-4a45-a7b7-5ae4953fe51c
# Scan.plot_hint: ln(I0/It)  --  ln($5/$6)
# Column.1: energy eV
# Column.2: requested_energy eV
# Column.3: measurement_time seconds
# Column.4: xmu
# Column.5: I0 nA
# Column.6: It nA
# Column.7: Ir nA
# ///////////
# Welcome to BMM
# -----------
# energy  requested_energy  measurement_time  xmu  I0  It  Ir
  14152.852  14152.800  0.500  1.340899  34.5656  9.042736  5.110273
  14162.891  14162.800  0.500  1.337095  34.3357  9.016814  5.101927
  14172.892  14172.800  0.500  1.334001  34.5653  9.105247  5.154970
  14182.906  14182.800  0.500  1.331086  34.474  9.107694  5.159085
  14192.926  14192.800  0.500  1.328415  34.3662  9.103501  5.161482
  14202.873  14202.800  0.500  1.325686  34.2833  9.106355  5.167599
  14212.913  14212.800  0.500  1.322898  34.2217  9.115369  5.176279
  14222.852  14222.800  0.500  1.320370  34.1279  9.113399  5.181528
  14232.850  14232.800  0.500  1.317340  34.0557  9.121708  5.190557
  14242.852  14242.800  0.500  1.314493  33.9761  9.126321  5.199375
  14252.896  14252.800  0.500  1.311516  33.89  9.130359  5.207227
  14262.785  14262.800  0.500  1.308616  33.9093  9.162086  5.230927
  14272.786  14272.800  0.500  1.306396  31.8917  8.636095  4.935999
  14282.802  14282.800  0.500  1.302891  33.8052  9.186389  5.251762
  14292.822  14292.800  0.500  1.300292  33.7262  9.188780  5.254499
  14302.812  14302.800  0.500  1.297875  33.6262  9.183705  5.255044
  14312.834  14312.800  0.500  1.295981  33.5778  9.187879  5.260180
  14322.843  14322.800  0.500  1.294385  33.4981  9.180698  5.258172
  14324.771  14324.800  0.500  1.294225  33.5016  9.183126  5.259773
  14326.736  14326.800  0.500  1.294152  33.4625  9.173074  5.254323
  14328.755  14328.800  0.500  1.294087  33.4577  9.172363  5.254312
  14330.766  14330.800  0.500  1.293925  33.4412  9.169329  5.251128
  14332.768  14332.800  0.500  1.294373  33.4238  9.160434  5.248202
  14334.761  14334.800  0.500  1.294385  33.4258  9.160895  5.246577
  14336.765  14336.800  0.500  1.294798  33.3996  9.149918  5.239067
  14338.751  14338.800  0.500  1.295107  33.3876  9.143830  5.232304
  14340.764  14340.800  0.500  1.296091  33.3712  9.130333  5.224790
  14342.760  14342.800  0.500  1.297184  33.3521  9.115124  5.212979
  14343.039  14343.100  0.500  1.297388  33.345  9.111340  5.210558
  14343.336  14343.400  0.500  1.297578  33.341  9.108520  5.208049
  14343.632  14343.700  0.500  1.297837  33.3289  9.102843  5.204583
  14343.947  14344.000  0.500  1.298141  33.32  9.097655  5.202414
  14344.235  14344.300  0.500  1.298185  33.3173  9.096505  5.199026
  14344.550  14344.600  0.500  1.298542  33.3075  9.090598  5.196347
  14344.856  14344.900  0.500  1.298719  33.3178  9.091792  5.196212
  14345.153  14345.200  0.500  1.299198  33.3127  9.086044  5.192221
  14345.449  14345.500  0.500  1.299460  33.3103  9.083031  5.189974
  14345.755  14345.800  0.500  1.299893  33.3162  9.080701  5.188108
  14346.079  14346.100  0.500  1.300245  33.319  9.078265  5.186200
  14346.358  14346.400  0.500  1.300463  33.3147  9.075102  5.182494
  14346.664  14346.700  0.500  1.300927  33.3178  9.071741  5.179626
  14346.979  14347.000  0.500  1.301379  33.3242  9.069389  5.178250
  14347.276  14347.300  0.500  1.301646  33.3125  9.063787  5.172619
  14347.564  14347.600  0.500  1.302145  33.3174  9.060607  5.170269
  14347.879  14347.900  0.500  1.302589  33.3127  9.055292  5.165957
  14348.167  14348.200  0.500  1.303210  33.3207  9.051849  5.162785
  14348.446  14348.500  0.500  1.303617  33.3077  9.044633  5.158294
  14348.761  14348.800  0.500  1.304369  33.3028  9.036506  5.152272
  14349.076  14349.100  0.500  1.305072  33.3091  9.031867  5.148633
  14349.364  14349.400  0.500  1.305470  33.3132  9.029375  5.145572
  14349.661  14349.700  0.500  1.305974  33.3065  9.023008  5.140216
  14349.967  14350.000  0.500  1.306839  33.286  9.009659  5.130970
  14350.246  14350.300  0.500  1.307635  33.2917  9.004035  5.126272
  14350.561  14350.600  0.500  1.308434  33.2841  8.994785  5.118929
  14350.867  14350.900  0.500  1.309224  33.2811  8.986885  5.112841
  14351.164  14351.200  0.500  1.310146  33.2831  8.979142  5.106790
  14351.452  14351.500  0.500  1.311021  33.2823  8.971054  5.100545
  14351.767  14351.800  0.500  1.311974  33.2816  8.962342  5.092185
  14352.073  14352.100  0.500  1.312910  33.2839  8.954566  5.085083
  14352.379  14352.400  0.500  1.314166  33.2721  8.940166  5.074775
  14352.686  14352.700  0.500  1.315325  33.2765  8.930971  5.066750
  14352.983  14353.000  0.500  1.316524  33.2665  8.917601  5.056708
  14353.280  14353.300  0.500  1.317799  33.2598  8.904444  5.046490
  14353.586  14353.600  0.500  1.319432  33.263  8.890763  5.034894
  14353.874  14353.900  0.500  1.320841  33.2567  8.876565  5.022977
  14354.190  14354.200  0.500  1.322376  33.2459  8.860073  5.011415
  14354.505  14354.500  0.500  1.324312  33.2594  8.846537  4.999413
  14354.793  14354.800  0.500  1.325731  33.2511  8.831768  4.985431
  14355.099  14355.100  0.500  1.327715  33.2486  8.813608  4.972478
  14355.406  14355.400  0.500  1.329878  33.2433  8.793175  4.957488
  14355.685  14355.700  0.500  1.331728  33.2526  8.779373  4.945936
  14356.000  14356.000  0.500  1.334203  33.2352  8.753084  4.927229
  14356.316  14356.300  0.500  1.336271  33.237  8.735482  4.912719
  14356.604  14356.600  0.500  1.338528  33.2282  8.713466  4.895409
  14356.901  14356.900  0.500  1.340949  33.221  8.690507  4.876576
  14357.190  14357.200  0.500  1.343376  33.2306  8.671972  4.862097
  14357.487  14357.500  0.500  1.345814  33.2145  8.646645  4.843795
  14357.802  14357.800  0.500  1.348671  33.2021  8.618770  4.822783
  14358.082  14358.100  0.500  1.351109  33.1833  8.592911  4.803914
  14358.388  14358.400  0.500  1.353743  33.1578  8.563722  4.782625
  14358.676  14358.700  0.500  1.356278  33.1411  8.537746  4.763749
  14358.956  14359.000  0.500  1.359016  33.129  8.511288  4.744121
  14359.298  14359.300  0.500  1.362027  33.1199  8.483358  4.724571
  14359.578  14359.600  0.500  1.364480  33.115  8.461332  4.708236
  14359.893  14359.900  0.500  1.367369  33.1099  8.435630  4.689103
  14360.173  14360.200  0.500  1.370151  33.1162  8.413796  4.672595
  14360.479  14360.500  0.500  1.373026  33.1287  8.392796  4.655099
  14360.804  14360.800  0.500  1.375979  33.1386  8.370556  4.638900
  14361.083  14361.100  0.500  1.378596  33.1543  8.352636  4.624322
  14361.399  14361.400  0.500  1.381366  33.1634  8.331818  4.607884
  14361.687  14361.700  0.500  1.383852  33.177  8.314531  4.595237
  14361.994  14362.000  0.500  1.386592  33.1698  8.289990  4.576372
  14362.309  14362.300  0.500  1.389253  33.1727  8.268680  4.559332
  14362.580  14362.600  0.500  1.391591  33.1751  8.249950  4.544377
  14362.905  14362.900  0.500  1.394171  33.1769  8.229162  4.527893
  14363.202  14363.200  0.500  1.396481  33.1692  8.208252  4.512444
  14363.518  14363.500  0.500  1.398757  33.177  8.191519  4.499799
  14363.815  14363.800  0.500  1.401059  33.1732  8.171755  4.484015
  14364.104  14364.100  0.500  1.403037  33.1725  8.155420  4.469406
  14364.411  14364.400  0.500  1.405253  33.1654  8.135651  4.456944
  14364.708  14364.700  0.500  1.406923  33.1537  8.119201  4.442262
  14365.006  14365.000  0.500  1.408849  33.1561  8.104168  4.427835
  14365.313  14365.300  0.500  1.410738  33.1486  8.087033  4.417258
  14365.601  14365.600  0.500  1.412244  33.1507  8.075375  4.405695
  14365.908  14365.900  0.500  1.414070  33.1474  8.059831  4.394700
  14366.179  14366.200  0.500  1.415510  33.1437  8.047351  4.385213
  14366.504  14366.500  0.500  1.417001  33.1192  8.029424  4.372100
  14366.783  14366.800  0.500  1.418470  33.1163  8.016926  4.362662
  14367.081  14367.100  0.500  1.419677  33.1057  8.004696  4.352464
  14367.388  14367.400  0.500  1.420884  33.0912  7.991531  4.343916
  14367.677  14367.700  0.500  1.421869  33.0827  7.981614  4.335152
  14367.992  14368.000  0.500  1.423120  33.0688  7.968299  4.327348
  14368.281  14368.300  0.500  1.423824  33.0597  7.960500  4.320650
  14368.597  14368.600  0.500  1.424889  33.0593  7.951921  4.314394
  14368.895  14368.900  0.500  1.425786  33.0645  7.946048  4.310832
  14369.175  14369.200  0.500  1.426424  33.0667  7.941495  4.307880
  14369.500  14369.500  0.500  1.427235  33.0763  7.937376  4.304397
  14369.779  14369.800  0.500  1.427399  33.0763  7.936056  4.300899
  14370.095  14370.100  0.500  1.428207  33.0875  7.932346  4.299934
  14370.420  14370.400  0.500  1.428510  33.0873  7.929881  4.297563
  14370.691  14370.700  0.500  1.428962  33.0899  7.926940  4.296273
  14371.007  14371.000  0.500  1.429417  33.1035  7.926581  4.297112
  14371.323  14371.300  0.500  1.429708  33.0974  7.922817  4.293977
  14371.603  14371.600  0.500  1.429911  33.094  7.920400  4.295023
  14371.919  14371.900  0.500  1.430154  33.0906  7.917650  4.292620
  14372.208  14372.200  0.500  1.430583  33.0939  7.915063  4.292361
  14372.515  14372.500  0.500  1.430686  33.0972  7.915024  4.293571
  14372.813  14372.800  0.500  1.430783  33.0861  7.911597  4.292044
  14373.093  14373.100  0.500  1.430905  33.0826  7.909809  4.291262
  14373.409  14373.400  0.500  1.430926  33.0757  7.907984  4.291062
  14373.698  14373.700  0.500  1.431344  33.0762  7.904803  4.291289
  14374.014  14374.000  0.500  1.431346  33.0713  7.903618  4.291553
  14374.312  14374.300  0.500  1.431331  33.0681  7.902960  4.292308
  14374.601  14374.600  0.500  1.431462  33.0642  7.901005  4.291104
  14374.899  14374.900  0.500  1.431582  33.0629  7.899734  4.292745
  14375.198  14375.200  0.500  1.431645  33.0486  7.895826  4.292744
  14375.478  14375.500  0.500  1.431645  33.0417  7.894187  4.291727
  14375.803  14375.800  0.500  1.431488  33.027  7.891898  4.292219
  14376.092  14376.100  0.500  1.431387  33.0133  7.889433  4.291617
  14376.372  14376.400  0.500  1.431615  32.9982  7.884024  4.290149
  14376.688  14376.700  0.500  1.431400  32.9937  7.884628  4.291332
  14376.968  14377.000  0.500  1.431365  32.9853  7.882920  4.292182
  14377.294  14377.300  0.500  1.431177  32.9896  7.885415  4.295226
  14377.592  14377.600  0.500  1.431204  32.9825  7.883512  4.295773
  14377.782  14377.800  0.500  1.431431  32.9887  7.883198  4.296608
  14378.812  14378.790  0.500  1.431225  33.0093  7.889756  4.304721
  14379.806  14379.790  0.500  1.431013  33.0234  7.894786  4.309940
  14380.846  14380.810  0.500  1.430709  33.0131  7.894728  4.310843
  14381.885  14381.860  0.500  1.430666  33.0088  7.894050  4.312172
  14382.943  14382.920  0.500  1.430761  32.9991  7.890981  4.310074
  14383.992  14384.000  0.500  1.430914  32.9882  7.887155  4.307421
  14385.114  14385.100  0.500  1.431129  32.9542  7.877336  4.299214
  14386.227  14386.220  0.500  1.431245  32.918  7.867762  4.290402
  14387.367  14387.360  0.500  1.431566  32.9232  7.866484  4.285167
  14388.525  14388.510  0.500  1.431760  32.9501  7.871399  4.282450
  14389.702  14389.690  0.500  1.431865  32.9574  7.872293  4.278584
  14390.906  14390.880  0.500  1.431894  32.9537  7.871191  4.273684
  14392.092  14392.100  0.500  1.431282  32.931  7.870587  4.269541
  14393.333  14393.330  0.500  1.430659  32.9217  7.873271  4.270435
  14394.574  14394.580  0.500  1.429414  32.923  7.883391  4.275254
  14395.887  14395.850  0.500  1.427723  32.9  7.891216  4.280195
  14397.165  14397.140  0.500  1.425924  32.8981  7.904961  4.291304
  14398.479  14398.450  0.500  1.423972  32.8789  7.915786  4.300421
  14399.793  14399.780  0.500  1.421833  32.8769  7.932264  4.314044
  14401.153  14401.130  0.500  1.419907  32.8648  7.944634  4.327098
  14402.477  14402.500  0.500  1.418501  32.8514  7.952567  4.336263
  14403.873  14403.880  0.500  1.417098  32.8383  7.960548  4.342148
  14405.270  14405.290  0.500  1.416444  32.8286  7.963398  4.345702
  14406.685  14406.710  0.500  1.415936  32.816  7.964394  4.348473
  14408.137  14408.150  0.500  1.415593  32.8206  7.968234  4.350880
  14409.599  14409.610  0.500  1.415552  32.7898  7.961099  4.345882
  14411.069  14411.090  0.500  1.415583  32.7062  7.940547  4.336218
  14412.540  14412.590  0.500  1.415470  32.6246  7.921615  4.324626
  14414.084  14414.110  0.500  1.415755  32.7158  7.941510  4.336761
  14415.637  14415.650  0.500  1.416049  32.7415  7.945409  4.338829
  14417.200  14417.210  0.500  1.415940  32.737  7.945169  4.336844
  14418.763  14418.780  0.500  1.416105  32.7336  7.943042  4.336381
  14420.363  14420.380  0.500  1.416065  32.7065  7.936778  4.331060
  14422.091  14421.990  0.500  1.416302  32.6098  7.911441  4.316189
  14423.846  14423.630  0.500  1.416661  32.5309  7.889475  4.303566
  14425.183  14425.280  0.500  1.416891  32.7714  7.945982  4.334343
  14426.930  14426.950  0.500  1.417255  32.7742  7.943766  4.331079
  14428.668  14428.640  0.500  1.418026  32.7526  7.932408  4.325318
  14430.397  14430.350  0.500  1.418391  32.7368  7.925694  4.320271
  14432.082  14432.080  0.500  1.418812  32.6956  7.912367  4.313638
  14433.812  14433.830  0.500  1.419096  32.5558  7.876308  4.294160
  14435.561  14435.590  0.500  1.419044  32.669  7.904106  4.311160
  14437.374  14437.380  0.500  1.418685  32.708  7.916375  4.320708
  14439.170  14439.180  0.500  1.418034  32.6944  7.918238  4.325030
  14441.029  14441.010  0.500  1.416952  32.6737  7.921788  4.329261
  14442.853  14442.850  0.500  1.415677  32.6616  7.928973  4.336037
  14444.723  14444.710  0.500  1.413925  32.5929  7.926169  4.338617
  14446.593  14446.590  0.500  1.412343  32.4928  7.914326  4.333283
  14448.500  14448.490  0.500  1.410405  32.6159  7.959734  4.358263
  14450.426  14450.410  0.500  1.408741  32.6069  7.970795  4.364587
  14452.353  14452.350  0.500  1.407587  32.5956  7.977224  4.371716
  14454.298  14454.310  0.500  1.406019  32.571  7.983714  4.374661
  14456.271  14456.280  0.500  1.404598  32.5637  7.993273  4.380169
  14458.300  14458.280  0.500  1.403499  32.5449  7.997448  4.382639
  14460.311  14460.290  0.500  1.402480  32.5253  8.000768  4.385138
  14462.350  14462.320  0.500  1.401467  32.5138  8.006059  4.389869
  14464.389  14464.380  0.500  1.400272  32.5023  8.012796  4.393621
  14466.457  14466.450  0.500  1.399574  32.4845  8.013989  4.397007
  14468.552  14468.540  0.500  1.398636  32.4666  8.017098  4.399298
  14470.630  14470.650  0.500  1.397668  32.4544  8.021840  4.403334
  14472.773  14472.780  0.500  1.396790  32.4353  8.024156  4.406910
  14474.916  14474.920  0.500  1.396313  32.4289  8.026402  4.408304
  14477.087  14477.090  0.500  1.395613  32.406  8.026362  4.408769
  14479.305  14479.280  0.500  1.395191  32.3857  8.024722  4.408046
  14481.496  14481.480  0.500  1.394793  32.3332  8.014905  4.401723
  14483.715  14483.700  0.500  1.394764  32.3452  8.018088  4.405469
  14485.944  14485.950  0.500  1.394528  32.3376  8.018109  4.405955
  14488.202  14488.210  0.500  1.394397  32.3287  8.016949  4.405494
  14490.496  14490.490  0.500  1.394211  32.3145  8.014917  4.403440
  14492.801  14492.790  0.500  1.394264  32.2946  8.009566  4.401521
  14495.115  14495.110  0.500  1.394208  32.2764  8.005504  4.401250
  14497.468  14497.450  0.500  1.394159  32.2608  8.002032  4.400186
  14499.830  14499.800  0.500  1.394015  32.2471  7.999785  4.399751
  14502.174  14502.180  0.500  1.393593  32.2314  7.999254  4.401489
  14504.584  14504.570  0.500  1.393266  32.2113  7.996886  4.401094
  14506.976  14506.990  0.500  1.392822  32.1984  7.997228  4.403330
  14509.442  14509.420  0.500  1.391910  32.1816  8.000349  4.407194
  14511.872  14511.870  0.500  1.391004  32.1695  8.004585  4.411364
  14514.368  14514.350  0.500  1.389816  32.143  8.007493  4.414629
  14516.855  14516.840  0.500  1.388644  32.0896  8.003574  4.412127
  14519.362  14519.350  0.500  1.387442  32.1175  8.020160  4.423337
  14521.860  14521.870  0.500  1.386406  32.0957  8.023039  4.427534
  14524.406  14524.420  0.500  1.385250  32.0896  8.030778  4.432588
  14526.998  14526.990  0.500  1.383754  32.0528  8.033593  4.434057
  14529.573  14529.570  0.500  1.382726  32.0397  8.038549  4.439198
  14532.186  14532.180  0.500  1.381413  32.0224  8.044783  4.444351
  14534.818  14534.800  0.500  1.380129  31.9949  8.048185  4.447387
  14537.451  14537.450  0.500  1.379112  31.9789  8.052341  4.451806
  14540.094  14540.110  0.500  1.378182  31.9653  8.056428  4.454008
  14542.775  14542.790  0.500  1.377140  31.9487  8.060619  4.457522
  14545.485  14545.490  0.500  1.376468  31.9355  8.062717  4.459364
  14548.224  14548.210  0.500  1.375406  31.9066  8.063968  4.457891
  14550.945  14550.950  0.500  1.374673  31.8457  8.054480  4.453916
  14553.686  14553.700  0.500  1.373980  31.875  8.067496  4.461492
  14556.484  14556.480  0.500  1.373323  31.8521  8.067002  4.462084
  14559.273  14559.270  0.500  1.372128  31.8279  8.070496  4.464168
  14562.110  14562.090  0.500  1.371837  31.8096  8.068219  4.465171
  14564.910  14564.920  0.500  1.370968  31.7893  8.070059  4.465616
  14567.768  14567.770  0.500  1.370076  31.7709  8.072593  4.468085
  14570.664  14570.650  0.500  1.369472  31.7537  8.073106  4.470961
  14573.551  14573.540  0.500  1.368675  31.7383  8.075606  4.473493
  14576.468  14576.450  0.500  1.367961  31.7089  8.073900  4.474354
  14579.404  14579.370  0.500  1.367106  31.6908  8.076180  4.476741
  14582.305  14582.320  0.500  1.366433  31.6643  8.074866  4.479469
  14585.300  14585.290  0.500  1.365684  31.6452  8.076053  4.483969
  14588.286  14588.270  0.500  1.364654  31.6215  8.078305  4.488433
  14591.293  14591.280  0.500  1.363703  31.6036  8.081423  4.490935
  14594.300  14594.300  0.500  1.362655  31.5768  8.083039  4.493819
  14597.356  14597.350  0.500  1.361704  31.5623  8.087008  4.497702
  14600.412  14600.410  0.500  1.360834  31.5401  8.088350  4.500840
  14603.527  14603.490  0.500  1.359820  31.5162  8.090433  4.502462
  14606.605  14606.590  0.500  1.358749  31.4967  8.094099  4.506278
  14609.703  14609.710  0.500  1.357842  31.4742  8.095643  4.508431
  14612.849  14612.850  0.500  1.356728  31.4518  8.098898  4.509774
  14616.043  14616.000  0.500  1.355830  31.3898  8.090185  4.506642
  14619.220  14619.180  0.500  1.354780  31.4086  8.103542  4.514635
  14622.370  14622.370  0.500  1.353634  31.3871  8.107285  4.517504
  14625.606  14625.590  0.500  1.352438  31.3712  8.112865  4.522241
  14628.833  14628.820  0.500  1.351384  31.3415  8.113742  4.523820
  14632.091  14632.070  0.500  1.350231  31.3197  8.117444  4.526948
  14635.368  14635.350  0.500  1.349001  31.3015  8.122732  4.532457
  14638.647  14638.640  0.500  1.347797  31.271  8.124575  4.533002
  14641.956  14641.950  0.500  1.346692  31.2473  8.127401  4.536219
  14645.285  14645.270  0.500  1.345654  31.1899  8.120891  4.533802
  14648.634  14648.620  0.500  1.344356  31.2108  8.136877  4.545100
  14651.985  14651.990  0.500  1.343135  31.1844  8.139951  4.548585
  14655.394  14655.370  0.500  1.342034  31.164  8.143574  4.553559
  14658.804  14658.780  0.500  1.340530  31.1037  8.140049  4.552340
  14662.225  14662.200  0.500  1.339466  31.1034  8.148648  4.561166
  14665.658  14665.650  0.500  1.338436  31.0444  8.141570  4.558321
  14669.129  14669.110  0.500  1.337440  31.0646  8.154992  4.569650
  14672.631  14672.590  0.500  1.336265  31.0467  8.159852  4.572476
  14676.115  14676.090  0.500  1.335482  31.0232  8.160077  4.575184
  14679.620  14679.610  0.500  1.334553  30.9925  8.159582  4.576194
  14683.154  14683.150  0.500  1.333494  30.9514  8.157380  4.575226
  14686.729  14686.700  0.500  1.332599  30.8915  8.148894  4.571236
  14690.295  14690.280  0.500  1.332121  30.9206  8.160465  4.579796
  14693.882  14693.880  0.500  1.331008  30.893  8.162260  4.582011
  14697.500  14697.490  0.500  1.330288  30.875  8.163376  4.584238
  14701.147  14701.120  0.500  1.329166  30.8464  8.164973  4.586252
  14704.806  14704.780  0.500  1.328028  30.8092  8.164417  4.587042
  14708.448  14708.450  0.500  1.326794  30.7881  8.168888  4.591718
  14712.157  14712.140  0.500  1.325759  30.7741  8.173655  4.596714
  14715.888  14715.850  0.500  1.324570  30.7523  8.177579  4.599873
  14719.611  14719.580  0.500  1.323530  30.7232  8.178336  4.603512
  14723.336  14723.320  0.500  1.322375  30.7014  8.181971  4.606486
  14727.091  14727.090  0.500  1.321017  30.6689  8.184429  4.607741
  14730.896  14730.880  0.500  1.319610  30.6461  8.189844  4.612963
  14734.721  14734.680  0.500  1.318395  30.57  8.179436  4.610057
  14738.511  14738.510  0.500  1.317120  30.4761  8.164727  4.602495
  14742.379  14742.350  0.500  1.315598  30.5619  8.200186  4.624452
  14746.239  14746.210  0.500  1.314225  30.537  8.204747  4.628949
  14750.149  14750.090  0.500  1.313002  30.5112  8.207860  4.633052
  14754.003  14753.990  0.500  1.311692  30.4912  8.213231  4.639398
  14757.956  14757.910  0.500  1.310532  30.4624  8.214998  4.642464
  14761.881  14761.850  0.500  1.308992  30.4318  8.219396  4.646491
  14765.837  14765.810  0.500  1.307703  30.372  8.213835  4.645428
  14769.786  14769.780  0.500  1.306381  30.3833  8.227755  4.655883
  14773.804  14773.780  0.500  1.305406  30.3587  8.229105  4.658283
  14777.815  14777.790  0.500  1.304172  30.3249  8.230078  4.660055
  14781.847  14781.830  0.500  1.303131  30.296  8.230805  4.662384
  14785.881  14785.880  0.500  1.301839  30.2611  8.231958  4.662968
  14789.994  14789.950  0.500  1.300844  30.0372  8.179175  4.635320
  14794.051  14794.040  0.500  1.299736  30.2199  8.238067  4.671111
  14798.159  14798.150  0.500  1.298719  30.1943  8.239457  4.673308
  14802.308  14802.280  0.500  1.297571  30.1622  8.240156  4.676034
  14806.478  14806.430  0.500  1.296251  30.1346  8.243473  4.677927
  14810.602  14810.590  0.500  1.295265  30.1087  8.244519  4.680014
  14814.796  14814.780  0.500  1.294113  30.0806  8.246330  4.684899
  14819.011  14818.980  0.500  1.292658  30.0493  8.249749  4.687735
  14823.239  14823.210  0.500  1.291519  30.0263  8.252813  4.692381
  14827.440  14827.450  0.500  1.290149  29.9911  8.254448  4.693810
  14831.740  14831.710  0.500  1.288698  29.9646  8.259118  4.698874
  14836.042  14835.990  0.500  1.287658  29.9054  8.251393  4.697912
  14840.299  14840.290  0.500  1.286225  29.8007  8.234294  4.688803
  14844.645  14844.610  0.500  1.284872  29.8704  8.264722  4.708589
  14849.003  14848.950  0.500  1.283613  29.8428  8.267480  4.713974
  14853.325  14853.310  0.500  1.282248  29.8242  8.273625  4.718882
  14857.727  14857.690  0.500  1.281111  29.7904  8.273639  4.720290
  14862.112  14862.080  0.500  1.279781  29.7314  8.268245  4.720707
  14866.509  14866.500  0.500  1.278305  29.7334  8.281025  4.730249
  14870.958  14870.930  0.500  1.276972  29.6983  8.282279  4.732330
  14875.409  14875.380  0.500  1.275411  29.6796  8.289990  4.738040
  14879.872  14879.850  0.500  1.274109  29.6505  8.292640  4.741807
  14884.348  14884.340  0.500  1.272709  29.6193  8.295531  4.743703
  14888.865  14888.850  0.500  1.271548  29.5874  8.296223  4.746175
  14893.405  14893.380  0.500  1.270144  29.3174  8.232076  4.711692
  14897.938  14897.930  0.500  1.268804  29.5268  8.301977  4.753861
  14902.541  14902.500  0.500  1.267238  29.497  8.306602  4.757205
  14907.108  14907.080  0.500  1.266032  29.4632  8.307086  4.760771
  14911.708  14911.690  0.500  1.264878  29.4441  8.311292  4.765938
  14916.330  14916.310  0.500  1.263226  29.4141  8.316567  4.771051
  14921.003  14920.960  0.500  1.261917  29.3784  8.317343  4.772443
  14925.640  14925.620  0.500  1.260577  29.3557  8.322051  4.777823
  14930.349  14930.300  0.500  1.259312  29.3275  8.324593  4.781924
  14935.031  14935.000  0.500  1.257869  29.2514  8.314960  4.779115
  14939.775  14939.720  0.500  1.256335  29.2669  8.332164  4.790207
  14944.502  14944.460  0.500  1.255027  29.3372  8.363099  4.810397
  14949.242  14949.210  0.500  1.253853  29.3103  8.365237  4.814888
  14954.005  14953.990  0.500  1.252436  29.2763  8.367380  4.818438
  14958.829  14958.790  0.500  1.250886  29.2414  8.370385  4.821710
  14963.617  14963.600  0.500  1.249792  29.2122  8.371192  4.826233
  14968.468  14968.430  0.500  1.248394  29.1811  8.373948  4.828173
  14973.331  14973.290  0.500  1.246820  29.1088  8.366373  4.825664
  14978.178  14978.160  0.500  1.245410  29.1098  8.378463  4.835016
  14983.057  14983.050  0.500  1.244133  29.0763  8.379520  4.839391
  14987.989  14987.960  0.500  1.242635  29.0418  8.382116  4.842105
  14992.875  14992.890  0.500  1.241256  29.0067  8.383530  4.844993
  14997.863  14997.830  0.500  1.239962  28.9917  8.390053  4.850499
  15002.814  15002.800  0.500  1.238319  28.9628  8.395471  4.855856
  15007.789  15007.790  0.500  1.236972  28.9273  8.396494  4.858968
  15012.806  15012.790  0.500  1.235496  28.8955  8.399659  4.862144
  15017.837  15017.820  0.500  1.233876  28.8582  8.402416  4.866699
  15022.871  15022.860  0.500  1.232508  28.8313  8.406054  4.870506
  15027.957  15027.920  0.500  1.231237  28.7822  8.402416  4.871961
  15033.018  15033.000  0.500  1.229552  28.7651  8.411604  4.878451
  15038.112  15038.100  0.500  1.227883  28.7342  8.416594  4.883660
  15043.248  15043.220  0.500  1.226702  28.7063  8.418369  4.887353
  15048.389  15048.360  0.500  1.225122  28.6706  8.421176  4.892093
  15053.552  15053.520  0.500  1.223685  28.6344  8.422629  4.894925
  15058.739  15058.700  0.500  1.222035  28.5974  8.425666  4.899843
  15063.881  15063.890  0.500  1.220466  28.569  8.430506  4.904177
  15069.134  15069.110  0.500  1.218963  28.532  8.432255  4.908227
  15074.372  15074.340  0.500  1.217422  28.5013  8.436148  4.911490
  15079.614  15079.590  0.500  1.216105  28.4666  8.436990  4.915937
  15084.879  15084.860  0.500  1.214521  28.4316  8.439975  4.919458
  15090.217  15090.150  0.500  1.213324  28.3993  8.440493  4.922436
  15095.460  15095.460  0.500  1.211639  28.3671  8.445125  4.927501
  15100.825  15100.790  0.500  1.210353  28.3341  8.446176  4.930669
  15106.165  15106.140  0.500  1.208649  28.3018  8.450935  4.935130
  15111.539  15111.510  0.500  1.207002  28.268  8.454741  4.939787
  15116.936  15116.890  0.500  1.205591  28.2284  8.454818  4.943330
  15122.328  15122.300  0.500  1.204144  28.1973  8.457754  4.946207
  15127.763  15127.720  0.500  1.202760  28.1653  8.459847  4.951121
  15133.202  15133.170  0.500  1.201123  28.1282  8.462546  4.954978
  15138.676  15138.630  0.500  1.199590  28.0946  8.465413  4.957414
  15144.143  15144.110  0.500  1.198086  28.0585  8.467241  4.962066
  15149.624  15149.610  0.500  1.196580  28.0192  8.468141  4.964700
  15155.180  15155.130  0.500  1.195079  27.9876  8.471288  4.969160
  15160.709  15160.670  0.500  1.193591  27.8971  8.456460  4.962170
  15166.253  15166.220  0.500  1.192068  27.9039  8.471433  4.973698
  15171.831  15171.800  0.500  1.190290  27.8805  8.479379  4.980631
  15177.443  15177.400  0.500  1.188596  27.8487  8.484084  4.985916
  15183.030  15183.010  0.500  1.187167  27.8134  8.485429  4.989678
  15188.691  15188.650  0.500  1.185554  27.7786  8.488482  4.993957
  15194.366  15194.300  0.500  1.184008  27.7455  8.491504  4.998690
  15200.016  15199.970  0.500  1.182139  27.7007  8.493658  5.001678
  15205.680  15205.660  0.500  1.180756  27.6743  8.497303  5.006420