File: xdidata/Data/Ce/Ce-L3-Ce0.67TiO3.xdi
# XDI/1.0 BlueSky/1.10.0 BMM/2023-1.0-py310-tiled
# Beamline.name: BMM (06BM) -- Beamline for Materials Measurement (NIST)
# Beamline.xray_source: NSLS-II three-pole wiggler
# Beamline.collimation: paraboloid mirror, 5 nm Rh on 30 nm Pt
# Beamline.focusing: not in use
# Beamline.harmonic_rejection: flat mirror, Si stripe, pitch = 7.0 mrad relative to beam
# Beamline.software: Bluesky 1.10.0, Ophyd 1.7.0, DataBroker 2.0.0b13, Python 3.10.8, 2023-1.0-py310-tiled
# Detector.I0: 10 cm N2
# Detector.I1: 25 cm N2
# Detector.I2: 25 cm N2
# Detector.fluorescence: SII Vortex ME4 (4-element silicon drift)
# Detector.deadtime_correction: Xspress3
# Element.symbol: Ce
# Element.edge: L3
# Element.reference: Ce
# Element.reference_material: CeO2
# Facility.name: NSLS-II
# Facility.energy: 3.0
# Facility.current: 400.6
# Facility.mode: top-off
# Facility.GUP: 123456
# Facility.SAF: 301027
# Facility.cycle: 2023-2
# Mono.name: Si(111)
# Mono.d_spacing: 3.13519
# Mono.encoder_resolution: 0.0000050 deg/ct
# Mono.angle_offset: 16.0754 deg
# Mono.scan_mode: pseudo channel cut
# Mono.scan_type: step
# Mono.direction: forward in energy
# Sample.name: Ce0.67TiO3
# Sample.prep: Powder in PEG pellet
# Sample.x: 142.329 mm
# Sample.y: 114.126 mm
# Sample.SDD_position: 45.000 mm
# Scan.experimenters: Bruce Ravel
# Scan.edge_energy: 5723.4
# Scan.start_time: 2023-05-06T10:47:23
# Scan.end_time: 2023-05-06T10:53:06
# Scan.transient_id: 74737
# Scan.uid: 3d018239-c5a4-4d74-8871-dddef20aeb52
# Scan.plot_hint: (Ce1+Ce2+Ce3+Ce4)/I0  --  ($8+$9+$10+$11)/$5
# Column.1: energy eV
# Column.2: requested_energy eV
# Column.3: measurement_time seconds
# Column.4: xmu
# Column.5: I0 nA
# Column.6: It nA
# Column.7: Ir nA
# Column.8: Ce1
# Column.9: Ce2
# Column.10: Ce3
# Column.11: Ce4
# ///////////
# sample courtesy Martin Stennett, University of Sheffield
# -----------
# energy  requested_energy  measurement_time  xmu  I0  It  Ir  Ce1  Ce2  Ce3  Ce4
  5523.403  5523.400  0.500  148.164  109.05  1.198621  0.088680  4029.68  4139.49  3983.55  4004.53
  5533.410  5533.400  0.500  152.131  109.413  1.234993  0.092623  4066.27  4363.57  4121.62  4093.58
  5543.411  5543.400  0.500  151.617  109.781  1.269952  0.096755  4112.92  4369.61  4049.6  4112.6
  5553.415  5553.400  0.500  151.533  110.133  1.307283  0.100829  4125.95  4369.61  4215.69  3977.56
  5563.413  5563.400  0.500  152.098  110.492  1.344737  0.105253  4203.68  4373.62  4130.65  4097.62
  5573.407  5573.400  0.500  154.041  110.769  1.383915  0.109643  4244.91  4450.69  4279.75  4087.63
  5583.411  5583.400  0.500  154.8  110.996  1.421176  0.114266  4258.05  4514.74  4244.76  4164.68
  5593.407  5593.400  0.500  156.868  111.209  1.459199  0.118574  4259.87  4671.82  4264.77  4248.75
  5603.408  5603.400  0.500  157.165  111.389  1.499097  0.123529  4228.96  4484.75  4409.85  4382.81
  5613.403  5613.400  0.500  158.015  111.563  1.537419  0.128537  4374.2  4544.79  4409.85  4299.79
  5623.559  5623.400  0.500  159.147  111.672  1.577251  0.133566  4445.65  4594.84  4438.91  4292.81
  5633.385  5633.400  0.500  160.297  111.834  1.619419  0.138857  4470  4608.85  4340.88  4506.9
  5643.388  5643.400  0.500  162.079  112.004  1.660933  0.144259  4471.82  4621.86  4628.01  4431.89
  5653.391  5653.400  0.500  164.196  112.092  1.702386  0.149539  4596.35  4678.88  4527.96  4601.95
  5663.396  5663.400  0.500  164.417  112.158  1.743135  0.155511  4624.82  4770.97  4520.01  4524.97
  5673.397  5673.400  0.500  170.438  112.238  1.785661  0.160949  4745.38  4968.07  4759.11  4657.03
  5683.398  5683.400  0.500  173.463  112.277  1.826088  0.166871  4745.38  5192.2  4905.24  4633.07
  5693.395  5693.400  0.500  177.829  112.271  1.865083  0.172312  4933.37  5221.23  4938.27  4872.18
  5695.393  5695.400  0.500  180.547  112.273  1.872624  0.173623  4961.83  5280.24  5066.31  4962.22
  5697.392  5697.400  0.500  184.911  112.302  1.879800  0.174436  5173.85  5332.27  5205.38  5054.27
  5699.389  5699.400  0.500  185.681  112.28  1.886645  0.175798  5049.22  5435.34  5152.38  5211.37
  5701.389  5701.400  0.500  190.691  112.28  1.892558  0.176634  5390.76  5531.37  5270.41  5218.35
  5703.404  5703.400  0.500  193.106  112.282  1.898073  0.177455  5339.01  5550.38  5441.54  5351.43
  5705.389  5705.400  0.500  198.195  112.257  1.901369  0.178179  5530.2  5875.55  5426.52  5416.46
  5707.390  5707.400  0.500  204.453  112.291  1.904566  0.178877  5713.33  5974.65  5644.65  5625.6
  5709.397  5709.400  0.500  211.846  112.306  1.905029  0.179322  5713.33  6370.83  5871.77  5835.71
  5711.403  5711.400  0.500  224.173  112.315  1.902629  0.179503  6066.21  6669.97  6256.95  6184.9
  5713.401  5713.400  0.500  240.313  112.294  1.893367  0.178969  6730.28  7168.23  6635.16  6452.02
  5713.892  5713.900  0.500  245.678  112.305  1.890665  0.178707  6798.09  7168.23  6825.33  6799.27
  5714.389  5714.400  0.500  250.747  112.3  1.887707  0.178456  6939.92  7103.27  7150.47  6965.33
  5714.890  5714.900  0.500  259.219  112.341  1.882819  0.178177  7137.45  7629.48  7259.52  7094.4
  5715.389  5715.400  0.500  267.233  112.368  1.875697  0.177421  7620.61  7801.59  7379.65  7226.49
  5715.888  5715.900  0.500  273.689  112.361  1.868313  0.176747  7564.88  8014.72  7595.74  7576.67
  5716.390  5716.400  0.500  287.675  112.346  1.855682  0.175644  7919.32  8510.98  7987.03  7901.88
  5716.889  5716.900  0.500  301.442  112.345  1.843053  0.174636  8395.07  8744.1  8393.2  8333.14
  5717.389  5717.400  0.500  318.561  112.376  1.827618  0.173055  8726.34  9374.48  8893.48  8804.42
  5717.890  5717.900  0.500  332.988  112.342  1.806453  0.171027  9247.22  9766.74  9311.82  9082.62
  5718.389  5718.400  0.500  355.832  112.388  1.786163  0.169124  9864.12  10409.1  9934.13  9783.99
  5718.892  5718.900  0.500  374.754  112.379  1.762389  0.166728  10544.1  10409.1  10737.7  10423.5
  5719.393  5719.400  0.500  404.763  112.359  1.738489  0.164430  11285.1  11676.9  11517.1  10999.8
  5719.894  5719.900  0.500  431.777  112.36  1.713623  0.161884  11820.5  12723.6  12069.6  11900.5
  5720.392  5720.400  0.500  462.662  112.35  1.680755  0.158701  12876.1  13497  12796.1  12811
  5720.893  5720.900  0.500  502.783  112.352  1.639561  0.154675  13944.8  14689.9  14045  13808.8
  5721.393  5721.400  0.500  549.088  112.364  1.589015  0.149937  15313.7  15872.8  15342.1  15168.9
  5721.896  5721.900  0.500  612.861  112.351  1.523686  0.143721  17154.6  17818.3  17008.5  16874.2
  5722.393  5722.400  0.500  691.629  112.344  1.445626  0.136376  19379  19880  19263.3  19178.1
  5722.893  5722.900  0.500  741.513  112.356  1.354088  0.127534  22036.3  19880  22219  19178.1
  5723.395  5723.400  0.500  912.288  112.358  1.244117  0.117170  25283.4  26521.8  25672.1  25025.6
  5723.894  5723.900  0.500  1043.1  112.333  1.131889  0.106217  29257.9  30249  29216.3  28451.5
  5724.398  5724.400  0.500  1177.12  112.337  1.016962  0.095082  32444.9  34315.4  33122.4  32351.9
  5724.895  5724.900  0.500  1241.28  112.33  0.917336  0.085168  32444.9  34315.4  36585.1  36086.5
  5725.394  5725.400  0.500  1419.43  112.316  0.840285  0.077477  39189.1  40988.9  40220.9  39025.4
  5725.894  5725.900  0.500  1491.31  112.318  0.787885  0.072168  41181.8  43340.4  42093.8  40884.4
  5726.399  5726.400  0.500  1522.24  112.33  0.763789  0.069261  42599  44053.2  42597.6  41744.5
  5726.895  5726.900  0.500  1521.2  112.329  0.764666  0.068851  42199.3  44251.6  42797  41626.5
  5727.395  5727.400  0.500  1477.17  112.301  0.788462  0.070577  40774.4  43030.7  41327.3  40755.9
  5727.900  5727.900  0.500  1419.22  112.302  0.829627  0.073960  39117.6  41194.2  40058.8  39010.6
  5728.398  5728.400  0.500  1339.68  112.302  0.882306  0.078405  37055.1  38791.8  37777.4  36824.3
  5728.898  5728.900  0.500  1259.07  112.315  0.941506  0.083452  34856.1  36673.2  35240.3  34642.6
  5729.394  5729.400  0.500  1183.08  112.315  0.999472  0.088236  32589.1  34592.7  33284.9  32411.9
  5729.900  5729.900  0.500  1149.38  112.305  1.058413  0.093299  32589.1  34592.7  31211.4  30687.8
  5730.401  5730.400  0.500  1042.12  112.302  1.114258  0.097877  28714.2  30311.8  29153.1  28853.7
  5730.898  5730.900  0.500  983.397  112.301  1.166045  0.102290  27364.9  28687.9  27453.2  26930.6
  5731.398  5731.400  0.500  928.281  112.281  1.217743  0.106645  25704.2  26858.2  26099.6  25566.1
  5731.901  5731.900  0.500  878.874  112.264  1.265137  0.111046  24211.7  25580  24556.9  24317.8
  5732.402  5732.400  0.500  829.319  112.247  1.310226  0.115293  23132  24344.8  23089.7  22522.2
  5732.905  5732.900  0.500  790.355  112.253  1.351332  0.119429  21812.2  23049.7  22192.8  21665.3
  5733.400  5733.400  0.500  758.711  112.28  1.384156  0.122839  21112  22097.8  21135.9  20842.6
  5733.899  5733.900  0.500  734.692  112.251  1.410505  0.125573  20368.8  21467.2  20301.2  20333
  5734.405  5734.400  0.500  713.605  112.236  1.430487  0.127788  19986.1  20518.5  19939.9  19647.5
  5734.905  5734.900  0.500  710.803  112.236  1.441268  0.129024  19596.6  20688.6  19946.8  19545.4
  5735.404  5735.400  0.500  709.035  112.24  1.446283  0.129313  19631.2  20543.4  19795.7  19611.4
  5735.902  5735.900  0.500  714.599  112.232  1.446303  0.129010  19893  20783.7  20072.9  19451.4
  5736.399  5736.400  0.500  717.46  112.212  1.441604  0.128357  19980.6  20782.6  19965.8  19778.6
  5736.902  5736.900  0.500  722.962  112.187  1.435355  0.127694  20338.7  20884.8  20086.9  19796.6
  5737.400  5737.400  0.500  734.543  112.201  1.429570  0.127021  20204.1  21497.3  20807.5  19907.8
  5737.905  5737.900  0.500  741.151  112.155  1.423318  0.126472  20372.7  21774.4  20616.3  20360.1
  5738.404  5738.400  0.500  747.818  112.151  1.418941  0.126160  20767.1  21649.4  20890.7  20561.3
  5738.903  5738.900  0.500  752.628  112.159  1.415828  0.125921  20670.2  21825.5  21180  20738.5
  5739.401  5739.400  0.500  758.509  112.153  1.413571  0.125996  21157.4  21965.8  21154  20791.5
  5739.905  5739.900  0.500  756.732  112.169  1.411568  0.126169  20804.9  21991.9  21206  20878.7
  5740.403  5740.400  0.500  763.087  112.162  1.410889  0.126678  21267.8  21997.8  21361.2  20962.7
  5740.904  5740.900  0.500  768.43  112.181  1.410839  0.127202  21166.9  22558.2  21353.1  21124.9
  5741.402  5741.400  0.500  766.552  112.174  1.410851  0.127779  21319.1  22190.1  21384  21093.8
  5741.903  5741.900  0.500  766.767  112.158  1.411712  0.128439  21271  22074.9  21541.2  21111.8
  5742.400  5742.400  0.500  771.862  112.149  1.413293  0.129246  21300.9  22415.2  21517.4  21330.1
  5742.904  5742.900  0.500  768.19  112.144  1.415274  0.130007  20935.6  22295.1  21556.3  21361.1
  5743.403  5743.400  0.500  770.385  112.111  1.417624  0.130701  21322.9  22206.1  21651.5  21187.9
  5743.899  5743.900  0.500  767.202  112.109  1.420026  0.131230  21207.7  22448.2  21461.2  20892.8
  5744.400  5744.400  0.500  767.75  112.115  1.422678  0.131850  21400.1  22302.1  21222.1  21152
  5744.900  5744.900  0.500  767.094  112.122  1.425279  0.132335  21202.1  22193  21632.4  20980.8
  5745.397  5745.400  0.500  769.02  112.103  1.427625  0.132778  21195.4  22218.9  21667.4  21127.8
  5745.904  5745.900  0.500  766.125  112.472  1.434718  0.133867  21444.4  22186.1  21406.1  21130.9
  5746.405  5746.400  0.500  764.479  112.478  1.435906  0.134048  21465.3  22186.1  21406.1  20929.7
  5746.901  5746.900  0.500  766.742  112.465  1.436393  0.134406  21415.6  22456.2  21332  21027.8
  5747.397  5747.400  0.500  770.676  112.435  1.436308  0.134380  21384.3  22689.5  21518.3  21058.9
  5747.904  5747.900  0.500  770.698  112.412  1.435868  0.134567  21615.5  22329.1  21684.4  21006.8
  5748.402  5748.400  0.500  779.58  112.402  1.434220  0.134614  21690.2  22474.2  21815.5  21646.3
  5749.394  5749.390  0.500  784.119  112.382  1.429820  0.134400  21670.5  22889.5  21736.5  21824.5
  5750.401  5750.390  0.500  793.53  112.361  1.422915  0.133943  21829.2  22956.7  22306.9  22068.8
  5751.417  5751.410  0.500  808.73  112.403  1.415306  0.133376  22560  23483.1  22549.3  22311
  5752.475  5752.460  0.500  818.398  112.283  1.403013  0.132486  22851.1  23569.3  23111.9  22360.2
  5753.515  5753.520  0.500  834.252  112.346  1.394594  0.131802  23016.4  24325.8  23281.9  23100.7
  5754.596  5754.600  0.500  846.796  112.329  1.387126  0.131135  23598.9  24518.2  23673.4  23329
  5755.693  5755.700  0.500  853.695  112.309  1.381698  0.130608  23657.5  24707.2  23890.6  23622.3
  5756.819  5756.820  0.500  858.073  112.292  1.379218  0.130558  23657.5  25046.9  24026.7  23623.5
  5757.961  5757.960  0.500  861.837  112.271  1.380585  0.130756  24046.2  25177.8  23913.6  23621.4
  5759.114  5759.110  0.500  865.592  112.258  1.385386  0.131283  24108.2  25107.9  24248.1  23705.5
  5760.298  5760.290  0.500  854.525  112.242  1.394834  0.132283  23788  24721.5  23785.5  23618.3
  5761.486  5761.480  0.500  850.067  112.213  1.407425  0.133424  23481.2  24874.5  23515.4  23517.2
  5762.705  5762.700  0.500  839.017  112.218  1.419850  0.134785  23348.1  24053.9  23498.5  23252.1
  5763.935  5763.930  0.500  828.19  112.141  1.432027  0.135860  23104.8  24024.8  23273  22471.4
  5765.186  5765.180  0.500  821.321  112.168  1.445353  0.137276  22793.9  24005.8  22991  22335.3
  5766.458  5766.450  0.500  814.278  112.157  1.457149  0.138355  22766.2  23590.4  22799.5  22170.9
  5767.747  5767.740  0.500  804.877  112.164  1.468764  0.139363  22484.3  23446.1  22365  21982.8
  5769.058  5769.050  0.500  798.586  112.161  1.479307  0.140690  22024.2  23036.9  22545.3  21963.8
  5770.391  5770.380  0.500  794.038  112.143  1.489083  0.141890  21787  23203  22355.1  21700.5
  5771.736  5771.730  0.500  794.378  112.108  1.496783  0.142790  21972.9  22997.8  22301  21784.6
  5773.108  5773.100  0.500  787.922  112.092  1.505370  0.143737  21851.7  22875.8  22148.1  21444.5
  5774.485  5774.480  0.500  786.878  112.09  1.513857  0.144959  21696.9  23014.8  21872.9  21616.5
  5775.901  5775.890  0.500  789.041  112.068  1.521042  0.145987  21696.9  23014.8  21959.9  21754.7
  5777.318  5777.310  0.500  789.48  112.06  1.527275  0.146828  21789.6  22913.9  21914.9  21850.7
  5778.756  5778.750  0.500  789.962  112.037  1.533551  0.148048  22028.6  22688.7  22145  21642.6
  5780.218  5780.210  0.500  780.496  112.016  1.539224  0.148748  21803.8  22589.6  21683.7  21351.3
  5781.699  5781.690  0.500  787.296  111.998  1.545172  0.149771  21803.8  22751.7  22070.9  21549.5
  5783.194  5783.190  0.500  787.907  111.985  1.551204  0.150725  21896.5  22981.9  21894.9  21460.5
  5784.718  5784.710  0.500  782.258  111.981  1.556102  0.151719  21643  22839.9  21929.8  21185.2
  5786.257  5786.250  0.500  786.372  111.949  1.558739  0.152237  21643  22823.7  22019  21547.5
  5787.815  5787.810  0.500  787.691  111.922  1.558313  0.152530  21530.2  23003.9  22211.1  21414.4
  5789.386  5789.380  0.500  801.05  111.892  1.555249  0.152497  22105.3  23369.3  22323.3  21832.8
  5790.990  5790.980  0.500  813.048  111.843  1.550379  0.152281  22412.7  23382.4  22662.6  22476.4
  5792.594  5792.590  0.500  813.129  111.832  1.545040  0.152086  22412.7  23382.4  22662.6  22476.4
  5794.237  5794.230  0.500  839.443  111.813  1.538465  0.151508  23315  24375.2  23322.3  22847.8
  5795.890  5795.880  0.500  853.231  111.785  1.534016  0.151618  23518  24759.6  23818.6  23282.3
  5797.556  5797.550  0.500  855.756  111.827  1.532584  0.151720  23390.2  24779.7  24327.3  23199.2
  5799.246  5799.240  0.500  859.467  111.778  1.533328  0.152215  23829.4  24997.9  23851.9  23390.4
  5800.962  5800.950  0.500  856.221  111.74  1.538413  0.153115  24001.2  24774.7  23792.9  23105.2
  5802.687  5802.680  0.500  857.613  111.712  1.547236  0.154264  23642  24894.5  23922.9  23346.3
  5804.438  5804.430  0.500  851.256  111.672  1.559316  0.155772  23221.9  24600.4  23891.7  23347.2
  5806.197  5806.190  0.500  842.032  111.643  1.573295  0.157415  23221.9  24411.2  23178.4  23195.1
  5807.984  5807.980  0.500  841.189  111.622  1.586586  0.158820  23074.4  24677.4  23085.2  23058
  5809.789  5809.780  0.500  832.172  111.582  1.598838  0.160065  22952.7  24007  23409.5  22486.6
  5811.620  5811.610  0.500  829.674  111.534  1.609728  0.161662  23017.5  24012.9  23079  22427.4
  5813.459  5813.450  0.500  827.24  111.515  1.618945  0.163000  22813.9  24155.2  22962.1  22318.6
  5815.315  5815.310  0.500  830.145  111.488  1.627714  0.164084  23018.4  23837.7  22964  22730.7
  5817.196  5817.190  0.500  830.407  111.432  1.635075  0.164995  22534.1  24142.1  23281.3  22576.6
  5819.097  5819.090  0.500  831.396  111.358  1.643029  0.166330  23047.7  24070.1  23057.2  22407.5
  5821.018  5821.010  0.500  827.034  111.321  1.648271  0.167054  22564.3  24180.2  22790  22531.6
  5822.960  5822.950  0.500  827.902  111.272  1.653768  0.168054  22582.8  23729.8  23173.1  22636.7
  5824.921  5824.910  0.500  834.148  111.239  1.658668  0.168738  22937.7  23979  23312.3  22560.6
  5826.888  5826.880  0.500  835.635  111.195  1.664341  0.169631  23025.4  23882.8  23204.2  22805.8
  5828.888  5828.880  0.500  838.141  111.152  1.670257  0.170607  23145.8  24190.2  23266.4  22558.7
  5830.896  5830.890  0.500  840.064  111.079  1.675092  0.171376  23206.3  24099.1  23168.3  22839.9
  5832.928  5832.920  0.500  845.268  111.001  1.678885  0.172426  23032.1  24268.3  23312.3  23213.1
  5834.984  5834.980  0.500  851.262  110.938  1.681404  0.172963  23249.7  24585.7  23515.7  23086.2
  5837.056  5837.050  0.500  848.353  110.891  1.683649  0.173776  23114.2  24470.5  23495.6  22994.1
  5839.145  5839.140  0.500  850.616  110.806  1.686414  0.174340  23380.8  24536.5  23308.5  23027.1
  5841.254  5841.250  0.500  859.178  110.735  1.689880  0.175203  23380.8  24791.9  23631.9  23336.5
  5843.382  5843.380  0.500  864.187  110.665  1.694293  0.176148  23659.9  24604.6  24003.1  23367.5
  5845.522  5845.520  0.500  861.88  110.587  1.697868  0.177033  23298.3  24695.9  23889.1  23429.6
  5847.694  5847.690  0.500  873.503  110.484  1.701596  0.177945  23885.5  24945.9  24196.3  23480.6
  5849.883  5849.880  0.500  873.904  110.402  1.707943  0.179009  23816.7  24883.8  24166.2  23613.7
  5852.084  5852.080  0.500  876.84  110.27  1.712824  0.180034  23997.8  24911.8  23985.1  23794.8
  5854.308  5854.300  0.500  878.392  110.174  1.720187  0.181174  23836.9  25008  23980.1  23951
  5856.556  5856.550  0.500  871.565  110.025  1.727127  0.182518  23644.6  24864.8  23899  23485.7
  5858.817  5858.810  0.500  872.102  109.874  1.736397  0.183817  23775.3  24571.7  24135.1  23339.4
  5861.099  5861.090  0.500  868.979  109.718  1.748807  0.185619  23649.7  24603.7  23454.6  23634.6
  5863.397  5863.390  0.500  864.791  109.543  1.762178  0.187484  23347.6  24622.7  23616.8  23144.3
  5865.717  5865.710  0.500  859.652  109.227  1.770949  0.189086  23206.9  24328.4  23402.5  22959
  5868.054  5868.050  0.500  863.518  108.674  1.773346  0.189648  23206.9  24328.4  23354.4  22951.9
  5870.405  5870.400  0.500  857.178  107.207  1.758998  0.188611  22640.6  23613.5  23053.9  22587.5
  5872.786  5872.780  0.500  874.718  87.7082  1.445741  0.155696  19265.6  19870.8  18862.8  18720.7
  5875.178  5875.170  0.500  865.491  110.183  1.820988  0.196235  23559.3  24638.8  23802  23362.6
  5877.597  5877.590  0.500  868.413  110.291  1.828025  0.197723  23601.9  24950.3  23823.2  23402.8
  5880.026  5880.020  0.500  878.447  109.961  1.827272  0.197786  23929.5  25052.3  23954.3  23659
  5882.473  5882.470  0.500  882.624  109.673  1.826135  0.198310  23929.5  25052.3  23954.3  23864.1
  5884.953  5884.950  0.500  887.799  109.452  1.828268  0.199223  23921.4  25225.3  24382.6  23641.9
  5887.447  5887.440  0.500  887.662  109.248  1.832105  0.200185  23898  25275.3  24145.4  23656.9
  5889.956  5889.950  0.500  890.536  109.003  1.839331  0.201574  23838.5  25275.3  24145.4  23812.1
  5892.475  5892.470  0.500  893.376  108.828  1.846215  0.202619  23864.2  25249.5  24188.4  23922.1
  5895.028  5895.020  0.500  895.877  108.66  1.855138  0.204318  23934.1  25337.4  24331.7  23743.1
  5897.598  5897.590  0.500  895.216  108.424  1.861837  0.205544  24089.3  25193.3  24040.2  23740
  5900.177  5900.170  0.500  894.643  108.185  1.869110  0.206763  23684.1  25334.6  24268.6  23499.9
  5902.789  5902.780  0.500  891.37  107.946  1.876428  0.208175  23929.7  24862  23919.3  23508.7
  5905.415  5905.400  0.500  894.535  107.653  1.882826  0.209441  23929.7  24862  23837.1  23670.9
  5908.068  5908.050  0.500  893.689  107.28  1.888892  0.210610  23754.9  24832  23809.2  23478.7
  5910.723  5910.710  0.500  891.264  106.767  1.893320  0.211665  23379.6  24814.8  23969  22994.2
  5913.400  5913.390  0.500  890.161  105.569  1.885140  0.211620  23210.5  24255.3  23620.7  22887
  5916.114  5916.090  0.500  900.287  92.2942  1.660866  0.187607  20841  21437.9  20608.9  20203.5
  5918.830  5918.810  0.500  893.328  106.674  1.931700  0.218090  23502.7  24680.6  23728.8  23382.4
  5921.558  5921.550  0.500  893.519  107.489  1.957186  0.221553  23596.9  24982.1  24003.3  23460.8
  5924.322  5924.300  0.500  892.067  106.874  1.955751  0.222182  23648.9  24407.6  23894.1  23388.6
  5927.094  5927.080  0.500  891.982  106.067  1.950013  0.222521  23720.7  24434.4  23323.5  23131.2
  5929.894  5929.870  0.500  899.886  105.216  1.942730  0.222252  23280.8  24757.8  23448.7  23195.4
  5932.702  5932.690  0.500  906.061  106.444  1.973339  0.226444  23950.1  24972.2  23932.3  23589.9
  5935.541  5935.520  0.500  908.886  106.032  1.972974  0.227187  23656.7  25019.1  24146.4  23548.8
  5938.383  5938.370  0.500  913.959  105.306  1.966276  0.226969  23656.7  25066.2  23993.1  23529.7
  5941.243  5941.250  0.500  919.28  104.109  1.953404  0.226232  23843.2  24666.4  23714.6  23481.4
  5944.128  5944.140  0.500  927.27  98.4933  1.857845  0.215890  22503.1  23669.2  22688.4  22469.2
  5947.041  5947.050  0.500  913.331  105.292  1.996255  0.232422  23961.3  24600.8  24045.4  23558.8
  5949.965  5949.970  0.500  919.945  105.38  2.010652  0.234883  23751.3  25487.6  24030.2  23674.9
  5952.924  5952.920  0.500  927.991  104.83  2.014369  0.235943  23974  25279.4  24067.3  23961.1
  5955.888  5955.890  0.500  926.555  104.367  2.018642  0.237234  23980.8  25006  24099.3  23615.7
  5958.856  5958.870  0.500  924.908  103.971  2.024369  0.238751  23980.8  25006  23560.8  23615.7
  5961.875  5961.880  0.500  923.86  103.535  2.028905  0.239840  23703.1  24841.8  23916  23190.4
  5964.888  5964.900  0.500  929.176  103.096  2.035131  0.241410  23616.7  24841.1  23919.2  23417.7
  5967.961  5967.950  0.500  928.228  102.729  2.040654  0.242836  23569.9  24978.9  23610.8  23196.4
  5971.000  5971.010  0.500  929.757  102.271  2.046321  0.244377  23569.9  24568.7  23610.8  23337.5
  5974.086  5974.090  0.500  928.244  101.851  2.051979  0.246033  23135.6  24490.4  23839.8  23077.2
  5977.178  5977.190  0.500  927.809  101.374  2.056933  0.247199  23302.3  24395.2  23459.4  22898.9
  5980.304  5980.310  0.500  932.01  100.84  2.058761  0.248488  23233.1  24426.4  23250.3  23074.1
  5983.443  5983.450  0.500  932.687  100.167  2.056978  0.249056  23210.4  24186.2  23190.3  22837.8
  5986.606  5986.600  0.500  936.101  98.7988  2.040777  0.247834  23009.7  24043.7  23044.9  22387.3
  5989.770  5989.780  0.500  956.123  83.0736  1.727064  0.210926  19720.8  20712.7  19706.7  19288.3
  5992.954  5992.970  0.500  946.494  100.997  2.109176  0.257904  23748.3  24718.6  23664.7  23461.5
  5996.179  5996.190  0.500  944.373  100.231  2.104447  0.258134  23436.2  24600.7  23472.5  23146.2
  5999.411  5999.420  0.500  948.522  99.596  2.103260  0.258741  23560.2  24380.3  23615.5  22912.9
  6002.663  6002.670  0.500  951.835  99.0355  2.104632  0.259795  23472.3  24331  23485.4  22976.9
  6005.938  6005.950  0.500  953.363  98.5204  2.106298  0.260687  23343.5  24066  23179.1  23337.2
  6009.226  6009.240  0.500  952.427  98.0804  2.110781  0.262393  23158.7  24029.8  23027.9  23198
  6012.543  6012.550  0.500  952.911  97.5891  2.113330  0.263376  22927.3  24145.9  23240.1  22680.6
  6015.861  6015.870  0.500  962.883  97.1224  2.116631  0.264874  23020.6  24493.2  23207.1  22796.7
  6019.217  6019.220  0.500  963.164  96.6536  2.120649  0.266098  23250  23806.7  23212  22824.6
  6022.591  6022.590  0.500  959.186  96.1943  2.125610  0.267842  22760.7  24081.6  22891.7  22534.2
  6025.959  6025.970  0.500  961.642  95.7702  2.129746  0.269485  22874.3  23901.5  22988.8  22332.2
  6029.372  6029.380  0.500  967.651  95.6297  2.141675  0.271944  22833.9  24278  22990.9  22433.3
  6032.798  6032.800  0.500  960.669  95.1711  2.146100  0.273458  22437.7  23797.5  23018.6  22174
  6036.252  6036.250  0.500  970.945  94.6905  2.150780  0.275030  22693.4  24037.5  22777.4  22431.1
  6039.700  6039.710  0.500  978.012  94.2385  2.154744  0.276520  22878.7  23953.6  22854.7  22479.3
  6043.178  6043.190  0.500  969.456  93.7559  2.158182  0.278187  22283.7  23564.2  22650.4  22394
  6046.678  6046.690  0.500  973.3  93.2804  2.161739  0.279581  22421.6  23611.1  22616.2  22140.8
  6050.221  6050.210  0.500  973.28  92.8268  2.165531  0.280781  22390.5  23399.1  22309  22247.9
  6053.738  6053.750  0.500  978.134  92.313  2.168038  0.282291  22394  23392.8  22342.9  22164.7
  6057.286  6057.300  0.500  977.888  91.7288  2.168472  0.283382  21999.1  23528.9  22389  21783.4
  6060.867  6060.880  0.500  984.781  91.1616  2.169805  0.284400  22171.2  23307.7  22423.9  21871.4
  6064.492  6064.480  0.500  981.539  90.6504  2.172520  0.285676  22095.2  22919.5  22078.7  21883.4
  6068.096  6068.090  0.500  993.244  90.146  2.175053  0.287054  22232.2  23106.6  22422.9  21775.3
  6071.704  6071.720  0.500  989.429  89.7085  2.179520  0.288611  22040.6  22850.4  22219.9  21649.3
  6075.371  6075.380  0.500  994.264  89.2412  2.184481  0.290392  21920.1  23115.5  22204.7  21489.1
  6079.038  6079.050  0.500  992.501  88.7433  2.188186  0.291795  21669.4  23003.3  21820.1  21584.9
  6082.726  6082.740  0.500  992.775  88.2573  2.190537  0.293119  21624.3  22821.2  21754.2  21419.9
  6086.430  6086.450  0.500  997.511  87.7632  2.191556  0.294577  21482.9  22670.9  21806.2  21584.9
  6090.182  6090.180  0.500  1001.84  87.2728  2.194508  0.296065  21482.4  22820.1  21638  21492.8
  6093.910  6093.920  0.500  997.789  86.79  2.198619  0.297720  21368  22556.7  21493.9  21179.5
  6097.676  6097.690  0.500  1004.43  86.2969  2.201155  0.299290  21507.2  22556.7  21435.8  21179.5
  6101.469  6101.480  0.500  1010.32  85.7844  2.204216  0.300919  21507.2  22346.6  21672.1  21143.5
  6105.292  6105.280  0.500  1007.04  85.2334  2.205813  0.302092  21316.8  22259.6  21262.5  20994.3
  6109.090  6109.110  0.500  1007.02  84.6979  2.207974  0.303443  21199.3  21989.3  21031.4  21072.3
  6112.943  6112.950  0.500  1009.35  84.1797  2.210091  0.305011  21199.3  22189.5  20839.3  20739.1
  6116.792  6116.810  0.500  1003.13  83.6414  2.213521  0.306442  20865.1  21770  20848.1  20419.7
  6120.675  6120.690  0.500  1013.68  83.0952  2.215697  0.307747  20877  21982.2  20782  20590.8
  6124.575  6124.590  0.500  1011.38  82.4965  2.216674  0.308837  20644.7  21455.6  20966.1  20368.5
  6128.495  6128.510  0.500  1018.8  81.9501  2.216649  0.310517  20818.7  21556.8  20729.8  20385.5
  6132.428  6132.450  0.500  1013.86  81.4035  2.217540  0.311702  20241.1  21549.7  20522.6  20218.3
  6136.396  6136.410  0.500  1016.52  80.7944  2.216847  0.312642  20387.6  21305.5  20493.7  19942.2
  6140.370  6140.380  0.500  1023.31  80.1581  2.215198  0.313641  20319  21148.4  20340.5  20218.4
  6144.368  6144.380  0.500  1031.16  79.5085  2.211498  0.314041  20319  21148.4  20441.5  20077.1
  6148.378  6148.390  0.500  1027.25  78.8183  2.205810  0.314568  20068.4  21146.4  20150.3  19600.9
  6152.415  6152.430  0.500  1020.43  78.0486  2.193628  0.313906  19776.7  20655.9  19834.1  19376.7