File: xdidata/Pt/Pt-L1-TetraammineplatinumChloride.xdi
# XDI/1.0 BlueSky/1.10.0 BMM/2023-1.0-py310-tiled
# Beamline.name: BMM (06BM) -- Beamline for Materials Measurement (NIST)
# Beamline.xray_source: NSLS-II three-pole wiggler
# Beamline.collimation: paraboloid mirror, 5 nm Rh on 30 nm Pt
# Beamline.focusing: not in use
# Beamline.harmonic_rejection: flat mirror, Pt stripe, pitch = 7.0 mrad relative to beam
# Beamline.software: Bluesky 1.10.0, Ophyd 1.7.0, DataBroker 2.0.0b13, Python 3.10.8, 2023-1.0-py310-tiled
# Detector.I0: 10 cm N2
# Detector.I1: 25 cm N2
# Detector.I2: 25 cm N2
# Element.symbol: Pt
# Element.edge: L1
# Element.reference: Pt
# Element.reference_material: Pt foil
# Facility.name: NSLS-II
# Facility.energy: 3.0
# Facility.current: 399.7
# Facility.mode: top-off
# Facility.GUP: 301027
# Facility.SAF: 310583
# Facility.cycle: 2023-2
# Mono.name: Si(111)
# Mono.d_spacing: 3.13519
# Mono.encoder_resolution: 0.0000050 deg/ct
# Mono.angle_offset: 16.0754 deg
# Mono.scan_mode: pseudo channel cut
# Mono.scan_type: step
# Mono.direction: forward in energy
# Sample.name: Pt(NH3)4Cl2.xH2O
# Sample.prep: powder on tape
# Sample.x: 119.711 mm
# Sample.y: 114.376 mm
# Sample.SDD_position: 205.000 mm
# Scan.experimenters: Bruce Ravel
# Scan.edge_energy: 13880.5
# Scan.start_time: 2023-06-27T19:35:29
# Scan.end_time: 2023-06-27T19:43:24
# Scan.transient_id: 85266
# Scan.uid: c1ef86cb-d3c3-4668-b9ef-ec6bba6c039c
# Scan.plot_hint: ln(I0/It)  --  ln($5/$6)
# Column.1: energy eV
# Column.2: requested_energy eV
# Column.3: measurement_time seconds
# Column.4: xmu
# Column.5: I0 nA
# Column.6: It nA
# Column.7: Ir nA
# ///////////
# sample courtesy Simon Bare and Shelly Kelly
# -----------
# energy  requested_energy  measurement_time  xmu  I0  It  Ir
  13680.436  13680.500  0.500  0.498839  38.7809  23.5491  5.410824
  13690.512  13690.500  0.500  0.497070  38.7331  23.5618  5.416628
  13700.547  13700.500  0.500  0.495390  38.676  23.5666  5.428364
  13710.555  13710.500  0.500  0.493695  38.5993  23.5597  5.445618
  13720.562  13720.500  0.500  0.491922  38.5192  23.5526  5.479918
  13730.591  13730.500  0.500  0.490256  38.4517  23.5505  5.511435
  13740.578  13740.500  0.500  0.488477  38.3551  23.5331  5.518318
  13750.571  13750.500  0.500  0.486592  38.2771  23.5296  5.517694
  13760.571  13760.500  0.500  0.484695  38.2006  23.5272  5.519294
  13770.577  13770.500  0.500  0.482670  38.0976  23.5113  5.521330
  13780.614  13780.500  0.500  0.480768  38.0305  23.5146  5.531003
  13790.467  13790.500  0.500  0.478810  37.9515  23.5117  5.539185
  13800.476  13800.500  0.500  0.477043  37.8546  23.4931  5.552293
  13810.499  13810.500  0.500  0.475115  37.7788  23.4914  5.571687
  13820.528  13820.500  0.500  0.473540  37.7043  23.482  5.586708
  13830.522  13830.500  0.500  0.472396  37.5787  23.4306  5.590318
  13840.514  13840.500  0.500  0.471362  37.5185  23.4172  5.600371
  13850.546  13850.500  0.500  0.470722  37.4271  23.3751  5.591864
  13852.457  13852.500  0.500  0.470680  37.3918  23.3541  5.586863
  13854.452  13854.500  0.500  0.470654  37.3712  23.3418  5.582645
  13856.465  13856.500  0.500  0.470688  37.3376  23.32  5.575450
  13858.470  13858.500  0.500  0.470883  37.3361  23.3145  5.571974
  13860.483  13860.500  0.500  0.471043  37.3308  23.3075  5.566713
  13862.456  13862.500  0.500  0.471367  37.3173  23.2916  5.560084
  13864.446  13864.500  0.500  0.471568  37.2915  23.2708  5.549552
  13866.461  13866.500  0.500  0.472022  37.2816  23.254  5.540746
  13868.477  13868.500  0.500  0.472676  37.2507  23.2195  5.523667
  13870.469  13870.500  0.500  0.473686  37.2266  23.1811  5.503262
  13870.746  13870.800  0.500  0.473760  37.2219  23.1765  5.501273
  13871.032  13871.100  0.500  0.473895  37.2267  23.1763  5.498474
  13871.326  13871.400  0.500  0.474132  37.2272  23.1711  5.497352
  13871.637  13871.700  0.500  0.474341  37.2122  23.157  5.491230
  13871.931  13872.000  0.500  0.474471  37.2022  23.1477  5.485983
  13872.242  13872.300  0.500  0.474669  37.1954  23.1389  5.481616
  13872.536  13872.600  0.500  0.474809  37.2933  23.1966  5.493019
  13872.831  13872.900  0.500  0.475092  37.2854  23.1851  5.488052
  13873.133  13873.200  0.500  0.475221  37.2718  23.1736  5.481522
  13873.444  13873.500  0.500  0.475601  37.2743  23.1664  5.477927
  13873.747  13873.800  0.500  0.475885  37.2572  23.1492  5.471498
  13874.058  13874.100  0.500  0.476190  37.2426  23.1331  5.464510
  13874.361  13874.400  0.500  0.476446  37.26  23.138  5.462262
  13874.655  13874.700  0.500  0.476604  37.2199  23.1094  5.450656
  13874.966  13875.000  0.500  0.477086  37.2402  23.1109  5.449010
  13875.278  13875.300  0.500  0.477391  37.2361  23.1013  5.441806
  13875.572  13875.600  0.500  0.477736  37.2344  23.0923  5.436717
  13875.892  13875.900  0.500  0.478116  37.23  23.0808  5.429425
  13876.169  13876.200  0.500  0.478497  37.2254  23.0691  5.421876
  13876.480  13876.500  0.500  0.478922  37.2202  23.0561  5.414266
  13876.792  13876.800  0.500  0.479493  37.214  23.0391  5.405550
  13877.086  13877.100  0.500  0.479884  37.2108  23.0281  5.398143
  13877.389  13877.400  0.500  0.480479  37.192  23.0028  5.385789
  13877.700  13877.700  0.500  0.481054  37.1906  22.9887  5.376136
  13877.969  13878.000  0.500  0.481690  37.2013  22.9807  5.367972
  13878.298  13878.300  0.500  0.482255  37.1725  22.9499  5.352479
  13878.584  13878.600  0.500  0.482995  37.171  22.932  5.342308
  13878.895  13878.900  0.500  0.483697  37.166  22.9129  5.329554
  13879.198  13879.200  0.500  0.484463  37.1555  22.8888  5.316401
  13879.476  13879.500  0.500  0.485325  37.1437  22.8619  5.302588
  13879.787  13879.800  0.500  0.486273  37.1441  22.8404  5.288673
  13880.098  13880.100  0.500  0.487191  37.1447  22.8199  5.273617
  13880.368  13880.400  0.500  0.487935  37.1248  22.7907  5.258399
  13880.687  13880.700  0.500  0.489107  37.1014  22.7496  5.237412
  13880.974  13881.000  0.500  0.490347  37.0963  22.7183  5.220887
  13881.277  13881.300  0.500  0.491401  37.082  22.6856  5.201836
  13881.588  13881.600  0.500  0.492732  37.0656  22.6454  5.178937
  13881.857  13881.900  0.500  0.494014  37.055  22.6099  5.160658
  13882.177  13882.200  0.500  0.495717  37.0576  22.573  5.139472
  13882.472  13882.500  0.500  0.497095  37.0507  22.5377  5.118074
  13882.775  13882.800  0.500  0.498718  37.0533  22.5028  5.096816
  13883.078  13883.100  0.500  0.500503  37.0479  22.4594  5.075387
  13883.381  13883.400  0.500  0.502324  37.0452  22.4169  5.052501
  13883.693  13883.700  0.500  0.504406  37.0512  22.3739  5.029303
  13883.996  13884.000  0.500  0.506270  37.0336  22.3217  5.003987
  13884.308  13884.300  0.500  0.508442  37.0583  22.288  4.982262
  13884.594  13884.600  0.500  0.510365  37.0204  22.2225  4.954360
  13884.897  13884.900  0.500  0.512585  37.0164  22.1708  4.929909
  13885.200  13885.200  0.500  0.514553  37.0334  22.1374  4.908394
  13885.495  13885.500  0.500  0.516837  36.9827  22.0566  4.876957
  13885.807  13885.800  0.500  0.518998  36.9873  22.0118  4.853798
  13886.110  13886.100  0.500  0.520882  36.9837  21.9682  4.832489
  13886.405  13886.400  0.500  0.523035  36.9696  21.9126  4.806243
  13886.708  13886.700  0.500  0.525019  36.9785  21.8744  4.785466
  13887.020  13887.000  0.500  0.526673  36.9561  21.825  4.759938
  13887.289  13887.300  0.500  0.528380  36.9641  21.7925  4.742695
  13887.601  13887.600  0.500  0.530169  36.9549  21.7482  4.719441
  13887.896  13887.900  0.500  0.531645  36.9262  21.6992  4.695563
  13888.191  13888.200  0.500  0.533229  36.9102  21.6555  4.671573
  13888.486  13888.500  0.500  0.534685  36.9124  21.6253  4.652514
  13888.781  13888.800  0.500  0.536131  36.9063  21.5905  4.631414
  13889.076  13889.100  0.500  0.537586  36.8968  21.5535  4.611798
  13889.379  13889.400  0.500  0.538949  36.8967  21.5241  4.590757
  13889.682  13889.700  0.500  0.540624  36.9071  21.4941  4.570022
  13889.977  13890.000  0.500  0.542190  36.8784  21.4438  4.545052
  13890.298  13890.300  0.500  0.543804  36.8854  21.4133  4.522985
  13890.593  13890.600  0.500  0.545542  36.8574  21.3599  4.497375
  13890.905  13890.900  0.500  0.547209  36.8472  21.3184  4.473772
  13891.183  13891.200  0.500  0.548845  36.8561  21.2887  4.454020
  13891.511  13891.500  0.500  0.550792  36.8363  21.2359  4.424432
  13891.798  13891.800  0.500  0.552505  36.8211  21.1908  4.401173
  13892.118  13892.100  0.500  0.554495  36.8183  21.147  4.376449
  13892.405  13892.400  0.500  0.556585  36.811  21.0987  4.351747
  13892.709  13892.700  0.500  0.558531  36.813  21.0588  4.329106
  13892.995  13893.000  0.500  0.560379  36.7943  21.0093  4.305489
  13893.324  13893.300  0.500  0.562475  36.78  20.9571  4.280413
  13893.602  13893.600  0.500  0.564474  36.7715  20.9105  4.257698
  13893.898  13893.900  0.500  0.566402  36.7569  20.8619  4.234733
  13894.201  13894.200  0.500  0.568431  36.7547  20.8184  4.213485
  13894.513  13894.500  0.500  0.570353  36.749  20.7751  4.192728
  13894.800  13894.800  0.500  0.572240  36.746  20.7343  4.174627
  13895.095  13895.100  0.500  0.573949  36.7486  20.7004  4.158320
  13895.399  13895.400  0.500  0.575624  36.7419  20.662  4.142023
  13895.677  13895.700  0.500  0.577198  36.7274  20.6213  4.125359
  13896.006  13896.000  0.500  0.578851  36.7126  20.579  4.109949
  13896.276  13896.300  0.500  0.580183  36.7019  20.5456  4.095579
  13896.605  13896.600  0.500  0.581579  36.7135  20.5234  4.086434
  13896.875  13896.900  0.500  0.582705  36.708  20.4972  4.075891
  13897.187  13897.200  0.500  0.583801  36.6677  20.4523  4.062267
  13897.499  13897.500  0.500  0.584769  36.7038  20.4526  4.058670
  13897.795  13897.800  0.500  0.585788  36.6805  20.4188  4.050385
  13898.098  13898.100  0.500  0.586646  36.6875  20.4052  4.045217
  13898.385  13898.400  0.500  0.587362  36.6932  20.3938  4.040698
  13898.714  13898.700  0.500  0.588020  36.6839  20.3752  4.036145
  13899.001  13899.000  0.500  0.588484  36.6933  20.3709  4.035490
  13899.314  13899.300  0.500  0.589066  36.7025  20.3642  4.033713
  13899.592  13899.600  0.500  0.589424  36.6866  20.3481  4.031056
  13899.921  13899.900  0.500  0.589984  36.6957  20.3418  4.030424
  13900.208  13900.200  0.500  0.590497  36.6911  20.3288  4.030356
  13900.521  13900.500  0.500  0.590755  36.6913  20.3236  4.030321
  13900.816  13900.800  0.500  0.591331  36.6936  20.3132  4.030972
  13901.112  13901.100  0.500  0.591620  36.6891  20.3049  4.031988
  13901.415  13901.400  0.500  0.592077  36.6835  20.2925  4.033196
  13901.711  13901.700  0.500  0.592594  36.6826  20.2815  4.034191
  13902.006  13902.000  0.500  0.592899  36.7036  20.2869  4.038571
  13902.302  13902.300  0.500  0.593248  36.6758  20.2645  4.037573
  13902.597  13902.600  0.500  0.593638  36.6622  20.2491  4.037820
  13902.901  13902.900  0.500  0.594150  36.6596  20.2373  4.041623
  13903.189  13903.200  0.500  0.594295  36.6554  20.232  4.043701
  13903.493  13903.500  0.500  0.594778  36.6667  20.2285  4.047123
  13903.788  13903.800  0.500  0.595112  36.6328  20.203  4.048485
  13904.067  13904.100  0.500  0.595333  36.6318  20.198  4.051421
  13904.388  13904.400  0.500  0.595564  36.6278  20.1911  4.055862
  13904.675  13904.700  0.500  0.595860  36.6273  20.1849  4.060255
  13905.004  13905.000  0.500  0.595904  36.6511  20.1971  4.067374
  13905.292  13905.300  0.500  0.596092  36.6654  20.2012  4.072627
  13905.486  13905.500  0.500  0.596175  36.6605  20.1968  4.075828
  13906.516  13906.490  0.500  0.596307  36.6711  20.2  4.089804
  13907.530  13907.490  0.500  0.595972  36.6663  20.2041  4.104363
  13908.536  13908.510  0.500  0.595299  36.6363  20.2012  4.112885
  13909.601  13909.560  0.500  0.594242  36.6176  20.2122  4.121480
  13910.640  13910.620  0.500  0.593368  36.6035  20.2221  4.126348
  13911.706  13911.700  0.500  0.592329  36.5999  20.2411  4.128944
  13912.796  13912.800  0.500  0.591358  36.6152  20.2692  4.131978
  13913.938  13913.920  0.500  0.590118  36.6092  20.2911  4.130252
  13915.080  13915.060  0.500  0.588476  36.6164  20.3285  4.129905
  13916.256  13916.210  0.500  0.586608  36.5814  20.347  4.122057
  13917.424  13917.390  0.500  0.584325  36.5802  20.3928  4.118970
  13918.600  13918.580  0.500  0.581895  36.5537  20.4276  4.113412
  13919.810  13919.800  0.500  0.579295  36.5267  20.4657  4.106562
  13921.029  13921.030  0.500  0.576964  36.5184  20.5088  4.102467
  13922.291  13922.280  0.500  0.574990  36.5133  20.5464  4.102915
  13923.553  13923.550  0.500  0.573239  36.5173  20.5847  4.104303
  13924.865  13924.840  0.500  0.571712  36.5149  20.6148  4.107973
  13926.162  13926.150  0.500  0.570637  36.4914  20.6236  4.115535
  13927.509  13927.480  0.500  0.569928  36.4977  20.6419  4.129800
  13928.823  13928.830  0.500  0.569406  36.4698  20.6369  4.145207
  13930.204  13930.200  0.500  0.569038  36.4726  20.646  4.164446
  13931.595  13931.580  0.500  0.569026  36.4681  20.6438  4.182020
  13933.019  13932.990  0.500  0.568743  36.4668  20.6488  4.198946
  13934.436  13934.410  0.500  0.569056  36.4645  20.6411  4.209003
  13935.887  13935.850  0.500  0.569171  36.463  20.6379  4.215438
  13937.321  13937.310  0.500  0.569618  36.4268  20.6082  4.213656
  13938.806  13938.790  0.500  0.570081  36.43  20.6004  4.213170
  13940.291  13940.290  0.500  0.570588  36.4391  20.5951  4.213981
  13941.820  13941.810  0.500  0.571084  36.4286  20.579  4.210307
  13943.357  13943.350  0.500  0.571340  36.3973  20.556  4.208074
  13944.937  13944.910  0.500  0.571642  36.3835  20.542  4.205770
  13946.475  13946.480  0.500  0.571939  36.3566  20.5207  4.203480
  13948.081  13948.080  0.500  0.571723  36.3466  20.5196  4.203112
  13949.688  13949.690  0.500  0.571935  36.3313  20.5066  4.200112
  13951.346  13951.330  0.500  0.571964  36.3127  20.4954  4.197087
  13952.996  13952.980  0.500  0.572197  36.3287  20.4997  4.198529
  13954.671  13954.650  0.500  0.572523  36.2902  20.4713  4.191755
  13956.331  13956.340  0.500  0.572857  36.2707  20.4535  4.187611
  13958.050  13958.050  0.500  0.573292  36.2593  20.4381  4.182483
  13959.778  13959.780  0.500  0.573815  36.2698  20.4334  4.176967
  13961.549  13961.530  0.500  0.574379  36.2148  20.3909  4.166269
  13963.304  13963.290  0.500  0.574664  36.1888  20.3705  4.157550
  13965.093  13965.080  0.500  0.574970  36.1806  20.3596  4.154047
  13966.857  13966.880  0.500  0.574869  36.1591  20.3496  4.150188
  13968.681  13968.710  0.500  0.574788  36.1129  20.3252  4.146338
  13970.539  13970.550  0.500  0.574198  36.0147  20.2819  4.141770
  13972.381  13972.410  0.500  0.573287  35.3585  19.9305  4.075889
  13974.233  13974.290  0.500  0.572051  33.6009  18.9632  3.885163
  13976.152  13976.190  0.500  0.571806  35.3282  19.943  4.093800
  13978.090  13978.110  0.500  0.570176  36.0721  20.3961  4.193279
  13980.028  13980.050  0.500  0.568810  36.1115  20.4463  4.211127
  13981.975  13982.010  0.500  0.567644  36.0916  20.4589  4.219648
  13983.931  13983.980  0.500  0.566496  36.0924  20.4828  4.227900
  13985.948  13985.980  0.500  0.565307  36.0672  20.4929  4.232713
  13987.965  13987.990  0.500  0.564479  36.0472  20.4985  4.235323
  13990.009  13990.020  0.500  0.563473  36.042  20.5162  4.239230
  13992.455  13992.080  0.500  0.562646  36.0296  20.5261  4.241278
  13994.063  13994.150  0.500  0.562235  36.0061  20.5211  4.241643
  13996.519  13996.240  0.500  0.561524  36.0899  20.5835  4.254625
  13998.325  13998.350  0.500  0.560818  36.076  20.5901  4.255901
  14000.500  14000.480  0.500  0.560307  36.0467  20.5839  4.259684
  14002.590  14002.620  0.500  0.559766  36.042  20.5923  4.264864
  14004.784  14004.790  0.500  0.559296  36.0229  20.5911  4.268942
  14006.987  14006.980  0.500  0.558816  36.0017  20.5889  4.274669
  14009.190  14009.180  0.500  0.558288  35.9888  20.5924  4.277702
  14011.386  14011.400  0.500  0.557841  35.9558  20.5827  4.279175
  14013.642  14013.650  0.500  0.557382  35.9451  20.586  4.282101
  14015.890  14015.910  0.500  0.556959  35.9314  20.5869  4.280728
  14018.191  14018.190  0.500  0.556596  35.9284  20.5926  4.281219
  14020.484  14020.490  0.500  0.556075  35.8819  20.5767  4.275240
  14022.838  14022.810  0.500  0.555935  35.8712  20.5734  4.269753
  14025.166  14025.150  0.500  0.555674  35.846  20.5643  4.264007
  14027.522  14027.500  0.500  0.555442  35.8189  20.5535  4.259363
  14029.878  14029.880  0.500  0.555225  35.8128  20.5545  4.259423
  14032.269  14032.270  0.500  0.554939  35.7905  20.5476  4.258094
  14034.679  14034.690  0.500  0.555081  35.7769  20.5369  4.260315
  14037.115  14037.120  0.500  0.554855  35.7505  20.5264  4.263505
  14039.586  14039.570  0.500  0.554628  35.7221  20.5147  4.265357
  14042.075  14042.050  0.500  0.554458  35.7192  20.5165  4.273806
  14044.540  14044.540  0.500  0.554319  35.6742  20.4935  4.275469
  14047.048  14047.050  0.500  0.554058  35.6603  20.4909  4.281884
  14049.549  14049.570  0.500  0.553672  35.6435  20.4891  4.289071
  14052.103  14052.120  0.500  0.553140  35.6155  20.484  4.295125
  14054.700  14054.690  0.500  0.552666  35.5971  20.4831  4.302635
  14057.281  14057.270  0.500  0.552124  35.5696  20.4783  4.306934
  14059.881  14059.880  0.500  0.551602  35.5362  20.4698  4.310227
  14062.499  14062.500  0.500  0.550891  35.4992  20.463  4.312368
  14065.143  14065.150  0.500  0.550312  35.468  20.4569  4.314172
  14067.806  14067.810  0.500  0.549610  35.4021  20.4332  4.315496
  14070.488  14070.490  0.500  0.548924  35.2356  20.3511  4.304559
  14073.204  14073.190  0.500  0.548392  33.8634  19.5689  4.148915
  14075.922  14075.910  0.500  0.547890  34.2224  19.7863  4.201701
  14078.659  14078.650  0.500  0.546968  35.5252  20.5585  4.372294
  14081.370  14081.400  0.500  0.546206  35.4954  20.5569  4.376021
  14084.169  14084.180  0.500  0.545547  35.3427  20.4819  4.360659
  14086.970  14086.970  0.500  0.544728  35.4389  20.5546  4.373189
  14089.814  14089.790  0.500  0.544006  35.4  20.5468  4.368901
  14092.652  14092.620  0.500  0.543284  35.3668  20.5424  4.364287
  14095.464  14095.470  0.500  0.542664  35.3658  20.5545  4.366836
  14098.330  14098.350  0.500  0.541877  35.3106  20.5386  4.362858
  14101.249  14101.240  0.500  0.541181  35.2613  20.5242  4.360515
  14104.160  14104.150  0.500  0.540424  35.2361  20.5251  4.362093
  14107.090  14107.070  0.500  0.539714  35.1718  20.5022  4.358544
  14110.030  14110.020  0.500  0.539002  35.0695  20.4571  4.348864
  14112.989  14112.990  0.500  0.538173  35.1273  20.5078  4.361624
  14115.958  14115.970  0.500  0.537504  35.0428  20.4722  4.357814
  14118.988  14118.980  0.500  0.536671  34.5453  20.1983  4.303130
  14122.012  14122.000  0.500  0.536666  33.2032  19.4137  4.142522
  14125.045  14125.050  0.500  0.535633  35.1854  20.594  4.401492
  14128.115  14128.110  0.500  0.534962  35.1298  20.5753  4.404665
  14131.177  14131.190  0.500  0.534454  35.0483  20.5379  4.405593
  14134.311  14134.290  0.500  0.534046  35.0456  20.5447  4.416422
  14137.428  14137.410  0.500  0.533398  35.0212  20.5437  4.423018
  14140.573  14140.550  0.500  0.532888  35.0208  20.554  4.431414
  14143.693  14143.700  0.500  0.532442  34.9891  20.5445  4.435223
  14146.885  14146.880  0.500  0.531727  34.9527  20.5378  4.437380
  14150.087  14150.070  0.500  0.531339  34.9281  20.5313  4.441375
  14153.281  14153.290  0.500  0.530706  34.8857  20.5194  4.441765
  14156.521  14156.520  0.500  0.530063  34.8262  20.4976  4.438084
  14159.789  14159.770  0.500  0.529573  34.7045  20.436  4.423892
  14163.084  14163.050  0.500  0.528932  34.6486  20.4161  4.418690
  14166.346  14166.340  0.500  0.528182  33.3426  19.6614  4.254340
  14169.644  14169.650  0.500  0.527761  34.0889  20.1099  4.350986
  14172.988  14172.970  0.500  0.526698  34.8348  20.5718  4.455048
  14176.334  14176.320  0.500  0.526049  34.8019  20.5657  4.458089
  14179.689  14179.690  0.500  0.525332  34.7893  20.5729  4.465498
  14183.082  14183.070  0.500  0.524577  34.7549  20.5681  4.467837
  14186.511  14186.480  0.500  0.523933  34.7096  20.5546  4.469488
  14189.925  14189.900  0.500  0.523056  34.6758  20.5526  4.471024
  14193.340  14193.350  0.500  0.522422  34.6451  20.5474  4.473334
  14196.828  14196.810  0.500  0.521446  34.6188  20.5518  4.476993
  14200.308  14200.290  0.500  0.520709  34.5874  20.5483  4.482414
  14203.798  14203.790  0.500  0.520076  34.5605  20.5454  4.488940
  14207.300  14207.310  0.500  0.519120  34.5335  20.5489  4.497657
  14210.873  14210.850  0.500  0.518528  34.5054  20.5444  4.510508
  14214.422  14214.400  0.500  0.517537  34.474  20.546  4.519540
  14217.973  14217.980  0.500  0.516663  34.4461  20.5474  4.529858
  14221.588  14221.580  0.500  0.515873  34.431  20.5546  4.540943
  14225.213  14225.190  0.500  0.515289  34.3866  20.5401  4.546620
  14228.831  14228.820  0.500  0.514560  34.3751  20.5482  4.552983
  14232.478  14232.480  0.500  0.513550  34.3337  20.5442  4.554546
  14236.162  14236.150  0.500  0.512895  34.3269  20.5536  4.557451
  14239.856  14239.840  0.500  0.512087  34.2688  20.5353  4.551871
  14243.571  14243.550  0.500  0.511406  34.2352  20.5292  4.551400
  14247.296  14247.280  0.500  0.510503  34.2095  20.5323  4.550715
  14251.050  14251.020  0.500  0.509918  34.1718  20.5217  4.550826
  14254.823  14254.790  0.500  0.509181  34.1457  20.5211  4.553688
  14258.599  14258.580  0.500  0.508539  34.1024  20.5083  4.556298
  14262.403  14262.380  0.500  0.507658  34.0665  20.5048  4.560659
  14266.245  14266.210  0.500  0.507099  34.0009  20.4767  4.560283
  14270.080  14270.050  0.500  0.506150  33.2351  20.0345  4.465505
  14273.908  14273.910  0.500  0.506194  33.347  20.1011  4.482626
  14277.810  14277.790  0.500  0.505020  34.019  20.5303  4.580592
  14281.714  14281.690  0.500  0.504101  33.9782  20.5245  4.582978
  14285.629  14285.610  0.500  0.503392  33.9418  20.5171  4.583237
  14289.573  14289.550  0.500  0.502722  33.9177  20.5162  4.588337
  14293.536  14293.510  0.500  0.501970  33.8976  20.5195  4.595979
  14297.494  14297.480  0.500  0.501036  33.8396  20.5035  4.598086
  14301.507  14301.480  0.500  0.500434  33.814  20.5003  4.604433
  14305.513  14305.490  0.500  0.499594  33.7973  20.5074  4.612030
  14309.557  14309.530  0.500  0.498629  33.7498  20.4984  4.616458
  14313.604  14313.580  0.500  0.497993  33.7373  20.5038  4.627055
  14317.662  14317.650  0.500  0.497204  33.7077  20.502  4.634277
  14321.785  14321.740  0.500  0.496328  33.6652  20.4941  4.640531
  14325.848  14325.850  0.500  0.495656  33.6407  20.493  4.647081
  14330.020  14329.980  0.500  0.494700  33.6154  20.4971  4.653661
  14334.160  14334.130  0.500  0.493904  33.5897  20.4977  4.657189
  14338.301  14338.290  0.500  0.493004  33.5445  20.4886  4.657494
  14342.499  14342.480  0.500  0.492055  33.5189  20.4924  4.661018
  14346.718  14346.680  0.500  0.491276  33.4944  20.4934  4.663346
  14350.939  14350.910  0.500  0.490469  33.4722  20.4963  4.668431
  14355.171  14355.150  0.500  0.489446  33.4285  20.4905  4.671057
  14359.434  14359.410  0.500  0.488635  33.3069  20.4326  4.663092
  14363.716  14363.690  0.500  0.487634  33.3784  20.4969  4.683333
  14368.001  14367.990  0.500  0.486780  33.2824  20.4554  4.678145
  14372.334  14372.310  0.500  0.485842  33.3047  20.4883  4.691778
  14376.679  14376.650  0.500  0.485075  33.2175  20.4504  4.689161
  14381.017  14381.010  0.500  0.484141  33.2412  20.4841  4.702453
  14385.422  14385.390  0.500  0.483245  33.1676  20.4571  4.702456
  14389.802  14389.780  0.500  0.482287  33.1715  20.4791  4.713916
  14394.211  14394.200  0.500  0.481545  33.1501  20.4811  4.721456
  14398.669  14398.630  0.500  0.480614  33.1174  20.4799  4.728564
  14403.093  14403.080  0.500  0.479758  33.078  20.4731  4.733743
  14407.584  14407.550  0.500  0.478815  33.0367  20.4668  4.738425
  14412.086  14412.040  0.500  0.477842  32.8558  20.3746  4.725116
  14416.582  14416.550  0.500  0.477204  32.983  20.4665  4.752446
  14421.118  14421.080  0.500  0.476175  32.933  20.4565  4.754767
  14425.665  14425.630  0.500  0.475494  32.9096  20.4559  4.760586
  14430.215  14430.200  0.500  0.474552  32.883  20.4586  4.766579
  14434.796  14434.780  0.500  0.473771  32.729  20.3787  4.752978
  14439.425  14439.390  0.500  0.472797  32.8343  20.4642  4.776691
  14444.002  14444.010  0.500  0.472031  32.771  20.4404  4.776237
  14448.701  14448.660  0.500  0.471058  32.7595  20.4531  4.781238
  14453.339  14453.320  0.500  0.470223  32.7367  20.4559  4.786089
  14458.016  14458.000  0.500  0.469488  32.6916  20.4428  4.787517
  14462.724  14462.700  0.500  0.468567  32.6581  20.4407  4.792398
  14467.445  14467.420  0.500  0.467483  32.6229  20.4408  4.796388
  14472.168  14472.160  0.500  0.466697  32.5884  20.4352  4.798632
  14476.950  14476.910  0.500  0.465889  32.5635  20.4361  4.804457
  14481.698  14481.690  0.500  0.464853  32.4836  20.4071  4.803304
  14486.541  14486.490  0.500  0.463998  32.4905  20.4289  4.815466
  14491.332  14491.300  0.500  0.463058  32.4633  20.431  4.821999
  14496.181  14496.130  0.500  0.462051  32.4221  20.4256  4.828244
  14501.043  14500.990  0.500  0.461079  32.3889  20.4245  4.835161
  14505.899  14505.860  0.500  0.460254  32.3466  20.4147  4.839698
  14510.777  14510.750  0.500  0.459138  32.3228  20.4225  4.849314
  14515.713  14515.660  0.500  0.458249  32.2756  20.4108  4.855780
  14520.607  14520.590  0.500  0.457510  32.256  20.4134  4.864823
  14525.559  14525.530  0.500  0.456368  32.2286  20.4194  4.874335
  14530.542  14530.500  0.500  0.455471  32.1828  20.4087  4.877748
  14535.501  14535.490  0.500  0.454578  32.1451  20.403  4.883995
  14540.538  14540.490  0.500  0.453404  32.115  20.4078  4.890591
  14545.541  14545.520  0.500  0.452539  32.0944  20.4124  4.897848
  14550.594  14550.560  0.500  0.451613  32.0081  20.3764  4.894759
  14555.659  14555.620  0.500  0.450467  32.0159  20.4047  4.907013
  14560.710  14560.700  0.500  0.449717  31.975  20.3939  4.911893
  14565.829  14565.800  0.500  0.448550  31.9357  20.3926  4.916627
  14570.961  14570.920  0.500  0.447721  31.9009  20.3873  4.922709
  14576.087  14576.060  0.500  0.446827  31.8594  20.379  4.925581
  14581.264  14581.220  0.500  0.445662  31.8378  20.3889  4.932489
  14586.444  14586.400  0.500  0.444706  31.7939  20.3803  4.934211
  14591.628  14591.590  0.500  0.443730  31.7562  20.376  4.938137
  14596.880  14596.810  0.500  0.442735  31.7131  20.3686  4.939677
  14602.081  14602.040  0.500  0.441900  31.6774  20.3627  4.941558
  14607.351  14607.290  0.500  0.440761  31.6476  20.3667  4.948549
  14612.606  14612.560  0.500  0.439867  31.6042  20.3569  4.954224
  14617.893  14617.850  0.500  0.438956  31.5555  20.3441  4.956894
  14623.211  14623.160  0.500  0.437964  31.537  20.3524  4.967370
  14628.515  14628.490  0.500  0.436970  31.5112  20.3559  4.976213
  14633.879  14633.840  0.500  0.435913  31.5602  20.4092  4.995917
  14639.238  14639.210  0.500  0.434983  31.5193  20.4017  5.004181
  14644.610  14644.590  0.500  0.433918  31.4257  20.3628  5.002558
  14650.023  14650.000  0.500  0.433060  31.4435  20.3918  5.018538
  14655.450  14655.420  0.500  0.432112  31.4042  20.3856  5.024535
  14660.900  14660.870  0.500  0.430894  31.3261  20.3597  5.024681
  14666.382  14666.330  0.500  0.429978  31.2987  20.3605  5.030976
  14671.868  14671.810  0.500  0.428993  31.2958  20.3787  5.042945
  14677.339  14677.310  0.500  0.428077  31.2582  20.3729  5.048266
  14682.862  14682.830  0.500  0.427023  31.2126  20.3646  5.052398
  14688.399  14688.370  0.500  0.425945  31.1531  20.3478  5.055615
  14693.939  14693.920  0.500  0.424839  31.1389  20.3609  5.064285
  14699.541  14699.500  0.500  0.423921  31.1032  20.3563  5.070570
  14705.118  14705.100  0.500  0.422734  31.053  20.3476  5.075128
  14710.738  14710.710  0.500  0.421790  31.0335  20.354  5.082760
  14716.380  14716.350  0.500  0.420892  30.9941  20.3464  5.087492
  14722.037  14722.000  0.500  0.419799  30.9525  20.3413  5.092474
  14727.689  14727.670  0.500  0.418752  30.9136  20.3371  5.098569
  14733.383  14733.360  0.500  0.417640  30.875  20.3343  5.102832