File: xdidata/Pt/Pt-L1-PotassiumHexaChloroPlatinate.xdi
# XDI/1.0 BlueSky/1.10.0 BMM/2023-1.0-py310-tiled
# Beamline.name: BMM (06BM) -- Beamline for Materials Measurement (NIST)
# Beamline.xray_source: NSLS-II three-pole wiggler
# Beamline.collimation: paraboloid mirror, 5 nm Rh on 30 nm Pt
# Beamline.focusing: not in use
# Beamline.harmonic_rejection: flat mirror, Pt stripe, pitch = 7.0 mrad relative to beam
# Beamline.software: Bluesky 1.10.0, Ophyd 1.7.0, DataBroker 2.0.0b13, Python 3.10.8, 2023-1.0-py310-tiled
# Detector.I0: 10 cm N2
# Detector.I1: 25 cm N2
# Detector.I2: 25 cm N2
# Element.symbol: Pt
# Element.edge: L1
# Element.reference: Pt
# Element.reference_material: Pt foil
# Facility.name: NSLS-II
# Facility.energy: 3.0
# Facility.current: 400.4
# Facility.mode: top-off
# Facility.GUP: 301027
# Facility.SAF: 310583
# Facility.cycle: 2023-2
# Mono.name: Si(111)
# Mono.d_spacing: 3.13519
# Mono.encoder_resolution: 0.0000050 deg/ct
# Mono.angle_offset: 16.0754 deg
# Mono.scan_mode: pseudo channel cut
# Mono.scan_type: step
# Mono.direction: forward in energy
# Sample.name: K2PtCl6
# Sample.prep: powder on tape
# Sample.x: 119.711 mm
# Sample.y: 114.376 mm
# Sample.SDD_position: 205.000 mm
# Scan.experimenters: Bruce Ravel
# Scan.edge_energy: 13880.5
# Scan.start_time: 2023-06-27T19:27:06
# Scan.end_time: 2023-06-27T19:34:59
# Scan.transient_id: 85261
# Scan.uid: cd075b44-26c9-40e9-8b80-417f9fcfe55a
# Scan.plot_hint: ln(I0/It)  --  ln($5/$6)
# Column.1: energy eV
# Column.2: requested_energy eV
# Column.3: measurement_time seconds
# Column.4: xmu
# Column.5: I0 nA
# Column.6: It nA
# Column.7: Ir nA
# ///////////
# sample courtesy Simon Bare and Shelly Kelly
# -----------
# energy  requested_energy  measurement_time  xmu  I0  It  Ir
  13680.452  13680.500  0.500  0.558069  39.0651  22.3575  5.140692
  13690.537  13690.500  0.500  0.555074  39.0272  22.4028  5.153531
  13700.555  13700.500  0.500  0.551914  38.9626  22.4365  5.168980
  13710.580  13710.500  0.500  0.548826  38.88  22.4582  5.192960
  13720.586  13720.500  0.500  0.546172  38.7914  22.4665  5.230122
  13730.591  13730.500  0.500  0.543480  38.7082  22.4788  5.265326
  13740.545  13740.500  0.500  0.541114  38.6241  22.483  5.274271
  13750.547  13750.500  0.500  0.539430  38.5257  22.4636  5.271558
  13760.554  13760.500  0.500  0.538009  38.4647  22.4599  5.273065
  13770.577  13770.500  0.500  0.536577  38.3809  22.4431  5.272948
  13780.614  13780.500  0.500  0.535185  38.2874  22.4196  5.276016
  13790.492  13790.500  0.500  0.533452  38.1991  22.4067  5.282262
  13800.492  13800.500  0.500  0.531807  38.128  22.4018  5.296833
  13810.524  13810.500  0.500  0.529905  38.0427  22.3943  5.315633
  13820.528  13820.500  0.500  0.527525  37.9412  22.3877  5.330415
  13830.547  13830.500  0.500  0.525554  37.827  22.3643  5.339774
  13840.548  13840.500  0.500  0.523696  37.781  22.3787  5.354955
  13850.546  13850.500  0.500  0.521989  37.691  22.3636  5.354682
  13852.465  13852.500  0.500  0.521793  37.654  22.3459  5.350497
  13854.444  13854.500  0.500  0.521590  37.6232  22.3323  5.345349
  13856.465  13856.500  0.500  0.521414  37.5996  22.3221  5.340933
  13858.470  13858.500  0.500  0.521182  37.6065  22.3314  5.340455
  13860.483  13860.500  0.500  0.521150  37.5896  22.3221  5.334882
  13862.481  13862.500  0.500  0.521056  37.5572  22.305  5.326366
  13864.462  13864.500  0.500  0.521235  37.5428  22.2924  5.320439
  13866.461  13866.500  0.500  0.521320  37.5223  22.2784  5.310246
  13868.486  13868.500  0.500  0.521665  37.5005  22.2577  5.297467
  13870.494  13870.500  0.500  0.522026  37.4682  22.2305  5.281301
  13870.738  13870.800  0.500  0.522076  37.4672  22.2288  5.279135
  13871.040  13871.100  0.500  0.522236  37.4786  22.232  5.278612
  13871.343  13871.400  0.500  0.522328  37.4542  22.2155  5.272446
  13871.637  13871.700  0.500  0.522427  37.4471  22.2091  5.268576
  13871.940  13872.000  0.500  0.522348  37.4369  22.2048  5.265746
  13872.242  13872.300  0.500  0.522440  37.4289  22.198  5.261304
  13872.536  13872.600  0.500  0.522600  37.423  22.191  5.258306
  13872.839  13872.900  0.500  0.522781  37.4306  22.1915  5.255215
  13873.150  13873.200  0.500  0.522924  37.4281  22.1868  5.253833
  13873.436  13873.500  0.500  0.522921  37.4111  22.1768  5.246748
  13873.747  13873.800  0.500  0.523284  37.4242  22.1765  5.245468
  13874.067  13874.100  0.500  0.523242  37.3882  22.1561  5.236341
  13874.336  13874.400  0.500  0.523534  37.3884  22.1498  5.232730
  13874.647  13874.700  0.500  0.523649  37.386  22.1458  5.229571
  13874.975  13875.000  0.500  0.523744  37.3785  22.1392  5.222713
  13875.252  13875.300  0.500  0.523899  37.3819  22.1378  5.219398
  13875.564  13875.600  0.500  0.524077  37.3585  22.12  5.209973
  13875.883  13875.900  0.500  0.524442  37.3619  22.1139  5.205039
  13876.161  13876.200  0.500  0.524672  37.3753  22.1168  5.203069
  13876.472  13876.500  0.500  0.524767  37.3695  22.1113  5.195713
  13876.792  13876.800  0.500  0.525192  37.3704  22.1024  5.190238
  13877.069  13877.100  0.500  0.525312  37.3637  22.0958  5.182864
  13877.389  13877.400  0.500  0.525641  37.3555  22.0837  5.175162
  13877.683  13877.700  0.500  0.525977  37.3397  22.0669  5.164506
  13877.978  13878.000  0.500  0.526270  37.3348  22.0576  5.155314
  13878.289  13878.300  0.500  0.526663  37.3405  22.0523  5.149068
  13878.584  13878.600  0.500  0.526936  37.3291  22.0395  5.138307
  13878.895  13878.900  0.500  0.527351  37.3075  22.0176  5.126029
  13879.198  13879.200  0.500  0.527782  37.3023  22.0051  5.115099
  13879.492  13879.500  0.500  0.528152  37.3009  21.9961  5.104664
  13879.795  13879.800  0.500  0.528622  37.2814  21.9743  5.091658
  13880.090  13880.100  0.500  0.529168  37.2749  21.9585  5.079731
  13880.393  13880.400  0.500  0.529690  37.2736  21.9462  5.066731
  13880.704  13880.700  0.500  0.530193  37.2494  21.9209  5.050118
  13880.982  13881.000  0.500  0.530614  37.2343  21.9028  5.037176
  13881.285  13881.300  0.500  0.531320  37.2451  21.8937  5.023756
  13881.580  13881.600  0.500  0.531964  37.2225  21.8664  5.007400
  13881.874  13881.900  0.500  0.532694  37.1913  21.8321  4.987745
  13882.186  13882.200  0.500  0.533478  37.2068  21.8241  4.973446
  13882.464  13882.500  0.500  0.534162  37.199  21.8045  4.957553
  13882.784  13882.800  0.500  0.534936  37.1911  21.7831  4.938932
  13883.061  13883.100  0.500  0.535806  37.1893  21.7631  4.922859
  13883.390  13883.400  0.500  0.536714  37.1938  21.746  4.905084
  13883.684  13883.700  0.500  0.537675  37.1843  21.7196  4.886955
  13884.004  13884.000  0.500  0.538482  37.1961  21.7089  4.870512
  13884.291  13884.300  0.500  0.539407  37.1826  21.681  4.852221
  13884.594  13884.600  0.500  0.540413  37.1684  21.6509  4.831012
  13884.914  13884.900  0.500  0.541462  37.1573  21.6217  4.811563
  13885.200  13885.200  0.500  0.542514  37.1505  21.595  4.795056
  13885.512  13885.500  0.500  0.543662  37.1417  21.5652  4.774144
  13885.798  13885.800  0.500  0.544842  37.1406  21.5391  4.755014
  13886.118  13886.100  0.500  0.546097  37.1281  21.5048  4.734302
  13886.396  13886.400  0.500  0.547252  37.1175  21.4739  4.714585
  13886.708  13886.700  0.500  0.548892  37.1183  21.4391  4.695422
  13887.003  13887.000  0.500  0.550056  37.1066  21.4075  4.676520
  13887.298  13887.300  0.500  0.551712  37.0921  21.3637  4.652574
  13887.609  13887.600  0.500  0.553484  37.0818  21.32  4.630251
  13887.896  13887.900  0.500  0.554962  37.0756  21.2849  4.610841
  13888.199  13888.200  0.500  0.556898  37.0619  21.2359  4.587009
  13888.477  13888.500  0.500  0.558935  37.0566  21.1896  4.565130
  13888.798  13888.800  0.500  0.561194  37.0493  21.1376  4.538802
  13889.084  13889.100  0.500  0.563370  37.0291  21.0802  4.513676
  13889.387  13889.400  0.500  0.565883  37.0335  21.0298  4.490609
  13889.682  13889.700  0.500  0.568365  37.0298  20.9756  4.464327
  13889.977  13890.000  0.500  0.571121  37.0123  20.908  4.436983
  13890.289  13890.300  0.500  0.574282  37.0065  20.8387  4.407330
  13890.576  13890.600  0.500  0.576998  37.012  20.7852  4.382943
  13890.896  13890.900  0.500  0.580267  37.0144  20.7188  4.352925
  13891.183  13891.200  0.500  0.583360  36.9972  20.6452  4.324418
  13891.486  13891.500  0.500  0.586756  36.976  20.5634  4.292096
  13891.798  13891.800  0.500  0.590071  36.965  20.4892  4.260712
  13892.093  13892.100  0.500  0.593290  36.9723  20.4275  4.233909
  13892.405  13892.400  0.500  0.596550  36.944  20.3454  4.201990
  13892.692  13892.700  0.500  0.599400  36.9355  20.2828  4.174517
  13893.012  13893.000  0.500  0.602690  36.9468  20.2224  4.148474
  13893.307  13893.300  0.500  0.605390  36.919  20.1527  4.122270
  13893.611  13893.600  0.500  0.607907  36.9123  20.0984  4.097446
  13893.898  13893.900  0.500  0.610056  36.9018  20.0495  4.075011
  13894.210  13894.200  0.500  0.612177  36.8948  20.0032  4.054170
  13894.522  13894.500  0.500  0.614008  36.8856  19.9617  4.033769
  13894.800  13894.800  0.500  0.615509  36.894  19.9362  4.018646
  13895.120  13895.100  0.500  0.617023  36.8861  19.9018  4.002307
  13895.399  13895.400  0.500  0.617952  36.898  19.8898  3.990253
  13895.702  13895.700  0.500  0.618795  36.85  19.8471  3.974045
  13895.998  13896.000  0.500  0.619494  36.8522  19.8345  3.963783
  13896.293  13896.300  0.500  0.620045  36.8409  19.8175  3.954522
  13896.588  13896.600  0.500  0.620330  36.825  19.8033  3.946415
  13896.875  13896.900  0.500  0.620574  36.8246  19.7982  3.939918
  13897.187  13897.200  0.500  0.620731  36.8279  19.7969  3.936727
  13897.483  13897.500  0.500  0.620844  36.8301  19.7958  3.933194
  13897.786  13897.800  0.500  0.620653  36.8159  19.792  3.928854
  13898.090  13898.100  0.500  0.620488  36.8357  19.8059  3.929744
  13898.377  13898.400  0.500  0.620261  36.8224  19.8032  3.926752
  13898.698  13898.700  0.500  0.620161  36.8296  19.8091  3.927719
  13898.985  13899.000  0.500  0.620019  36.8355  19.8151  3.928241
  13899.297  13899.300  0.500  0.619821  36.8349  19.8187  3.929178
  13899.575  13899.600  0.500  0.619633  36.8338  19.8218  3.930271
  13899.896  13899.900  0.500  0.619412  36.8338  19.8262  3.931683
  13900.208  13900.200  0.500  0.619379  36.8371  19.8286  3.934138
  13900.495  13900.500  0.500  0.619350  36.8328  19.8269  3.935050
  13900.808  13900.800  0.500  0.619288  36.9466  19.8894  3.950609
  13901.112  13901.100  0.500  0.619256  36.9404  19.8867  3.951426
  13901.415  13901.400  0.500  0.619332  36.9491  19.8898  3.954319
  13901.702  13901.700  0.500  0.619437  36.9484  19.8874  3.957246
  13902.006  13902.000  0.500  0.619648  36.9397  19.8785  3.957455
  13902.302  13902.300  0.500  0.619800  36.9334  19.8721  3.962147
  13902.597  13902.600  0.500  0.619969  36.9213  19.8622  3.964073
  13902.918  13902.900  0.500  0.620087  36.9185  19.8584  3.967642
  13903.197  13903.200  0.500  0.620366  36.9178  19.8525  3.971040
  13903.509  13903.500  0.500  0.620669  36.8886  19.8308  3.971225
  13903.805  13903.800  0.500  0.620774  36.9117  19.8411  3.977808
  13904.092  13904.100  0.500  0.621175  36.899  19.8263  3.980046
  13904.405  13904.400  0.500  0.621489  36.8901  19.8153  3.983899
  13904.683  13904.700  0.500  0.621768  36.8898  19.8096  3.986865
  13904.987  13905.000  0.500  0.621717  36.9048  19.8187  3.992657
  13905.283  13905.300  0.500  0.622121  36.9154  19.8164  3.997480
  13905.460  13905.500  0.500  0.622225  36.9169  19.8151  3.999752
  13906.500  13906.490  0.500  0.622997  36.9332  19.8086  4.013707
  13907.513  13907.490  0.500  0.623184  36.9291  19.8026  4.024374
  13908.519  13908.510  0.500  0.623099  36.9178  19.7983  4.033343
  13909.592  13909.560  0.500  0.622807  36.881  19.7843  4.036242
  13910.624  13910.620  0.500  0.622563  36.8523  19.7738  4.037564
  13911.723  13911.700  0.500  0.622259  36.8675  19.7879  4.040232
  13912.805  13912.800  0.500  0.622207  36.8715  19.7911  4.038061
  13913.904  13913.920  0.500  0.622503  36.8804  19.79  4.032889
  13915.063  13915.060  0.500  0.622787  36.8551  19.7708  4.020216
  13916.231  13916.210  0.500  0.623137  36.8468  19.7594  4.008385
  13917.415  13917.390  0.500  0.623159  36.8299  19.75  3.992868
  13918.608  13918.580  0.500  0.622789  36.7941  19.738  3.977262
  13919.793  13919.800  0.500  0.622303  36.7822  19.7412  3.966118
  13921.046  13921.030  0.500  0.620865  36.7829  19.77  3.958972
  13922.265  13922.280  0.500  0.619323  36.7711  19.7942  3.954914
  13923.570  13923.550  0.500  0.617468  36.7856  19.8388  3.958209
  13924.849  13924.840  0.500  0.615314  36.7561  19.8656  3.962529
  13926.179  13926.150  0.500  0.612762  36.7452  19.9105  3.975946
  13927.500  13927.480  0.500  0.610018  36.7367  19.9606  3.996636
  13928.840  13928.830  0.500  0.607609  36.7298  20.005  4.019919
  13930.204  13930.200  0.500  0.605614  36.7243  20.0419  4.045241
  13931.586  13931.580  0.500  0.603981  36.7272  20.0762  4.068495
  13932.952  13932.990  0.500  0.602935  36.728  20.0977  4.087106
  13934.410  13934.410  0.500  0.602350  36.7286  20.1098  4.103165
  13935.827  13935.850  0.500  0.601920  36.7097  20.1081  4.111146
  13937.312  13937.310  0.500  0.601939  36.703  20.104  4.112992
  13938.763  13938.790  0.500  0.602119  36.6931  20.095  4.112307
  13940.283  13940.290  0.500  0.602392  36.6745  20.0793  4.112212
  13941.769  13941.810  0.500  0.602557  36.6489  20.062  4.108540
  13943.340  13943.350  0.500  0.603128  36.6423  20.0469  4.106817
  13944.903  13944.910  0.500  0.603619  36.627  20.0287  4.104720
  13946.475  13946.480  0.500  0.604034  36.6064  20.0092  4.100299
  13948.064  13948.080  0.500  0.604487  36.6022  19.9978  4.098347
  13949.662  13949.690  0.500  0.604989  36.5977  19.9853  4.095985
  13951.303  13951.330  0.500  0.605443  36.5827  19.968  4.092925
  13952.962  13952.980  0.500  0.606084  36.5491  19.9369  4.086105
  13955.173  13954.650  0.500  0.607144  36.5416  19.9117  4.080527
  13956.254  13956.340  0.500  0.607774  36.523  19.889  4.075273
  13958.237  13958.050  0.500  0.609205  36.4889  19.8421  4.062845
  13959.854  13959.780  0.500  0.610243  36.469  19.8106  4.052454
  13961.566  13961.530  0.500  0.611724  36.4668  19.7801  4.043994
  13963.338  13963.290  0.500  0.613093  36.441  19.7391  4.032433
  13965.152  13965.080  0.500  0.614353  36.4125  19.6988  4.022796
  13966.925  13966.880  0.500  0.614959  36.3806  19.6696  4.014979
  13968.766  13968.710  0.500  0.615201  36.3415  19.6437  4.010153
  13970.608  13970.550  0.500  0.614570  36.2552  19.6095  4.007257
  13972.458  13972.410  0.500  0.612985  35.5559  19.2618  3.941983
  13974.352  13974.290  0.500  0.610342  33.8112  18.3651  3.765267
  13976.221  13976.190  0.500  0.607441  35.56  19.3711  3.978395
  13978.133  13978.110  0.500  0.605062  36.3272  19.8361  4.082015
  13980.096  13980.050  0.500  0.602672  36.3658  19.9047  4.102040
  13982.044  13982.010  0.500  0.600330  36.3357  19.9349  4.113955
  13984.017  13983.980  0.500  0.598568  36.342  19.9735  4.125393
  13986.034  13985.980  0.500  0.596863  36.3111  19.9906  4.131762
  13988.025  13987.990  0.500  0.595406  36.2995  20.0133  4.138386
  13990.069  13990.020  0.500  0.594285  36.2687  20.0187  4.139013
  13992.130  13992.080  0.500  0.593420  36.2557  20.0289  4.140974
  13994.157  13994.150  0.500  0.592575  36.2352  20.0345  4.142989
  13996.254  13996.240  0.500  0.591875  36.2299  20.0456  4.145436
  13998.385  13998.350  0.500  0.591481  36.2141  20.0448  4.148838
  14000.492  14000.480  0.500  0.590777  36.1959  20.0488  4.150912
  14002.659  14002.620  0.500  0.589980  36.1916  20.0624  4.157833
  14004.827  14004.790  0.500  0.589175  36.155  20.0582  4.162183
  14007.038  14006.980  0.500  0.588543  36.137  20.0609  4.167900
  14009.207  14009.180  0.500  0.588089  36.1239  20.0628  4.171144
  14011.411  14011.400  0.500  0.587548  36.1059  20.0636  4.173598
  14013.659  14013.650  0.500  0.587388  36.0963  20.0615  4.174635
  14015.925  14015.910  0.500  0.587413  36.0666  20.0445  4.173065
  14018.200  14018.190  0.500  0.587466  36.0343  20.0255  4.165877
  14020.510  14020.490  0.500  0.587932  36.0198  20.0081  4.158885
  14022.829  14022.810  0.500  0.588811  36.0009  19.98  4.149911
  14025.166  14025.150  0.500  0.589612  35.987  19.9563  4.140449
  14027.504  14027.500  0.500  0.590491  35.9742  19.9317  4.132801
  14029.886  14029.880  0.500  0.591251  35.9278  19.8908  4.124226
  14032.286  14032.270  0.500  0.591962  35.9216  19.8733  4.122710
  14034.713  14034.690  0.500  0.592164  35.8922  19.853  4.121502
  14037.158  14037.120  0.500  0.592326  35.894  19.8508  4.125456
  14039.586  14039.570  0.500  0.591988  35.8588  19.8381  4.128714
  14042.075  14042.050  0.500  0.591255  35.8374  19.8407  4.134293
  14044.557  14044.540  0.500  0.590371  35.81  19.8431  4.141775
  14047.048  14047.050  0.500  0.589280  35.8081  19.8637  4.153286
  14049.601  14049.570  0.500  0.587981  35.7834  19.8758  4.163758
  14052.163  14052.120  0.500  0.586735  35.7612  19.8882  4.173164
  14054.692  14054.690  0.500  0.585533  35.7344  19.8972  4.181091
  14057.290  14057.270  0.500  0.584297  35.7056  19.9058  4.190388
  14059.890  14059.880  0.500  0.583067  35.6732  19.9122  4.194829
  14062.499  14062.500  0.500  0.581948  35.6277  19.9091  4.196914
  14065.152  14065.150  0.500  0.580836  35.5911  19.9108  4.202486
  14067.824  14067.810  0.500  0.579751  35.5306  19.8985  4.206465
  14070.496  14070.490  0.500  0.578693  35.3802  19.8352  4.199605
  14073.204  14073.190  0.500  0.578027  34.0367  19.0947  4.050361
  14075.905  14075.910  0.500  0.576239  34.2365  19.2412  4.089229
  14078.650  14078.650  0.500  0.575590  35.6523  20.0499  4.265957
  14081.414  14081.400  0.500  0.574755  35.6336  20.0561  4.270653
  14084.204  14084.180  0.500  0.574080  35.4675  19.9761  4.255889
  14086.996  14086.970  0.500  0.573295  35.5672  20.048  4.267172
  14089.788  14089.790  0.500  0.572529  35.5225  20.0382  4.263575
  14092.634  14092.620  0.500  0.571900  35.4979  20.0369  4.261773
  14095.499  14095.470  0.500  0.571409  35.492  20.0434  4.260625
  14098.373  14098.350  0.500  0.571004  35.427  20.0148  4.254177
  14101.266  14101.240  0.500  0.570849  35.3844  19.9938  4.250102
  14104.151  14104.150  0.500  0.570595  35.3549  19.9822  4.249054
  14107.082  14107.070  0.500  0.570499  35.3005  19.9534  4.244697
  14110.048  14110.020  0.500  0.570470  35.1967  19.8953  4.233514
  14113.006  14112.990  0.500  0.570532  35.2568  19.928  4.240510
  14115.992  14115.970  0.500  0.570520  35.1705  19.8794  4.233852
  14118.988  14118.980  0.500  0.570560  34.7057  19.616  4.181793
  14122.021  14122.000  0.500  0.569699  33.2459  18.8071  4.014891
  14125.063  14125.050  0.500  0.569855  35.2853  19.9577  4.268156
  14128.132  14128.110  0.500  0.569341  35.2434  19.9442  4.273729
  14131.186  14131.190  0.500  0.568665  35.1598  19.9104  4.274591
  14134.311  14134.290  0.500  0.567888  35.1542  19.9226  4.284847
  14137.437  14137.410  0.500  0.567162  35.1403  19.9292  4.292868
  14140.573  14140.550  0.500  0.566328  35.1287  19.9393  4.301099
  14143.720  14143.700  0.500  0.565370  35.0967  19.9402  4.307045
  14146.894  14146.880  0.500  0.564337  35.0851  19.9542  4.314788
  14150.096  14150.070  0.500  0.563323  35.0385  19.9479  4.317764
  14153.325  14153.290  0.500  0.562376  35.0052  19.9478  4.319791
  14156.530  14156.520  0.500  0.561200  34.9458  19.9374  4.319135
  14159.780  14159.770  0.500  0.560036  34.8275  19.8931  4.308147
  14163.066  14163.050  0.500  0.558949  34.7601  19.8762  4.303829
  14166.363  14166.340  0.500  0.558208  33.4849  19.1612  4.147685
  14169.653  14169.650  0.500  0.556333  34.1667  19.588  4.241345
  14172.988  14172.970  0.500  0.555636  34.9533  20.0529  4.344837
  14176.369  14176.320  0.500  0.554485  34.9254  20.0601  4.352413
  14179.725  14179.690  0.500  0.553433  34.8727  20.0508  4.353707
  14183.073  14183.070  0.500  0.552401  34.8403  20.0529  4.359139
  14186.485  14186.480  0.500  0.551380  34.8209  20.0622  4.363702
  14189.916  14189.900  0.500  0.550479  34.7805  20.057  4.366228
  14193.384  14193.350  0.500  0.549834  34.7577  20.0568  4.369468
  14196.810  14196.810  0.500  0.549086  34.7348  20.0585  4.372612
  14200.325  14200.290  0.500  0.548469  34.7022  20.0521  4.376342
  14203.816  14203.790  0.500  0.547953  34.6705  20.0441  4.381784
  14207.335  14207.310  0.500  0.547331  34.6356  20.0364  4.389024
  14210.873  14210.850  0.500  0.547033  34.6061  20.0253  4.397873
  14214.440  14214.400  0.500  0.546578  34.594  20.0274  4.408058
  14218.017  14217.980  0.500  0.546011  34.5552  20.0163  4.415368
  14221.597  14221.580  0.500  0.545621  34.5325  20.0109  4.423111
  14225.204  14225.190  0.500  0.545132  34.5118  20.0087  4.430905
  14228.849  14228.820  0.500  0.544491  34.4717  19.9983  4.433471
  14232.495  14232.480  0.500  0.543832  34.4469  19.9971  4.436407
  14236.162  14236.150  0.500  0.543343  34.4165  19.9892  4.433694
  14239.883  14239.840  0.500  0.542715  34.3845  19.9832  4.432966
  14243.597  14243.550  0.500  0.541944  34.423  20.021  4.439229
  14247.278  14247.280  0.500  0.541158  34.4361  20.0444  4.445508
  14251.032  14251.020  0.500  0.540391  34.3982  20.0376  4.444685
  14254.832  14254.790  0.500  0.539593  34.3611  20.032  4.448544
  14258.608  14258.580  0.500  0.538725  34.3347  20.034  4.453660
  14262.376  14262.380  0.500  0.537803  34.2793  20.0201  4.455481
  14266.245  14266.210  0.500  0.536769  34.2238  20.0084  4.458832
  14270.080  14270.050  0.500  0.536038  33.4681  19.5809  4.367447
  14273.908  14273.910  0.500  0.534616  33.5456  19.6542  4.386748
  14277.828  14277.790  0.500  0.533866  34.2189  20.0637  4.479455
  14281.723  14281.690  0.500  0.532929  34.1961  20.0692  4.484187
  14285.602  14285.610  0.500  0.531702  34.1531  20.0685  4.486931
  14289.564  14289.550  0.500  0.530485  34.118  20.0723  4.493121
  14293.563  14293.510  0.500  0.529791  34.0973  20.074  4.500451
  14297.485  14297.480  0.500  0.528668  34.047  20.0669  4.504058
  14301.489  14301.480  0.500  0.527659  34.0109  20.0659  4.509627
  14305.522  14305.490  0.500  0.526483  33.9976  20.0816  4.519406
  14309.539  14309.530  0.500  0.525747  33.9577  20.0729  4.525160
  14313.613  14313.580  0.500  0.524827  33.9326  20.0765  4.534251
  14317.662  14317.650  0.500  0.524009  33.9037  20.0758  4.541374
  14321.749  14321.740  0.500  0.523224  33.8704  20.0719  4.548078
  14325.866  14325.850  0.500  0.522382  33.842  20.0719  4.555052
  14330.011  14329.980  0.500  0.521555  33.8284  20.0805  4.561337
  14334.160  14334.130  0.500  0.520707  33.7966  20.0786  4.563875
  14338.301  14338.290  0.500  0.520054  33.75  20.064  4.563896
  14342.508  14342.480  0.500  0.519296  33.7168  20.0594  4.564446
  14346.691  14346.680  0.500  0.518553  33.6964  20.0622  4.568488
  14350.948  14350.910  0.500  0.517788  33.6654  20.0591  4.571922
  14355.189  14355.150  0.500  0.516903  33.6306  20.0561  4.574326
  14359.434  14359.410  0.500  0.516099  33.512  20.0015  4.567169
  14363.707  14363.690  0.500  0.515182  33.5748  20.0573  4.584772
  14368.029  14367.990  0.500  0.514439  33.4847  20.0183  4.581501
  14372.325  14372.310  0.500  0.513407  33.5152  20.0573  4.595814
  14376.688  14376.650  0.500  0.512560  33.4104  20.0115  4.590016
  14381.036  14381.010  0.500  0.511603  33.4327  20.044  4.604762
  14385.404  14385.390  0.500  0.510713  33.3712  20.025  4.606811
  14389.783  14389.780  0.500  0.509757  33.3816  20.0504  4.619310
  14394.238  14394.200  0.500  0.508827  33.3537  20.0522  4.625511
  14398.642  14398.630  0.500  0.507865  33.3104  20.0455  4.631114
  14403.120  14403.080  0.500  0.506755  33.2748  20.0463  4.639023
  14407.575  14407.550  0.500  0.505755  33.2443  20.048  4.645402
  14412.068  14412.040  0.500  0.504430  33.0453  19.9544  4.629840
  14416.591  14416.550  0.500  0.503437  33.1679  20.0483  4.657882
  14421.109  14421.080  0.500  0.502440  33.1275  20.0439  4.663582
  14425.647  14425.630  0.500  0.501413  33.1084  20.0529  4.670421
  14430.252  14430.200  0.500  0.500352  33.0764  20.0548  4.674695
  14434.814  14434.780  0.500  0.499282  32.9136  19.9774  4.660938
  14439.434  14439.390  0.500  0.498410  33.0221  20.0608  4.685012
  14444.057  14444.010  0.500  0.497349  32.9654  20.0476  4.686803
  14448.673  14448.660  0.500  0.496384  32.9465  20.0554  4.692604
  14453.357  14453.320  0.500  0.495599  32.9261  20.0588  4.697344
  14458.026  14458.000  0.500  0.494635  32.8803  20.0502  4.699651
  14462.724  14462.700  0.500  0.493610  32.8556  20.0557  4.703208
  14467.463  14467.420  0.500  0.492752  32.8182  20.05  4.706937
  14472.196  14472.160  0.500  0.491883  32.7797  20.0439  4.710164
  14476.968  14476.910  0.500  0.490986  32.7414  20.0385  4.713844
  14481.744  14481.690  0.500  0.490073  32.6629  20.0087  4.713281
  14486.531  14486.490  0.500  0.489129  32.6652  20.029  4.723438
  14491.332  14491.300  0.500  0.488079  32.6466  20.0386  4.731293
  14496.172  14496.130  0.500  0.487208  32.6002  20.0276  4.736614
  14501.006  14500.990  0.500  0.486374  32.5643  20.0222  4.741923
  14505.917  14505.860  0.500  0.485346  32.5234  20.0177  4.748755
  14510.768  14510.750  0.500  0.484373  32.4926  20.0182  4.755907
  14515.685  14515.660  0.500  0.483398  32.4492  20.0109  4.763619
  14520.634  14520.590  0.500  0.482480  32.4173  20.0096  4.770777
  14525.559  14525.530  0.500  0.481470  32.3961  20.0167  4.780590
  14530.551  14530.500  0.500  0.480344  32.3505  20.0111  4.786741
  14535.529  14535.490  0.500  0.479398  32.3122  20.0063  4.792821
  14540.538  14540.490  0.500  0.478180  32.2893  20.0165  4.799417
  14545.541  14545.520  0.500  0.477211  32.2458  20.0089  4.803332
  14550.566  14550.560  0.500  0.475954  32.1674  19.9853  4.802674
  14555.622  14555.620  0.500  0.474978  32.1832  20.0147  4.815291
  14560.738  14560.700  0.500  0.473847  32.1507  20.0171  4.821713
  14565.810  14565.800  0.500  0.472686  32.1088  20.0142  4.827583
  14570.961  14570.920  0.500  0.471570  32.0672  20.0106  4.833149
  14576.096  14576.060  0.500  0.470618  32.0328  20.0082  4.838701
  14581.236  14581.220  0.500  0.469561  31.9977  20.0074  4.842967
  14586.434  14586.400  0.500  0.468486  31.9556  20.0026  4.845351
  14591.618  14591.590  0.500  0.467360  31.9201  20.0029  4.850355
  14596.834  14596.810  0.500  0.466312  31.8906  20.0053  4.855082
  14602.072  14602.040  0.500  0.465121  31.8455  20.0009  4.858026
  14607.342  14607.290  0.500  0.464180  31.8089  19.9967  4.860708
  14612.578  14612.560  0.500  0.463063  31.7699  19.9945  4.866176
  14617.883  14617.850  0.500  0.462030  31.7274  19.9883  4.873562
  14623.202  14623.160  0.500  0.460969  31.6977  19.9909  4.881080
  14628.487  14628.490  0.500  0.459960  31.6596  19.987  4.888466
  14633.879  14633.840  0.500  0.458858  31.6202  19.9841  4.896241
  14639.247  14639.210  0.500  0.457930  31.5842  19.9799  4.903195
  14644.619  14644.590  0.500  0.456990  31.494  19.9416  4.903691
  14650.042  14650.000  0.500  0.455942  31.5097  19.9724  4.918669
  14655.450  14655.420  0.500  0.454825  31.4816  19.9769  4.926630
  14660.909  14660.870  0.500  0.453866  31.3788  19.9308  4.922509
  14666.372  14666.330  0.500  0.452964  31.3525  19.9321  4.929228
  14671.849  14671.810  0.500  0.451942  31.369  19.963  4.942438
  14677.321  14677.310  0.500  0.450674  31.3181  19.9559  4.947526
  14682.862  14682.830  0.500  0.449705  31.2813  19.9517  4.953843
  14688.417  14688.370  0.500  0.448573  31.2168  19.9331  4.954366
  14693.949  14693.920  0.500  0.447583  31.207  19.9466  4.964841
  14699.550  14699.500  0.500  0.446437  31.1703  19.946  4.971274
  14705.146  14705.100  0.500  0.445360  31.1055  19.926  4.972809
  14710.738  14710.710  0.500  0.443994  31.0929  19.9451  4.982097
  14716.390  14716.350  0.500  0.442939  31.0444  19.9351  4.987031
  14722.047  14722.000  0.500  0.441932  31.0136  19.9353  4.994531
  14727.679  14727.670  0.500  0.440823  30.9776  19.9343  5.000329
  14733.402  14733.360  0.500  0.439582  30.9243  19.9247  5.003056