File: xdidata/Pt/Pt-L1-PlatinumFoil.xdi
# XDI/1.0 BlueSky/1.10.0 BMM/2023-1.0-py310-tiled
# Beamline.name: BMM (06BM) -- Beamline for Materials Measurement (NIST)
# Beamline.xray_source: NSLS-II three-pole wiggler
# Beamline.collimation: paraboloid mirror, 5 nm Rh on 30 nm Pt
# Beamline.focusing: not in use
# Beamline.harmonic_rejection: flat mirror, Pt stripe, pitch = 7.0 mrad relative to beam
# Beamline.software: Bluesky 1.10.0, Ophyd 1.7.0, DataBroker 2.0.0b13, Python 3.10.8, 2023-1.0-py310-tiled
# Detector.I0: 10 cm N2
# Detector.I1: 25 cm N2
# Detector.I2: 25 cm N2
# Element.symbol: Pt
# Element.edge: L1
# Element.reference: Pt
# Element.reference_material: Pt foil
# Facility.name: NSLS-II
# Facility.energy: 3.0
# Facility.current: 399.9
# Facility.mode: top-off
# Facility.GUP: 301027
# Facility.SAF: 310583
# Facility.cycle: 2023-2
# Mono.name: Si(111)
# Mono.d_spacing: 3.13519
# Mono.encoder_resolution: 0.0000050 deg/ct
# Mono.angle_offset: 16.0754 deg
# Mono.scan_mode: pseudo channel cut
# Mono.scan_type: step
# Mono.direction: forward in energy
# Sample.name: Pt foil
# Sample.prep: reference foil
# Sample.x: 109.138 mm
# Sample.y: 153.150 mm
# Sample.SDD_position: 205.000 mm
# Scan.experimenters: Bruce Ravel
# Scan.edge_energy: 13880.5
# Scan.start_time: 2023-05-28T21:05:50
# Scan.end_time: 2023-05-28T21:13:22
# Scan.transient_id: 79015
# Scan.uid: 5e37658e-c2b4-4619-a0c6-41da9c60c89c
# Scan.plot_hint: ln(It/Ir)  --  ln($6/$7)
# Column.1: energy eV
# Column.2: requested_energy eV
# Column.3: measurement_time seconds
# Column.4: xmu
# Column.5: I0 nA
# Column.6: It nA
# Column.7: Ir nA
# ///////////
# Welcome to BMM
# -----------
# energy  requested_energy  measurement_time  xmu  I0  It  Ir
  13680.468  13680.500  0.500  1.507917  39.664  70.4474  15.595
  13690.512  13690.500  0.500  1.507292  39.5839  70.318  15.5761
  13700.498  13700.500  0.500  1.505468  39.4896  70.1616  15.5698
  13710.531  13710.500  0.500  1.501494  39.4025  70.0122  15.5985
  13720.545  13720.500  0.500  1.494598  39.3103  69.8694  15.6744
  13730.600  13730.500  0.500  1.488907  39.2091  69.7047  15.7267
  13740.487  13740.500  0.500  1.487290  39.1089  69.5401  15.715
  13750.464  13750.500  0.500  1.486855  39.007  69.37  15.6833
  13760.472  13760.500  0.500  1.486552  38.9128  69.2299  15.6564
  13770.494  13770.500  0.500  1.485496  38.8196  69.0635  15.6353
  13780.498  13780.500  0.500  1.483797  38.7265  68.9163  15.6285
  13790.509  13790.500  0.500  1.482020  38.6204  68.7469  15.6178
  13800.467  13800.500  0.500  1.478830  38.5275  68.5863  15.6311
  13810.524  13810.500  0.500  1.475026  38.4667  68.4955  15.6699
  13820.495  13820.500  0.500  1.472020  38.3755  68.3482  15.6833
  13830.489  13830.500  0.500  1.469097  38.2589  68.1569  15.6852
  13840.489  13840.500  0.500  1.466705  38.1791  68.028  15.693
  13850.471  13850.500  0.500  1.466270  38.0735  67.8458  15.6578
  13852.423  13852.500  0.500  1.466469  38.0303  67.7706  15.6373
  13854.435  13854.500  0.500  1.466643  38.0078  67.7305  15.6253
  13856.440  13856.500  0.500  1.467190  37.9704  67.6733  15.6036
  13858.419  13858.500  0.500  1.467729  37.984  67.7004  15.6014
  13860.425  13860.500  0.500  1.468113  37.9639  67.6628  15.5868
  13862.431  13862.500  0.500  1.468968  37.9295  67.6134  15.5621
  13864.412  13864.500  0.500  1.469884  37.9132  67.5809  15.5404
  13866.444  13866.500  0.500  1.470983  37.8846  67.5382  15.5135
  13868.452  13868.500  0.500  1.472761  37.8576  67.4982  15.4768
  13870.452  13870.500  0.500  1.474802  37.8304  67.448  15.4337
  13870.729  13870.800  0.500  1.475182  37.8262  67.4304  15.4238
  13871.023  13871.100  0.500  1.475558  37.8215  67.4273  15.4173
  13871.326  13871.400  0.500  1.475814  37.8124  67.4111  15.4097
  13871.629  13871.700  0.500  1.476157  37.8026  67.3967  15.4011
  13871.931  13872.000  0.500  1.476715  37.7939  67.3763  15.3879
  13872.251  13872.300  0.500  1.477128  37.7888  67.3768  15.3816
  13872.528  13872.600  0.500  1.477703  37.7777  67.3517  15.367
  13872.848  13872.900  0.500  1.478135  37.7653  67.3302  15.3555
  13873.133  13873.200  0.500  1.478671  37.7617  67.3214  15.3453
  13873.453  13873.500  0.500  1.479286  37.7476  67.2988  15.3307
  13873.764  13873.800  0.500  1.479853  37.7419  67.2939  15.3209
  13874.050  13874.100  0.500  1.480461  37.7404  67.291  15.3109
  13874.344  13874.400  0.500  1.481058  37.741  67.2863  15.3007
  13874.655  13874.700  0.500  1.481753  37.7353  67.2811  15.2889
  13874.966  13875.000  0.500  1.482602  37.7316  67.2744  15.2744
  13875.261  13875.300  0.500  1.483224  37.7314  67.2691  15.2637
  13875.547  13875.600  0.500  1.484050  37.7294  67.2661  15.2504
  13875.841  13875.900  0.500  1.485084  37.7227  67.2663  15.2347
  13876.152  13876.200  0.500  1.485915  37.7227  67.2551  15.2195
  13876.472  13876.500  0.500  1.487044  37.7131  67.2404  15.199
  13876.766  13876.800  0.500  1.487977  37.7087  67.2313  15.1828
  13877.061  13877.100  0.500  1.489291  37.7052  67.2226  15.1609
  13877.355  13877.400  0.500  1.490229  37.699  67.2105  15.1439
  13877.650  13877.700  0.500  1.491828  37.6869  67.197  15.1167
  13877.978  13878.000  0.500  1.493260  37.6804  67.1877  15.093
  13878.264  13878.300  0.500  1.494491  37.6701  67.1666  15.0697
  13878.542  13878.600  0.500  1.495975  37.6633  67.1543  15.0446
  13878.861  13878.900  0.500  1.497740  37.6539  67.1347  15.0137
  13879.173  13879.200  0.500  1.499542  37.6436  67.118  14.9829
  13879.484  13879.500  0.500  1.501421  37.7067  67.2311  14.98
  13879.778  13879.800  0.500  1.503340  37.7356  67.282  14.9626
  13880.065  13880.100  0.500  1.505307  37.7297  67.2741  14.9314
  13880.351  13880.400  0.500  1.507397  37.7178  67.2551  14.8961
  13880.662  13880.700  0.500  1.509495  37.7088  67.2292  14.8591
  13880.982  13881.000  0.500  1.511911  37.6936  67.2141  14.8199
  13881.268  13881.300  0.500  1.514179  37.6872  67.2041  14.7841
  13881.571  13881.600  0.500  1.516414  37.6876  67.203  14.7509
  13881.874  13881.900  0.500  1.518853  37.6856  67.1993  14.7142
  13882.194  13882.200  0.500  1.521651  37.6776  67.1909  14.6712
  13882.514  13882.500  0.500  1.524367  37.676  67.1905  14.6313
  13882.792  13882.800  0.500  1.526713  37.6715  67.1847  14.5958
  13883.078  13883.100  0.500  1.529288  37.6709  67.1745  14.556
  13883.381  13883.400  0.500  1.532085  37.6646  67.1655  14.5134
  13883.693  13883.700  0.500  1.534819  37.6552  67.1496  14.4704
  13884.004  13884.000  0.500  1.537504  37.6476  67.1336  14.4282
  13884.291  13884.300  0.500  1.540083  37.6385  67.1185  14.3877
  13884.577  13884.600  0.500  1.542810  37.6291  67.1046  14.3456
  13884.897  13884.900  0.500  1.545501  37.6214  67.0861  14.3031
  13885.209  13885.200  0.500  1.548295  37.6109  67.0708  14.2599
  13885.512  13885.500  0.500  1.551113  37.605  67.0637  14.2183
  13885.798  13885.800  0.500  1.553733  37.5937  67.0385  14.1758
  13886.085  13886.100  0.500  1.556521  37.5845  67.0253  14.1335
  13886.388  13886.400  0.500  1.559239  37.5738  67.0035  14.0906
  13886.708  13886.700  0.500  1.562105  37.5665  66.9903  14.0475
  13887.003  13887.000  0.500  1.564800  37.5593  66.9802  14.0076
  13887.289  13887.300  0.500  1.567608  37.5502  66.9648  13.9651
  13887.584  13887.600  0.500  1.570526  37.5428  66.9531  13.922
  13887.888  13887.900  0.500  1.573455  37.5334  66.9359  13.8777
  13888.216  13888.200  0.500  1.576695  37.5245  66.9226  13.83
  13888.519  13888.500  0.500  1.579701  37.5155  66.905  13.7849
  13888.798  13888.800  0.500  1.582556  37.5093  66.8889  13.7423
  13889.092  13889.100  0.500  1.585420  37.4982  66.8733  13.6998
  13889.396  13889.400  0.500  1.588684  37.4898  66.8578  13.652
  13889.708  13889.700  0.500  1.591960  37.4802  66.8375  13.6032
  13890.003  13890.000  0.500  1.595340  37.4675  66.8225  13.5543
  13890.281  13890.300  0.500  1.598342  37.4657  66.8192  13.5129
  13890.593  13890.600  0.500  1.601886  37.4481  66.795  13.4603
  13890.896  13890.900  0.500  1.605245  37.444  66.7816  13.4124
  13891.208  13891.200  0.500  1.608575  37.4395  66.7755  13.3666
  13891.511  13891.500  0.500  1.612092  37.4336  66.7621  13.317
  13891.790  13891.800  0.500  1.615285  37.4247  66.7437  13.2709
  13892.076  13892.100  0.500  1.618477  37.4102  66.7313  13.2262
  13892.388  13892.400  0.500  1.621871  37.404  66.7148  13.1781
  13892.700  13892.700  0.500  1.625143  37.3919  66.6933  13.1308
  13893.004  13893.000  0.500  1.628206  37.3857  66.6819  13.0884
  13893.265  13893.300  0.500  1.630741  37.3745  66.6588  13.0507
  13893.577  13893.600  0.500  1.633895  37.3709  66.6512  13.0082
  13893.898  13893.900  0.500  1.636683  37.3643  66.6446  12.9707
  13894.201  13894.200  0.500  1.639200  37.3559  66.6228  12.9338
  13894.488  13894.500  0.500  1.641426  37.3456  66.6142  12.9034
  13894.766  13894.800  0.500  1.643548  37.3386  66.6018  12.8737
  13895.078  13895.100  0.500  1.645626  37.329  66.5793  12.8426
  13895.390  13895.400  0.500  1.647180  37.3149  66.5593  12.8188
  13895.677  13895.700  0.500  1.648744  37.3053  66.5448  12.796
  13895.964  13896.000  0.500  1.650051  37.2992  66.5238  12.7752
  13896.293  13896.300  0.500  1.651310  37.2851  66.5087  12.7563
  13896.597  13896.600  0.500  1.652417  37.2844  66.5031  12.7411
  13896.909  13896.900  0.500  1.653064  37.2836  66.5051  12.7332
  13897.187  13897.200  0.500  1.653681  37.2858  66.5092  12.7262
  13897.491  13897.500  0.500  1.654194  37.2964  66.5257  12.7228
  13897.803  13897.800  0.500  1.654453  37.2951  66.5266  12.7197
  13898.090  13898.100  0.500  1.654574  37.2971  66.5316  12.7191
  13898.377  13898.400  0.500  1.654648  37.303  66.5471  12.7211
  13898.689  13898.700  0.500  1.654679  37.303  66.5379  12.7189
  13899.010  13899.000  0.500  1.654453  37.2998  66.5377  12.7218
  13899.322  13899.300  0.500  1.654109  37.3032  66.5407  12.7267
  13899.609  13899.600  0.500  1.653645  37.3024  66.5304  12.7307
  13899.904  13899.900  0.500  1.653219  37.2994  66.536  12.7372
  13900.217  13900.200  0.500  1.652749  37.2943  66.5284  12.7417
  13900.504  13900.500  0.500  1.652015  37.2924  66.5259  12.7506
  13900.791  13900.800  0.500  1.651407  37.2909  66.5193  12.7571
  13901.103  13901.100  0.500  1.650399  37.287  66.5118  12.7685
  13901.432  13901.400  0.500  1.649539  37.2793  66.5062  12.7784
  13901.702  13901.700  0.500  1.648452  37.274  66.4989  12.7909
  13902.006  13902.000  0.500  1.647397  37.2703  66.4925  12.8032
  13902.302  13902.300  0.500  1.646292  37.267  66.4794  12.8148
  13902.614  13902.600  0.500  1.645124  37.2555  66.4636  12.8267
  13902.901  13902.900  0.500  1.643946  37.2477  66.4527  12.8397
  13903.214  13903.200  0.500  1.642598  37.2414  66.4383  12.8543
  13903.518  13903.500  0.500  1.641294  37.2404  66.4359  12.8706
  13903.822  13903.800  0.500  1.640053  37.2431  66.4419  12.8877
  13904.101  13904.100  0.500  1.638808  37.2465  66.4484  12.905
  13904.396  13904.400  0.500  1.637629  37.2538  66.4607  12.9227
  13904.700  13904.700  0.500  1.636416  37.261  66.4746  12.9411
  13904.996  13905.000  0.500  1.635386  37.2648  66.4802  12.9555
  13905.292  13905.300  0.500  1.634144  37.2663  66.4832  12.9722
  13905.494  13905.500  0.500  1.633505  37.2666  66.4884  12.9815
  13906.491  13906.490  0.500  1.630437  37.27  66.4872  13.0211
  13907.488  13907.490  0.500  1.627834  37.2498  66.4583  13.0494
  13908.494  13908.510  0.500  1.626296  37.2209  66.4053  13.059
  13909.559  13909.560  0.500  1.625188  37.2027  66.3775  13.068
  13910.624  13910.620  0.500  1.625015  37.1935  66.3592  13.0667
  13911.723  13911.700  0.500  1.625511  37.2046  66.3812  13.0646
  13912.813  13912.800  0.500  1.626756  37.2091  66.3906  13.0501
  13913.938  13913.920  0.500  1.628610  37.2024  66.378  13.0235
  13915.080  13915.060  0.500  1.630978  37.1826  66.3434  12.9859
  13916.239  13916.210  0.500  1.633974  37.1615  66.3121  12.941
  13917.407  13917.390  0.500  1.636982  37.1392  66.2768  12.8952
  13918.608  13918.580  0.500  1.640125  37.1018  66.2063  12.8411
  13919.793  13919.800  0.500  1.643131  37.0999  66.2069  12.8027
  13921.038  13921.030  0.500  1.645791  37.1036  66.2175  12.7707
  13922.291  13922.280  0.500  1.647663  37.0936  66.1981  12.7431
  13923.570  13923.550  0.500  1.648399  37.0843  66.1836  12.7309
  13924.849  13924.840  0.500  1.648011  37.0806  66.1748  12.7342
  13926.170  13926.150  0.500  1.645743  37.0672  66.1477  12.7579
  13927.526  13927.480  0.500  1.642508  37.0614  66.1456  12.7988
  13928.865  13928.830  0.500  1.638351  37.0524  66.1348  12.85
  13930.221  13930.200  0.500  1.634021  37.0476  66.1257  12.904
  13931.569  13931.580  0.500  1.630195  37.046  66.1233  12.953
  13932.985  13932.990  0.500  1.626925  37.0356  66.1052  12.9919
  13934.427  13934.410  0.500  1.624778  37.0277  66.0949  13.0178
  13935.878  13935.850  0.500  1.623248  37.0149  66.0742  13.0336
  13937.338  13937.310  0.500  1.622497  37.0007  66.0545  13.0395
  13938.806  13938.790  0.500  1.622332  36.9877  66.0337  13.0375
  13940.325  13940.290  0.500  1.621947  36.9748  66.0133  13.0385
  13941.837  13941.810  0.500  1.621547  36.9563  65.9789  13.037
  13943.323  13943.350  0.500  1.621303  36.9428  65.9576  13.0359
  13944.911  13944.910  0.500  1.621044  36.9214  65.9191  13.0317
  13946.492  13946.480  0.500  1.620785  36.9118  65.9025  13.0318
  13948.090  13948.080  0.500  1.620762  36.8986  65.8762  13.0269
  13949.722  13949.690  0.500  1.620984  36.8844  65.8527  13.0193
  13951.363  13951.330  0.500  1.620858  36.8656  65.8235  13.0152
  13953.013  13952.980  0.500  1.620911  36.8541  65.7985  13.0096
  13954.680  13954.650  0.500  1.621008  36.8324  65.7685  13.0024
  13956.339  13956.340  0.500  1.621551  36.8114  65.735  12.9887
  13958.050  13958.050  0.500  1.622241  36.7901  65.6997  12.9728
  13959.769  13959.780  0.500  1.623166  36.7695  65.6674  12.9544
  13961.540  13961.530  0.500  1.623930  36.7481  65.6305  12.9372
  13963.321  13963.290  0.500  1.624531  36.7177  65.5827  12.9201
  13965.118  13965.080  0.500  1.624864  36.696  65.5316  12.9057
  13966.882  13966.880  0.500  1.624983  36.6587  65.4757  12.8931
  13968.715  13968.710  0.500  1.624440  36.5969  65.3669  12.8787
  13970.548  13970.550  0.500  1.623507  36.428  65.0708  12.8324
  13972.424  13972.410  0.500  1.621416  35.0399  62.5915  12.3692
  13974.301  13974.290  0.500  1.619903  34.3654  61.3892  12.15
  13976.221  13976.190  0.500  1.617867  36.3212  64.8796  12.867
  13978.133  13978.110  0.500  1.616107  36.6684  65.5041  13.0137
  13980.062  13980.050  0.500  1.614810  36.6616  65.4982  13.0295
  13982.044  13982.010  0.500  1.613628  36.6413  65.4631  13.0379
  13983.974  13983.980  0.500  1.612743  36.6257  65.4394  13.0447
  13985.974  13985.980  0.500  1.612041  36.6048  65.3956  13.0451
  13988.008  13987.990  0.500  1.611739  36.5808  65.3616  13.0423
  13990.051  13990.020  0.500  1.611796  36.5609  65.331  13.0354
  13992.104  13992.080  0.500  1.611704  36.5428  65.2926  13.029
  13994.183  13994.150  0.500  1.611825  36.5214  65.262  13.0213
  13996.254  13996.240  0.500  1.611582  36.4987  65.2287  13.0178
  13998.334  13998.350  0.500  1.610961  36.4762  65.192  13.0185
  14000.475  14000.480  0.500  1.609951  36.46  65.1598  13.0253
  14002.642  14002.620  0.500  1.609077  36.44  65.1281  13.0303
  14004.818  14004.790  0.500  1.608073  36.4196  65.0947  13.0367
  14007.012  14006.980  0.500  1.606928  36.4016  65.0609  13.0449
  14009.173  14009.180  0.500  1.606195  36.3802  65.0305  13.0483
  14011.386  14011.400  0.500  1.605418  36.3606  64.9971  13.0518
  14013.650  14013.650  0.500  1.605249  36.3385  64.9526  13.045
  14015.925  14015.910  0.500  1.605298  36.3165  64.9201  13.0379
  14018.217  14018.190  0.500  1.605661  36.293  64.8869  13.0265
  14020.510  14020.490  0.500  1.606581  36.2652  64.8375  13.0046
  14022.820  14022.810  0.500  1.607631  36.2463  64.8086  12.9851
  14025.158  14025.150  0.500  1.608318  36.2217  64.7654  12.9676
  14027.522  14027.500  0.500  1.608871  36.2013  64.734  12.9541
  14029.904  14029.880  0.500  1.608885  36.1754  64.6923  12.9456
  14032.295  14032.270  0.500  1.608207  36.1526  64.6491  12.9457
  14034.704  14034.690  0.500  1.607428  36.1284  64.6163  12.9493
  14037.115  14037.120  0.500  1.605902  36.1072  64.5734  12.9604
  14039.586  14039.570  0.500  1.604541  36.2  64.741  13.0118
  14042.067  14042.050  0.500  1.603141  36.1812  64.7173  13.0252
  14044.566  14044.540  0.500  1.601525  36.1675  64.6886  13.0405
  14047.074  14047.050  0.500  1.599832  36.1458  64.6597  13.0568
  14049.584  14049.570  0.500  1.597975  36.1231  64.6243  13.0739
  14052.129  14052.120  0.500  1.596053  36.1038  64.5859  13.0912
  14054.700  14054.690  0.500  1.594551  36.0763  64.5376  13.1011
  14057.316  14057.270  0.500  1.593221  36.0485  64.4973  13.1104
  14059.924  14059.880  0.500  1.592473  36.0131  64.4407  13.1086
  14062.507  14062.500  0.500  1.591569  35.9764  64.3709  13.1063
  14065.152  14065.150  0.500  1.590233  35.937  64.3035  13.1101
  14067.841  14067.810  0.500  1.588980  35.8627  64.1705  13.0994
  14070.522  14070.490  0.500  1.587129  35.6171  63.7328  13.0341
  14073.178  14073.190  0.500  1.585034  33.4597  59.8808  12.272
  14075.922  14075.910  0.500  1.583632  35.5139  63.5612  13.0446
  14078.676  14078.650  0.500  1.581887  35.9449  64.3357  13.2266
  14081.422  14081.400  0.500  1.581489  35.9071  64.2667  13.2176
  14084.204  14084.180  0.500  1.581649  35.7807  64.042  13.1693
  14086.978  14086.970  0.500  1.582226  35.8489  64.1711  13.1883
  14089.814  14089.790  0.500  1.582764  35.8243  64.1264  13.172
  14092.643  14092.620  0.500  1.583236  35.7869  64.0663  13.1534
  14095.490  14095.470  0.500  1.583436  35.7563  64.0124  13.1397
  14098.364  14098.350  0.500  1.583602  35.7091  63.9355  13.1218
  14101.223  14101.240  0.500  1.583395  35.6719  63.8688  13.1108
  14104.186  14104.150  0.500  1.583106  35.6324  63.799  13.1002
  14107.090  14107.070  0.500  1.582734  35.5524  63.6602  13.0766
  14110.056  14110.020  0.500  1.582485  35.5315  63.629  13.0735
  14112.989  14112.990  0.500  1.581932  35.5073  63.5903  13.0727
  14115.992  14115.970  0.500  1.580991  35.4108  63.4203  13.0501
  14118.997  14118.980  0.500  1.579801  34.1329  61.1335  12.5945
  14122.003  14122.000  0.500  1.578736  34.6394  62.0425  12.7954
  14125.071  14125.050  0.500  1.576542  35.557  63.6853  13.163
  14128.124  14128.110  0.500  1.574723  35.506  63.6062  13.1706
  14131.212  14131.190  0.500  1.572787  35.3718  63.3633  13.1457
  14134.320  14134.290  0.500  1.571169  35.4395  63.4871  13.1928
  14137.428  14137.410  0.500  1.569437  35.3942  63.4173  13.2011
  14140.556  14140.550  0.500  1.568167  35.3672  63.379  13.2099
  14143.711  14143.700  0.500  1.566840  35.3487  63.3382  13.2189
  14146.903  14146.880  0.500  1.565789  35.3185  63.29  13.2227
  14150.078  14150.070  0.500  1.564629  35.2836  63.2274  13.225
  14153.308  14153.290  0.500  1.564224  35.2378  63.1544  13.2151
  14156.556  14156.520  0.500  1.564054  35.1325  62.9688  13.1785
  14159.806  14159.770  0.500  1.564307  35.1104  62.9357  13.1682
  14163.058  14163.050  0.500  1.564448  34.9676  62.6823  13.1134
  14166.355  14166.340  0.500  1.564603  33.0884  59.316  12.4072
  14169.644  14169.650  0.500  1.564373  34.8225  62.4171  13.0589
  14172.971  14172.970  0.500  1.563493  35.149  63.0102  13.1945
  14176.307  14176.320  0.500  1.562318  35.1191  62.9585  13.1992
  14179.707  14179.690  0.500  1.561172  35.067  62.8738  13.1966
  14183.108  14183.070  0.500  1.560217  35.045  62.8386  13.2018
  14186.485  14186.480  0.500  1.559518  35.0093  62.7816  13.199
  14189.916  14189.900  0.500  1.558948  34.9766  62.7273  13.1951
  14193.349  14193.350  0.500  1.558179  34.9437  62.6673  13.1927
  14196.819  14196.810  0.500  1.557193  34.9145  62.6149  13.1946
  14200.290  14200.290  0.500  1.555934  34.8825  62.5646  13.2007
  14203.816  14203.790  0.500  1.554176  34.8505  62.5064  13.2116
  14207.353  14207.310  0.500  1.552050  34.8141  62.4522  13.2282
  14210.821  14210.850  0.500  1.549775  34.7848  62.401  13.2475
  14214.405  14214.400  0.500  1.547317  34.7564  62.3525  13.2697
  14217.991  14217.980  0.500  1.544783  34.7219  62.294  13.2909
  14221.605  14221.580  0.500  1.543004  34.6914  62.2414  13.3034
  14225.204  14225.190  0.500  1.541365  34.6574  62.1923  13.3147
  14228.849  14228.820  0.500  1.540327  34.6271  62.1358  13.3164
  14232.513  14232.480  0.500  1.539841  34.586  62.0784  13.3106
  14236.179  14236.150  0.500  1.539822  34.5554  62.0187  13.298
  14239.865  14239.840  0.500  1.539920  34.5206  61.9601  13.2841
  14243.580  14243.550  0.500  1.540187  34.4857  61.8995  13.2676
  14247.296  14247.280  0.500  1.539880  34.4517  61.8462  13.2603
  14251.041  14251.020  0.500  1.539388  34.4137  61.7832  13.2533
  14254.823  14254.790  0.500  1.538391  34.3744  61.7139  13.2516
  14258.608  14258.580  0.500  1.537378  34.331  61.641  13.2494
  14262.385  14262.380  0.500  1.536008  34.2756  61.546  13.2471
  14266.218  14266.210  0.500  1.534995  34.1512  61.3297  13.2139
  14270.080  14270.050  0.500  1.533863  31.9129  57.309  12.3616
  14273.900  14273.910  0.500  1.533318  34.1957  61.4067  13.2527
  14277.819  14277.790  0.500  1.532896  34.2444  61.501  13.2787
  14281.732  14281.690  0.500  1.532322  34.2011  61.4354  13.2721
  14285.620  14285.610  0.500  1.531440  34.1635  61.3702  13.2697
  14289.590  14289.550  0.500  1.530265  34.1265  61.3114  13.2726
  14293.536  14293.510  0.500  1.528859  34.0789  61.2275  13.2731
  14297.511  14297.480  0.500  1.527554  34.0391  61.1615  13.2761
  14301.498  14301.480  0.500  1.526267  33.9871  61.068  13.2729
  14305.522  14305.490  0.500  1.524819  33.9848  61.0743  13.2934
  14309.548  14309.530  0.500  1.523183  33.9374  60.9899  13.2968
  14313.613  14313.580  0.500  1.521193  33.9042  60.9338  13.3111
  14317.680  14317.650  0.500  1.519374  33.8808  60.8929  13.3263
  14321.749  14321.740  0.500  1.517850  33.8319  60.8088  13.3282
  14325.875  14325.850  0.500  1.516400  33.7952  60.7465  13.3339
  14330.038  14329.980  0.500  1.515148  33.761  60.6856  13.3372
  14334.151  14334.130  0.500  1.514455  33.7388  60.6545  13.3396
  14338.328  14338.290  0.500  1.513981  33.7041  60.5898  13.3317
  14342.508  14342.480  0.500  1.513584  33.6483  60.5037  13.3181
  14346.709  14346.680  0.500  1.512922  33.6304  60.4767  13.3209
  14350.930  14350.910  0.500  1.512012  33.5932  60.4094  13.3182
  14355.198  14355.150  0.500  1.510934  33.5495  60.3364  13.3165
  14359.443  14359.410  0.500  1.509783  33.4522  60.1609  13.293
  14363.725  14363.690  0.500  1.508797  33.4805  60.229  13.3212
  14368.029  14367.990  0.500  1.507437  33.3858  60.0517  13.3001
  14372.325  14372.310  0.500  1.506276  33.4113  60.1032  13.3269
  14376.688  14376.650  0.500  1.505052  33.3175  59.9341  13.3057
  14381.054  14381.010  0.500  1.503733  33.3395  59.9791  13.3333
  14385.413  14385.390  0.500  1.502370  33.2377  59.8079  13.3134
  14389.820  14389.780  0.500  1.500885  33.2668  59.8669  13.3463
  14394.247  14394.200  0.500  1.499227  33.2303  59.8075  13.3552
  14398.651  14398.630  0.500  1.497963  33.1958  59.7427  13.3576
  14403.111  14403.080  0.500  1.496342  33.15  59.6641  13.3616
  14407.584  14407.550  0.500  1.494965  33.1095  59.6029  13.3663
  14412.059  14412.040  0.500  1.493505  32.945  59.3063  13.3193
  14416.573  14416.550  0.500  1.492070  33.0432  59.4934  13.3805
  14421.099  14421.080  0.500  1.490679  32.9356  59.2908  13.3535
  14425.647  14425.630  0.500  1.489650  32.9773  59.3731  13.3858
  14430.233  14430.200  0.500  1.488733  32.9257  59.2866  13.3785
  14434.814  14434.780  0.500  1.487842  32.8634  59.1787  13.3661
  14439.407  14439.390  0.500  1.486814  32.8605  59.1779  13.3796
  14444.048  14444.010  0.500  1.486091  32.7151  58.9227  13.3316
  14448.710  14448.660  0.500  1.484997  32.7864  59.056  13.3763
  14453.348  14453.320  0.500  1.484202  32.7495  58.9864  13.3712
  14458.062  14458.000  0.500  1.483430  32.7073  58.9195  13.3664
  14462.761  14462.700  0.500  1.482480  32.659  58.8332  13.3595
  14467.445  14467.420  0.500  1.481563  32.6316  58.7938  13.3628
  14472.223  14472.160  0.500  1.480491  32.5967  58.7295  13.3625
  14476.968  14476.910  0.500  1.479206  32.5559  58.6583  13.3634
  14481.771  14481.690  0.500  1.477956  32.4723  58.5138  13.3472
  14486.522  14486.490  0.500  1.476610  32.4737  58.5263  13.368
  14491.378  14491.300  0.500  1.475190  32.4304  58.4528  13.3702
  14496.172  14496.130  0.500  1.473882  32.3973  58.3975  13.375
  14501.080  14500.990  0.500  1.472268  32.3613  58.3374  13.3829
  14505.881  14505.860  0.500  1.470541  32.3199  58.2705  13.3906
  14510.786  14510.750  0.500  1.468831  32.2756  58.1905  13.3951
  14515.676  14515.660  0.500  1.467297  32.2016  58.0666  13.3871
  14520.616  14520.590  0.500  1.465565  32.2027  58.0699  13.4111
  14525.559  14525.530  0.500  1.463857  32.1675  58.0102  13.4202
  14530.579  14530.500  0.500  1.462308  32.1266  57.9438  13.4256
  14535.511  14535.490  0.500  1.460947  32.0823  57.8666  13.426
  14540.547  14540.490  0.500  1.459755  32.0456  57.8043  13.4275
  14545.559  14545.520  0.500  1.458654  32.009  57.7471  13.4291
  14550.612  14550.560  0.500  1.457484  31.9283  57.6031  13.4112
  14555.631  14555.620  0.500  1.456172  31.9288  57.6101  13.4305
  14560.719  14560.700  0.500  1.454920  31.8842  57.5306  13.4288
  14565.820  14565.800  0.500  1.453664  31.8407  57.4575  13.4285
  14570.961  14570.920  0.500  1.452202  31.8045  57.3923  13.4329
  14576.069  14576.060  0.500  1.451089  31.7618  57.327  13.4326
  14581.254  14581.220  0.500  1.450273  31.7211  57.2575  13.4273
  14586.444  14586.400  0.500  1.449236  31.6806  57.1855  13.4243
  14591.609  14591.590  0.500  1.448413  31.6288  57.0964  13.4144
  14596.843  14596.810  0.500  1.447533  31.5871  57.0304  13.4107
  14602.063  14602.040  0.500  1.446712  31.5599  56.9817  13.4102
  14607.332  14607.290  0.500  1.445468  31.5134  56.9024  13.4082
  14612.541  14612.560  0.500  1.444235  31.4658  56.8254  13.4066
  14617.883  14617.850  0.500  1.442643  31.4287  56.7606  13.4126
  14623.202  14623.160  0.500  1.441100  31.3827  56.6826  13.4149
  14628.497  14628.490  0.500  1.439397  31.3428  56.6174  13.4223
  14633.861  14633.840  0.500  1.437567  31.3043  56.5504  13.431
  14639.247  14639.210  0.500  1.435823  31.2558  56.4644  13.434
  14644.628  14644.590  0.500  1.434063  31.176  56.3256  13.4246
  14650.042  14650.000  0.500  1.432593  31.1735  56.3353  13.4466
  14655.469  14655.420  0.500  1.431017  31.13  56.2563  13.4489
  14660.900  14660.870  0.500  1.429670  31.0648  56.1517  13.442
  14666.372  14666.330  0.500  1.428258  31.0414  56.1065  13.4502
  14671.840  14671.810  0.500  1.426788  31.0048  56.0433  13.4548
  14677.330  14677.310  0.500  1.425505  30.9536  55.9545  13.4507
  14682.853  14682.830  0.500  1.424121  30.8717  55.8134  13.4354
  14688.417  14688.370  0.500  1.422880  30.867  55.8067  13.4505
  14693.920  14693.920  0.500  1.421489  30.8259  55.734  13.4516
  14699.541  14699.500  0.500  1.420246  30.7689  55.641  13.4459
  14705.137  14705.100  0.500  1.418955  30.7809  55.6567  13.4671
  14710.738  14710.710  0.500  1.417505  30.7924  55.6866  13.4939
  14716.390  14716.350  0.500  1.416209  30.7609  55.6421  13.5006
  14722.047  14722.000  0.500  1.414832  30.7123  55.5566  13.4984
  14727.698  14727.670  0.500  1.413679  30.6755  55.49  13.4977
  14733.383  14733.360  0.500  1.412415  30.6035  55.3671  13.4849