File: xdidata/Pt/Pt-L3-PlatinumFoil.xdi
# XDI/1.0 BlueSky/1.10.0 BMM/2023-1.0-py310-tiled
# Beamline.name: BMM (06BM) -- Beamline for Materials Measurement (NIST)
# Beamline.xray_source: NSLS-II three-pole wiggler
# Beamline.collimation: paraboloid mirror, 5 nm Rh on 30 nm Pt
# Beamline.focusing: not in use
# Beamline.harmonic_rejection: flat mirror, Pt stripe, pitch = 7.0 mrad relative to beam
# Beamline.software: Bluesky 1.10.0, Ophyd 1.7.0, DataBroker 2.0.0b13, Python 3.10.8, 2023-1.0-py310-tiled
# Detector.I0: 10 cm N2
# Detector.I1: 25 cm N2
# Detector.I2: 25 cm N2
# Element.symbol: Pt
# Element.edge: L3
# Element.reference: Pt
# Element.reference_material: Pt foil
# Facility.name: NSLS-II
# Facility.energy: 3.0
# Facility.current: 400.8
# Facility.mode: top-off
# Facility.GUP: 301027
# Facility.SAF: 310583
# Facility.cycle: 2023-2
# Mono.name: Si(111)
# Mono.d_spacing: 3.13519
# Mono.encoder_resolution: 0.0000050 deg/ct
# Mono.angle_offset: 16.0754 deg
# Mono.scan_mode: pseudo channel cut
# Mono.scan_type: step
# Mono.direction: forward in energy
# Sample.name: Pt foil
# Sample.prep: reference foil
# Sample.x: 109.138 mm
# Sample.y: 153.150 mm
# Sample.SDD_position: 205.000 mm
# Scan.experimenters: Bruce Ravel
# Scan.edge_energy: 11563.8
# Scan.start_time: 2023-05-28T18:57:11
# Scan.end_time: 2023-05-28T19:05:02
# Scan.transient_id: 78931
# Scan.uid: 7087ce09-c0ca-42b1-b29a-ad5783c3b504
# Scan.plot_hint: ln(It/Ir)  --  ln($6/$7)
# Column.1: energy eV
# Column.2: requested_energy eV
# Column.3: measurement_time seconds
# Column.4: xmu
# Column.5: I0 nA
# Column.6: It nA
# Column.7: Ir nA
# ///////////
# standard reference foil
# -----------
# energy  requested_energy  measurement_time  xmu  I0  It  Ir
  11363.744  11363.800  0.500  0.940809  70.6245  116.963  45.6521
  11373.878  11373.800  0.500  0.938477  70.1404  116.218  45.4672
  11383.889  11383.800  0.500  0.936013  70.1762  116.317  45.618
  11393.862  11393.800  0.500  0.933769  68.0242  112.808  44.3414
  11403.841  11403.800  0.500  0.931643  69.8982  115.973  45.6823
  11413.872  11413.800  0.500  0.929390  69.6771  115.649  45.6576
  11423.774  11423.800  0.500  0.927037  69.5371  115.452  45.6871
  11433.789  11433.800  0.500  0.924897  69.3652  115.216  45.6915
  11443.806  11443.800  0.500  0.922674  69.211  115.007  45.7103
  11453.823  11453.800  0.500  0.920570  69.0528  114.792  45.7208
  11463.840  11463.800  0.500  0.918387  68.8721  114.538  45.7193
  11473.824  11473.800  0.500  0.916497  68.7274  114.345  45.7286
  11483.820  11483.800  0.500  0.914623  68.6396  114.241  45.7727
  11493.846  11493.800  0.500  0.913102  68.4649  114.011  45.75
  11503.819  11503.800  0.500  0.911880  68.3174  113.804  45.7229
  11513.845  11513.800  0.500  0.911270  68.1537  113.583  45.6619
  11523.791  11523.800  0.500  0.911977  67.9684  113.328  45.5271
  11533.835  11533.800  0.500  0.915338  67.9798  113.403  45.4044
  11535.808  11535.800  0.500  0.916587  67.9583  113.364  45.3321
  11537.787  11537.800  0.500  0.918195  67.9393  113.351  45.2543
  11539.761  11539.800  0.500  0.920148  67.8835  113.264  45.1312
  11541.765  11541.800  0.500  0.922691  67.8517  113.225  45.0011
  11543.764  11543.800  0.500  0.925957  67.8114  113.176  44.8347
  11545.769  11545.800  0.500  0.930037  67.7456  113.058  44.6056
  11547.769  11547.800  0.500  0.935469  67.7058  112.999  44.3411
  11549.764  11549.800  0.500  0.942836  67.6623  112.925  43.9868
  11551.765  11551.800  0.500  0.953305  67.6016  112.849  43.4994
  11553.762  11553.800  0.500  0.967693  67.5633  112.795  42.8574
  11554.041  11554.100  0.500  0.970301  67.5345  112.731  42.7214
  11554.342  11554.400  0.500  0.973263  67.5194  112.719  42.5905
  11554.650  11554.700  0.500  0.976461  67.5137  112.708  42.4507
  11554.940  11555.000  0.500  0.979868  67.4972  112.688  42.2985
  11555.248  11555.300  0.500  0.983483  67.4894  112.67  42.1394
  11555.550  11555.600  0.500  0.987514  67.483  112.677  41.9725
  11555.852  11555.900  0.500  0.991774  67.4585  112.639  41.78
  11556.154  11556.200  0.500  0.996326  67.4575  112.607  41.5785
  11556.467  11556.500  0.500  1.001528  67.43  112.566  41.3474
  11556.775  11556.800  0.500  1.007245  67.4013  112.527  41.0974
  11557.071  11557.100  0.500  1.012940  67.3863  112.511  40.8584
  11557.373  11557.400  0.500  1.019195  67.3643  112.484  40.5938
  11557.675  11557.700  0.500  1.026254  67.3527  112.469  40.303
  11557.972  11558.000  0.500  1.033571  67.332  112.433  39.9963
  11558.268  11558.300  0.500  1.041703  67.3139  112.408  39.6637
  11558.582  11558.600  0.500  1.050810  67.2877  112.36  39.2873
  11558.890  11558.900  0.500  1.060884  67.2441  112.273  38.8634
  11559.186  11559.200  0.500  1.071245  67.2247  112.247  38.4539
  11559.476  11559.500  0.500  1.083153  67.1959  112.2  37.9826
  11559.784  11559.800  0.500  1.096836  67.1633  112.14  37.4466
  11560.081  11560.100  0.500  1.111323  67.1407  112.105  36.8963
  11560.371  11560.400  0.500  1.127531  67.0926  112.033  36.2798
  11560.691  11560.700  0.500  1.147283  67.0589  111.974  35.5515
  11560.993  11561.000  0.500  1.169137  67.0026  111.889  34.7566
  11561.290  11561.300  0.500  1.192572  66.9483  111.796  33.9232
  11561.586  11561.600  0.500  1.219671  66.8807  111.687  32.9843
  11561.894  11561.900  0.500  1.250876  66.8154  111.573  31.9382
  11562.179  11562.200  0.500  1.284261  66.7547  111.47  30.8611
  11562.487  11562.500  0.500  1.323595  66.6642  111.323  29.6315
  11562.795  11562.800  0.500  1.368572  66.5965  111.211  28.2999
  11563.086  11563.100  0.500  1.416151  66.4998  111.06  26.9484
  11563.376  11563.400  0.500  1.466367  66.4196  110.932  25.599
  11563.690  11563.700  0.500  1.524126  66.2951  110.717  24.1155
  11563.987  11564.000  0.500  1.584699  66.1902  110.541  22.6619
  11564.272  11564.300  0.500  1.643517  66.0938  110.393  21.3389
  11564.574  11564.600  0.500  1.706076  65.993  110.223  20.014
  11564.888  11564.900  0.500  1.769445  65.9065  110.072  18.7593
  11565.185  11565.200  0.500  1.825169  65.8372  109.967  17.7256
  11565.487  11565.500  0.500  1.875295  65.7838  109.875  16.8449
  11565.778  11565.800  0.500  1.919316  65.739  109.805  16.1092
  11566.087  11566.100  0.500  1.953345  65.713  109.759  15.5636
  11566.372  11566.400  0.500  1.976380  65.6801  109.71  15.2026
  11566.686  11566.700  0.500  1.990271  65.6833  109.714  14.9933
  11567.006  11567.000  0.500  1.994048  65.7294  109.792  14.9475
  11567.285  11567.300  0.500  1.990116  65.7271  109.792  15.0063
  11567.588  11567.600  0.500  1.979863  65.7487  109.829  15.166
  11567.890  11567.900  0.500  1.965791  65.8064  109.928  15.3949
  11568.193  11568.200  0.500  1.948622  65.8162  109.945  15.6639
  11568.490  11568.500  0.500  1.930289  65.8571  110.013  15.9636
  11568.798  11568.800  0.500  1.910800  65.8898  110.079  16.2875
  11569.106  11569.100  0.500  1.892384  65.9488  110.171  16.6041
  11569.403  11569.400  0.500  1.874625  65.9773  110.218  16.9088
  11569.694  11569.700  0.500  1.858063  65.9722  110.205  17.1891
  11570.014  11570.000  0.500  1.842513  66.0088  110.277  17.4699
  11570.294  11570.300  0.500  1.829413  66.0164  110.285  17.7015
  11570.591  11570.600  0.500  1.816462  66.0353  110.322  17.9384
  11570.911  11570.900  0.500  1.803973  66.0364  110.327  18.1647
  11571.202  11571.200  0.500  1.794060  66.0541  110.359  18.351
  11571.505  11571.500  0.500  1.784801  66.0814  110.406  18.5294
  11571.808  11571.800  0.500  1.775687  66.0792  110.398  18.6977
  11572.110  11572.100  0.500  1.767557  66.0826  110.414  18.8532
  11572.407  11572.400  0.500  1.759897  66.0936  110.428  19.0005
  11572.704  11572.700  0.500  1.752664  66.0964  110.44  19.1406
  11573.013  11573.000  0.500  1.745645  66.1064  110.456  19.2781
  11573.299  11573.300  0.500  1.739439  66.1104  110.466  19.3999
  11573.607  11573.600  0.500  1.733554  66.1217  110.481  19.5171
  11573.898  11573.900  0.500  1.728121  66.1168  110.47  19.6214
  11574.190  11574.200  0.500  1.723377  66.1256  110.486  19.7176
  11574.493  11574.500  0.500  1.719200  66.1173  110.477  19.7985
  11574.801  11574.800  0.500  1.715642  66.114  110.47  19.8679
  11575.099  11575.100  0.500  1.713134  66.105  110.449  19.914
  11575.396  11575.400  0.500  1.711214  66.1169  110.472  19.9563
  11575.687  11575.700  0.500  1.710158  66.0995  110.451  19.9737
  11575.996  11576.000  0.500  1.709740  66.0928  110.442  19.9804
  11576.299  11576.300  0.500  1.710162  66.0896  110.431  19.9699
  11576.590  11576.600  0.500  1.710993  66.0796  110.424  19.9522
  11576.899  11576.900  0.500  1.712747  66.0775  110.42  19.9164
  11577.191  11577.200  0.500  1.714859  66.0668  110.41  19.8727
  11577.494  11577.500  0.500  1.717497  66.077  110.416  19.8214
  11577.785  11577.800  0.500  1.720575  66.0412  110.356  19.7497
  11578.082  11578.100  0.500  1.724327  66.0315  110.349  19.6745
  11578.386  11578.400  0.500  1.727901  66.006  110.307  19.5969
  11578.695  11578.700  0.500  1.731790  65.9983  110.294  19.5184
  11579.015  11579.000  0.500  1.735973  66.0111  110.316  19.4409
  11579.289  11579.300  0.500  1.739280  65.9944  110.285  19.3712
  11579.587  11579.600  0.500  1.742770  65.9804  110.27  19.3011
  11579.901  11579.900  0.500  1.745681  65.9849  110.271  19.2452
  11580.205  11580.200  0.500  1.748063  65.9575  110.224  19.1912
  11580.502  11580.500  0.500  1.749603  65.9542  110.221  19.1611
  11580.811  11580.800  0.500  1.750465  65.9589  110.239  19.1477
  11581.109  11581.100  0.500  1.750300  65.9472  110.224  19.1484
  11581.406  11581.400  0.500  1.749423  65.9373  110.206  19.162
  11581.704  11581.700  0.500  1.747750  65.9503  110.221  19.1967
  11582.007  11582.000  0.500  1.745070  65.9616  110.252  19.2536
  11582.304  11582.300  0.500  1.741910  65.9393  110.212  19.3075
  11582.584  11582.600  0.500  1.738159  65.9606  110.248  19.3865
  11582.911  11582.900  0.500  1.733461  65.9457  110.233  19.475
  11583.215  11583.200  0.500  1.728845  65.9457  110.238  19.566
  11583.495  11583.500  0.500  1.724220  65.9468  110.237  19.6566
  11583.798  11583.800  0.500  1.719476  65.9728  110.285  19.7587
  11584.113  11584.100  0.500  1.715073  66.1375  110.56  19.8954
  11584.405  11584.400  0.500  1.711238  66.1742  110.607  19.9802
  11584.697  11584.700  0.500  1.707987  66.1825  110.627  20.0489
  11585.012  11585.000  0.500  1.705253  66.1866  110.64  20.1063
  11585.304  11585.300  0.500  1.703212  66.1926  110.652  20.1494
  11585.584  11585.600  0.500  1.701856  66.1932  110.647  20.1759
  11585.893  11585.900  0.500  1.700627  66.1726  110.616  20.1951
  11586.197  11586.200  0.500  1.700084  66.1692  110.622  20.2072
  11586.489  11586.500  0.500  1.699726  66.1763  110.63  20.2157
  11586.786  11586.800  0.500  1.699712  66.172  110.621  20.2144
  11587.108  11587.100  0.500  1.699881  66.1658  110.599  20.207
  11587.388  11587.400  0.500  1.700154  66.1666  110.609  20.2034
  11587.691  11587.700  0.500  1.700598  66.1643  110.609  20.1944
  11588.001  11588.000  0.500  1.701365  66.1507  110.581  20.1738
  11588.281  11588.300  0.500  1.702345  66.143  110.581  20.154
  11588.573  11588.600  0.500  1.703614  66.1277  110.556  20.1239
  11588.778  11588.800  0.500  1.704568  66.1453  110.587  20.1104
  11589.800  11589.790  0.500  1.713047  66.1065  110.52  19.9285
  11590.793  11590.790  0.500  1.726946  66.0698  110.468  19.6442
  11591.821  11591.810  0.500  1.746066  66.0461  110.431  19.2657
  11592.879  11592.860  0.500  1.766853  65.9872  110.352  18.8558
  11593.943  11593.920  0.500  1.782921  65.9555  110.295  18.5457
  11595.018  11595.000  0.500  1.789722  65.9478  110.276  18.4169
  11596.118  11596.100  0.500  1.785454  65.9455  110.286  18.4972
  11597.246  11597.220  0.500  1.773243  65.9401  110.285  18.7244
  11598.370  11598.360  0.500  1.758570  65.9499  110.298  19.0034
  11599.516  11599.510  0.500  1.745381  65.954  110.315  19.2587
  11600.698  11600.690  0.500  1.735321  65.9442  110.296  19.4499
  11601.892  11601.880  0.500  1.729375  65.9574  110.327  19.5716
  11603.116  11603.100  0.500  1.725638  65.9243  110.277  19.6358
  11604.352  11604.330  0.500  1.721220  65.9179  110.269  19.7213
  11605.611  11605.580  0.500  1.714869  65.9001  110.254  19.8443
  11606.864  11606.850  0.500  1.708119  65.9006  110.255  19.979
  11608.153  11608.140  0.500  1.703487  65.8934  110.249  20.0706
  11609.466  11609.450  0.500  1.703590  65.8477  110.178  20.0555
  11610.768  11610.780  0.500  1.708469  65.8411  110.174  19.9573
  11612.128  11612.130  0.500  1.716836  65.8056  110.126  19.7824
  11613.506  11613.500  0.500  1.727352  65.7526  110.03  19.5583
  11614.908  11614.880  0.500  1.738788  65.7297  110.008  19.3321
  11616.287  11616.290  0.500  1.750400  65.6772  109.923  19.0942
  11617.713  11617.710  0.500  1.760715  65.652  109.888  18.8921
  11619.152  11619.150  0.500  1.768506  65.6206  109.846  18.7383
  11620.626  11620.610  0.500  1.771911  65.6152  109.845  18.6745
  11622.112  11622.090  0.500  1.770740  65.5895  109.809  18.6902
  11623.616  11623.590  0.500  1.766207  65.5721  109.773  18.769
  11625.120  11625.110  0.500  1.760826  65.571  109.781  18.8717
  11626.649  11626.650  0.500  1.755392  65.5705  109.782  18.9746
  11628.201  11628.210  0.500  1.750164  65.5513  109.759  19.0702
  11629.795  11629.780  0.500  1.745103  65.5375  109.743  19.1641
  11631.401  11631.380  0.500  1.740897  65.5056  109.706  19.2384
  11633.013  11632.990  0.500  1.737568  65.4865  109.682  19.2983
  11634.638  11634.630  0.500  1.734610  65.4619  109.652  19.3501
  11636.281  11636.280  0.500  1.730480  65.4509  109.63  19.4264
  11637.948  11637.950  0.500  1.724547  65.4325  109.61  19.5385
  11639.662  11639.640  0.500  1.717253  65.4267  109.608  19.6811
  11641.371  11641.350  0.500  1.709656  65.4127  109.587  19.8273
  11643.098  11643.080  0.500  1.702823  65.3953  109.571  19.9604
  11644.838  11644.830  0.500  1.697752  65.3817  109.556  20.0591
  11646.602  11646.590  0.500  1.694243  65.3517  109.509  20.121
  11648.384  11648.380  0.500  1.692005  65.3296  109.487  20.162
  11650.184  11650.180  0.500  1.691202  65.2478  109.355  20.1538
  11652.020  11652.010  0.500  1.692660  65.1025  109.11  20.0795
  11653.869  11653.850  0.500  1.696917  65.211  109.304  20.0297
  11655.724  11655.710  0.500  1.703454  65.1807  109.262  19.8915
  11657.603  11657.590  0.500  1.711187  65.1408  109.212  19.7293
  11659.507  11659.490  0.500  1.718158  65.0401  109.036  19.5607
  11661.429  11661.410  0.500  1.723737  64.9837  108.951  19.4366
  11663.345  11663.350  0.500  1.726826  65.0574  109.08  19.3997
  11665.310  11665.310  0.500  1.728087  65.0267  109.043  19.3686
  11667.282  11667.280  0.500  1.727383  64.9554  108.934  19.3629
  11669.307  11669.280  0.500  1.725816  64.8581  108.779  19.3656
  11671.309  11671.290  0.500  1.723943  64.9549  108.944  19.4313
  11673.324  11673.320  0.500  1.721924  64.9345  108.912  19.4649
  11675.393  11675.380  0.500  1.719745  64.8915  108.86  19.498
  11677.463  11677.450  0.500  1.718057  64.8037  108.727  19.5071
  11679.575  11679.540  0.500  1.717240  64.731  108.609  19.502
  11681.664  11681.650  0.500  1.717977  64.7991  108.724  19.5083
  11683.777  11683.780  0.500  1.719870  64.7775  108.691  19.4654
  11685.921  11685.920  0.500  1.722357  64.7373  108.645  19.4089
  11688.113  11688.090  0.500  1.724357  64.7127  108.613  19.3644
  11690.306  11690.280  0.500  1.724677  64.6872  108.57  19.3505
  11692.471  11692.480  0.500  1.722920  64.6533  108.535  19.3784
  11694.713  11694.700  0.500  1.719105  64.6336  108.513  19.4485
  11696.968  11696.950  0.500  1.713123  64.6034  108.473  19.558
  11699.212  11699.210  0.500  1.705770  64.5731  108.427  19.6939
  11701.505  11701.490  0.500  1.697677  64.4733  108.274  19.826
  11703.799  11703.790  0.500  1.690105  64.2183  107.857  19.8996
  11706.135  11706.110  0.500  1.684575  64.4824  108.306  20.0933
  11708.460  11708.450  0.500  1.681828  64.467  108.293  20.1461
  11710.786  11710.800  0.500  1.681626  64.4183  108.22  20.1367
  11713.185  11713.180  0.500  1.683605  64.3811  108.167  20.0871
  11715.579  11715.570  0.500  1.687003  64.3591  108.132  20.0123
  11718.021  11717.990  0.500  1.691349  64.3296  108.089  19.9177
  11720.417  11720.420  0.500  1.695611  64.2768  108.01  19.8185
  11722.904  11722.870  0.500  1.699547  64.2372  107.958  19.7311
  11725.397  11725.350  0.500  1.702573  64.1986  107.908  19.6624
  11727.856  11727.840  0.500  1.704964  64.1784  107.889  19.612
  11730.363  11730.350  0.500  1.706876  64.1282  107.812  19.5606
  11732.890  11732.870  0.500  1.708453  64.098  107.761  19.5205
  11735.424  11735.420  0.500  1.708740  63.8137  107.298  19.4311
  11737.994  11737.990  0.500  1.708159  63.9877  107.608  19.4984
  11740.560  11740.570  0.500  1.706684  63.97  107.581  19.5223
  11743.200  11743.180  0.500  1.705502  63.9414  107.551  19.54
  11745.816  11745.800  0.500  1.705213  63.7367  107.213  19.4842
  11748.451  11748.450  0.500  1.706733  63.8084  107.342  19.478
  11751.118  11751.110  0.500  1.709320  63.8301  107.392  19.4367
  11753.816  11753.790  0.500  1.711705  63.7886  107.333  19.3798
  11756.479  11756.490  0.500  1.712512  63.6073  107.049  19.3129
  11759.234  11759.210  0.500  1.709769  63.6744  107.168  19.3876
  11761.972  11761.950  0.500  1.703384  63.6753  107.179  19.5137
  11764.693  11764.700  0.500  1.695171  63.6557  107.156  19.6705
  11767.500  11767.480  0.500  1.687427  63.6146  107.096  19.8122
  11770.290  11770.270  0.500  1.681626  63.3299  106.629  19.8406
  11773.099  11773.090  0.500  1.677648  63.5378  106.988  19.9867
  11775.928  11775.920  0.500  1.675089  63.3851  106.746  19.9926
  11778.795  11778.770  0.500  1.673045  63.371  106.727  20.0299
  11781.650  11781.650  0.500  1.671697  63.415  106.816  20.0737
  11784.556  11784.540  0.500  1.670954  63.3758  106.772  20.0804
  11787.475  11787.450  0.500  1.670594  63.3438  106.718  20.0774
  11790.378  11790.370  0.500  1.670536  63.3042  106.663  20.0682
  11793.324  11793.320  0.500  1.670972  63.2624  106.612  20.0498
  11796.314  11796.290  0.500  1.672443  63.219  106.549  20.0087
  11799.269  11799.270  0.500  1.674843  63.1956  106.52  19.9552
  11802.305  11802.280  0.500  1.678635  63.1318  106.423  19.8615
  11805.318  11805.300  0.500  1.683583  62.7506  105.796  19.647
  11808.357  11808.350  0.500  1.688722  63.0179  106.259  19.6318
  11811.434  11811.410  0.500  1.693411  62.9846  106.208  19.5307
  11814.518  11814.490  0.500  1.696368  62.934  106.137  19.4601
  11817.598  11817.590  0.500  1.697021  62.8945  106.079  19.4367
  11820.729  11820.710  0.500  1.695432  62.8415  105.998  19.4527
  11823.861  11823.850  0.500  1.692197  62.7973  105.936  19.5043
  11827.013  11827.000  0.500  1.687424  62.7496  105.871  19.5857
  11830.215  11830.180  0.500  1.681153  62.4153  105.324  19.607
  11833.383  11833.370  0.500  1.673980  62.6697  105.766  19.8311
  11836.619  11836.590  0.500  1.666303  62.6534  105.754  19.9815
  11839.827  11839.820  0.500  1.660371  62.5987  105.671  20.0848
  11843.079  11843.070  0.500  1.656624  62.5635  105.629  20.1521
  11846.375  11846.350  0.500  1.654936  62.512  105.552  20.1715
  11849.643  11849.640  0.500  1.654907  62.4333  105.432  20.1491
  11852.981  11852.950  0.500  1.656027  62.4162  105.413  20.1229
  11856.264  11856.270  0.500  1.657291  62.2316  105.111  20.04
  11859.654  11859.620  0.500  1.657053  61.9848  104.712  19.9686
  11863.028  11862.990  0.500  1.654851  62.1088  104.942  20.0565
  11866.373  11866.370  0.500  1.652050  62.2497  105.191  20.1605
  11869.817  11869.780  0.500  1.650329  62.0956  104.956  20.1502
  11873.209  11873.200  0.500  1.650311  62.1302  105.016  20.1621
  11876.682  11876.650  0.500  1.652205  62.0952  104.973  20.1156
  11880.102  11880.110  0.500  1.654916  62.0326  104.874  20.0422
  11883.604  11883.590  0.500  1.657765  61.8383  104.564  19.9261
  11887.102  11887.090  0.500  1.660511  61.8246  104.545  19.8679
  11890.615  11890.610  0.500  1.663135  61.8598  104.622  19.8305
  11894.160  11894.150  0.500  1.664984  61.8071  104.538  19.778
  11897.701  11897.700  0.500  1.665015  61.7476  104.454  19.7615
  11901.294  11901.280  0.500  1.663242  61.1475  103.451  19.6064
  11904.901  11904.880  0.500  1.659152  61.6617  104.338  19.8555
  11908.498  11908.490  0.500  1.653363  61.6212  104.279  19.9595
  11912.147  11912.120  0.500  1.646721  61.5624  104.199  20.0771
  11915.786  11915.780  0.500  1.640658  61.2756  103.725  20.1073
  11919.464  11919.450  0.500  1.636365  61.4438  104.019  20.2512
  11923.169  11923.140  0.500  1.633943  61.4446  104.038  20.3038
  11926.851  11926.850  0.500  1.633005  61.397  103.958  20.3074
  11930.604  11930.580  0.500  1.633194  61.3351  103.866  20.2855
  11934.310  11934.320  0.500  1.633340  60.6713  102.758  20.0662
  11938.111  11938.090  0.500  1.633584  61.1911  103.661  20.2377
  11941.890  11941.880  0.500  1.633380  61.1615  103.626  20.2348
  11945.690  11945.680  0.500  1.632846  61.2918  103.851  20.2896
  11949.536  11949.510  0.500  1.631144  61.2527  103.802  20.3147
  11953.360  11953.350  0.500  1.628531  61.2059  103.745  20.3566
  11957.235  11957.210  0.500  1.626488  61.1581  103.681  20.3857
  11961.095  11961.090  0.500  1.625827  61.1031  103.599  20.383
  11965.020  11964.990  0.500  1.626701  61.0472  103.515  20.3486
  11968.922  11968.910  0.500  1.628548  60.9939  103.439  20.2962
  11972.876  11972.850  0.500  1.629832  60.9376  103.356  20.2539
  11976.815  11976.810  0.500  1.630192  60.8806  103.276  20.2309
  11980.800  11980.780  0.500  1.629984  60.8205  103.189  20.218
  11984.794  11984.780  0.500  1.629342  60.7655  103.106  20.2148
  11988.803  11988.790  0.500  1.629211  60.7095  103.028  20.2022
  11992.840  11992.830  0.500  1.628522  60.6637  102.96  20.2028
  11996.904  11996.880  0.500  1.626828  60.6012  102.875  20.2203
  12000.966  12000.950  0.500  1.624108  60.5555  102.814  20.2634
  12005.074  12005.040  0.500  1.619712  60.497  102.724  20.3348
  12009.172  12009.150  0.500  1.614383  60.4405  102.649  20.4286
  12013.317  12013.280  0.500  1.608711  60.3907  102.58  20.5308
  12017.446  12017.430  0.500  1.603561  60.3411  102.504  20.6215
  12021.603  12021.590  0.500  1.600124  60.2825  102.421  20.6759
  12025.807  12025.780  0.500  1.598467  60.2224  102.339  20.6936
  12029.995  12029.980  0.500  1.597830  60.1711  102.271  20.6931
  12034.250  12034.210  0.500  1.597968  60.1029  102.161  20.668
  12038.463  12038.450  0.500  1.598521  60.0486  102.083  20.6407
  12042.736  12042.710  0.500  1.598824  59.975  101.966  20.6107
  12047.005  12046.990  0.500  1.599011  58.525  99.5205  20.1127
  12051.310  12051.290  0.500  1.599292  59.782  101.668  20.541
  12055.636  12055.610  0.500  1.599700  59.7858  101.691  20.5371
  12059.972  12059.950  0.500  1.599788  59.7276  101.612  20.5195
  12064.343  12064.310  0.500  1.599518  59.6783  101.538  20.51
  12068.723  12068.690  0.500  1.598810  59.6196  101.459  20.5086
  12073.088  12073.080  0.500  1.597828  59.5578  101.377  20.5122
  12077.538  12077.500  0.500  1.597078  59.4937  101.275  20.5069
  12081.972  12081.930  0.500  1.596048  59.4297  101.179  20.5086
  12086.410  12086.380  0.500  1.594231  59.3756  101.098  20.5293
  12090.877  12090.850  0.500  1.591699  59.2163  100.847  20.5304
  12095.359  12095.340  0.500  1.588671  59.256  100.932  20.6099
  12099.909  12099.850  0.500  1.585480  59.2066  100.857  20.6605
  12104.399  12104.380  0.500  1.582640  59.1383  100.763  20.7
  12108.968  12108.930  0.500  1.579805  59.0854  100.688  20.7432
  12113.522  12113.500  0.500  1.577369  59.0139  100.576  20.7706
  12118.111  12118.080  0.500  1.574746  58.9481  100.485  20.8064
  12122.730  12122.690  0.500  1.571987  58.8867  100.387  20.8436
  12127.345  12127.310  0.500  1.569276  58.7817  100.23  20.8674
  12131.984  12131.960  0.500  1.566784  58.7803  100.243  20.9222
  12136.651  12136.620  0.500  1.565080  58.7071  100.146  20.9377
  12141.329  12141.300  0.500  1.564008  58.6508  100.046  20.9393
  12146.042  12146.000  0.500  1.563435  58.5727  99.9354  20.928
  12150.753  12150.720  0.500  1.563030  58.5208  99.8666  20.9221
  12155.493  12155.460  0.500  1.562445  58.4542  99.7611  20.9122
  12160.237  12160.210  0.500  1.562148  58.365  99.6231  20.8895
  12165.023  12164.990  0.500  1.562244  58.327  99.576  20.8776
  12169.852  12169.790  0.500  1.562092  58.2582  99.4655  20.8576
  12174.627  12174.600  0.500  1.561772  58.1912  99.37  20.8442
  12179.509  12179.430  0.500  1.561360  58.1235  99.2741  20.8327
  12184.291  12184.290  0.500  1.560709  58.0546  99.1734  20.8251
  12189.187  12189.160  0.500  1.559698  57.983  99.076  20.8257
  12194.048  12194.050  0.500  1.558005  57.9227  98.9729  20.8393
  12198.991  12198.960  0.500  1.555920  57.8234  98.8271  20.852
  12203.919  12203.890  0.500  1.553537  57.8024  98.8116  20.8985
  12208.870  12208.830  0.500  1.550740  57.7319  98.7114  20.9358
  12213.851  12213.800  0.500  1.547532  57.6645  98.5962  20.9785
  12218.810  12218.790  0.500  1.544396  57.5958  98.4976  21.0234
  12223.832  12223.790  0.500  1.541892  57.533  98.4071  21.0567
  12228.845  12228.820  0.500  1.539695  57.4668  98.321  21.0846
  12233.888  12233.860  0.500  1.537580  56.8037  97.1962  20.8875
  12238.956  12238.920  0.500  1.535410  57.2324  97.9538  21.096
  12244.027  12244.000  0.500  1.533371  57.2222  97.9502  21.1383
  12249.142  12249.100  0.500  1.531155  57.1626  97.8554  21.1647
  12254.248  12254.220  0.500  1.528658  57.0848  97.7419  21.193
  12259.404  12259.360  0.500  1.526122  57.0126  97.6378  21.2242
  12264.551  12264.520  0.500  1.523986  55.5936  95.2192  20.7427
  12269.730  12269.700  0.500  1.522649  56.7625  97.2366  21.2105
  12274.938  12274.890  0.500  1.521830  56.817  97.3455  21.2517
  12280.132  12280.110  0.500  1.521534  56.7413  97.2365  21.2342
  12285.376  12285.340  0.500  1.521536  56.641  97.0819  21.2004
  12290.611  12290.590  0.500  1.521668  55.207  94.6252  20.6612
  12295.911  12295.860  0.500  1.521828  56.4813  96.8355  21.1404
  12301.195  12301.150  0.500  1.521536  56.434  96.7706  21.1324
  12306.503  12306.460  0.500  1.520792  56.3685  96.6725  21.1267
  12311.836  12311.790  0.500  1.519478  56.2916  96.5666  21.1313
  12317.167  12317.140  0.500  1.517700  56.2027  96.4331  21.1396
  12322.549  12322.510  0.500  1.515153  55.7343  95.6341  21.0179
  12327.916  12327.890  0.500  1.512060  56.0448  96.1864  21.2048
  12333.354  12333.300  0.500  1.508796  55.9904  96.1035  21.2558
  12338.764  12338.720  0.500  1.505510  55.9216  96.0052  21.3039
  12344.218  12344.170  0.500  1.502559  55.8522  95.8937  21.3421
  12349.664  12349.630  0.500  1.500118  55.6598  95.5776  21.3237
  12355.141  12355.110  0.500  1.497832  55.7046  95.6705  21.3933
  12360.637  12360.610  0.500  1.495812  55.643  95.5899  21.4185
  12366.150  12366.130  0.500  1.494034  55.5663  95.4727  21.4303
  12371.703  12371.670  0.500  1.492033  55.4501  95.2943  21.4331
  12377.253  12377.220  0.500  1.490121  55.4264  95.2678  21.4682
  12382.849  12382.800  0.500  1.488300  55.1314  94.7838  21.398
  12388.443  12388.400  0.500  1.486346  55.295  95.0687  21.5043
  12394.069  12394.010  0.500  1.484531  55.2146  94.9568  21.518
  12399.693  12399.650  0.500  1.483041  55.1419  94.8365  21.5228
  12405.336  12405.300  0.500  1.481576  55.0602  94.7168  21.5272
  12410.998  12410.970  0.500  1.480252  54.9793  94.5889  21.5266
  12416.699  12416.660  0.500  1.478985  54.8915  94.4478  21.5217