File: xdidata/Pt/Pt-L3-PtRu.xdi
# XDI/1.0 BlueSky/1.10.0 BMM/2023-1.0-py310-tiled
# Beamline.name: BMM (06BM) -- Beamline for Materials Measurement (NIST)
# Beamline.xray_source: NSLS-II three-pole wiggler
# Beamline.collimation: paraboloid mirror, 5 nm Rh on 30 nm Pt
# Beamline.focusing: not in use
# Beamline.harmonic_rejection: flat mirror, Pt stripe, pitch = 7.0 mrad relative to beam
# Beamline.software: Bluesky 1.10.0, Ophyd 1.7.0, DataBroker 2.0.0b13, Python 3.10.8, 2023-1.0-py310-tiled
# Detector.I0: 10 cm N2
# Detector.I1: 25 cm N2
# Detector.I2: 25 cm N2
# Element.symbol: Pt
# Element.edge: L3
# Element.reference: Pt
# Element.reference_material: Pt foil
# Facility.name: NSLS-II
# Facility.energy: 3.0
# Facility.current: 399.7
# Facility.mode: top-off
# Facility.GUP: 301027
# Facility.SAF: 310583
# Facility.cycle: 2023-2
# Mono.name: Si(111)
# Mono.d_spacing: 3.13519
# Mono.encoder_resolution: 0.0000050 deg/ct
# Mono.angle_offset: 16.0754 deg
# Mono.scan_mode: pseudo channel cut
# Mono.scan_type: step
# Mono.direction: forward in energy
# Sample.name: PtRu powder
# Sample.prep: powder on tape
# Sample.x: 119.711 mm
# Sample.y: 114.376 mm
# Sample.SDD_position: 205.000 mm
# Scan.experimenters: Bruce Ravel
# Scan.edge_energy: 11563.8
# Scan.start_time: 2023-06-27T17:05:25
# Scan.end_time: 2023-06-27T17:13:12
# Scan.transient_id: 85175
# Scan.uid: ab280ec3-581e-4457-8b6d-9ad6437a2655
# Scan.plot_hint: ln(I0/It)  --  ln($5/$6)
# Column.1: energy eV
# Column.2: requested_energy eV
# Column.3: measurement_time seconds
# Column.4: xmu
# Column.5: I0 nA
# Column.6: It nA
# Column.7: Ir nA
# ///////////
# BMM standards collection
# -----------
# energy  requested_energy  measurement_time  xmu  I0  It  Ir
  11363.812  11363.800  0.500  -0.189607  71.549  86.4866  35.9758
  11373.867  11373.800  0.500  -0.190675  71.0813  86.0131  35.8613
  11383.878  11383.800  0.500  -0.191909  71.0083  86.0309  35.9453
  11393.834  11393.800  0.500  -0.193218  69.6164  84.4549  35.3602
  11403.858  11403.800  0.500  -0.194459  70.7002  85.8762  36.0278
  11413.810  11413.800  0.500  -0.195611  70.4744  85.7007  36.0297
  11423.836  11423.800  0.500  -0.196704  70.392  85.6941  36.1053
  11433.852  11433.800  0.500  -0.197933  70.2032  85.5693  36.1294
  11443.846  11443.800  0.500  -0.199114  70.023  85.4506  36.155
  11453.846  11453.800  0.500  -0.200274  69.8523  85.3412  36.1779
  11463.852  11463.800  0.500  -0.201371  69.6769  85.2203  36.1987
  11473.865  11473.800  0.500  -0.202517  69.4656  85.0593  36.1912
  11483.763  11483.800  0.500  -0.203633  69.3905  85.0622  36.2574
  11493.754  11493.800  0.500  -0.204803  69.1842  84.9086  36.245
  11503.762  11503.800  0.500  -0.205800  68.9952  84.7611  36.2203
  11513.759  11513.800  0.500  -0.206736  68.849  84.6607  36.1937
  11523.774  11523.800  0.500  -0.207645  68.6545  84.4983  36.098
  11533.771  11533.800  0.500  -0.208245  68.4931  84.3502  35.9159
  11535.744  11535.800  0.500  -0.208222  68.4448  84.2889  35.8539
  11537.752  11537.800  0.500  -0.208166  68.404  84.2339  35.7676
  11539.744  11539.800  0.500  -0.208096  68.3587  84.1722  35.6803
  11541.748  11541.800  0.500  -0.208091  68.3229  84.1277  35.5782
  11543.741  11543.800  0.500  -0.207913  68.2834  84.0641  35.4438
  11545.746  11545.800  0.500  -0.207694  68.2297  83.9796  35.2721
  11547.757  11547.800  0.500  -0.207334  68.1825  83.8913  35.0572
  11549.758  11549.800  0.500  -0.206696  68.1264  83.7689  34.7702
  11551.760  11551.800  0.500  -0.205779  68.0878  83.6445  34.3996
  11553.750  11553.800  0.500  -0.204569  68.0195  83.4597  33.8838
  11554.041  11554.100  0.500  -0.204272  68.0035  83.4153  33.7873
  11554.348  11554.400  0.500  -0.204067  67.9963  83.3893  33.6859
  11554.644  11554.700  0.500  -0.203743  67.9856  83.3492  33.5787
  11554.946  11555.000  0.500  -0.203431  67.9587  83.2902  33.4537
  11555.248  11555.300  0.500  -0.203055  67.9633  83.2646  33.3359
  11555.562  11555.600  0.500  -0.202745  67.9447  83.2159  33.1997
  11555.852  11555.900  0.500  -0.202405  67.9275  83.1666  33.0598
  11556.160  11556.200  0.500  -0.201956  67.918  83.1177  32.9095
  11556.467  11556.500  0.500  -0.201507  67.8954  83.0527  32.7397
  11556.769  11556.800  0.500  -0.201105  67.9901  83.1351  32.6234
  11557.071  11557.100  0.500  -0.200606  68.0836  83.2079  32.4863
  11557.379  11557.400  0.500  -0.199994  68.066  83.1355  32.2778
  11557.675  11557.700  0.500  -0.199427  68.0383  83.0545  32.0639
  11557.972  11558.000  0.500  -0.198739  68.0228  82.9786  31.8397
  11558.285  11558.300  0.500  -0.197997  68.0056  82.8961  31.5844
  11558.593  11558.600  0.500  -0.197249  67.9858  82.8099  31.3225
  11558.872  11558.900  0.500  -0.196460  67.9598  82.713  31.0438
  11559.180  11559.200  0.500  -0.195592  67.9328  82.6083  30.728
  11559.488  11559.500  0.500  -0.194526  67.9172  82.5014  30.3845
  11559.790  11559.800  0.500  -0.193404  67.8809  82.3648  30.0144
  11560.087  11560.100  0.500  -0.192195  67.8672  82.2487  29.6126
  11560.389  11560.400  0.500  -0.190838  67.8307  82.093  29.1605
  11560.679  11560.700  0.500  -0.189280  67.7968  81.9242  28.6727
  11560.976  11561.000  0.500  -0.187748  67.7548  81.7482  28.1443
  11561.290  11561.300  0.500  -0.185729  67.7124  81.5323  27.5316
  11561.592  11561.600  0.500  -0.183579  67.6653  81.3006  26.8741
  11561.882  11561.900  0.500  -0.181231  67.6091  81.0426  26.179
  11562.179  11562.200  0.500  -0.178551  67.5451  80.7491  25.3999
  11562.481  11562.500  0.500  -0.175412  67.49  80.4303  24.5306
  11562.772  11562.800  0.500  -0.172060  67.4242  80.083  23.6343
  11563.074  11563.100  0.500  -0.168021  67.3543  79.6775  22.6254
  11563.388  11563.400  0.500  -0.163553  67.2552  79.2056  21.5382
  11563.679  11563.700  0.500  -0.158811  67.1807  78.7436  20.442
  11563.970  11564.000  0.500  -0.153470  67.0925  78.2213  19.3087
  11564.284  11564.300  0.500  -0.147446  66.9774  77.6181  18.1121
  11564.580  11564.600  0.500  -0.141057  66.888  77.0209  16.967
  11564.877  11564.900  0.500  -0.134163  66.7965  76.387  15.842
  11565.191  11565.200  0.500  -0.126643  66.6851  75.6884  14.7191
  11565.493  11565.500  0.500  -0.118871  66.5916  74.9971  13.7094
  11565.778  11565.800  0.500  -0.111268  66.5332  74.3637  12.8417
  11566.092  11566.100  0.500  -0.103483  66.4658  73.7123  12.0603
  11566.383  11566.400  0.500  -0.096360  66.4265  73.1459  11.4506
  11566.686  11566.700  0.500  -0.089689  66.3961  72.6262  10.9794
  11566.994  11567.000  0.500  -0.083725  66.392  72.19  10.6453
  11567.297  11567.300  0.500  -0.079070  66.4004  71.8639  10.4565
  11567.588  11567.600  0.500  -0.075466  66.407  71.6125  10.3839
  11567.902  11567.900  0.500  -0.072767  66.4352  71.4497  10.4019
  11568.193  11568.200  0.500  -0.071588  66.4735  71.4067  10.5012
  11568.495  11568.500  0.500  -0.071263  66.5228  71.4364  10.6578
  11568.810  11568.800  0.500  -0.071932  66.5597  71.5238  10.8633
  11569.101  11569.100  0.500  -0.073410  66.6096  71.6833  11.0798
  11569.403  11569.400  0.500  -0.075716  66.6388  71.8804  11.32
  11569.700  11569.700  0.500  -0.078656  66.6722  72.1281  11.5728
  11569.991  11570.000  0.500  -0.081944  66.7083  72.4049  11.8155
  11570.294  11570.300  0.500  -0.085566  66.7345  72.6962  12.0631
  11570.602  11570.600  0.500  -0.089544  66.7635  73.0176  12.306
  11570.894  11570.900  0.500  -0.093396  66.7854  73.3234  12.5241
  11571.196  11571.200  0.500  -0.097143  66.8009  73.6158  12.737
  11571.493  11571.500  0.500  -0.100895  66.8301  73.9248  12.9424
  11571.790  11571.800  0.500  -0.104373  66.8445  74.1983  13.1231
  11572.099  11572.100  0.500  -0.107627  66.8565  74.4536  13.2951
  11572.402  11572.400  0.500  -0.110661  66.8799  74.706  13.4622
  11572.681  11572.700  0.500  -0.113251  66.8836  74.9039  13.6038
  11572.990  11573.000  0.500  -0.115724  66.8984  75.1059  13.7476
  11573.287  11573.300  0.500  -0.117787  66.9006  75.2635  13.8778
  11573.584  11573.600  0.500  -0.119569  66.9078  75.4058  13.9949
  11573.887  11573.900  0.500  -0.121392  66.9132  75.5495  14.1156
  11574.190  11574.200  0.500  -0.122850  66.9146  75.6613  14.2211
  11574.481  11574.500  0.500  -0.124126  66.9222  75.7666  14.3173
  11574.801  11574.800  0.500  -0.125168  66.9317  75.8563  14.4055
  11575.093  11575.100  0.500  -0.126131  66.9322  75.9299  14.4783
  11575.390  11575.400  0.500  -0.126883  66.9303  75.9849  14.5344
  11575.705  11575.700  0.500  -0.127447  66.933  76.0308  14.5863
  11575.996  11576.000  0.500  -0.128013  66.9283  76.0685  14.6202
  11576.299  11576.300  0.500  -0.128364  66.9322  76.0996  14.6417
  11576.602  11576.600  0.500  -0.128621  66.925  76.111  14.6504
  11576.893  11576.900  0.500  -0.128770  66.9228  76.1199  14.6475
  11577.196  11577.200  0.500  -0.128812  66.9115  76.1102  14.632
  11577.505  11577.500  0.500  -0.128894  66.8958  76.0987  14.6042
  11577.808  11577.800  0.500  -0.128872  66.8998  76.1015  14.5746
  11578.106  11578.100  0.500  -0.128839  66.8858  76.0831  14.5299
  11578.409  11578.400  0.500  -0.128669  66.8832  76.0672  14.4802
  11578.706  11578.700  0.500  -0.128444  66.8712  76.0364  14.4236
  11579.004  11579.000  0.500  -0.128232  66.8667  76.0152  14.3655
  11579.318  11579.300  0.500  -0.127973  66.8461  75.9721  14.2995
  11579.604  11579.600  0.500  -0.127591  66.8397  75.9358  14.239
  11579.907  11579.900  0.500  -0.127151  66.8443  75.9076  14.1829
  11580.211  11580.200  0.500  -0.126857  66.8195  75.8572  14.1247
  11580.502  11580.500  0.500  -0.126627  66.8191  75.8392  14.0821
  11580.805  11580.800  0.500  -0.126300  66.8117  75.806  14.0437
  11581.115  11581.100  0.500  -0.125879  66.8059  75.7676  14.0148
  11581.394  11581.400  0.500  -0.125694  66.8058  75.7534  13.9998
  11581.692  11581.700  0.500  -0.125552  66.804  75.7407  13.9983
  11581.995  11582.000  0.500  -0.125473  66.8037  75.7343  14.0092
  11582.287  11582.300  0.500  -0.125380  66.7992  75.7222  14.0279
  11582.590  11582.600  0.500  -0.125310  66.8001  75.7179  14.0635
  11582.900  11582.900  0.500  -0.125470  66.7977  75.7273  14.112
  11583.191  11583.200  0.500  -0.125474  66.7908  75.7197  14.1652
  11583.495  11583.500  0.500  -0.125597  66.8058  75.746  14.2335
  11583.786  11583.800  0.500  -0.125741  66.8068  75.7581  14.3014
  11584.084  11584.100  0.500  -0.125974  66.792  75.759  14.3706
  11584.393  11584.400  0.500  -0.126245  66.8119  75.8021  14.4474
  11584.697  11584.700  0.500  -0.126509  66.8048  75.8141  14.514
  11584.989  11585.000  0.500  -0.126860  66.8095  75.8461  14.5741
  11585.298  11585.300  0.500  -0.127054  66.8047  75.8552  14.6253
  11585.601  11585.600  0.500  -0.127367  66.8076  75.8824  14.6689
  11585.899  11585.900  0.500  -0.127579  66.8044  75.8948  14.7027
  11586.203  11586.200  0.500  -0.127711  66.8046  75.905  14.7273
  11586.500  11586.500  0.500  -0.127863  66.8043  75.9161  14.7422
  11586.798  11586.800  0.500  -0.128056  66.8048  75.9315  14.7571
  11587.108  11587.100  0.500  -0.128188  66.7876  75.922  14.7592
  11587.411  11587.400  0.500  -0.128372  66.7877  75.9359  14.7622
  11587.709  11587.700  0.500  -0.128366  66.778  75.9246  14.7569
  11588.013  11588.000  0.500  -0.128448  66.7652  75.9161  14.7518
  11588.305  11588.300  0.500  -0.128479  66.7577  75.9099  14.7437
  11588.597  11588.600  0.500  -0.128432  66.754  75.9022  14.73
  11588.795  11588.800  0.500  -0.128432  66.7507  75.8985  14.7219
  11589.806  11589.790  0.500  -0.128249  66.7223  75.8524  14.6305
  11590.793  11590.790  0.500  -0.127761  66.6917  75.7805  14.4621
  11591.815  11591.810  0.500  -0.126886  66.6449  75.6611  14.207
  11592.867  11592.860  0.500  -0.125826  66.6172  75.5496  13.8991
  11593.919  11593.920  0.500  -0.124839  66.5769  75.4294  13.6121
  11595.018  11595.000  0.500  -0.124003  66.5388  75.3232  13.4168
  11596.112  11596.100  0.500  -0.123347  66.5307  75.2646  13.3809
  11597.235  11597.220  0.500  -0.123109  66.5371  75.2539  13.4969
  11598.381  11598.360  0.500  -0.123368  66.5401  75.2768  13.6914
  11599.516  11599.510  0.500  -0.123716  66.544  75.3075  13.8905
  11600.698  11600.690  0.500  -0.124099  66.5464  75.3391  14.0654
  11601.881  11601.880  0.500  -0.124395  66.5358  75.3493  14.1818
  11603.110  11603.100  0.500  -0.124648  66.5127  75.3422  14.2437
  11604.352  11604.330  0.500  -0.124822  66.5115  75.354  14.2995
  11605.599  11605.580  0.500  -0.124961  66.4942  75.3449  14.3731
  11606.864  11606.850  0.500  -0.125035  66.4814  75.3359  14.4733
  11608.159  11608.140  0.500  -0.124979  66.4652  75.3134  14.5578
  11609.449  11609.450  0.500  -0.124738  66.4488  75.2766  14.5834
  11610.797  11610.780  0.500  -0.124475  66.4187  75.2228  14.5287
  11612.128  11612.130  0.500  -0.123881  66.3807  75.1351  14.412
  11613.518  11613.500  0.500  -0.123058  66.3353  75.0219  14.2494
  11614.908  11614.880  0.500  -0.122325  66.3066  74.9345  14.074
  11616.311  11616.290  0.500  -0.121644  66.2728  74.8453  13.8949
  11617.731  11617.710  0.500  -0.121210  66.2388  74.7744  13.7277
  11619.152  11619.150  0.500  -0.121149  66.2004  74.7266  13.5942
  11620.602  11620.610  0.500  -0.121217  66.1808  74.7096  13.5188
  11622.088  11622.090  0.500  -0.121603  66.1619  74.717  13.515
  11623.616  11623.590  0.500  -0.122342  66.1378  74.745  13.5637
  11625.132  11625.110  0.500  -0.123198  66.1221  74.7913  13.6434
  11626.660  11626.650  0.500  -0.124115  66.1073  74.8431  13.7282
  11628.213  11628.210  0.500  -0.125150  66.093  74.9044  13.8107
  11629.789  11629.780  0.500  -0.125974  66.078  74.9492  13.8891
  11631.383  11631.380  0.500  -0.126912  66.0555  74.994  13.9616
  11633.002  11632.990  0.500  -0.127649  66.0469  75.0394  14.0232
  11634.662  11634.630  0.500  -0.128496  66.0198  75.0722  14.069
  11636.293  11636.280  0.500  -0.129024  66.0084  75.0989  14.1238
  11637.959  11637.950  0.500  -0.129728  65.9852  75.1254  14.203
  11639.650  11639.640  0.500  -0.130339  65.9576  75.1398  14.3048
  11641.371  11641.350  0.500  -0.130938  65.9502  75.1765  14.4209
  11643.098  11643.080  0.500  -0.131443  65.9273  75.1883  14.5279
  11644.844  11644.830  0.500  -0.132022  65.9115  75.2138  14.6163
  11646.602  11646.590  0.500  -0.132251  65.8784  75.1932  14.6722
  11648.378  11648.380  0.500  -0.132618  65.8396  75.1765  14.7043
  11650.184  11650.180  0.500  -0.132653  65.8195  75.1562  14.721
  11652.032  11652.010  0.500  -0.132736  65.6259  74.9414  14.6681
  11653.869  11653.850  0.500  -0.132724  65.7325  75.0622  14.644
  11655.718  11655.710  0.500  -0.132586  65.7213  75.0391  14.5504
  11657.597  11657.590  0.500  -0.132344  65.6848  74.9793  14.4317
  11659.489  11659.490  0.500  -0.132192  65.62  74.8939  14.3083
  11661.435  11661.410  0.500  -0.131879  65.4392  74.6641  14.1783
  11663.375  11663.350  0.500  -0.131809  65.559  74.7956  14.1452
  11665.322  11665.310  0.500  -0.131725  65.5372  74.7645  14.1176
  11667.282  11667.280  0.500  -0.131776  65.4936  74.7185  14.1102
  11669.295  11669.280  0.500  -0.131898  65.3053  74.5129  14.0879
  11671.309  11671.290  0.500  -0.132063  65.4122  74.6472  14.1384
  11673.342  11673.320  0.500  -0.132066  65.4252  74.6621  14.1692
  11675.393  11675.380  0.500  -0.132176  65.3892  74.6293  14.1939
  11677.451  11677.450  0.500  -0.132402  65.3339  74.583  14.2118
  11679.563  11679.540  0.500  -0.132564  65.1395  74.3731  14.1878
  11681.669  11681.650  0.500  -0.132623  65.2835  74.542  14.2146
  11683.789  11683.780  0.500  -0.132822  65.2551  74.5244  14.1878
  11685.927  11685.920  0.500  -0.133093  65.2112  74.4944  14.146
  11688.107  11688.090  0.500  -0.133289  65.184  74.4779  14.113
  11690.295  11690.280  0.500  -0.133610  65.1503  74.4633  14.0985
  11692.518  11692.480  0.500  -0.133803  65.1142  74.4364  14.1111
  11694.701  11694.700  0.500  -0.134135  65.0692  74.4097  14.1497
  11696.962  11696.950  0.500  -0.134548  65.0529  74.4219  14.2264
  11699.242  11699.210  0.500  -0.134883  65.0288  74.4191  14.3275
  11701.517  11701.490  0.500  -0.135300  64.9696  74.3824  14.4364
  11703.799  11703.790  0.500  -0.135774  64.5746  73.9652  14.4681
  11706.123  11706.110  0.500  -0.136180  64.9031  74.3717  14.6355
  11708.472  11708.450  0.500  -0.136700  64.8922  74.3979  14.6915
  11710.828  11710.800  0.500  -0.137195  64.9204  74.4671  14.7172
  11713.191  11713.180  0.500  -0.137737  65.0315  74.6349  14.7269
  11715.585  11715.570  0.500  -0.138182  64.9911  74.6218  14.6789
  11718.015  11717.990  0.500  -0.138481  64.9621  74.6107  14.6155
  11720.441  11720.420  0.500  -0.138816  64.9158  74.5826  14.5456
  11722.874  11722.870  0.500  -0.139101  64.8725  74.5541  14.4813
  11725.367  11725.350  0.500  -0.139314  64.8272  74.5178  14.4266
  11727.856  11727.840  0.500  -0.139612  64.7796  74.4853  14.3844
  11730.363  11730.350  0.500  -0.139794  64.7394  74.4527  14.3475
  11732.872  11732.870  0.500  -0.140003  64.6851  74.4058  14.3129
  11735.436  11735.420  0.500  -0.140121  64.4038  74.091  14.2417
  11738.018  11737.990  0.500  -0.140286  64.5933  74.3212  14.2936
  11740.584  11740.570  0.500  -0.140481  64.5589  74.2961  14.3063
  11743.188  11743.180  0.500  -0.140613  64.534  74.2772  14.3233
  11745.834  11745.800  0.500  -0.140839  64.4271  74.171  14.3064
  11748.469  11748.450  0.500  -0.140957  64.302  74.0357  14.2654
  11751.124  11751.110  0.500  -0.141236  64.3958  74.1644  14.2554
  11753.816  11753.790  0.500  -0.141376  64.3473  74.119  14.2109
  11756.521  11756.490  0.500  -0.141546  64.2587  74.0295  14.1748
  11759.222  11759.210  0.500  -0.141677  64.1411  73.9037  14.1775
  11761.972  11761.950  0.500  -0.141838  64.2265  74.014  14.2772
  11764.723  11764.700  0.500  -0.142022  64.1922  73.9881  14.3871
  11767.494  11767.480  0.500  -0.142378  64.1582  73.9752  14.4962
  11770.284  11770.270  0.500  -0.142617  63.8905  73.6841  14.5306
  11773.129  11773.090  0.500  -0.143019  64.0641  73.9141  14.6401
  11775.940  11775.920  0.500  -0.143470  63.9884  73.86  14.6696
  11778.776  11778.770  0.500  -0.143979  63.8057  73.6867  14.6651
  11781.681  11781.650  0.500  -0.144436  63.949  73.8858  14.7268
  11784.568  11784.540  0.500  -0.144853  63.9112  73.8731  14.7368
  11787.469  11787.450  0.500  -0.145431  63.8723  73.8707  14.7395
  11790.408  11790.370  0.500  -0.145849  63.827  73.8492  14.7396
  11793.342  11793.320  0.500  -0.146306  63.7826  73.8316  14.7295
  11796.314  11796.290  0.500  -0.146749  63.7254  73.7981  14.7058
  11799.312  11799.270  0.500  -0.147176  63.6824  73.7797  14.6676
  11802.311  11802.280  0.500  -0.147606  63.6267  73.7469  14.6066
  11805.312  11805.300  0.500  -0.147933  63.2825  73.372  14.4641
  11808.393  11808.350  0.500  -0.148221  63.4963  73.6411  14.442
  11811.428  11811.410  0.500  -0.148576  63.455  73.6193  14.3681
  11814.518  11814.490  0.500  -0.148818  63.4125  73.5878  14.3134
  11817.604  11817.590  0.500  -0.149006  63.3647  73.5461  14.2883
  11820.729  11820.710  0.500  -0.149254  63.2958  73.4843  14.2927
  11823.867  11823.850  0.500  -0.149497  63.2686  73.4707  14.3319
  11827.013  11827.000  0.500  -0.149702  63.2236  73.4334  14.3886
  11830.203  11830.180  0.500  -0.150066  62.9456  73.1372  14.4142
  11833.407  11833.370  0.500  -0.150301  63.1218  73.3592  14.5613
  11836.601  11836.590  0.500  -0.150707  63.0917  73.3539  14.6707
  11839.857  11839.820  0.500  -0.151240  63.0411  73.3342  14.7585
  11843.085  11843.070  0.500  -0.151638  62.9918  73.306  14.8144
  11846.388  11846.350  0.500  -0.152069  62.9461  73.2844  14.8409
  11849.668  11849.640  0.500  -0.152600  62.7858  73.1366  14.8138
  11852.974  11852.950  0.500  -0.153051  62.8408  73.2337  14.8194
  11856.301  11856.270  0.500  -0.153512  62.6091  72.9973  14.7509
  11859.636  11859.620  0.500  -0.153957  62.4348  72.8266  14.7127
  11863.016  11862.990  0.500  -0.154342  62.4779  72.9049  14.7561
  11866.379  11866.370  0.500  -0.154755  62.6272  73.1092  14.8387
  11869.787  11869.780  0.500  -0.155226  62.5505  73.0541  14.8576
  11873.203  11873.200  0.500  -0.155509  62.5139  73.032  14.8561
  11876.658  11876.650  0.500  -0.155893  62.465  73.003  14.8268
  11880.139  11880.110  0.500  -0.156318  62.4096  72.9692  14.779
  11883.592  11883.590  0.500  -0.156655  62.305  72.8714  14.7204
  11887.109  11887.090  0.500  -0.157085  62.0769  72.6359  14.6288
  11890.633  11890.610  0.500  -0.157459  62.2352  72.8483  14.6341
  11894.172  11894.150  0.500  -0.157869  62.1833  72.8174  14.5974
  11897.726  11897.700  0.500  -0.158184  62.1086  72.753  14.5755
  11901.288  11901.280  0.500  -0.158569  61.8069  72.4274  14.5309
  11904.926  11904.880  0.500  -0.158944  61.9596  72.6335  14.6271
  11908.504  11908.490  0.500  -0.159219  61.9583  72.6519  14.7124
  11912.135  11912.120  0.500  -0.159673  61.9149  72.634  14.8043
  11915.810  11915.780  0.500  -0.160071  61.7958  72.5232  14.8728
  11919.470  11919.450  0.500  -0.160452  61.6321  72.3586  14.9067
  11923.175  11923.140  0.500  -0.160764  61.7496  72.5192  14.9808
  11926.876  11926.850  0.500  -0.161320  61.6758  72.4729  14.9851
  11930.592  11930.580  0.500  -0.161809  61.6268  72.4506  14.9802
  11934.347  11934.320  0.500  -0.162287  61.2144  72.0003  14.8832
  11938.105  11938.090  0.500  -0.162686  61.5001  72.3652  14.9566
  11941.909  11941.880  0.500  -0.163263  61.4574  72.3566  14.9538
  11945.703  11945.680  0.500  -0.163676  61.3945  72.3124  14.9514
  11949.536  11949.510  0.500  -0.163931  61.3381  72.2645  14.963
  11953.378  11953.350  0.500  -0.164437  61.2895  72.2438  14.9962
  11957.254  11957.210  0.500  -0.164967  61.2364  72.2194  15.0229
  11961.107  11961.090  0.500  -0.165441  61.1858  72.194  15.0322
  11965.026  11964.990  0.500  -0.165877  61.13  72.1596  15.0133
  11968.940  11968.910  0.500  -0.166355  61.0653  72.1177  14.9779
  11972.858  11972.850  0.500  -0.166816  60.9939  72.0665  14.9446
  11976.827  11976.810  0.500  -0.167176  60.942  72.0311  14.9286
  11980.800  11980.780  0.500  -0.167611  60.8711  71.9786  14.9192
  11984.800  11984.780  0.500  -0.168140  60.8134  71.9484  14.9195
  11988.815  11988.790  0.500  -0.168504  60.7724  71.9261  14.9183
  11992.846  11992.830  0.500  -0.169028  60.7081  71.8877  14.9186
  11996.898  11996.880  0.500  -0.169496  60.6562  71.8599  14.9345
  12000.991  12000.950  0.500  -0.169920  60.5956  71.8185  14.966
  12005.067  12005.040  0.500  -0.170389  60.538  71.7839  15.0184
  12009.178  12009.150  0.500  -0.170887  60.4781  71.7487  15.0868
  12013.285  12013.280  0.500  -0.171222  60.4178  71.701  15.1623
  12017.465  12017.430  0.500  -0.171747  60.3649  71.6759  15.2372
  12021.609  12021.590  0.500  -0.172229  60.3082  71.6431  15.2865
  12025.782  12025.780  0.500  -0.172678  60.2477  71.6034  15.3059
  12030.027  12029.980  0.500  -0.173158  60.1695  71.5448  15.3047
  12034.224  12034.210  0.500  -0.173637  60.1192  71.5192  15.2938
  12038.469  12038.450  0.500  -0.174141  60.0575  71.4818  15.2794
  12042.742  12042.710  0.500  -0.174555  59.9855  71.4257  15.2584
  12046.999  12046.990  0.500  -0.175048  59.1818  70.5035  15.0586
  12051.316  12051.290  0.500  -0.175496  59.7466  71.2082  15.2053
  12055.630  12055.610  0.500  -0.176033  59.7632  71.2662  15.2143
  12059.978  12059.950  0.500  -0.176418  59.7279  71.2516  15.2059
  12064.336  12064.310  0.500  -0.176863  59.6664  71.2099  15.1987
  12068.698  12068.690  0.500  -0.177402  59.5913  71.1586  15.1981
  12073.119  12073.080  0.500  -0.177929  59.5369  71.1311  15.207
  12077.525  12077.500  0.500  -0.178378  59.4709  71.0843  15.2061
  12081.941  12081.930  0.500  -0.178864  59.3819  71.0123  15.2042
  12086.410  12086.380  0.500  -0.179475  59.3376  71.0027  15.2246
  12090.851  12090.850  0.500  -0.179881  59.237  70.9111  15.2415
  12095.372  12095.340  0.500  -0.180427  59.2147  70.9232  15.2932
  12099.865  12099.850  0.500  -0.180944  59.1524  70.8852  15.3288
  12104.392  12104.380  0.500  -0.181532  59.0885  70.8502  15.3655
  12108.955  12108.930  0.500  -0.182005  59.0178  70.7989  15.3982
  12113.509  12113.500  0.500  -0.182496  58.9522  70.7551  15.4265
  12118.118  12118.080  0.500  -0.183098  58.8857  70.7177  15.4563
  12122.723  12122.690  0.500  -0.183596  58.8047  70.6556  15.4857
  12127.332  12127.310  0.500  -0.184117  58.7293  70.6019  15.514
  12131.996  12131.960  0.500  -0.184634  58.6771  70.5755  15.5474
  12136.632  12136.620  0.500  -0.185230  58.6053  70.5312  15.5662
  12141.342  12141.300  0.500  -0.185722  58.5432  70.4911  15.5726
  12146.042  12146.000  0.500  -0.186238  58.482  70.4538  15.5723
  12150.753  12150.720  0.500  -0.186689  58.3787  70.361  15.5568
  12155.506  12155.460  0.500  -0.187154  58.3326  70.3382  15.561
  12160.237  12160.210  0.500  -0.187669  58.2563  70.2823  15.5491
  12165.017  12164.990  0.500  -0.188105  58.1641  70.2018  15.5338
  12169.846  12169.790  0.500  -0.188609  58.0815  70.1374  15.5194
  12174.627  12174.600  0.500  -0.189129  58.03  70.1117  15.5172
  12179.470  12179.430  0.500  -0.189651  57.9598  70.0634  15.5127
  12184.323  12184.290  0.500  -0.190162  57.8945  70.0202  15.5118
  12189.206  12189.160  0.500  -0.190650  57.8193  69.9635  15.5144
  12194.081  12194.050  0.500  -0.191179  57.7344  69.8976  15.5219
  12198.991  12198.960  0.500  -0.191770  57.6346  69.8181  15.5348
  12203.919  12203.890  0.500  -0.192264  57.5851  69.7926  15.5646
  12208.857  12208.830  0.500  -0.192898  57.5087  69.7442  15.597
  12213.838  12213.800  0.500  -0.193364  57.4498  69.7052  15.6357
  12218.836  12218.790  0.500  -0.193904  57.3801  69.6584  15.6737
  12223.819  12223.790  0.500  -0.194488  57.3175  69.623  15.7064
  12228.871  12228.820  0.500  -0.194997  57.2168  69.5359  15.7214
  12233.888  12233.860  0.500  -0.195592  56.8958  69.187  15.6743
  12238.956  12238.920  0.500  -0.196098  57.0169  69.3694  15.7487
  12244.060  12244.000  0.500  -0.196662  57.0093  69.3993  15.7857
  12249.129  12249.100  0.500  -0.197212  56.9439  69.3577  15.8101
  12254.267  12254.220  0.500  -0.197771  56.8627  69.2976  15.8345
  12259.404  12259.360  0.500  -0.198374  56.785  69.2447  15.8615
  12264.558  12264.520  0.500  -0.198879  55.5033  67.7159  15.5463
  12269.769  12269.700  0.500  -0.199416  56.5543  69.0353  15.8704
  12274.912  12274.890  0.500  -0.199975  56.531  69.0454  15.8843
  12280.191  12280.110  0.500  -0.200584  56.4492  68.9875  15.8758
  12285.369  12285.340  0.500  -0.201059  56.3072  68.8466  15.8442
  12290.631  12290.590  0.500  -0.201714  55.2131  67.5532  15.5409
  12295.904  12295.860  0.500  -0.202126  56.1549  68.7338  15.8108
  12301.195  12301.150  0.500  -0.202662  56.0895  68.6906  15.8027
  12306.503  12306.460  0.500  -0.203127  56.0225  68.6403  15.8036
  12311.810  12311.790  0.500  -0.203780  55.9355  68.5785  15.807
  12317.180  12317.140  0.500  -0.204323  55.8405  68.4992  15.8162
  12322.549  12322.510  0.500  -0.204829  54.8349  67.2997  15.5756
  12327.943  12327.890  0.500  -0.205408  55.6911  68.3901  15.8737
  12333.341  12333.300  0.500  -0.205983  55.64  68.3667  15.9163
  12338.764  12338.720  0.500  -0.206556  55.5493  68.2943  15.954
  12344.211  12344.170  0.500  -0.207094  55.4646  68.2269  15.9826
  12349.677  12349.630  0.500  -0.207676  55.2606  68.0155  15.9734
  12355.141  12355.110  0.500  -0.208354  55.2975  68.1071  16.0316
  12360.663  12360.610  0.500  -0.208917  55.2438  68.0793  16.0546
  12366.157  12366.130  0.500  -0.209520  55.1277  67.9772  16.0579
  12371.716  12371.670  0.500  -0.210089  55.0679  67.9422  16.079
  12377.253  12377.220  0.500  -0.210704  55.0077  67.9096  16.1035
  12382.842  12382.800  0.500  -0.211265  54.8061  67.6987  16.0843
  12388.436  12388.400  0.500  -0.211805  54.872  67.8167  16.1413
  12394.062  12394.010  0.500  -0.212302  54.7952  67.7554  16.1559
  12399.700  12399.650  0.500  -0.212931  54.682  67.6581  16.1575
  12405.336  12405.300  0.500  -0.213488  54.6031  67.5981  16.1639
  12411.025  12410.970  0.500  -0.214067  54.512  67.5243  16.1652
  12416.692  12416.660  0.500  -0.214625  54.424  67.4529  16.1689