File: xdidata/Pt/Pt-L1-PtRu.xdi
# XDI/1.0 BlueSky/1.10.0 BMM/2023-1.0-py310-tiled
# Beamline.name: BMM (06BM) -- Beamline for Materials Measurement (NIST)
# Beamline.xray_source: NSLS-II three-pole wiggler
# Beamline.collimation: paraboloid mirror, 5 nm Rh on 30 nm Pt
# Beamline.focusing: not in use
# Beamline.harmonic_rejection: flat mirror, Pt stripe, pitch = 7.0 mrad relative to beam
# Beamline.software: Bluesky 1.10.0, Ophyd 1.7.0, DataBroker 2.0.0b13, Python 3.10.8, 2023-1.0-py310-tiled
# Detector.I0: 10 cm N2
# Detector.I1: 25 cm N2
# Detector.I2: 25 cm N2
# Element.symbol: Pt
# Element.edge: L1
# Element.reference: Pt
# Element.reference_material: Pt foil
# Facility.name: NSLS-II
# Facility.energy: 3.0
# Facility.current: 399.6
# Facility.mode: top-off
# Facility.GUP: 301027
# Facility.SAF: 310583
# Facility.cycle: 2023-2
# Mono.name: Si(111)
# Mono.d_spacing: 3.13519
# Mono.encoder_resolution: 0.0000050 deg/ct
# Mono.angle_offset: 16.0754 deg
# Mono.scan_mode: pseudo channel cut
# Mono.scan_type: step
# Mono.direction: forward in energy
# Sample.name: PtRu powder
# Sample.prep: powder on tape
# Sample.x: 119.711 mm
# Sample.y: 114.376 mm
# Sample.SDD_position: 205.000 mm
# Scan.experimenters: Bruce Ravel
# Scan.edge_energy: 13880.5
# Scan.start_time: 2023-06-27T19:19:16
# Scan.end_time: 2023-06-27T19:26:35
# Scan.transient_id: 85256
# Scan.uid: fa3e1b7f-6b81-4080-976c-1bb83c9eb0f0
# Scan.plot_hint: ln(I0/It)  --  ln($5/$6)
# Column.1: energy eV
# Column.2: requested_energy eV
# Column.3: measurement_time seconds
# Column.4: xmu
# Column.5: I0 nA
# Column.6: It nA
# Column.7: Ir nA
# ///////////
# BMM standards collection
# -----------
# energy  requested_energy  measurement_time  xmu  I0  It  Ir
  13680.468  13680.500  0.500  -0.281986  38.7253  51.3404  11.8115
  13690.529  13690.500  0.500  -0.282612  38.6903  51.3262  11.815
  13700.522  13700.500  0.500  -0.283429  38.6197  51.2744  11.8225
  13710.522  13710.500  0.500  -0.284189  38.5337  51.1991  11.8475
  13720.554  13720.500  0.500  -0.284992  38.4494  51.1281  11.9083
  13730.534  13730.500  0.500  -0.285682  38.3762  51.066  11.9658
  13741.477  13740.500  0.500  -0.286398  38.3083  51.0122  11.9737
  13750.555  13750.500  0.500  -0.287000  38.3573  51.1082  11.9991
  13760.596  13760.500  0.500  -0.287647  38.3923  51.1879  12.025
  13770.536  13770.500  0.500  -0.288434  38.2744  51.0709  12.0069
  13780.515  13780.500  0.500  -0.289111  38.2091  51.0183  12.0137
  13790.534  13790.500  0.500  -0.289808  38.1206  50.9357  12.0178
  13800.525  13800.500  0.500  -0.290507  38.0318  50.8525  12.0305
  13810.524  13810.500  0.500  -0.291227  37.9577  50.79  12.0606
  13820.545  13820.500  0.500  -0.291900  37.8702  50.707  12.076
  13830.539  13830.500  0.500  -0.292542  37.7476  50.5754  12.081
  13840.531  13840.500  0.500  -0.293126  37.6981  50.5386  12.0987
  13850.529  13850.500  0.500  -0.293646  37.5965  50.4286  12.0803
  13852.448  13852.500  0.500  -0.293719  37.5682  50.3943  12.0723
  13854.444  13854.500  0.500  -0.293800  37.5482  50.3715  12.0624
  13856.456  13856.500  0.500  -0.293903  37.5129  50.3292  12.0457
  13858.461  13858.500  0.500  -0.293890  37.6371  50.4953  12.0827
  13860.450  13860.500  0.500  -0.293958  37.6197  50.4754  12.0722
  13862.456  13862.500  0.500  -0.294000  37.5867  50.4332  12.052
  13864.446  13864.500  0.500  -0.294042  37.5694  50.4122  12.0384
  13866.453  13866.500  0.500  -0.294027  37.5668  50.4079  12.0231
  13868.444  13868.500  0.500  -0.294014  37.5323  50.361  11.9948
  13870.469  13870.500  0.500  -0.293968  37.5081  50.3261  11.9633
  13870.738  13870.800  0.500  -0.294015  37.5007  50.3185  11.9578
  13871.040  13871.100  0.500  -0.293895  37.4919  50.3008  11.9506
  13871.343  13871.400  0.500  -0.293866  37.4951  50.3036  11.9457
  13871.645  13871.700  0.500  -0.293852  37.499  50.308  11.9441
  13871.956  13872.000  0.500  -0.293796  37.4805  50.2805  11.9319
  13872.251  13872.300  0.500  -0.293883  37.4868  50.2932  11.93
  13872.545  13872.600  0.500  -0.293758  37.4658  50.2589  11.9168
  13872.848  13872.900  0.500  -0.293844  37.461  50.2567  11.9119
  13873.175  13873.200  0.500  -0.293765  37.4626  50.255  11.9084
  13873.478  13873.500  0.500  -0.293706  37.4402  50.222  11.8932
  13873.756  13873.800  0.500  -0.293650  37.4274  50.2019  11.881
  13874.050  13874.100  0.500  -0.293717  37.4118  50.1844  11.8704
  13874.369  13874.400  0.500  -0.293515  37.4075  50.1684  11.8601
  13874.672  13874.700  0.500  -0.293588  37.4103  50.1759  11.8536
  13874.966  13875.000  0.500  -0.293506  37.4216  50.1869  11.8492
  13875.261  13875.300  0.500  -0.293446  37.4075  50.165  11.8356
  13875.555  13875.600  0.500  -0.293338  37.3978  50.1466  11.823
  13875.875  13875.900  0.500  -0.293319  37.3931  50.1393  11.8138
  13876.178  13876.200  0.500  -0.293332  37.405  50.156  11.8072
  13876.464  13876.500  0.500  -0.293227  37.3952  50.1375  11.7946
  13876.766  13876.800  0.500  -0.293221  37.3976  50.1405  11.7835
  13877.069  13877.100  0.500  -0.293138  37.3723  50.1023  11.761
  13877.372  13877.400  0.500  -0.292971  37.3754  50.0981  11.7491
  13877.675  13877.700  0.500  -0.292817  37.3993  50.1224  11.7433
  13877.944  13878.000  0.500  -0.292763  37.376  50.0885  11.7205
  13878.264  13878.300  0.500  -0.292701  37.3542  50.0562  11.6989
  13878.567  13878.600  0.500  -0.292547  37.372  50.0724  11.6866
  13878.870  13878.900  0.500  -0.292446  37.3508  50.0388  11.6616
  13879.164  13879.200  0.500  -0.292379  37.3308  50.0088  11.6381
  13879.459  13879.500  0.500  -0.292078  37.329  49.9912  11.618
  13879.770  13879.800  0.500  -0.291971  37.3216  49.9761  11.5957
  13880.073  13880.100  0.500  -0.291863  37.3127  49.9586  11.5678
  13880.359  13880.400  0.500  -0.291690  37.2954  49.9269  11.5413
  13880.662  13880.700  0.500  -0.291498  37.284  49.9021  11.5169
  13880.965  13881.000  0.500  -0.291271  37.2698  49.8718  11.4819
  13881.293  13881.300  0.500  -0.291087  37.2538  49.8411  11.4515
  13881.580  13881.600  0.500  -0.290899  37.2535  49.8314  11.4238
  13881.874  13881.900  0.500  -0.290689  37.2615  49.8317  11.3994
  13882.177  13882.200  0.500  -0.290471  37.2466  49.8008  11.363
  13882.497  13882.500  0.500  -0.290226  37.2187  49.7513  11.3249
  13882.784  13882.800  0.500  -0.290002  37.2194  49.7411  11.2954
  13883.078  13883.100  0.500  -0.289778  37.2225  49.7342  11.2646
  13883.381  13883.400  0.500  -0.289510  37.2196  49.717  11.2315
  13883.701  13883.700  0.500  -0.289309  37.2207  49.7083  11.1981
  13884.004  13884.000  0.500  -0.289062  37.204  49.6739  11.1591
  13884.291  13884.300  0.500  -0.288763  37.2019  49.6562  11.1277
  13884.594  13884.600  0.500  -0.288534  37.2025  49.6456  11.0956
  13884.897  13884.900  0.500  -0.288213  37.2024  49.6296  11.0612
  13885.192  13885.200  0.500  -0.288047  37.1842  49.5971  11.0265
  13885.504  13885.500  0.500  -0.287684  37.1886  49.5849  10.992
  13885.807  13885.800  0.500  -0.287415  37.1741  49.5522  10.957
  13886.110  13886.100  0.500  -0.287138  37.1896  49.5591  10.9258
  13886.396  13886.400  0.500  -0.286962  37.1466  49.4932  10.8837
  13886.700  13886.700  0.500  -0.286586  37.1476  49.4758  10.8491
  13887.003  13887.000  0.500  -0.286350  37.1483  49.4651  10.819
  13887.306  13887.300  0.500  -0.285994  37.1357  49.4307  10.782
  13887.601  13887.600  0.500  -0.285887  37.1107  49.3922  10.7425
  13887.904  13887.900  0.500  -0.285582  37.1129  49.3801  10.711
  13888.199  13888.200  0.500  -0.285341  37.1213  49.3793  10.6801
  13888.519  13888.500  0.500  -0.285028  37.0805  49.3096  10.6342
  13888.806  13888.800  0.500  -0.284740  37.0825  49.298  10.601
  13889.092  13889.100  0.500  -0.284466  37.0651  49.2615  10.5629
  13889.396  13889.400  0.500  -0.284223  37.0736  49.2608  10.5322
  13889.699  13889.700  0.500  -0.283923  37.0561  49.2228  10.4921
  13889.986  13890.000  0.500  -0.283551  37.0561  49.2044  10.4558
  13890.289  13890.300  0.500  -0.283453  37.0539  49.1967  10.4197
  13890.584  13890.600  0.500  -0.283072  37.0644  49.1919  10.389
  13890.896  13890.900  0.500  -0.282653  37.04  49.139  10.3405
  13891.183  13891.200  0.500  -0.282472  37.0212  49.1051  10.2998
  13891.478  13891.500  0.500  -0.282109  36.9986  49.0573  10.2573
  13891.798  13891.800  0.500  -0.281706  37.0059  49.0473  10.2182
  13892.093  13892.100  0.500  -0.281340  36.9914  49.0101  10.1756
  13892.388  13892.400  0.500  -0.281031  36.9836  48.9846  10.1363
  13892.683  13892.700  0.500  -0.280807  36.9883  48.9798  10.1038
  13892.978  13893.000  0.500  -0.280454  36.9939  48.97  10.0677
  13893.299  13893.300  0.500  -0.280074  36.9587  48.9048  10.0194
  13893.586  13893.600  0.500  -0.279865  36.9498  48.8828  9.983008
  13893.881  13893.900  0.500  -0.279503  36.9507  48.8662  9.949383
  13894.184  13894.200  0.500  -0.279180  36.9406  48.8371  9.913441
  13894.496  13894.500  0.500  -0.278958  36.9334  48.8169  9.881575
  13894.800  13894.800  0.500  -0.278647  36.9239  48.7891  9.850372
  13895.095  13895.100  0.500  -0.278306  36.9262  48.7754  9.824033
  13895.390  13895.400  0.500  -0.278100  36.9121  48.7467  9.794274
  13895.702  13895.700  0.500  -0.277852  36.9  48.7187  9.768429
  13895.989  13896.000  0.500  -0.277586  36.888  48.6899  9.744966
  13896.301  13896.300  0.500  -0.277570  36.8724  48.6685  9.723760
  13896.614  13896.600  0.500  -0.277221  36.8619  48.6377  9.702953
  13896.917  13896.900  0.500  -0.276887  36.8565  48.6144  9.685780
  13897.187  13897.200  0.500  -0.276794  36.8728  48.6313  9.679470
  13897.499  13897.500  0.500  -0.276512  36.857  48.5967  9.664938
  13897.812  13897.800  0.500  -0.276569  36.844  48.5824  9.652010
  13898.124  13898.100  0.500  -0.276154  36.8577  48.5804  9.648393
  13898.402  13898.400  0.500  -0.276093  36.8656  48.5878  9.645629
  13898.698  13898.700  0.500  -0.276129  36.8743  48.601  9.643974
  13899.001  13899.000  0.500  -0.276055  36.8683  48.5895  9.638772
  13899.322  13899.300  0.500  -0.275978  36.8542  48.5671  9.636188
  13899.584  13899.600  0.500  -0.275939  36.8616  48.575  9.636794
  13899.904  13899.900  0.500  -0.275790  36.8677  48.5758  9.640573
  13900.217  13900.200  0.500  -0.275746  36.8625  48.5669  9.643104
  13900.512  13900.500  0.500  -0.275796  36.8592  48.5649  9.645331
  13900.791  13900.800  0.500  -0.275770  36.8652  48.5715  9.650354
  13901.095  13901.100  0.500  -0.275814  36.8604  48.5674  9.656022
  13901.415  13901.400  0.500  -0.275732  36.8666  48.5716  9.664125
  13901.702  13901.700  0.500  -0.275723  36.8609  48.5636  9.671050
  13901.990  13902.000  0.500  -0.275801  36.8443  48.5455  9.676477
  13902.293  13902.300  0.500  -0.276015  36.8413  48.5519  9.685329
  13902.614  13902.600  0.500  -0.275974  36.8449  48.5547  9.695313
  13902.893  13902.900  0.500  -0.275950  36.8374  48.5437  9.703473
  13903.189  13903.200  0.500  -0.276033  36.825  48.5313  9.711220
  13903.501  13903.500  0.500  -0.276063  36.8185  48.5242  9.722262
  13903.805  13903.800  0.500  -0.276150  36.8196  48.53  9.733445
  13904.084  13904.100  0.500  -0.276345  36.7972  48.5099  9.743285
  13904.379  13904.400  0.500  -0.276500  36.7976  48.5179  9.755068
  13904.683  13904.700  0.500  -0.276431  36.806  48.5256  9.771061
  13904.996  13905.000  0.500  -0.276536  36.8322  48.5653  9.790946
  13905.292  13905.300  0.500  -0.276662  36.8171  48.5514  9.798653
  13905.469  13905.500  0.500  -0.276699  36.8269  48.5662  9.808083
  13906.483  13906.490  0.500  -0.276989  36.829  48.583  9.848744
  13907.505  13907.490  0.500  -0.277134  36.8361  48.5995  9.883075
  13908.527  13908.510  0.500  -0.277417  36.819  48.5906  9.903956
  13909.592  13909.560  0.500  -0.277532  36.7982  48.5687  9.915547
  13910.649  13910.620  0.500  -0.277688  36.7708  48.5402  9.919815
  13911.731  13911.700  0.500  -0.277859  36.7781  48.5581  9.921893
  13912.813  13912.800  0.500  -0.277917  36.7924  48.5799  9.920778
  13913.947  13913.920  0.500  -0.278076  36.7927  48.588  9.906179
  13915.080  13915.060  0.500  -0.278017  36.7811  48.5697  9.885530
  13916.214  13916.210  0.500  -0.277979  36.7648  48.5464  9.854114
  13917.381  13917.390  0.500  -0.278004  36.7543  48.5337  9.824242
  13918.583  13918.580  0.500  -0.278150  36.7178  48.4926  9.781519
  13919.802  13919.800  0.500  -0.278077  36.6841  48.4446  9.742592
  13921.055  13921.030  0.500  -0.278083  36.7044  48.4717  9.716282
  13922.316  13922.280  0.500  -0.278103  36.7095  48.4793  9.695060
  13923.586  13923.550  0.500  -0.278234  36.6832  48.451  9.673837
  13924.874  13924.840  0.500  -0.278308  36.6783  48.4481  9.672203
  13926.170  13926.150  0.500  -0.278506  36.6668  48.4425  9.678744
  13927.509  13927.480  0.500  -0.278707  36.6631  48.4474  9.704368
  13928.823  13928.830  0.500  -0.278932  36.6527  48.4445  9.741639
  13930.204  13930.200  0.500  -0.279288  36.6498  48.4579  9.787171
  13931.603  13931.580  0.500  -0.279635  36.6459  48.4697  9.830300
  13932.985  13932.990  0.500  -0.279938  36.6456  48.4838  9.868636
  13934.419  13934.410  0.500  -0.280201  36.6502  48.5027  9.901801
  13935.878  13935.850  0.500  -0.280420  36.6319  48.4891  9.917077
  13937.338  13937.310  0.500  -0.280614  36.6226  48.4861  9.926466
  13938.814  13938.790  0.500  -0.280684  36.6109  48.4741  9.928283
  13940.308  13940.290  0.500  -0.280755  36.6069  48.4723  9.932018
  13941.820  13941.810  0.500  -0.280892  36.5883  48.4543  9.930452
  13943.348  13943.350  0.500  -0.280960  36.5739  48.4385  9.931111
  13944.920  13944.910  0.500  -0.281020  36.5505  48.4104  9.928248
  13946.509  13946.480  0.500  -0.281042  36.5555  48.4181  9.930733
  13948.115  13948.080  0.500  -0.281008  36.5402  48.3962  9.927875
  13949.722  13949.690  0.500  -0.280949  36.5369  48.389  9.923939
  13951.363  13951.330  0.500  -0.280961  36.5094  48.3531  9.918617
  13952.996  13952.980  0.500  -0.281177  36.4884  48.3357  9.912049
  13954.671  13954.650  0.500  -0.281165  36.469  48.3095  9.907862
  13956.339  13956.340  0.500  -0.281218  36.448  48.2842  9.899703
  13958.067  13958.050  0.500  -0.281155  36.4535  48.2885  9.896101
  13959.795  13959.780  0.500  -0.281285  36.4235  48.255  9.879318
  13961.557  13961.530  0.500  -0.281178  36.3976  48.2155  9.864442
  13963.312  13963.290  0.500  -0.281137  36.3735  48.1816  9.849772
  13965.101  13965.080  0.500  -0.281189  36.3613  48.168  9.841500
  13966.874  13966.880  0.500  -0.281284  36.3322  48.134  9.832932
  13968.706  13968.710  0.500  -0.281394  36.3077  48.1068  9.828993
  13970.565  13970.550  0.500  -0.281590  36.1973  47.9699  9.808237
  13972.416  13972.410  0.500  -0.281742  35.5903  47.1727  9.658113
  13974.326  13974.290  0.500  -0.282053  33.7501  44.7475  9.179049
  13976.212  13976.190  0.500  -0.282265  35.4503  47.0117  9.663434
  13978.124  13978.110  0.500  -0.282393  36.2642  48.0971  9.904979
  13980.071  13980.050  0.500  -0.282740  36.2837  48.1398  9.928659
  13982.035  13982.010  0.500  -0.282960  36.2968  48.1677  9.946149
  13983.983  13983.980  0.500  -0.283392  36.2882  48.1772  9.957245
  13986.008  13985.980  0.500  -0.283267  36.2554  48.1275  9.955553
  13988.025  13987.990  0.500  -0.283658  36.2275  48.1093  9.952741
  13990.043  13990.020  0.500  -0.283844  36.2183  48.1061  9.955762
  13992.078  13992.080  0.500  -0.283877  36.2165  48.1053  9.956456
  13994.140  13994.150  0.500  -0.284170  36.193  48.0881  9.952090
  13996.254  13996.240  0.500  -0.284375  36.1838  48.0857  9.951351
  13998.394  13998.350  0.500  -0.284427  36.1633  48.061  9.952296
  14000.526  14000.480  0.500  -0.284559  36.2372  48.1657  9.981936
  14002.650  14002.620  0.500  -0.284777  36.2007  48.1276  9.980477
  14004.792  14004.790  0.500  -0.284825  36.2023  48.132  9.993650
  14007.004  14006.980  0.500  -0.285032  36.1794  48.1115  10.0001
  14009.190  14009.180  0.500  -0.285270  36.1503  48.0843  10.0046
  14011.420  14011.400  0.500  -0.285370  36.1369  48.0713  10.0081
  14013.685  14013.650  0.500  -0.285617  36.1236  48.0654  10.011
  14015.933  14015.910  0.500  -0.285774  36.1069  48.0508  10.009
  14018.182  14018.190  0.500  -0.285967  36.0969  48.0467  10.0038
  14020.501  14020.490  0.500  -0.286175  36.057  48.0036  9.986524
  14022.829  14022.810  0.500  -0.286244  36.0368  47.98  9.972308
  14025.175  14025.150  0.500  -0.286354  36.0304  47.9767  9.963730
  14027.504  14027.500  0.500  -0.286526  35.9972  47.9408  9.948625
  14029.886  14029.880  0.500  -0.286725  35.9772  47.9237  9.942888
  14032.286  14032.270  0.500  -0.286733  35.9637  47.9061  9.942914
  14034.730  14034.690  0.500  -0.286968  35.9409  47.887  9.947596
  14037.158  14037.120  0.500  -0.287053  35.9144  47.8557  9.952552
  14039.603  14039.570  0.500  -0.287137  35.9058  47.8483  9.965423
  14042.050  14042.050  0.500  -0.287260  35.89  47.8332  9.976498
  14044.557  14044.540  0.500  -0.287479  35.869  47.8156  9.987727
  14047.083  14047.050  0.500  -0.287627  35.8373  47.7804  9.997434
  14049.601  14049.570  0.500  -0.287729  35.8199  47.7621  10.0126
  14052.146  14052.120  0.500  -0.287843  35.7957  47.7353  10.025
  14054.717  14054.690  0.500  -0.288102  35.775  47.7201  10.0397
  14057.307  14057.270  0.500  -0.288330  35.7352  47.6778  10.0427
  14059.898  14059.880  0.500  -0.288366  35.7201  47.6594  10.0489
  14062.533  14062.500  0.500  -0.288683  35.6822  47.624  10.0485
  14065.169  14065.150  0.500  -0.288987  35.6346  47.5748  10.0495
  14067.815  14067.810  0.500  -0.289166  35.5769  47.5063  10.0457
  14070.513  14070.490  0.500  -0.289412  35.423  47.3124  10.0225
  14073.230  14073.190  0.500  -0.289689  34.1498  45.6245  9.684498
  14075.948  14075.910  0.500  -0.289891  34.2394  45.7535  9.729638
  14078.650  14078.650  0.500  -0.290026  35.6878  47.6955  10.1598
  14081.414  14081.400  0.500  -0.290326  35.6603  47.6729  10.1611
  14084.204  14084.180  0.500  -0.290609  35.5102  47.4858  10.1229
  14087.013  14086.970  0.500  -0.290873  35.579  47.5903  10.1404
  14089.806  14089.790  0.500  -0.291113  35.5687  47.5879  10.1336
  14092.643  14092.620  0.500  -0.291298  35.5421  47.5612  10.1237
  14095.490  14095.470  0.500  -0.291495  35.4928  47.5045  10.1063
  14098.364  14098.350  0.500  -0.291610  35.4649  47.4726  10.0978
  14101.275  14101.240  0.500  -0.291810  35.4355  47.4427  10.0932
  14104.160  14104.150  0.500  -0.291982  35.4024  47.4066  10.0881
  14107.073  14107.070  0.500  -0.292192  35.35  47.3464  10.0788
  14110.056  14110.020  0.500  -0.292416  35.2362  47.2045  10.051
  14113.015  14112.990  0.500  -0.292662  35.2849  47.2814  10.0716
  14115.975  14115.970  0.500  -0.292770  35.2097  47.1857  10.058
  14118.997  14118.980  0.500  -0.292948  34.7562  46.5863  9.939299
  14122.038  14122.000  0.500  -0.293043  33.2395  44.5576  9.519832
  14125.063  14125.050  0.500  -0.293501  35.3362  47.3898  10.1415
  14128.141  14128.110  0.500  -0.293605  35.285  47.3261  10.1467
  14131.230  14131.190  0.500  -0.293864  35.2066  47.2333  10.1468
  14134.328  14134.290  0.500  -0.293973  35.208  47.2402  10.1673
  14137.437  14137.410  0.500  -0.294372  35.1775  47.2182  10.1775
  14140.591  14140.550  0.500  -0.294377  35.1663  47.2033  10.1908
  14143.728  14143.700  0.500  -0.294656  35.1343  47.1735  10.196
  14146.920  14146.880  0.500  -0.294969  35.1128  47.1595  10.2023
  14150.078  14150.070  0.500  -0.295292  35.0827  47.1343  10.2064
  14153.325  14153.290  0.500  -0.295408  35.0489  47.0943  10.2074
  14156.547  14156.520  0.500  -0.295663  34.9808  47.0148  10.194
  14159.797  14159.770  0.500  -0.295956  34.8608  46.8673  10.1598
  14163.075  14163.050  0.500  -0.296181  34.8113  46.8113  10.1422
  14166.372  14166.340  0.500  -0.296406  33.5808  45.1668  9.785120
  14169.653  14169.650  0.500  -0.296556  34.1312  45.9139  9.947860
  14172.997  14172.970  0.500  -0.296694  34.9867  47.0713  10.2044
  14176.334  14176.320  0.500  -0.297086  34.9697  47.0668  10.2171
  14179.716  14179.690  0.500  -0.297291  34.9198  47.0093  10.2163
  14183.091  14183.070  0.500  -0.297601  34.8825  46.9736  10.2184
  14186.511  14186.480  0.500  -0.297761  34.8491  46.9361  10.218
  14189.943  14189.900  0.500  -0.297884  34.8287  46.9145  10.2191
  14193.349  14193.350  0.500  -0.298202  34.7978  46.8878  10.2206
  14196.854  14196.810  0.500  -0.298516  34.7649  46.8581  10.2223
  14200.317  14200.290  0.500  -0.298759  34.7342  46.8281  10.228
  14203.798  14203.790  0.500  -0.298921  34.7006  46.7904  10.2362
  14207.317  14207.310  0.500  -0.299108  34.6822  46.7743  10.2553
  14210.891  14210.850  0.500  -0.299518  34.6507  46.751  10.2737
  14214.396  14214.400  0.500  -0.299738  34.63  46.7333  10.2953
  14217.973  14217.980  0.500  -0.299989  34.6091  46.7169  10.3115
  14221.605  14221.580  0.500  -0.300268  34.5707  46.6781  10.3267
  14225.195  14225.190  0.500  -0.300428  34.5536  46.6624  10.3396
  14228.831  14228.820  0.500  -0.300786  34.5035  46.6114  10.3411
  14232.504  14232.480  0.500  -0.300972  34.4791  46.5871  10.3417
  14236.170  14236.150  0.500  -0.301398  34.4522  46.5707  10.3384
  14239.847  14239.840  0.500  -0.301657  34.4223  46.5423  10.3287
  14243.580  14243.550  0.500  -0.301804  34.4005  46.5197  10.3222
  14247.278  14247.280  0.500  -0.301990  34.3596  46.473  10.3159
  14251.059  14251.020  0.500  -0.302341  34.3242  46.4414  10.3107
  14254.814  14254.790  0.500  -0.302580  34.288  46.4035  10.3128
  14258.572  14258.580  0.500  -0.302815  34.2669  46.3859  10.318
  14262.403  14262.380  0.500  -0.303103  34.2098  46.3219  10.3176
  14266.245  14266.210  0.500  -0.303374  34.1548  46.26  10.3153
  14270.089  14270.050  0.500  -0.303777  33.4279  45.2938  10.1088
  14273.953  14273.910  0.500  -0.303762  33.4848  45.3701  10.133
  14277.819  14277.790  0.500  -0.304134  34.1593  46.3012  10.3458
  14281.696  14281.690  0.500  -0.304421  34.1097  46.2473  10.338
  14285.629  14285.610  0.500  -0.304651  34.0838  46.2228  10.3406
  14289.581  14289.550  0.500  -0.304927  34.0542  46.1954  10.3468
  14293.510  14293.510  0.500  -0.305129  34.0175  46.155  10.3513
  14297.520  14297.480  0.500  -0.305460  33.9689  46.1042  10.3548
  14301.489  14301.480  0.500  -0.305763  33.936  46.0736  10.3608
  14305.504  14305.490  0.500  -0.305953  33.9409  46.0889  10.3782
  14309.548  14309.530  0.500  -0.306353  33.8797  46.0243  10.3819
  14313.595  14313.580  0.500  -0.306518  33.869  46.0174  10.3969
  14317.680  14317.650  0.500  -0.306737  33.8336  45.9793  10.4084
  14321.803  14321.740  0.500  -0.307042  33.7997  45.9473  10.4196
  14325.875  14325.850  0.500  -0.307306  33.7814  45.9346  10.4304
  14330.011  14329.980  0.500  -0.307799  33.7343  45.893  10.4316
  14334.169  14334.130  0.500  -0.307911  33.7088  45.8635  10.4327
  14338.346  14338.290  0.500  -0.308276  33.6823  45.8442  10.4356
  14342.499  14342.480  0.500  -0.308475  33.6418  45.7981  10.4298
  14346.718  14346.680  0.500  -0.308714  33.6244  45.7854  10.4332
  14350.975  14350.910  0.500  -0.309026  33.5881  45.7503  10.4323
  14355.225  14355.150  0.500  -0.309278  33.5483  45.7076  10.4331
  14359.452  14359.410  0.500  -0.309646  33.4266  45.5586  10.41
  14363.725  14363.690  0.500  -0.309904  33.4918  45.6592  10.4445
  14368.038  14367.990  0.500  -0.310096  33.4143  45.5622  10.4369
  14372.362  14372.310  0.500  -0.310539  33.4259  45.5983  10.4543
  14376.670  14376.650  0.500  -0.310628  33.3472  45.495  10.4435
  14381.045  14381.010  0.500  -0.311058  33.3667  45.5411  10.468
  14385.431  14385.390  0.500  -0.311271  33.2989  45.4583  10.464
  14389.838  14389.780  0.500  -0.311629  33.3038  45.4813  10.4842
  14394.220  14394.200  0.500  -0.311890  33.2681  45.4444  10.4899
  14398.678  14398.630  0.500  -0.312276  33.2347  45.4162  10.4976
  14403.120  14403.080  0.500  -0.312588  33.1982  45.3806  10.5054
  14407.593  14407.550  0.500  -0.312886  33.1731  45.3598  10.5158
  14412.050  14412.040  0.500  -0.313217  32.9776  45.1073  10.473
  14416.573  14416.550  0.500  -0.313466  33.0972  45.2823  10.5269
  14421.109  14421.080  0.500  -0.313908  33.0481  45.2351  10.5296
  14425.638  14425.630  0.500  -0.314190  33.03  45.2231  10.5384
  14430.215  14430.200  0.500  -0.314356  33.0062  45.1979  10.5451
  14434.814  14434.780  0.500  -0.314672  32.8516  45.0005  10.5069
  14439.434  14439.390  0.500  -0.314842  32.9538  45.1481  10.554
  14444.029  14444.010  0.500  -0.315138  32.9009  45.089  10.5499
  14448.673  14448.660  0.500  -0.315616  32.8638  45.0597  10.5492
  14453.366  14453.320  0.500  -0.315883  32.8472  45.049  10.556
  14458.035  14458.000  0.500  -0.316241  32.8036  45.0052  10.5541
  14462.724  14462.700  0.500  -0.316488  32.766  44.9648  10.5535
  14467.463  14467.420  0.500  -0.316760  32.7431  44.9456  10.5582
  14472.205  14472.160  0.500  -0.317120  32.7098  44.916  10.5623
  14476.904  14476.910  0.500  -0.317450  32.6726  44.8797  10.5635
  14481.698  14481.690  0.500  -0.317760  32.5913  44.782  10.553
  14486.541  14486.490  0.500  -0.318095  32.5979  44.806  10.5727
  14491.323  14491.300  0.500  -0.318389  32.5715  44.7829  10.5823
  14496.163  14496.130  0.500  -0.318542  32.5528  44.764  10.5925
  14501.034  14500.990  0.500  -0.318951  32.508  44.7207  10.6009
  14505.908  14505.860  0.500  -0.319296  32.4712  44.6856  10.6079
  14510.777  14510.750  0.500  -0.319654  32.4347  44.6512  10.6182
  14515.667  14515.660  0.500  -0.319954  32.3842  44.5952  10.621
  14520.634  14520.590  0.500  -0.320240  32.3638  44.5798  10.6355
  14525.568  14525.530  0.500  -0.320482  32.3415  44.5599  10.6474
  14530.524  14530.500  0.500  -0.320814  32.2999  44.5173  10.6559
  14535.538  14535.490  0.500  -0.321256  32.2612  44.4836  10.6613
  14540.529  14540.490  0.500  -0.321470  32.2314  44.4521  10.6661
  14545.541  14545.520  0.500  -0.321829  32.1907  44.4119  10.6676
  14550.575  14550.560  0.500  -0.322193  32.1112  44.3183  10.6597
  14555.659  14555.620  0.500  -0.322470  32.1237  44.3478  10.6789
  14560.747  14560.700  0.500  -0.322766  32.0871  44.3104  10.682
  14565.820  14565.800  0.500  -0.323206  32.0481  44.276  10.6865
  14570.961  14570.920  0.500  -0.323449  32.0181  44.2453  10.6944
  14576.106  14576.060  0.500  -0.323705  31.9763  44.1989  10.6949
  14581.236  14581.220  0.500  -0.324103  31.9412  44.168  10.6995
  14586.416  14586.400  0.500  -0.324390  31.9063  44.1324  10.6998
  14591.646  14591.590  0.500  -0.324834  31.8705  44.1024  10.6995
  14596.834  14596.810  0.500  -0.325079  31.8348  44.0638  10.6998
  14602.072  14602.040  0.500  -0.325404  31.7932  44.0206  10.6977
  14607.332  14607.290  0.500  -0.325747  31.7624  43.993  10.7023
  14612.597  14612.560  0.500  -0.326170  31.7183  43.9505  10.7068
  14617.855  14617.850  0.500  -0.326434  31.6799  43.9088  10.7109
  14623.193  14623.160  0.500  -0.326791  31.649  43.8817  10.722
  14628.543  14628.490  0.500  -0.327075  31.6095  43.8394  10.7305
  14633.870  14633.840  0.500  -0.327380  31.5831  43.8161  10.7404
  14639.219  14639.210  0.500  -0.327671  31.536  43.7635  10.7466
  14644.638  14644.590  0.500  -0.328027  31.4559  43.6679  10.7426
  14650.042  14650.000  0.500  -0.328484  31.4635  43.6985  10.7676
  14655.450  14655.420  0.500  -0.328813  31.4308  43.6673  10.7735
  14660.909  14660.870  0.500  -0.329036  31.3491  43.5635  10.7653
  14666.391  14666.330  0.500  -0.329460  31.3144  43.5339  10.7708
  14671.840  14671.810  0.500  -0.329755  31.3187  43.5526  10.7914
  14677.330  14677.310  0.500  -0.330088  31.2716  43.5016  10.7917
  14682.900  14682.830  0.500  -0.330454  31.3334  43.6036  10.8304
  14688.408  14688.370  0.500  -0.330703  31.2846  43.5466  10.8308
  14693.939  14693.920  0.500  -0.331080  31.263  43.5327  10.8419
  14699.522  14699.500  0.500  -0.331327  31.2318  43.5002  10.8478
  14705.146  14705.100  0.500  -0.331863  31.1694  43.4364  10.8445
  14710.766  14710.710  0.500  -0.332264  31.1463  43.4217  10.8554
  14716.380  14716.350  0.500  -0.332493  31.1125  43.3845  10.8621
  14722.047  14722.000  0.500  -0.332748  31.071  43.3376  10.8642
  14727.717  14727.670  0.500  -0.333169  31.0413  43.3145  10.8707
  14733.383  14733.360  0.500  -0.333722  30.9789  43.2513  10.8668