File: xdidata/Pt/Pt-L3-TetraammineplatinumChloride.xdi
# XDI/1.0 BlueSky/1.10.0 BMM/2023-1.0-py310-tiled
# Beamline.name: BMM (06BM) -- Beamline for Materials Measurement (NIST)
# Beamline.xray_source: NSLS-II three-pole wiggler
# Beamline.collimation: paraboloid mirror, 5 nm Rh on 30 nm Pt
# Beamline.focusing: not in use
# Beamline.harmonic_rejection: flat mirror, Pt stripe, pitch = 7.0 mrad relative to beam
# Beamline.software: Bluesky 1.10.0, Ophyd 1.7.0, DataBroker 2.0.0b13, Python 3.10.8, 2023-1.0-py310-tiled
# Detector.I0: 10 cm N2
# Detector.I1: 25 cm N2
# Detector.I2: 25 cm N2
# Element.symbol: Pt
# Element.edge: L3
# Element.reference: Pt
# Element.reference_material: Pt foil
# Facility.name: NSLS-II
# Facility.energy: 3.0
# Facility.current: 399.9
# Facility.mode: top-off
# Facility.GUP: 301027
# Facility.SAF: 310583
# Facility.cycle: 2023-2
# Mono.name: Si(111)
# Mono.d_spacing: 3.13519
# Mono.encoder_resolution: 0.0000050 deg/ct
# Mono.angle_offset: 16.0754 deg
# Mono.scan_mode: pseudo channel cut
# Mono.scan_type: step
# Mono.direction: forward in energy
# Sample.name: Pt(NH3)4Cl2.xH2O
# Sample.prep: powder on tape
# Sample.x: 119.711 mm
# Sample.y: 114.376 mm
# Sample.SDD_position: 205.000 mm
# Scan.experimenters: Bruce Ravel
# Scan.edge_energy: 11563.8
# Scan.start_time: 2023-06-27T17:22:11
# Scan.end_time: 2023-06-27T17:30:07
# Scan.transient_id: 85185
# Scan.uid: 25df2c66-ec7b-4417-9144-2e7879e5814c
# Scan.plot_hint: ln(I0/It)  --  ln($5/$6)
# Column.1: energy eV
# Column.2: requested_energy eV
# Column.3: measurement_time seconds
# Column.4: xmu
# Column.5: I0 nA
# Column.6: It nA
# Column.7: Ir nA
# ///////////
# sample courtesy Simon Bare and Shelly Kelly
# -----------
# energy  requested_energy  measurement_time  xmu  I0  It  Ir
  11363.784  11363.800  0.500  0.180242  71.9065  60.0468  24.9914
  11373.833  11373.800  0.500  0.178075  71.4279  59.7766  24.9333
  11383.850  11383.800  0.500  0.176049  71.3615  59.8421  25.015
  11393.823  11393.800  0.500  0.173938  69.7995  58.6559  24.5699
  11403.836  11403.800  0.500  0.171689  71.0522  59.8431  25.1166
  11413.872  11413.800  0.500  0.169686  70.81  59.7587  25.1356
  11423.842  11423.800  0.500  0.167740  70.7248  59.803  25.2078
  11433.863  11433.800  0.500  0.165729  70.5195  59.7495  25.2379
  11443.834  11443.800  0.500  0.163827  70.3552  59.7238  25.2787
  11453.897  11453.800  0.500  0.161860  70.1821  59.6942  25.3172
  11463.800  11463.800  0.500  0.159996  69.9888  59.6408  25.3452
  11473.830  11473.800  0.500  0.158191  69.7623  59.5551  25.3571
  11483.843  11483.800  0.500  0.156421  69.7454  59.6462  25.436
  11493.834  11493.800  0.500  0.154935  69.53  59.5504  25.4335
  11503.842  11503.800  0.500  0.153597  69.34  59.4672  25.4223
  11513.822  11513.800  0.500  0.152733  69.167  59.3701  25.3916
  11523.843  11523.800  0.500  0.152706  68.9859  59.2163  25.3052
  11533.858  11533.800  0.500  0.154458  68.7944  58.9485  25.1078
  11535.762  11535.800  0.500  0.155353  68.7309  58.8414  25.0353
  11537.752  11537.800  0.500  0.156320  68.6753  58.737  24.9555
  11539.750  11539.800  0.500  0.157415  68.6317  58.6354  24.8611
  11541.753  11541.800  0.500  0.158872  68.5767  58.5032  24.7465
  11543.764  11543.800  0.500  0.160864  68.5256  58.3432  24.6024
  11545.757  11545.800  0.500  0.163542  68.4656  58.1362  24.4223
  11547.757  11547.800  0.500  0.166698  68.3889  57.8882  24.1893
  11549.770  11549.800  0.500  0.171181  68.3408  57.5887  23.901
  11551.771  11551.800  0.500  0.177399  68.2876  57.1871  23.5135
  11553.768  11553.800  0.500  0.185633  68.2118  56.6552  22.9886
  11554.046  11554.100  0.500  0.187076  68.1911  56.5564  22.8931
  11554.348  11554.400  0.500  0.188741  68.1793  56.4525  22.7911
  11554.644  11554.700  0.500  0.190474  68.1499  56.3304  22.68
  11554.952  11555.000  0.500  0.192360  68.1211  56.2006  22.5579
  11555.242  11555.300  0.500  0.194320  68.116  56.0864  22.4382
  11555.550  11555.600  0.500  0.196464  68.0932  55.9475  22.3028
  11555.869  11555.900  0.500  0.198909  68.0761  55.7968  22.1573
  11556.160  11556.200  0.500  0.201146  68.0563  55.656  22.0125
  11556.456  11556.500  0.500  0.203937  68.1369  55.5666  21.8825
  11556.758  11556.800  0.500  0.206744  68.2268  55.484  21.7448
  11557.071  11557.100  0.500  0.209642  68.2142  55.3132  21.5663
  11557.379  11557.400  0.500  0.213010  68.1869  55.1051  21.3654
  11557.670  11557.700  0.500  0.216322  68.1427  54.8873  21.1585
  11557.983  11558.000  0.500  0.220169  68.1259  54.6631  20.9324
  11558.291  11558.300  0.500  0.224183  68.1247  54.4431  20.7024
  11558.582  11558.600  0.500  0.228248  68.0812  54.1876  20.4508
  11558.884  11558.900  0.500  0.233006  68.0486  53.9046  20.1739
  11559.180  11559.200  0.500  0.237817  68.0134  53.6182  19.891
  11559.482  11559.500  0.500  0.243359  68.0081  53.3177  19.5798
  11559.790  11559.800  0.500  0.249403  67.9728  52.9689  19.2356
  11560.081  11560.100  0.500  0.255931  67.9407  52.5994  18.8704
  11560.395  11560.400  0.500  0.263388  67.9008  52.178  18.4569
  11560.685  11560.700  0.500  0.271039  67.8656  51.7534  18.0366
  11560.987  11561.000  0.500  0.280088  67.8185  51.2516  17.55
  11561.272  11561.300  0.500  0.289456  67.776  50.7419  17.0578
  11561.598  11561.600  0.500  0.300577  67.7275  50.1448  16.4824
  11561.871  11561.900  0.500  0.312109  67.6525  49.5149  15.8975
  11562.173  11562.200  0.500  0.325527  67.6091  48.8237  15.2527
  11562.475  11562.500  0.500  0.340508  67.5392  48.048  14.5565
  11562.783  11562.800  0.500  0.357769  67.4575  47.1686  13.7863
  11563.074  11563.100  0.500  0.376506  67.3853  46.2435  13.005
  11563.376  11563.400  0.500  0.397744  67.2927  45.2095  12.1771
  11563.679  11563.700  0.500  0.421369  67.2025  44.0948  11.3283
  11563.981  11564.000  0.500  0.448192  67.1058  42.866  10.4529
  11564.289  11564.300  0.500  0.478133  67.0026  41.5375  9.579274
  11564.592  11564.600  0.500  0.511072  66.893  40.1259  8.733037
  11564.894  11564.900  0.500  0.547982  66.7977  38.6168  7.912910
  11565.202  11565.200  0.500  0.589625  66.6998  36.9874  7.127146
  11565.505  11565.500  0.500  0.634775  66.6118  35.3079  6.411940
  11565.796  11565.800  0.500  0.685074  66.5441  33.5418  5.752634
  11566.098  11566.100  0.500  0.737733  66.4824  31.7917  5.184633
  11566.407  11566.400  0.500  0.795854  66.4369  29.976  4.675921
  11566.692  11566.700  0.500  0.851391  66.4169  28.3481  4.278864
  11567.012  11567.000  0.500  0.909003  66.4196  26.7622  3.941945
  11567.285  11567.300  0.500  0.957638  66.4131  25.4892  3.709261
  11567.611  11567.600  0.500  1.002409  66.4308  24.3797  3.536787
  11567.890  11567.900  0.500  1.033873  66.4469  23.6303  3.444226
  11568.181  11568.200  0.500  1.055321  66.4981  23.1467  3.411918
  11568.484  11568.500  0.500  1.063434  66.5262  22.9694  3.438562
  11568.786  11568.800  0.500  1.059465  66.556  23.0711  3.516514
  11569.083  11569.100  0.500  1.045676  66.6047  23.4085  3.636773
  11569.374  11569.400  0.500  1.025169  66.6429  23.9072  3.782807
  11569.700  11569.700  0.500  0.997777  66.6479  24.5729  3.966075
  11569.985  11570.000  0.500  0.970807  66.6825  25.2578  4.144371
  11570.288  11570.300  0.500  0.941879  66.7164  26.0124  4.338543
  11570.591  11570.600  0.500  0.914511  66.7414  26.7441  4.526788
  11570.899  11570.900  0.500  0.888138  66.7465  27.4609  4.711276
  11571.196  11571.200  0.500  0.863445  66.7735  28.1588  4.891910
  11571.493  11571.500  0.500  0.842062  66.7844  28.7721  5.052574
  11571.808  11571.800  0.500  0.821812  66.792  29.3641  5.212037
  11572.105  11572.100  0.500  0.804997  66.8076  29.869  5.347746
  11572.407  11572.400  0.500  0.789452  66.8166  30.341  5.480425
  11572.699  11572.700  0.500  0.776631  66.8042  30.7268  5.592628
  11573.002  11573.000  0.500  0.765046  66.8326  31.098  5.703534
  11573.304  11573.300  0.500  0.756146  66.819  31.3697  5.792132
  11573.601  11573.600  0.500  0.748300  66.8314  31.6226  5.878263
  11573.898  11573.900  0.500  0.741548  66.8294  31.8359  5.954437
  11574.196  11574.200  0.500  0.735870  66.8346  32.0197  6.023032
  11574.487  11574.500  0.500  0.730901  66.8443  32.1838  6.088324
  11574.778  11574.800  0.500  0.726077  66.8419  32.3384  6.143148
  11575.099  11575.100  0.500  0.721213  66.8336  32.492  6.198018
  11575.390  11575.400  0.500  0.716573  66.8257  32.6392  6.245667
  11575.693  11575.700  0.500  0.711398  66.838  32.8146  6.294969
  11575.996  11576.000  0.500  0.706566  66.8277  32.9684  6.334936
  11576.299  11576.300  0.500  0.701131  66.8215  33.1451  6.374673
  11576.596  11576.600  0.500  0.695965  66.8128  33.3124  6.407364
  11576.911  11576.900  0.500  0.690720  66.8027  33.4825  6.437111
  11577.208  11577.200  0.500  0.685778  66.7987  33.6464  6.462019
  11577.511  11577.500  0.500  0.681048  66.7866  33.7998  6.478587
  11577.803  11577.800  0.500  0.676909  66.774  33.9336  6.490532
  11578.112  11578.100  0.500  0.673174  66.775  34.0611  6.494913
  11578.397  11578.400  0.500  0.670305  66.7616  34.1521  6.491606
  11578.718  11578.700  0.500  0.667957  66.7557  34.2293  6.481438
  11579.004  11579.000  0.500  0.666434  66.748  34.2775  6.466926
  11579.301  11579.300  0.500  0.665372  66.737  34.3083  6.447905
  11579.604  11579.600  0.500  0.664818  66.7281  34.3228  6.426413
  11579.907  11579.900  0.500  0.664860  66.7127  34.3134  6.400843
  11580.199  11580.200  0.500  0.665237  66.7123  34.3002  6.378123
  11580.496  11580.500  0.500  0.665808  66.7042  34.2765  6.357093
  11580.794  11580.800  0.500  0.666559  66.6934  34.2452  6.336761
  11581.091  11581.100  0.500  0.667357  66.6896  34.216  6.323220
  11581.394  11581.400  0.500  0.668151  66.6674  34.1774  6.311366
  11581.686  11581.700  0.500  0.668952  66.6681  34.1504  6.309833
  11581.995  11582.000  0.500  0.669458  66.6684  34.1333  6.312669
  11582.299  11582.300  0.500  0.669864  66.6703  34.1204  6.321868
  11582.584  11582.600  0.500  0.669941  66.6757  34.1206  6.338476
  11582.900  11582.900  0.500  0.669861  66.6819  34.1264  6.361871
  11583.197  11583.200  0.500  0.669606  66.6644  34.1262  6.388163
  11583.506  11583.500  0.500  0.668998  66.6863  34.1581  6.424683
  11583.798  11583.800  0.500  0.668240  66.6831  34.1824  6.457017
  11584.107  11584.100  0.500  0.667125  66.6917  34.225  6.498526
  11584.399  11584.400  0.500  0.665981  66.6837  34.26  6.533633
  11584.714  11584.700  0.500  0.664799  66.688  34.3028  6.571076
  11585.012  11585.000  0.500  0.663364  66.6868  34.3514  6.603505
  11585.304  11585.300  0.500  0.661692  66.6857  34.4083  6.635753
  11585.596  11585.600  0.500  0.660293  66.6854  34.4564  6.662276
  11585.917  11585.900  0.500  0.658634  66.679  34.5102  6.684552
  11586.203  11586.200  0.500  0.657018  66.6596  34.556  6.703252
  11586.506  11586.500  0.500  0.655494  66.6753  34.6168  6.720165
  11586.798  11586.800  0.500  0.653973  66.6611  34.6621  6.732545
  11587.090  11587.100  0.500  0.652636  66.6626  34.7093  6.743142
  11587.405  11587.400  0.500  0.651295  66.6557  34.7523  6.751671
  11587.686  11587.700  0.500  0.650165  66.6566  34.7921  6.759201
  11587.989  11588.000  0.500  0.649121  66.6484  34.8241  6.762365
  11588.293  11588.300  0.500  0.648304  66.6416  34.849  6.764047
  11588.597  11588.600  0.500  0.647636  66.6279  34.8651  6.760379
  11588.778  11588.800  0.500  0.647475  66.6219  34.8676  6.756873
  11589.811  11589.790  0.500  0.648518  66.6055  34.8227  6.708571
  11590.805  11590.790  0.500  0.653390  66.5713  34.6357  6.600416
  11591.833  11591.810  0.500  0.661173  66.5355  34.3487  6.436065
  11592.885  11592.860  0.500  0.670293  66.4925  34.0148  6.243216
  11593.931  11593.920  0.500  0.678740  66.4615  33.7129  6.072501
  11595.007  11595.000  0.500  0.685796  66.434  33.4621  5.954510
  11596.118  11596.100  0.500  0.691070  66.4108  33.2745  5.913243
  11597.235  11597.220  0.500  0.694586  66.414  33.1593  5.947380
  11598.387  11598.360  0.500  0.697399  66.4263  33.0722  6.017501
  11599.522  11599.510  0.500  0.699731  66.4162  32.9902  6.085809
  11600.693  11600.690  0.500  0.703057  66.4305  32.8877  6.139567
  11601.898  11601.880  0.500  0.707394  66.4099  32.7352  6.158213
  11603.116  11603.100  0.500  0.712931  66.4093  32.5542  6.153208
  11604.352  11604.330  0.500  0.719401  66.3953  32.3374  6.133997
  11605.599  11605.580  0.500  0.726557  66.3904  32.1045  6.124043
  11606.859  11606.850  0.500  0.734608  66.3777  31.8409  6.115997
  11608.142  11608.140  0.500  0.743174  66.3614  31.5616  6.096925
  11609.455  11609.450  0.500  0.752096  66.3412  31.2717  6.054772
  11610.791  11610.780  0.500  0.759662  66.3136  31.0231  5.987434
  11612.146  11612.130  0.500  0.765201  66.2779  30.8351  5.908398
  11613.506  11613.500  0.500  0.768275  66.2372  30.7216  5.828394
  11614.891  11614.880  0.500  0.768955  66.2058  30.6862  5.757318
  11616.293  11616.290  0.500  0.766909  66.1683  30.7316  5.698744
  11617.719  11617.710  0.500  0.762662  66.1328  30.8459  5.657303
  11619.175  11619.150  0.500  0.756087  66.0975  31.0328  5.639276
  11620.626  11620.610  0.500  0.747564  66.0645  31.2828  5.655260
  11622.082  11622.090  0.500  0.738001  66.0502  31.5766  5.707357
  11623.592  11623.590  0.500  0.728636  66.0401  31.8688  5.779171
  11625.126  11625.110  0.500  0.719838  66.0235  32.1423  5.859321
  11626.660  11626.650  0.500  0.712311  66.0094  32.3782  5.934864
  11628.213  11628.210  0.500  0.706443  65.9886  32.5585  6.000071
  11629.777  11629.780  0.500  0.702124  65.9791  32.6947  6.056209
  11631.395  11631.380  0.500  0.698610  65.9542  32.7974  6.104280
  11633.013  11632.990  0.500  0.695924  65.9345  32.8758  6.140182
  11634.638  11634.630  0.500  0.693723  65.9234  32.9427  6.169726
  11636.269  11636.280  0.500  0.691975  65.8974  32.9873  6.200536
  11637.948  11637.950  0.500  0.690134  65.884  33.0414  6.243698
  11639.644  11639.640  0.500  0.688108  65.8507  33.0917  6.297570
  11641.365  11641.350  0.500  0.686348  65.8426  33.1459  6.354746
  11643.045  11643.080  0.500  0.684700  65.8288  33.1936  6.409414
  11644.808  11644.830  0.500  0.683289  65.7949  33.2233  6.453499
  11646.578  11646.590  0.500  0.682412  65.774  33.2419  6.483047
  11648.360  11648.380  0.500  0.681878  65.7487  33.2469  6.499432
  11650.154  11650.180  0.500  0.681611  65.7111  33.2368  6.505017
  11652.120  11652.010  0.500  0.682203  65.5071  33.114  6.474384
  11653.815  11653.850  0.500  0.683076  65.618  33.1411  6.461307
  11655.960  11655.710  0.500  0.684643  65.6069  33.0836  6.406047
  11657.680  11657.590  0.500  0.686579  65.5757  33.0039  6.344909
  11659.495  11659.490  0.500  0.688720  65.5021  32.8964  6.280185
  11661.435  11661.410  0.500  0.691260  65.3221  32.7227  6.208722
  11663.357  11663.350  0.500  0.693837  65.4229  32.6889  6.178725
  11665.316  11665.310  0.500  0.696349  65.4203  32.6056  6.152205
  11667.282  11667.280  0.500  0.698650  65.3858  32.5135  6.137529
  11669.271  11669.280  0.500  0.700811  65.1987  32.3504  6.112601
  11671.279  11671.290  0.500  0.702541  65.2999  32.3447  6.121965
  11673.312  11673.320  0.500  0.704133  65.3112  32.2988  6.127378
  11675.387  11675.380  0.500  0.705402  65.2818  32.2433  6.129091
  11677.457  11677.450  0.500  0.706402  65.3968  32.2678  6.144572
  11679.545  11679.540  0.500  0.707172  65.2372  32.1643  6.131411
  11681.658  11681.650  0.500  0.707440  65.3689  32.2206  6.140647
  11683.771  11683.780  0.500  0.707137  65.3388  32.2155  6.128215
  11685.909  11685.920  0.500  0.706438  65.2985  32.2182  6.114269
  11688.113  11688.090  0.500  0.705196  65.2599  32.2391  6.105023
  11690.277  11690.280  0.500  0.703742  65.2317  32.2721  6.106782
  11692.483  11692.480  0.500  0.701797  65.195  32.3167  6.121272
  11694.707  11694.700  0.500  0.699883  65.1627  32.3626  6.150315
  11696.956  11696.950  0.500  0.697820  65.1351  32.4157  6.194475
  11699.218  11699.210  0.500  0.695622  65.1043  32.4717  6.248627
  11701.505  11701.490  0.500  0.693533  65.0652  32.5201  6.307106
  11703.793  11703.790  0.500  0.691319  64.6483  32.3833  6.329897
  11706.105  11706.110  0.500  0.689445  64.9828  32.6119  6.413152
  11708.454  11708.450  0.500  0.687557  64.9678  32.666  6.447403
  11710.804  11710.800  0.500  0.685701  64.9433  32.7143  6.461086
  11713.197  11713.180  0.500  0.684101  64.9074  32.7486  6.458591
  11715.579  11715.570  0.500  0.682745  64.8586  32.7684  6.442299
  11717.985  11717.990  0.500  0.681547  64.8204  32.7883  6.417976
  11720.417  11720.420  0.500  0.680675  64.7774  32.7952  6.392848
  11722.892  11722.870  0.500  0.679893  64.7366  32.8002  6.366191
  11725.367  11725.350  0.500  0.679388  64.6934  32.7949  6.345689
  11727.844  11727.840  0.500  0.679040  64.6444  32.7814  6.325054
  11730.357  11730.350  0.500  0.678819  64.6048  32.7686  6.310226
  11732.884  11732.870  0.500  0.678822  64.5639  32.7477  6.295461
  11735.430  11735.420  0.500  0.678791  64.2595  32.5943  6.262472
  11738.006  11737.990  0.500  0.678934  64.4699  32.6964  6.283974
  11740.566  11740.570  0.500  0.679132  64.4352  32.6723  6.287368
  11743.188  11743.180  0.500  0.679237  64.3951  32.6486  6.290606
  11745.804  11745.800  0.500  0.679489  64.3053  32.5948  6.283161
  11748.457  11748.450  0.500  0.679713  64.159  32.5134  6.261194
  11751.112  11751.110  0.500  0.679958  64.2623  32.5577  6.254492
  11753.780  11753.790  0.500  0.680198  64.2209  32.529  6.231639
  11756.497  11756.490  0.500  0.680518  64.1113  32.4631  6.212590
  11759.216  11759.210  0.500  0.680654  64.016  32.4104  6.212821
  11761.930  11761.950  0.500  0.680777  64.0996  32.4487  6.253230
  11764.711  11764.700  0.500  0.680977  64.0575  32.4209  6.300053
  11767.482  11767.480  0.500  0.681062  64.0003  32.3892  6.342908
  11770.278  11770.270  0.500  0.681072  63.7574  32.266  6.359792
  11773.087  11773.090  0.500  0.680966  63.9286  32.356  6.404791
  11775.934  11775.920  0.500  0.680590  63.8355  32.321  6.415229
  11778.776  11778.770  0.500  0.680124  63.6556  32.245  6.412956
  11781.650  11781.650  0.500  0.679533  63.8078  32.3412  6.442893
  11784.550  11784.540  0.500  0.678710  63.7801  32.3538  6.450558
  11787.469  11787.450  0.500  0.677672  63.7377  32.3659  6.455339
  11790.390  11790.370  0.500  0.676520  63.6744  32.371  6.456112
  11793.312  11793.320  0.500  0.675393  63.6433  32.3917  6.457010
  11796.308  11796.290  0.500  0.674035  63.5911  32.4091  6.454607
  11799.276  11799.270  0.500  0.672624  63.5376  32.4275  6.442836
  11802.293  11802.280  0.500  0.671151  63.4957  32.4539  6.423930
  11805.300  11805.300  0.500  0.669624  63.1622  32.3328  6.370442
  11808.381  11808.350  0.500  0.668152  63.3552  32.4794  6.365314
  11811.428  11811.410  0.500  0.666715  63.3168  32.5064  6.341245
  11814.500  11814.490  0.500  0.665407  63.2626  32.521  6.320559
  11817.610  11817.590  0.500  0.664251  63.2079  32.5305  6.315400
  11820.716  11820.710  0.500  0.663038  63.1675  32.5491  6.327118
  11823.879  11823.850  0.500  0.661841  63.1166  32.5619  6.348088
  11827.031  11827.000  0.500  0.660880  63.0791  32.5738  6.377135
  11830.191  11830.180  0.500  0.659795  62.7765  32.4527  6.392396
  11833.389  11833.370  0.500  0.659040  62.9618  32.5731  6.461607
  11836.613  11836.590  0.500  0.658150  62.9262  32.5837  6.513018
  11839.827  11839.820  0.500  0.657512  62.9043  32.5931  6.555421
  11843.085  11843.070  0.500  0.656798  62.8331  32.5795  6.581368
  11846.382  11846.350  0.500  0.656090  62.8104  32.5908  6.595830
  11849.662  11849.640  0.500  0.655497  62.6622  32.5332  6.585137
  11852.962  11852.950  0.500  0.655155  62.713  32.5707  6.587042
  11856.295  11856.270  0.500  0.654778  62.4665  32.4549  6.554239
  11859.636  11859.620  0.500  0.654249  62.2849  32.3777  6.537065
  11863.016  11862.990  0.500  0.653844  62.3581  32.4289  6.559801
  11866.391  11866.370  0.500  0.653536  62.5013  32.5134  6.596390
  11869.799  11869.780  0.500  0.653113  62.4283  32.4891  6.603424
  11873.246  11873.200  0.500  0.652651  62.3853  32.4817  6.602733
  11876.664  11876.650  0.500  0.652174  62.3195  32.463  6.588922
  11880.133  11880.110  0.500  0.651683  62.301  32.4693  6.572758
  11883.617  11883.590  0.500  0.651068  62.1661  32.4189  6.543473
  11887.096  11887.090  0.500  0.650477  61.9589  32.3299  6.507984
  11890.627  11890.610  0.500  0.649653  62.1237  32.4427  6.512317
  11894.172  11894.150  0.500  0.648706  62.0477  32.4337  6.496432
  11897.714  11897.700  0.500  0.647827  61.9949  32.4346  6.494248
  11901.288  11901.280  0.500  0.646757  61.6821  32.3055  6.477799
  11904.901  11904.880  0.500  0.645861  61.8257  32.4097  6.523622
  11908.511  11908.490  0.500  0.644744  61.8526  32.4601  6.568496
  11912.141  11912.120  0.500  0.643698  61.7963  32.4644  6.612565
  11915.792  11915.780  0.500  0.642447  61.669  32.4381  6.647554
  11919.482  11919.450  0.500  0.641536  61.5349  32.3971  6.670728
  11923.162  11923.140  0.500  0.640195  61.6204  32.4856  6.705771
  11926.882  11926.850  0.500  0.639006  61.5614  32.4932  6.714437
  11930.598  11930.580  0.500  0.637712  61.5019  32.5037  6.718564
  11934.354  11934.320  0.500  0.636658  61.0693  32.3092  6.674622
  11938.124  11938.090  0.500  0.635503  61.3671  32.5043  6.713456
  11941.896  11941.880  0.500  0.634294  61.3308  32.5243  6.716952
  11945.715  11945.680  0.500  0.633099  61.2787  32.5356  6.722589
  11949.517  11949.510  0.500  0.632087  61.2111  32.5326  6.732725
  11953.378  11953.350  0.500  0.631010  61.157  32.5388  6.749101
  11957.229  11957.210  0.500  0.629927  61.1038  32.5458  6.766282
  11961.101  11961.090  0.500  0.628842  61.0453  32.5499  6.773449
  11965.007  11964.990  0.500  0.627972  60.9703  32.5382  6.765878
  11968.922  11968.910  0.500  0.627020  60.9231  32.544  6.754587
  11972.883  11972.850  0.500  0.626135  60.8362  32.5263  6.741073
  11976.827  11976.810  0.500  0.625235  60.7849  32.5281  6.737982
  11980.825  11980.780  0.500  0.624281  60.7231  32.5261  6.738802
  11984.800  11984.780  0.500  0.623345  60.657  32.5211  6.739300
  11988.815  11988.790  0.500  0.622589  60.5996  32.5149  6.740351
  11992.859  11992.830  0.500  0.621713  60.5213  32.5014  6.740320
  11996.911  11996.880  0.500  0.620754  60.4719  32.506  6.750649
  12000.972  12000.950  0.500  0.620019  60.4061  32.4945  6.767332
  12005.067  12005.040  0.500  0.619177  60.3389  32.4857  6.791687
  12009.166  12009.150  0.500  0.618395  60.2693  32.4736  6.824439
  12013.298  12013.280  0.500  0.617503  60.2355  32.4844  6.863591
  12017.446  12017.430  0.500  0.616618  60.1622  32.4736  6.900792
  12021.603  12021.590  0.500  0.615486  60.1155  32.4851  6.926917
  12025.807  12025.780  0.500  0.614625  60.0561  32.481  6.938402
  12029.995  12029.980  0.500  0.613645  59.9791  32.4711  6.941284
  12034.243  12034.210  0.500  0.612593  59.9142  32.4701  6.939810
  12038.456  12038.450  0.500  0.611510  59.8474  32.469  6.935545
  12042.729  12042.710  0.500  0.610443  59.7413  32.4461  6.928720
  12046.993  12046.990  0.500  0.609194  58.9738  32.0693  6.845615
  12051.322  12051.290  0.500  0.608055  59.5322  32.4098  6.916026
  12055.636  12055.610  0.500  0.606790  59.5486  32.4598  6.923945
  12059.978  12059.950  0.500  0.605563  59.4866  32.4658  6.923851
  12064.336  12064.310  0.500  0.604399  59.4079  32.4606  6.925107
  12068.710  12068.690  0.500  0.603126  59.35  32.4703  6.931076
  12073.107  12073.080  0.500  0.601829  59.3024  32.4864  6.939859
  12077.519  12077.500  0.500  0.600541  59.2056  32.4752  6.943370
  12081.966  12081.930  0.500  0.599300  59.1611  32.491  6.953415
  12086.397  12086.380  0.500  0.597991  59.0933  32.4963  6.964618
  12090.877  12090.850  0.500  0.596779  58.9834  32.4752  6.977818
  12095.353  12095.340  0.500  0.595468  58.9586  32.5041  7.003952
  12099.890  12099.850  0.500  0.594270  58.8949  32.508  7.027824
  12104.399  12104.380  0.500  0.592950  58.8272  32.5135  7.047306
  12108.949  12108.930  0.500  0.591784  58.7633  32.5161  7.067008
  12113.535  12113.500  0.500  0.590486  58.6857  32.5153  7.084221
  12118.111  12118.080  0.500  0.589419  58.6183  32.5126  7.102889
  12122.736  12122.690  0.500  0.588186  58.5585  32.5195  7.122511
  12127.326  12127.310  0.500  0.587097  58.4772  32.5098  7.138958
  12131.990  12131.960  0.500  0.585922  58.4079  32.5094  7.156990
  12136.645  12136.620  0.500  0.584815  58.3381  32.5065  7.169014
  12141.322  12141.300  0.500  0.583724  58.24  32.4873  7.173956
  12146.049  12146.000  0.500  0.582608  58.2041  32.5035  7.181028
  12150.746  12150.720  0.500  0.581422  58.1387  32.5055  7.182385
  12155.500  12155.460  0.500  0.580414  58.0546  32.4912  7.183664
  12160.224  12160.210  0.500  0.579280  57.9602  32.4752  7.181198
  12165.043  12164.990  0.500  0.578365  57.8946  32.4681  7.179943
  12169.807  12169.790  0.500  0.577041  57.8181  32.4682  7.179452
  12174.633  12174.600  0.500  0.576036  57.7621  32.4694  7.181626
  12179.444  12179.430  0.500  0.574905  57.6869  32.4638  7.183143
  12184.317  12184.290  0.500  0.573643  57.6029  32.4574  7.186951
  12189.193  12189.160  0.500  0.572408  57.527  32.4547  7.192770
  12194.081  12194.050  0.500  0.571163  57.4522  32.4529  7.201553
  12199.004  12198.960  0.500  0.569945  57.3592  32.4399  7.214553
  12203.919  12203.890  0.500  0.568732  57.3018  32.4467  7.230972
  12208.863  12208.830  0.500  0.567491  57.2371  32.4504  7.252483
  12213.818  12213.800  0.500  0.566250  57.1732  32.4544  7.275787
  12218.817  12218.790  0.500  0.564960  57.1084  32.4594  7.300549
  12223.826  12223.790  0.500  0.563558  57.0217  32.4557  7.317360
  12228.852  12228.820  0.500  0.562147  56.9453  32.4579  7.333908
  12233.901  12233.860  0.500  0.560851  56.6005  32.3032  7.314484
  12238.936  12238.920  0.500  0.559548  56.728  32.4182  7.355504
  12244.027  12244.000  0.500  0.558249  56.7118  32.4511  7.376540
  12249.122  12249.100  0.500  0.556726  56.6456  32.4626  7.395481
  12254.274  12254.220  0.500  0.555472  56.5776  32.4643  7.413911
  12259.411  12259.360  0.500  0.554095  56.4955  32.4619  7.432407
  12264.551  12264.520  0.500  0.552529  55.2191  31.7782  7.291667
  12269.730  12269.700  0.500  0.551372  56.2321  32.3986  7.442252
  12274.912  12274.890  0.500  0.550026  56.222  32.4364  7.458183
  12280.158  12280.110  0.500  0.548692  56.1752  32.4527  7.464078
  12285.363  12285.340  0.500  0.547267  56.0142  32.4058  7.453402
  12290.638  12290.590  0.500  0.545980  54.9485  31.8302  7.318398
  12295.891  12295.860  0.500  0.544798  55.826  32.3768  7.444251
  12301.188  12301.150  0.500  0.543538  55.7672  32.3835  7.447086
  12306.490  12306.460  0.500  0.542134  55.7154  32.3988  7.452914
  12311.816  12311.790  0.500  0.540902  55.6507  32.4011  7.464107
  12317.174  12317.140  0.500  0.539588  55.5326  32.3749  7.470614
  12322.543  12322.510  0.500  0.538434  54.5482  31.8377  7.363169
  12327.929  12327.890  0.500  0.537064  55.3793  32.3671  7.507752
  12333.347  12333.300  0.500  0.535776  55.287  32.3548  7.528156
  12338.757  12338.720  0.500  0.534472  55.2434  32.3714  7.558024
  12344.218  12344.170  0.500  0.533119  55.1536  32.3626  7.576863
  12349.664  12349.630  0.500  0.531723  54.9658  32.2975  7.581588
  12355.141  12355.110  0.500  0.530662  55.0092  32.3572  7.611327
  12360.663  12360.610  0.500  0.529230  54.926  32.3546  7.626735
  12366.177  12366.130  0.500  0.527985  54.8583  32.355  7.639340
  12371.703  12371.670  0.500  0.526575  54.7889  32.3597  7.655167
  12377.266  12377.220  0.500  0.525132  54.8168  32.4229  7.684547
  12382.849  12382.800  0.500  0.523810  54.6275  32.3537  7.682990
  12388.450  12388.400  0.500  0.522437  54.6883  32.4342  7.714571
  12394.062  12394.010  0.500  0.521011  54.5808  32.4166  7.723992
  12399.687  12399.650  0.500  0.519668  54.515  32.4211  7.737908
  12405.343  12405.300  0.500  0.518120  54.4197  32.4145  7.747815
  12411.032  12410.970  0.500  0.516645  54.2945  32.3877  7.748818
  12416.712  12416.660  0.500  0.515237  54.217  32.3871  7.758585