File: xdidata/Pt/Pt-L3-PotassiumHexaChloroPlatinate.xdi
# XDI/1.0 BlueSky/1.10.0 BMM/2023-1.0-py310-tiled
# Beamline.name: BMM (06BM) -- Beamline for Materials Measurement (NIST)
# Beamline.xray_source: NSLS-II three-pole wiggler
# Beamline.collimation: paraboloid mirror, 5 nm Rh on 30 nm Pt
# Beamline.focusing: not in use
# Beamline.harmonic_rejection: flat mirror, Pt stripe, pitch = 7.0 mrad relative to beam
# Beamline.software: Bluesky 1.10.0, Ophyd 1.7.0, DataBroker 2.0.0b13, Python 3.10.8, 2023-1.0-py310-tiled
# Detector.I0: 10 cm N2
# Detector.I1: 25 cm N2
# Detector.I2: 25 cm N2
# Element.symbol: Pt
# Element.edge: L3
# Element.reference: Pt
# Element.reference_material: Pt foil
# Facility.name: NSLS-II
# Facility.energy: 3.0
# Facility.current: 400.5
# Facility.mode: top-off
# Facility.GUP: 301027
# Facility.SAF: 310583
# Facility.cycle: 2023-2
# Mono.name: Si(111)
# Mono.d_spacing: 3.13519
# Mono.encoder_resolution: 0.0000050 deg/ct
# Mono.angle_offset: 16.0754 deg
# Mono.scan_mode: pseudo channel cut
# Mono.scan_type: step
# Mono.direction: forward in energy
# Sample.name: K2PtCl6
# Sample.prep: powder on tape
# Sample.x: 119.711 mm
# Sample.y: 114.376 mm
# Sample.SDD_position: 205.000 mm
# Scan.experimenters: Bruce Ravel
# Scan.edge_energy: 11563.8
# Scan.start_time: 2023-06-27T17:13:42
# Scan.end_time: 2023-06-27T17:21:39
# Scan.transient_id: 85180
# Scan.uid: 35a171f5-fe3b-4fd7-a273-3c56d153ff6d
# Scan.plot_hint: ln(I0/It)  --  ln($5/$6)
# Column.1: energy eV
# Column.2: requested_energy eV
# Column.3: measurement_time seconds
# Column.4: xmu
# Column.5: I0 nA
# Column.6: It nA
# Column.7: Ir nA
# ///////////
# sample courtesy Simon Bare and Shelly Kelly
# -----------
# energy  requested_energy  measurement_time  xmu  I0  It  Ir
  11363.756  11363.800  0.500  0.452968  71.9631  45.7497  19.0399
  11373.839  11373.800  0.500  0.450109  71.4719  45.5675  19.0075
  11383.839  11383.800  0.500  0.447216  71.3854  45.6443  19.08
  11393.834  11393.800  0.500  0.444726  69.8787  44.7923  18.7649
  11403.847  11403.800  0.500  0.441680  71.0758  45.6986  19.1803
  11413.867  11413.800  0.500  0.438962  70.8287  45.6637  19.2091
  11423.870  11423.800  0.500  0.436239  70.7374  45.7291  19.2772
  11433.841  11433.800  0.500  0.433541  70.5361  45.7222  19.3137
  11443.880  11443.800  0.500  0.430808  70.3553  45.7298  19.355
  11453.840  11453.800  0.500  0.428313  70.164  45.7193  19.3926
  11463.846  11463.800  0.500  0.425670  69.9863  45.7243  19.4308
  11473.836  11473.800  0.500  0.423181  69.7631  45.692  19.4498
  11483.849  11483.800  0.500  0.420940  69.7356  45.7765  19.5223
  11493.868  11493.800  0.500  0.418534  69.536  45.7554  19.5393
  11503.837  11503.800  0.500  0.416460  69.3546  45.7308  19.5514
  11513.851  11513.800  0.500  0.414957  69.1774  45.6826  19.5386
  11523.843  11523.800  0.500  0.414139  69.0028  45.6046  19.492
  11533.841  11533.800  0.500  0.414708  68.8152  45.4547  19.3609
  11535.773  11535.800  0.500  0.415334  68.7727  45.3982  19.3158
  11537.758  11537.800  0.500  0.416115  68.736  45.3385  19.2635
  11539.755  11539.800  0.500  0.416954  68.686  45.2676  19.1926
  11541.765  11541.800  0.500  0.418296  68.6459  45.1805  19.1121
  11543.775  11543.800  0.500  0.419970  68.5994  45.0744  19.0098
  11545.775  11545.800  0.500  0.422184  68.5457  44.9395  18.8757
  11547.757  11547.800  0.500  0.425191  68.5006  44.7751  18.7138
  11549.770  11549.800  0.500  0.429348  68.45  44.5564  18.4962
  11551.795  11551.800  0.500  0.435039  68.381  44.2589  18.1972
  11553.774  11553.800  0.500  0.442931  68.3162  43.8693  17.8035
  11554.052  11554.100  0.500  0.444224  68.3088  43.8079  17.7382
  11554.354  11554.400  0.500  0.445721  68.2844  43.7267  17.6603
  11554.650  11554.700  0.500  0.447410  68.2739  43.6463  17.5775
  11554.940  11555.000  0.500  0.449123  68.2611  43.5634  17.4922
  11555.254  11555.300  0.500  0.451095  68.252  43.4717  17.3973
  11555.550  11555.600  0.500  0.453181  68.2336  43.3695  17.2976
  11555.852  11555.900  0.500  0.455345  68.2185  43.2662  17.191
  11556.154  11556.200  0.500  0.457766  68.202  43.1511  17.0762
  11556.450  11556.500  0.500  0.460173  68.1817  43.0345  16.9562
  11556.758  11556.800  0.500  0.462786  68.1586  42.9077  16.8266
  11557.071  11557.100  0.500  0.465873  68.1433  42.7658  16.6839
  11557.362  11557.400  0.500  0.468907  68.122  42.623  16.5402
  11557.675  11557.700  0.500  0.472250  68.1032  42.469  16.3828
  11557.978  11558.000  0.500  0.475736  68.0845  42.3095  16.2132
  11558.274  11558.300  0.500  0.479498  68.0543  42.132  16.0366
  11558.593  11558.600  0.500  0.483821  68.0373  41.9398  15.8405
  11558.872  11558.900  0.500  0.487962  68.0087  41.7489  15.6449
  11559.180  11559.200  0.500  0.492936  67.9827  41.5259  15.4201
  11559.488  11559.500  0.500  0.498236  67.9522  41.2878  15.1754
  11559.784  11559.800  0.500  0.503815  67.9283  41.0437  14.9233
  11560.098  11560.100  0.500  0.510381  67.8927  40.7537  14.6301
  11560.377  11560.400  0.500  0.516936  67.8577  40.4666  14.3441
  11560.691  11560.700  0.500  0.524817  67.8192  40.1261  14.0017
  11560.993  11561.000  0.500  0.533254  67.7649  39.7572  13.6387
  11561.290  11561.300  0.500  0.542480  67.7295  39.3715  13.2504
  11561.592  11561.600  0.500  0.553067  67.6797  38.9283  12.8163
  11561.877  11561.900  0.500  0.564092  67.6253  38.4704  12.3727
  11562.190  11562.200  0.500  0.577388  67.5639  37.9279  11.861
  11562.481  11562.500  0.500  0.591065  67.4875  37.3704  11.3451
  11562.789  11562.800  0.500  0.607188  67.4006  36.7253  10.7677
  11563.074  11563.100  0.500  0.624885  67.3426  36.05  10.1784
  11563.388  11563.400  0.500  0.645676  67.2521  35.2608  9.526801
  11563.679  11563.700  0.500  0.667364  67.1492  34.4515  8.893064
  11563.987  11564.000  0.500  0.692871  67.0636  33.5411  8.222304
  11564.272  11564.300  0.500  0.720436  66.9631  32.5802  7.571470
  11564.586  11564.600  0.500  0.753225  66.8565  31.4791  6.893382
  11564.888  11564.900  0.500  0.788830  66.7493  30.3293  6.257340
  11565.191  11565.200  0.500  0.830387  66.6535  29.053  5.635038
  11565.482  11565.500  0.500  0.875090  66.5636  27.7454  5.074095
  11565.796  11565.800  0.500  0.929228  66.4832  26.2514  4.524392
  11566.087  11566.100  0.500  0.986058  66.4316  24.7819  4.061620
  11566.401  11566.400  0.500  1.051408  66.3807  23.1964  3.633698
  11566.692  11566.700  0.500  1.118498  66.3454  21.6797  3.283637
  11567.006  11567.000  0.500  1.192751  66.3248  20.122  2.971468
  11567.303  11567.300  0.500  1.264942  66.3446  18.7261  2.727250
  11567.599  11567.600  0.500  1.334271  66.3538  17.4743  2.533508
  11567.896  11567.900  0.500  1.396886  66.3871  16.4219  2.390246
  11568.193  11568.200  0.500  1.446412  66.3995  15.6313  2.300262
  11568.495  11568.500  0.500  1.478997  66.4495  15.1416  2.263835
  11568.781  11568.800  0.500  1.490561  66.4779  14.9739  2.278606
  11569.095  11569.100  0.500  1.481804  66.5051  15.1118  2.347320
  11569.392  11569.400  0.500  1.455604  66.5501  15.5234  2.458692
  11569.689  11569.700  0.500  1.412578  66.5773  16.2125  2.618044
  11569.985  11570.000  0.500  1.361342  66.5939  17.0691  2.805250
  11570.294  11570.300  0.500  1.301541  66.6177  18.1275  3.027499
  11570.597  11570.600  0.500  1.240928  66.6355  19.2654  3.265943
  11570.894  11570.900  0.500  1.181253  66.6506  20.4547  3.513942
  11571.190  11571.200  0.500  1.123187  66.6628  21.6815  3.769903
  11571.487  11571.500  0.500  1.071986  66.6766  22.8253  4.011050
  11571.802  11571.800  0.500  1.022110  66.6941  23.9989  4.261778
  11572.099  11572.100  0.500  0.982170  66.6925  24.9762  4.473444
  11572.407  11572.400  0.500  0.944601  66.7037  25.9367  4.685844
  11572.704  11572.700  0.500  0.914907  66.7148  26.7229  4.865899
  11573.002  11573.000  0.500  0.889690  66.7143  27.4051  5.026705
  11573.304  11573.300  0.500  0.869461  66.7111  27.9638  5.164829
  11573.607  11573.600  0.500  0.853550  66.7174  28.415  5.282406
  11573.904  11573.900  0.500  0.841501  66.725  28.7627  5.380356
  11574.196  11574.200  0.500  0.832965  66.7233  29.0085  5.458054
  11574.499  11574.500  0.500  0.826863  66.7282  29.1882  5.520833
  11574.796  11574.800  0.500  0.823652  66.7277  29.2819  5.564198
  11575.104  11575.100  0.500  0.822535  66.7205  29.3114  5.590997
  11575.384  11575.400  0.500  0.823288  66.7256  29.2916  5.605566
  11575.699  11575.700  0.500  0.825421  66.7181  29.2259  5.607125
  11575.978  11576.000  0.500  0.828511  66.7193  29.1363  5.598295
  11576.293  11576.300  0.500  0.832593  66.704  29.0109  5.580672
  11576.584  11576.600  0.500  0.836961  66.6973  28.8815  5.556551
  11576.893  11576.900  0.500  0.842019  66.7029  28.7383  5.527678
  11577.196  11577.200  0.500  0.846557  66.6884  28.6019  5.495041
  11577.494  11577.500  0.500  0.850770  66.6834  28.4796  5.462179
  11577.808  11577.800  0.500  0.854599  66.6752  28.3672  5.428631
  11578.100  11578.100  0.500  0.857719  66.648  28.2673  5.393678
  11578.403  11578.400  0.500  0.860348  66.6535  28.1954  5.363763
  11578.700  11578.700  0.500  0.862527  66.6421  28.1292  5.330373
  11579.009  11579.000  0.500  0.864332  66.6261  28.0718  5.299598
  11579.307  11579.300  0.500  0.865812  66.6121  28.0243  5.270188
  11579.604  11579.600  0.500  0.867092  66.5998  27.9834  5.242677
  11579.901  11579.900  0.500  0.868197  66.5993  27.9523  5.217210
  11580.211  11580.200  0.500  0.868918  66.5918  27.929  5.196879
  11580.508  11580.500  0.500  0.869304  66.588  27.9166  5.179082
  11580.805  11580.800  0.500  0.869223  66.5713  27.9118  5.165926
  11581.091  11581.100  0.500  0.868932  66.5656  27.9175  5.160214
  11581.394  11581.400  0.500  0.868131  66.5563  27.936  5.159544
  11581.686  11581.700  0.500  0.867136  66.5632  27.9667  5.167050
  11581.984  11582.000  0.500  0.865634  66.557  28.0061  5.180222
  11582.275  11582.300  0.500  0.864033  66.5495  28.0479  5.197062
  11582.590  11582.600  0.500  0.861948  66.5504  28.1068  5.221753
  11582.888  11582.900  0.500  0.859969  66.5615  28.1672  5.251657
  11583.191  11583.200  0.500  0.857561  66.5584  28.2338  5.284736
  11583.495  11583.500  0.500  0.855016  66.5621  28.3073  5.322161
  11583.792  11583.800  0.500  0.852396  66.5678  28.384  5.361829
  11584.096  11584.100  0.500  0.849785  66.5833  28.4648  5.403816
  11584.399  11584.400  0.500  0.846923  66.594  28.551  5.444393
  11584.703  11584.700  0.500  0.844009  66.5813  28.6288  5.483076
  11585.006  11585.000  0.500  0.841144  66.6004  28.7192  5.521245
  11585.310  11585.300  0.500  0.838263  66.6084  28.8055  5.554953
  11585.607  11585.600  0.500  0.835311  66.6079  28.8905  5.585336
  11585.905  11585.900  0.500  0.832519  66.6126  28.9733  5.613438
  11586.197  11586.200  0.500  0.829855  66.6087  29.0489  5.635920
  11586.506  11586.500  0.500  0.827246  66.62  29.1297  5.655365
  11586.798  11586.800  0.500  0.824989  66.6208  29.1959  5.672497
  11587.096  11587.100  0.500  0.822744  66.6231  29.2625  5.686873
  11587.405  11587.400  0.500  0.820999  66.6155  29.3103  5.695339
  11587.691  11587.700  0.500  0.819463  66.6181  29.3565  5.703634
  11587.983  11588.000  0.500  0.818340  66.6297  29.3946  5.709110
  11588.287  11588.300  0.500  0.817275  66.8295  29.5141  5.728892
  11588.591  11588.600  0.500  0.816689  66.8382  29.5353  5.728699
  11588.789  11588.800  0.500  0.816460  66.8234  29.5355  5.726156
  11589.806  11589.790  0.500  0.817058  66.8186  29.5157  5.689328
  11590.805  11590.790  0.500  0.820224  66.7977  29.4132  5.607042
  11591.833  11591.810  0.500  0.825366  66.7759  29.2528  5.483223
  11592.879  11592.860  0.500  0.831261  66.7255  29.0589  5.337147
  11593.937  11593.920  0.500  0.837871  66.7011  28.8569  5.200020
  11595.007  11595.000  0.500  0.845268  66.6808  28.6355  5.096120
  11596.100  11596.100  0.500  0.853216  66.6742  28.406  5.048902
  11597.229  11597.220  0.500  0.860819  66.6837  28.1949  5.058114
  11598.375  11598.360  0.500  0.866958  66.6969  28.0279  5.098823
  11599.534  11599.510  0.500  0.871327  66.6998  27.9069  5.148938
  11600.698  11600.690  0.500  0.874319  66.6833  27.8167  5.194381
  11601.881  11601.880  0.500  0.876933  66.7119  27.756  5.223767
  11603.110  11603.100  0.500  0.880047  66.7073  27.6678  5.230119
  11604.346  11604.330  0.500  0.882952  66.6906  27.5806  5.232754
  11605.593  11605.580  0.500  0.885974  66.6657  27.4871  5.243585
  11606.864  11606.850  0.500  0.888803  66.6702  27.4113  5.263562
  11608.136  11608.140  0.500  0.892417  66.6648  27.3102  5.277996
  11609.460  11609.450  0.500  0.897064  66.638  27.1727  5.261796
  11610.803  11610.780  0.500  0.903359  66.6109  26.9912  5.209648
  11612.157  11612.130  0.500  0.910762  66.5873  26.7826  5.133344
  11613.518  11613.500  0.500  0.918464  66.5468  26.5609  5.040849
  11614.891  11614.880  0.500  0.925452  66.5199  26.3653  4.947229
  11616.311  11616.290  0.500  0.930482  66.4897  26.2211  4.863093
  11617.737  11617.710  0.500  0.933168  66.4589  26.1387  4.794508
  11619.164  11619.150  0.500  0.933774  66.4262  26.11  4.746816
  11620.614  11620.610  0.500  0.932103  66.4037  26.1448  4.726973
  11622.088  11622.090  0.500  0.927212  66.3729  26.2608  4.747643
  11623.586  11623.590  0.500  0.919252  66.3719  26.4703  4.801944
  11625.103  11625.110  0.500  0.908284  66.3604  26.7575  4.878940
  11626.637  11626.650  0.500  0.895691  66.3443  27.09  4.968045
  11628.183  11628.210  0.500  0.883255  66.3359  27.4256  5.054911
  11629.742  11629.780  0.500  0.872369  66.3228  27.7203  5.135496
  11631.366  11631.380  0.500  0.863410  66.3041  27.9619  5.204516
  11632.972  11632.990  0.500  0.856987  66.2771  28.1306  5.255438
  11634.715  11634.630  0.500  0.852499  66.2626  28.2509  5.293738
  11636.222  11636.280  0.500  0.849724  66.2479  28.3231  5.324262
  11638.142  11637.950  0.500  0.847476  66.207  28.3694  5.364381
  11639.786  11639.640  0.500  0.846114  66.1894  28.4005  5.406956
  11641.424  11641.350  0.500  0.845542  66.1917  28.4177  5.451216
  11643.069  11643.080  0.500  0.844641  66.1637  28.4313  5.491043
  11644.826  11644.830  0.500  0.843512  66.1465  28.456  5.528746
  11646.572  11646.590  0.500  0.842448  66.1313  28.4798  5.555260
  11648.348  11648.380  0.500  0.841470  66.0981  28.4933  5.571704
  11650.148  11650.180  0.500  0.841156  66.0631  28.4872  5.577620
  11651.996  11652.010  0.500  0.841649  65.8693  28.3896  5.554829
  11653.845  11653.850  0.500  0.842441  65.9776  28.4138  5.540016
  11655.700  11655.710  0.500  0.844219  65.9712  28.3606  5.496702
  11657.579  11657.590  0.500  0.846798  65.9313  28.2704  5.438178
  11659.483  11659.490  0.500  0.850025  65.8644  28.1507  5.376977
  11661.411  11661.410  0.500  0.853908  65.685  27.9652  5.307038
  11663.345  11663.350  0.500  0.858383  65.7967  27.8877  5.271843
  11665.316  11665.310  0.500  0.863549  65.7831  27.7383  5.235706
  11667.270  11667.280  0.500  0.869385  65.7457  27.5612  5.203422
  11669.271  11669.280  0.500  0.876073  65.554  27.2977  5.159583
  11671.268  11671.290  0.500  0.882766  65.6619  27.1602  5.142563
  11673.300  11673.320  0.500  0.889523  65.6664  26.9791  5.117621
  11675.369  11675.380  0.500  0.895249  65.646  26.8168  5.097857
  11677.439  11677.450  0.500  0.898947  65.5837  26.6924  5.084521
  11679.539  11679.540  0.500  0.900074  65.3882  26.5829  5.068579
  11681.640  11681.650  0.500  0.898116  65.536  26.6952  5.089191
  11683.759  11683.780  0.500  0.893112  65.512  26.8193  5.103129
  11685.909  11685.920  0.500  0.885508  65.4801  27.0108  5.127874
  11688.095  11688.090  0.500  0.876970  65.4389  27.2253  5.156763
  11690.277  11690.280  0.500  0.868266  65.4122  27.4521  5.195051
  11692.483  11692.480  0.500  0.860441  65.3664  27.6484  5.238685
  11694.695  11694.700  0.500  0.854086  65.3429  27.8146  5.286740
  11696.956  11696.950  0.500  0.848360  65.315  27.9624  5.344595
  11699.224  11699.210  0.500  0.843964  65.2651  28.0642  5.401517
  11701.505  11701.490  0.500  0.840670  65.2485  28.1496  5.460929
  11703.781  11703.790  0.500  0.838182  64.8326  28.0399  5.483834
  11706.117  11706.110  0.500  0.836443  65.1647  28.2325  5.554636
  11708.454  11708.450  0.500  0.835183  65.1569  28.2647  5.579454
  11710.810  11710.800  0.500  0.834426  65.1292  28.2741  5.584517
  11713.185  11713.180  0.500  0.834008  65.0893  28.2686  5.576464
  11715.573  11715.570  0.500  0.833633  65.0538  28.2638  5.557216
  11717.991  11717.990  0.500  0.833348  65.0144  28.2547  5.531745
  11720.411  11720.420  0.500  0.833372  64.9658  28.2329  5.503984
  11722.886  11722.870  0.500  0.833810  64.9213  28.2012  5.475423
  11725.355  11725.350  0.500  0.834423  64.8759  28.1642  5.450039
  11727.832  11727.840  0.500  0.835568  64.8322  28.1131  5.427975
  11730.339  11730.350  0.500  0.837190  64.7904  28.0494  5.403529
  11732.872  11732.870  0.500  0.839366  64.752  27.9719  5.380605
  11735.424  11735.420  0.500  0.842066  64.4524  27.7674  5.335751
  11737.982  11737.990  0.500  0.845054  64.6539  27.7711  5.338949
  11740.572  11740.570  0.500  0.848573  64.6287  27.6627  5.325226
  11743.200  11743.180  0.500  0.852209  64.5845  27.5435  5.309050
  11745.816  11745.800  0.500  0.855629  64.492  27.4101  5.284925
  11748.457  11748.450  0.500  0.858392  64.3631  27.2799  5.254519
  11751.100  11751.110  0.500  0.860202  64.4589  27.2711  5.239821
  11753.804  11753.790  0.500  0.860931  64.4178  27.2338  5.219229
  11756.497  11756.490  0.500  0.860335  64.3261  27.2113  5.207929
  11759.210  11759.210  0.500  0.858445  64.1989  27.2088  5.217247
  11761.960  11761.950  0.500  0.855644  64.2888  27.3233  5.268405
  11764.705  11764.700  0.500  0.852144  64.2598  27.4068  5.327155
  11767.482  11767.480  0.500  0.848417  64.2161  27.4904  5.385889
  11770.278  11770.270  0.500  0.844450  63.9628  27.4908  5.420203
  11773.099  11773.090  0.500  0.840685  64.136  27.6692  5.477931
  11775.928  11775.920  0.500  0.837159  64.052  27.7306  5.505295
  11778.770  11778.770  0.500  0.833932  63.8753  27.7435  5.519298
  11781.663  11781.650  0.500  0.830911  64.0059  27.8843  5.555841
  11784.562  11784.540  0.500  0.828250  63.9691  27.9425  5.571917
  11787.445  11787.450  0.500  0.825774  63.9311  27.9952  5.584613
  11790.384  11790.370  0.500  0.823531  63.8814  28.0362  5.593690
  11793.342  11793.320  0.500  0.821465  63.854  28.0822  5.599690
  11796.308  11796.290  0.500  0.819750  63.7912  28.1027  5.598228
  11799.276  11799.270  0.500  0.818068  63.7613  28.1368  5.591072
  11802.311  11802.280  0.500  0.816707  63.7027  28.1492  5.573330
  11805.318  11805.300  0.500  0.815674  63.3723  28.0322  5.524135
  11808.369  11808.350  0.500  0.814832  63.5499  28.1344  5.514836
  11811.434  11811.410  0.500  0.814420  63.5372  28.1404  5.489583
  11814.506  11814.490  0.500  0.814390  63.4829  28.1172  5.466480
  11817.580  11817.590  0.500  0.814858  63.435  28.0828  5.454093
  11820.729  11820.710  0.500  0.815697  63.3967  28.0423  5.452156
  11823.873  11823.850  0.500  0.816984  63.3452  27.9835  5.456905
  11827.006  11827.000  0.500  0.818533  63.2986  27.9196  5.468618
  11830.203  11830.180  0.500  0.820111  62.9975  27.743  5.465373
  11833.407  11833.370  0.500  0.821868  63.175  27.7723  5.511657
  11836.601  11836.590  0.500  0.823134  63.1527  27.7274  5.543491
  11839.839  11839.820  0.500  0.823871  63.0965  27.6823  5.570432
  11843.091  11843.070  0.500  0.824095  63.0715  27.6652  5.589961
  11846.345  11846.350  0.500  0.823643  63.0155  27.6531  5.598595
  11849.662  11849.640  0.500  0.822583  62.8718  27.6193  5.592336
  11852.981  11852.950  0.500  0.821426  62.9142  27.6699  5.598307
  11856.283  11856.270  0.500  0.819467  62.667  27.6152  5.576955
  11859.648  11859.620  0.500  0.817476  62.496  27.5948  5.572449
  11863.003  11862.990  0.500  0.815397  62.5442  27.6735  5.600004
  11866.379  11866.370  0.500  0.813065  62.6959  27.8054  5.642830
  11869.805  11869.780  0.500  0.810622  62.6248  27.8418  5.660263
  11873.203  11873.200  0.500  0.808224  62.6057  27.9002  5.673615
  11876.670  11876.650  0.500  0.805835  62.5509  27.9424  5.671958
  11880.139  11880.110  0.500  0.803679  62.4857  27.9735  5.663910
  11883.598  11883.590  0.500  0.801348  62.367  27.9855  5.650164
  11887.121  11887.090  0.500  0.799261  62.1746  27.9575  5.628803
  11890.615  11890.610  0.500  0.797347  62.2997  28.0675  5.634874
  11894.178  11894.150  0.500  0.795336  62.2563  28.1043  5.631333
  11897.726  11897.700  0.500  0.793650  62.1877  28.1207  5.632278
  11901.300  11901.280  0.500  0.792119  61.852  28.0118  5.617372
  11904.926  11904.880  0.500  0.790641  62.017  28.1281  5.661989
  11908.492  11908.490  0.500  0.789351  62.0169  28.1643  5.700907
  11912.172  11912.120  0.500  0.788117  61.9686  28.1771  5.741762
  11915.804  11915.780  0.500  0.787290  61.8417  28.1427  5.769422
  11919.464  11919.450  0.500  0.786609  61.6941  28.0946  5.785873
  11923.169  11923.140  0.500  0.786318  61.7921  28.1475  5.812915
  11926.851  11926.850  0.500  0.786273  61.7459  28.1277  5.814524
  11930.604  11930.580  0.500  0.786243  61.6766  28.097  5.806862
  11934.323  11934.320  0.500  0.786537  61.2544  27.8964  5.762915
  11938.130  11938.090  0.500  0.786644  61.5372  28.0222  5.789467
  11941.903  11941.880  0.500  0.786761  61.4808  27.9933  5.783364
  11945.715  11945.680  0.500  0.786776  61.4388  27.9737  5.781445
  11949.542  11949.510  0.500  0.786656  61.376  27.9485  5.785369
  11953.378  11953.350  0.500  0.786191  61.3076  27.9303  5.793948
  11957.242  11957.210  0.500  0.785441  61.2414  27.9211  5.805973
  11961.126  11961.090  0.500  0.784476  61.1717  27.9162  5.810499
  11965.026  11964.990  0.500  0.783457  61.1175  27.9199  5.806273
  11968.947  11968.910  0.500  0.782089  61.0502  27.9274  5.798086
  11972.889  11972.850  0.500  0.780407  61.1716  28.03  5.810229
  11976.827  11976.810  0.500  0.778724  61.1091  28.0485  5.811811
  11980.812  11980.780  0.500  0.776848  61.0229  28.0616  5.815233
  11984.781  11984.780  0.500  0.774783  60.965  28.0929  5.822546
  11988.822  11988.790  0.500  0.772999  60.8915  28.1091  5.829334
  11992.834  11992.830  0.500  0.770864  60.8241  28.138  5.836740
  11996.898  11996.880  0.500  0.768981  60.7881  28.1744  5.852970
  12000.959  12000.950  0.500  0.766992  60.7157  28.1968  5.872157
  12005.061  12005.040  0.500  0.765012  60.665  28.2291  5.901844
  12009.147  12009.150  0.500  0.763330  60.5975  28.2452  5.937106
  12013.304  12013.280  0.500  0.761515  60.5304  28.2652  5.975700
  12017.452  12017.430  0.500  0.759760  60.4616  28.2826  6.010051
  12021.609  12021.590  0.500  0.758078  60.4054  28.3039  6.037482
  12025.795  12025.780  0.500  0.756621  60.3306  28.3101  6.049662
  12030.008  12029.980  0.500  0.755253  60.2634  28.3173  6.053920
  12034.243  12034.210  0.500  0.753978  60.1871  28.3175  6.053847
  12038.450  12038.450  0.500  0.752985  60.131  28.3192  6.050204
  12042.729  12042.710  0.500  0.751970  60.0558  28.3125  6.046827
  12047.005  12046.990  0.500  0.751317  59.2374  27.9449  5.966569
  12051.322  12051.290  0.500  0.750514  59.8105  28.238  6.028201
  12055.649  12055.610  0.500  0.749732  59.8322  28.2703  6.030952
  12059.953  12059.950  0.500  0.749079  59.7735  28.261  6.028006
  12064.349  12064.310  0.500  0.748284  59.7042  28.2507  6.027808
  12068.704  12068.690  0.500  0.747572  59.6386  28.2398  6.029608
  12073.113  12073.080  0.500  0.746938  59.5786  28.2292  6.032931
  12077.512  12077.500  0.500  0.745999  59.4983  28.2177  6.034368
  12081.960  12081.930  0.500  0.744961  59.4232  28.2113  6.038455
  12086.404  12086.380  0.500  0.743890  59.3646  28.2137  6.048081
  12090.877  12090.850  0.500  0.742646  59.2625  28.2002  6.060909
  12095.372  12095.340  0.500  0.741242  59.2355  28.227  6.083224
  12099.890  12099.850  0.500  0.739905  59.177  28.2368  6.104738
  12104.412  12104.380  0.500  0.738368  59.103  28.2449  6.124656
  12108.943  12108.930  0.500  0.736962  59.0347  28.252  6.142976
  12113.528  12113.500  0.500  0.735082  58.9704  28.2743  6.161970
  12118.118  12118.080  0.500  0.733350  58.8686  28.2744  6.178393
  12122.710  12122.690  0.500  0.731532  58.8095  28.2975  6.200329
  12127.358  12127.310  0.500  0.729815  58.729  28.3073  6.218667
  12131.964  12131.960  0.500  0.728030  58.6855  28.3369  6.241479
  12136.651  12136.620  0.500  0.726032  58.6209  28.3622  6.255967
  12141.322  12141.300  0.500  0.724224  58.5374  28.3731  6.266295
  12146.042  12146.000  0.500  0.722463  58.4687  28.3898  6.272389
  12150.746  12150.720  0.500  0.720589  58.3746  28.3972  6.276779
  12155.474  12155.460  0.500  0.719094  58.3302  28.4181  6.283920
  12160.250  12160.210  0.500  0.717508  58.224  28.4114  6.284723
  12165.010  12164.990  0.500  0.715919  58.1542  28.4225  6.287285
  12169.826  12169.790  0.500  0.714483  58.1012  28.4374  6.290022
  12174.627  12174.600  0.500  0.713192  58.0286  28.4385  6.292025
  12179.463  12179.430  0.500  0.711881  57.9431  28.4338  6.293423
  12184.317  12184.290  0.500  0.710651  57.8596  28.4278  6.295639
  12189.181  12189.160  0.500  0.709514  57.7879  28.4249  6.301209
  12194.094  12194.050  0.500  0.708353  57.7146  28.4218  6.308706
  12198.985  12198.960  0.500  0.707296  57.6266  28.4085  6.319605
  12203.919  12203.890  0.500  0.706216  57.5907  28.4215  6.335140
  12208.857  12208.830  0.500  0.705105  57.4928  28.4047  6.350323
  12213.831  12213.800  0.500  0.703894  57.4215  28.4038  6.370346
  12218.830  12218.790  0.500  0.702720  57.377  28.4152  6.392351
  12223.806  12223.790  0.500  0.701552  57.2598  28.3903  6.402556
  12228.865  12228.820  0.500  0.700118  57.2179  28.4102  6.422199
  12233.888  12233.860  0.500  0.698832  56.8628  28.2702  6.402884
  12238.962  12238.920  0.500  0.697318  57.0088  28.3858  6.441497
  12244.027  12244.000  0.500  0.695928  56.9911  28.4164  6.461121
  12249.142  12249.100  0.500  0.694261  56.9061  28.4214  6.478100
  12254.254  12254.220  0.500  0.692761  56.8239  28.4229  6.493037
  12259.384  12259.360  0.500  0.691113  56.7371  28.4263  6.509302
  12264.558  12264.520  0.500  0.689426  55.4719  27.8394  6.389166
  12269.723  12269.700  0.500  0.687669  56.5313  28.4209  6.531936
  12274.965  12274.890  0.500  0.685839  56.5193  28.467  6.545489
  12280.125  12280.110  0.500  0.684098  56.4456  28.4794  6.552406
  12285.369  12285.340  0.500  0.682230  56.2932  28.4556  6.546512
  12290.611  12290.590  0.500  0.680619  55.197  27.9464  6.427554
  12295.891  12295.860  0.500  0.678784  56.1087  28.4602  6.544610
  12301.188  12301.150  0.500  0.677004  56.0651  28.4888  6.551788
  12306.510  12306.460  0.500  0.675269  55.9716  28.4906  6.556764
  12311.830  12311.790  0.500  0.673625  55.9266  28.5145  6.571160
  12317.174  12317.140  0.500  0.672031  55.8094  28.5002  6.579159
  12322.562  12322.510  0.500  0.670212  54.8469  28.0597  6.491300
  12327.929  12327.890  0.500  0.668848  55.6886  28.5292  6.619491
  12333.354  12333.300  0.500  0.667310  55.5998  28.5275  6.640934
  12338.770  12338.720  0.500  0.665910  55.5272  28.5302  6.662833
  12344.224  12344.170  0.500  0.664529  55.4499  28.5299  6.681840
  12349.677  12349.630  0.500  0.663063  55.239  28.463  6.683609
  12355.154  12355.110  0.500  0.661701  55.2668  28.5162  6.709929
  12360.657  12360.610  0.500  0.660319  55.2177  28.5302  6.725652
  12366.184  12366.130  0.500  0.658860  55.0898  28.5057  6.731939
  12371.703  12371.670  0.500  0.657429  55.0175  28.5091  6.745248
  12377.253  12377.220  0.500  0.656116  54.9735  28.5237  6.762896
  12382.842  12382.800  0.500  0.654572  54.7769  28.4656  6.761247
  12388.443  12388.400  0.500  0.653047  54.8376  28.5407  6.790322
  12394.055  12394.010  0.500  0.651521  54.7457  28.5363  6.801283
  12399.687  12399.650  0.500  0.650025  54.6545  28.5314  6.811744
  12405.336  12405.300  0.500  0.648407  54.5551  28.5256  6.819372
  12410.998  12410.970  0.500  0.646663  54.4492  28.52  6.826145
  12416.705  12416.660  0.500  0.645048  54.3757  28.5275  6.834999