File: xdidata/Pt/Pt-L3-PlatinumChloride.xdi
# XDI/1.0 BlueSky/1.10.0 BMM/2023-1.0-py310-tiled
# Beamline.name: BMM (06BM) -- Beamline for Materials Measurement (NIST)
# Beamline.xray_source: NSLS-II three-pole wiggler
# Beamline.collimation: paraboloid mirror, 5 nm Rh on 30 nm Pt
# Beamline.focusing: not in use
# Beamline.harmonic_rejection: flat mirror, Pt stripe, pitch = 7.0 mrad relative to beam
# Beamline.software: Bluesky 1.10.0, Ophyd 1.7.0, DataBroker 2.0.0b13, Python 3.10.8, 2023-1.0-py310-tiled
# Detector.I0: 10 cm N2
# Detector.I1: 25 cm N2
# Detector.I2: 25 cm N2
# Element.symbol: Pt
# Element.edge: L3
# Element.reference: Pt
# Element.reference_material: Pt foil
# Facility.name: NSLS-II
# Facility.energy: 3.0
# Facility.current: 400.2
# Facility.mode: top-off
# Facility.GUP: 301027
# Facility.SAF: 310583
# Facility.cycle: 2023-2
# Mono.name: Si(111)
# Mono.d_spacing: 3.13519
# Mono.encoder_resolution: 0.0000050 deg/ct
# Mono.angle_offset: 16.0754 deg
# Mono.scan_mode: pseudo channel cut
# Mono.scan_type: step
# Mono.direction: forward in energy
# Sample.name: PtCl2
# Sample.prep: powder on tape
# Sample.x: 119.711 mm
# Sample.y: 114.376 mm
# Sample.SDD_position: 205.000 mm
# Scan.experimenters: Bruce Ravel
# Scan.edge_energy: 11563.8
# Scan.start_time: 2023-06-27T17:30:37
# Scan.end_time: 2023-06-27T17:38:24
# Scan.transient_id: 85190
# Scan.uid: b2955a8a-e775-4488-be43-cb74dbb8cd3a
# Scan.plot_hint: ln(I0/It)  --  ln($5/$6)
# Column.1: energy eV
# Column.2: requested_energy eV
# Column.3: measurement_time seconds
# Column.4: xmu
# Column.5: I0 nA
# Column.6: It nA
# Column.7: Ir nA
# ///////////
# sample courtesy Simon Bare and Shelly Kelly
# -----------
# energy  requested_energy  measurement_time  xmu  I0  It  Ir
  11363.806  11363.800  0.500  0.287714  71.816  53.8602  22.4125
  11373.827  11373.800  0.500  0.285283  71.3455  53.6377  22.3699
  11383.850  11383.800  0.500  0.282985  71.2747  53.7077  22.4488
  11393.834  11393.800  0.500  0.280658  69.683  52.6307  22.0441
  11403.825  11403.800  0.500  0.278225  70.9508  53.7187  22.5461
  11413.850  11413.800  0.500  0.275933  70.7164  53.6641  22.57
  11423.865  11423.800  0.500  0.273706  70.6347  53.7216  22.642
  11433.829  11433.800  0.500  0.271375  70.4412  53.6995  22.6784
  11443.846  11443.800  0.500  0.269217  70.2515  53.6706  22.7146
  11453.885  11453.800  0.500  0.266951  70.0777  53.6592  22.7547
  11463.800  11463.800  0.500  0.264880  69.889  53.6257  22.7846
  11473.824  11473.800  0.500  0.262744  69.6652  53.5682  22.8029
  11483.866  11483.800  0.500  0.260741  69.6484  53.6627  22.878
  11493.840  11493.800  0.500  0.259052  69.4385  53.5914  22.883
  11503.825  11503.800  0.500  0.257611  69.2373  53.5132  22.8736
  11513.845  11513.800  0.500  0.256524  69.0696  53.4416  22.852
  11523.831  11523.800  0.500  0.256312  68.9037  53.3246  22.7832
  11533.829  11533.800  0.500  0.257835  68.7243  53.1048  22.6161
  11535.779  11535.800  0.500  0.258547  68.6754  53.0293  22.5575
  11537.770  11537.800  0.500  0.259494  68.6441  52.955  22.4939
  11539.767  11539.800  0.500  0.260822  68.6009  52.8514  22.4072
  11541.771  11541.800  0.500  0.262342  68.56  52.7397  22.3067
  11543.769  11543.800  0.500  0.264383  68.512  52.5952  22.1778
  11545.769  11545.800  0.500  0.267025  68.4633  52.4192  22.0141
  11547.775  11547.800  0.500  0.270610  68.4096  52.1907  21.8073
  11549.781  11549.800  0.500  0.275555  68.3512  51.8888  21.5336
  11551.765  11551.800  0.500  0.282075  68.2956  51.5097  21.1761
  11553.768  11553.800  0.500  0.291569  68.2278  50.9723  20.6789
  11554.052  11554.100  0.500  0.293246  68.2237  50.8839  20.5943
  11554.342  11554.400  0.500  0.295110  68.2104  50.7793  20.4972
  11554.650  11554.700  0.500  0.297088  68.1994  50.6707  20.3956
  11554.958  11555.000  0.500  0.299476  68.1924  50.5447  20.2824
  11555.254  11555.300  0.500  0.301663  68.1797  50.4248  20.1672
  11555.567  11555.600  0.500  0.304307  68.1631  50.2794  20.0372
  11555.864  11555.900  0.500  0.307018  68.1432  50.1287  19.9012
  11556.160  11556.200  0.500  0.309927  68.1276  49.9716  19.7616
  11556.473  11556.500  0.500  0.313322  68.1213  49.7977  19.6032
  11556.769  11556.800  0.500  0.316600  68.0968  49.6169  19.4396
  11557.077  11557.100  0.500  0.320338  68.0848  49.423  19.2633
  11557.373  11557.400  0.500  0.324238  68.0441  49.2012  19.0729
  11557.664  11557.700  0.500  0.328434  68.0455  48.9962  18.881
  11557.978  11558.000  0.500  0.333130  68.021  48.7491  18.6646
  11558.268  11558.300  0.500  0.338056  67.9893  48.487  18.4391
  11558.576  11558.600  0.500  0.343377  67.987  48.228  18.2055
  11558.878  11558.900  0.500  0.349357  67.9591  47.9208  17.941
  11559.163  11559.200  0.500  0.355586  67.9299  47.6027  17.6643
  11559.471  11559.500  0.500  0.362941  67.9119  47.2413  17.3491
  11559.779  11559.800  0.500  0.370919  67.8781  46.8426  17.0151
  11560.069  11560.100  0.500  0.379477  67.8373  46.4156  16.6598
  11560.371  11560.400  0.500  0.389423  67.8188  45.9437  16.2624
  11560.668  11560.700  0.500  0.400122  67.7739  45.4247  15.8421
  11560.987  11561.000  0.500  0.413218  67.7416  44.8123  15.345
  11561.272  11561.300  0.500  0.426535  67.68  44.1793  14.8492
  11561.586  11561.600  0.500  0.442442  67.6455  43.4599  14.2845
  11561.871  11561.900  0.500  0.459232  67.5972  42.7058  13.7112
  11562.190  11562.200  0.500  0.479278  67.5276  41.8151  13.0518
  11562.493  11562.500  0.500  0.502209  67.4676  40.8309  12.3468
  11562.795  11562.800  0.500  0.527177  67.3879  39.777  11.6166
  11563.103  11563.100  0.500  0.555611  67.3071  38.6155  10.8454
  11563.400  11563.400  0.500  0.587459  67.2258  37.3599  10.0465
  11563.690  11563.700  0.500  0.622337  67.1293  36.0276  9.244727
  11563.987  11564.000  0.500  0.660487  67.021  34.623  8.445836
  11564.289  11564.300  0.500  0.702323  66.9312  33.1599  7.657421
  11564.592  11564.600  0.500  0.747060  66.8184  31.6557  6.899150
  11564.894  11564.900  0.500  0.794631  66.7249  30.1428  6.183254
  11565.197  11565.200  0.500  0.844917  66.6489  28.6319  5.518464
  11565.487  11565.500  0.500  0.893369  66.5561  27.2397  4.946927
  11565.796  11565.800  0.500  0.942564  66.4763  25.901  4.432483
  11566.081  11566.100  0.500  0.984772  66.4227  24.8105  4.036442
  11566.389  11566.400  0.500  1.023133  66.3849  23.8632  3.710239
  11566.680  11566.700  0.500  1.050787  66.3578  23.2028  3.490364
  11566.988  11567.000  0.500  1.069130  66.3544  22.7799  3.347491
  11567.279  11567.300  0.500  1.075414  66.3456  22.6342  3.289439
  11567.582  11567.600  0.500  1.071962  66.3692  22.7206  3.297386
  11567.890  11567.900  0.500  1.059164  66.3979  23.0232  3.363709
  11568.193  11568.200  0.500  1.040640  66.4249  23.4632  3.468446
  11568.513  11568.500  0.500  1.016768  66.465  24.0445  3.614100
  11568.798  11568.800  0.500  0.993086  66.4726  24.6235  3.765091
  11569.095  11569.100  0.500  0.967735  66.5288  25.2771  3.938962
  11569.397  11569.400  0.500  0.943788  66.5536  25.8994  4.111169
  11569.700  11569.700  0.500  0.921447  66.5905  26.4992  4.281027
  11570.003  11570.000  0.500  0.900024  66.6254  27.0872  4.453461
  11570.300  11570.300  0.500  0.881284  66.6415  27.6063  4.608793
  11570.614  11570.600  0.500  0.862812  66.6743  28.1348  4.768782
  11570.899  11570.900  0.500  0.847488  66.6818  28.5725  4.904850
  11571.202  11571.200  0.500  0.831754  66.6887  29.0286  5.046345
  11571.493  11571.500  0.500  0.818618  66.7097  29.4217  5.167940
  11571.790  11571.800  0.500  0.806008  66.7223  29.8007  5.289413
  11572.087  11572.100  0.500  0.794331  66.7327  30.1554  5.401636
  11572.384  11572.400  0.500  0.784378  66.7451  30.4627  5.502757
  11572.687  11572.700  0.500  0.775811  66.7408  30.7228  5.593082
  11572.978  11573.000  0.500  0.768867  66.753  30.9425  5.675220
  11573.310  11573.300  0.500  0.762984  66.7585  31.1277  5.752495
  11573.584  11573.600  0.500  0.759101  66.7722  31.2552  5.812766
  11573.898  11573.900  0.500  0.756328  66.7752  31.3434  5.865702
  11574.196  11574.200  0.500  0.755314  66.7779  31.3765  5.907531
  11574.510  11574.500  0.500  0.755487  66.7835  31.3737  5.938119
  11574.807  11574.800  0.500  0.756953  66.7749  31.3237  5.956318
  11575.104  11575.100  0.500  0.759462  66.7585  31.2375  5.962451
  11575.407  11575.400  0.500  0.762892  66.764  31.1331  5.961911
  11575.699  11575.700  0.500  0.766907  66.7722  31.0122  5.953514
  11576.008  11576.000  0.500  0.771543  66.7667  30.8662  5.934311
  11576.299  11576.300  0.500  0.776145  66.7595  30.7212  5.911252
  11576.614  11576.600  0.500  0.781241  66.7511  30.5611  5.880368
  11576.905  11576.900  0.500  0.785911  66.7399  30.4137  5.850332
  11577.196  11577.200  0.500  0.790485  66.7463  30.2778  5.817074
  11577.494  11577.500  0.500  0.794672  66.7264  30.1423  5.780459
  11577.797  11577.800  0.500  0.798332  66.7247  30.0314  5.745317
  11578.094  11578.100  0.500  0.801273  66.7075  29.9355  5.711455
  11578.380  11578.400  0.500  0.803378  66.7143  29.8756  5.681256
  11578.695  11578.700  0.500  0.804803  66.6994  29.8264  5.651425
  11578.992  11579.000  0.500  0.805308  66.6778  29.8016  5.624488
  11579.307  11579.300  0.500  0.804999  66.6685  29.8067  5.603940
  11579.598  11579.600  0.500  0.804042  66.6621  29.8324  5.587248
  11579.901  11579.900  0.500  0.802273  66.6551  29.8821  5.575797
  11580.193  11580.200  0.500  0.800277  66.645  29.9373  5.569091
  11580.502  11580.500  0.500  0.797648  66.6149  30.0025  5.567166
  11580.800  11580.800  0.500  0.794788  66.6184  30.09  5.570857
  11581.115  11581.100  0.500  0.791461  66.614  30.1883  5.580160
  11581.394  11581.400  0.500  0.788342  66.6219  30.2862  5.596193
  11581.715  11581.700  0.500  0.785119  66.6163  30.3814  5.615338
  11582.007  11582.000  0.500  0.781855  66.5976  30.4722  5.637110
  11582.310  11582.300  0.500  0.778873  66.5992  30.5639  5.664961
  11582.608  11582.600  0.500  0.776061  66.5974  30.6491  5.697516
  11582.911  11582.900  0.500  0.773384  66.5892  30.7275  5.733073
  11583.197  11583.200  0.500  0.770967  66.6107  30.8118  5.771935
  11583.506  11583.500  0.500  0.768899  66.6029  30.872  5.809249
  11583.798  11583.800  0.500  0.767360  66.6902  30.9601  5.853229
  11584.090  11584.100  0.500  0.765912  66.8026  31.0572  5.898795
  11584.393  11584.400  0.500  0.764987  66.7963  31.083  5.931520
  11584.697  11584.700  0.500  0.764234  66.7911  31.104  5.960172
  11584.989  11585.000  0.500  0.763931  66.7891  31.1125  5.983857
  11585.292  11585.300  0.500  0.763926  66.7826  31.1096  6.001704
  11585.590  11585.600  0.500  0.764032  66.7763  31.1034  6.016188
  11585.887  11585.900  0.500  0.764517  66.7839  31.0918  6.025236
  11586.203  11586.200  0.500  0.765019  66.7704  31.0699  6.028576
  11586.495  11586.500  0.500  0.765826  66.769  31.0442  6.029763
  11586.804  11586.800  0.500  0.766601  66.7588  31.0154  6.025662
  11587.108  11587.100  0.500  0.767625  66.7477  30.9786  6.020467
  11587.411  11587.400  0.500  0.768556  66.7426  30.9474  6.015053
  11587.703  11587.700  0.500  0.769590  66.73  30.9095  6.006681
  11588.007  11588.000  0.500  0.770629  66.7115  30.8689  5.995880
  11588.305  11588.300  0.500  0.771622  66.7279  30.8458  5.988744
  11588.608  11588.600  0.500  0.772573  66.6977  30.8026  5.974958
  11588.807  11588.800  0.500  0.773360  66.7103  30.7841  5.967613
  11589.811  11589.790  0.500  0.776569  66.6851  30.6739  5.911525
  11590.793  11590.790  0.500  0.779272  66.6477  30.574  5.827466
  11591.815  11591.810  0.500  0.782173  66.6157  30.4707  5.709423
  11592.873  11592.860  0.500  0.785585  66.5746  30.3482  5.571452
  11593.954  11593.920  0.500  0.789164  66.5281  30.2187  5.442701
  11595.018  11595.000  0.500  0.793084  66.5095  30.092  5.355766
  11596.118  11596.100  0.500  0.797387  66.5016  29.9593  5.326781
  11597.229  11597.220  0.500  0.801706  66.4929  29.8263  5.351186
  11598.375  11598.360  0.500  0.805961  66.4979  29.7019  5.405997
  11599.522  11599.510  0.500  0.809697  66.4967  29.5906  5.463018
  11600.710  11600.690  0.500  0.812825  66.497  29.4983  5.509492
  11601.904  11601.880  0.500  0.815858  66.4935  29.4074  5.535611
  11603.116  11603.100  0.500  0.818840  66.476  29.3121  5.542249
  11604.334  11604.330  0.500  0.821892  66.4774  29.2234  5.546406
  11605.581  11605.580  0.500  0.824852  66.4599  29.1294  5.556913
  11606.859  11606.850  0.500  0.828100  66.441  29.0267  5.577264
  11608.153  11608.140  0.500  0.831119  66.4286  28.9338  5.593955
  11609.472  11609.450  0.500  0.834288  66.3963  28.8282  5.583311
  11610.791  11610.780  0.500  0.837239  66.3681  28.731  5.547007
  11612.134  11612.130  0.500  0.840437  66.3425  28.6282  5.486974
  11613.506  11613.500  0.500  0.843394  66.3033  28.5269  5.414553
  11614.897  11614.880  0.500  0.845975  66.2642  28.4365  5.337429
  11616.317  11616.290  0.500  0.847528  66.2288  28.3772  5.262922
  11617.719  11617.710  0.500  0.847803  66.1877  28.3518  5.201044
  11619.158  11619.150  0.500  0.846540  66.1534  28.3729  5.157249
  11620.614  11620.610  0.500  0.843364  66.1193  28.4485  5.144871
  11622.106  11622.090  0.500  0.838373  66.1098  28.5868  5.168374
  11623.598  11623.590  0.500  0.832617  66.0945  28.7451  5.216701
  11625.108  11625.110  0.500  0.825681  66.087  28.9419  5.278911
  11626.649  11626.650  0.500  0.818485  66.0519  29.1354  5.343517
  11628.230  11628.210  0.500  0.811334  66.0538  29.3454  5.410283
  11629.789  11629.780  0.500  0.804872  66.0344  29.527  5.471528
  11631.389  11631.380  0.500  0.798453  66.0149  29.7083  5.531060
  11632.984  11632.990  0.500  0.792897  66.0011  29.8676  5.580666
  11634.632  11634.630  0.500  0.788311  65.9835  29.9969  5.621738
  11636.298  11636.280  0.500  0.784495  65.9521  30.0972  5.659396
  11637.959  11637.950  0.500  0.781855  65.9149  30.1598  5.701848
  11639.650  11639.640  0.500  0.780383  65.9222  30.2076  5.749814
  11641.353  11641.350  0.500  0.779986  65.9045  30.2115  5.795304
  11643.087  11643.080  0.500  0.780133  65.8862  30.1986  5.835950
  11644.844  11644.830  0.500  0.780719  65.8604  30.1691  5.862094
  11646.590  11646.590  0.500  0.781385  65.827  30.1337  5.877661
  11648.378  11648.380  0.500  0.781973  65.8108  30.1086  5.888001
  11650.172  11650.180  0.500  0.782393  65.7602  30.0728  5.888757
  11651.991  11652.010  0.500  0.782491  65.5735  29.9845  5.866149
  11653.833  11653.850  0.500  0.782593  65.6734  30.0271  5.854604
  11655.682  11655.710  0.500  0.783185  65.6664  30.0062  5.817016
  11657.574  11657.590  0.500  0.784244  65.6398  29.9622  5.764444
  11659.465  11659.490  0.500  0.785823  65.5703  29.8833  5.707039
  11661.855  11661.410  0.500  0.788805  65.3941  29.7142  5.635750
  11663.316  11663.350  0.500  0.791415  65.5163  29.6922  5.613420
  11665.541  11665.310  0.500  0.795719  65.4813  29.5489  5.576218
  11667.388  11667.280  0.500  0.800072  65.4706  29.4157  5.554995
  11669.313  11669.280  0.500  0.804827  65.2808  29.1913  5.518653
  11671.297  11671.290  0.500  0.809389  65.407  29.1146  5.513259
  11673.324  11673.320  0.500  0.813844  65.4027  28.9833  5.498759
  11675.387  11675.380  0.500  0.817274  65.3716  28.8703  5.489252
  11677.463  11677.450  0.500  0.819421  65.3287  28.7895  5.484629
  11679.545  11679.540  0.500  0.819548  65.1637  28.7131  5.474973
  11681.664  11681.650  0.500  0.817707  65.2933  28.8232  5.495278
  11683.783  11683.780  0.500  0.814109  65.2601  28.9124  5.502572
  11685.933  11685.920  0.500  0.808935  65.2354  29.0514  5.514575
  11688.101  11688.090  0.500  0.802935  65.2081  29.214  5.534944
  11690.295  11690.280  0.500  0.796706  65.181  29.3844  5.562307
  11692.489  11692.480  0.500  0.790810  65.1474  29.5429  5.598689
  11694.707  11694.700  0.500  0.785809  65.1183  29.6777  5.641020
  11696.950  11696.950  0.500  0.781457  65.0965  29.7972  5.695041
  11699.218  11699.210  0.500  0.777929  65.0713  29.8909  5.754623
  11701.499  11701.490  0.500  0.775332  65.0229  29.9464  5.811550
  11703.793  11703.790  0.500  0.773487  64.6225  29.8169  5.831749
  11706.117  11706.110  0.500  0.772324  64.9714  30.0128  5.905625
  11708.442  11708.450  0.500  0.771578  64.9583  30.0291  5.929431
  11710.804  11710.800  0.500  0.771389  64.9419  30.0272  5.932772
  11713.185  11713.180  0.500  0.771336  64.9058  30.0121  5.920401
  11715.573  11715.570  0.500  0.771672  64.8775  29.989  5.896487
  11717.985  11717.990  0.500  0.771963  64.8325  29.9594  5.866939
  11720.417  11720.420  0.500  0.772455  64.7936  29.9267  5.835838
  11722.886  11722.870  0.500  0.772955  64.7568  29.8948  5.805153
  11725.361  11725.350  0.500  0.773661  64.7177  29.8556  5.778846
  11727.838  11727.840  0.500  0.774635  64.6692  29.8042  5.753476
  11730.357  11730.350  0.500  0.775725  64.6539  29.7647  5.733837
  11732.866  11732.870  0.500  0.777189  64.6105  29.7012  5.712716
  11735.436  11735.420  0.500  0.778842  64.3159  29.517  5.671394
  11737.982  11737.990  0.500  0.780551  64.5346  29.5667  5.684486
  11740.578  11740.570  0.500  0.782586  64.4974  29.4896  5.677181
  11743.188  11743.180  0.500  0.784368  64.4533  29.417  5.669949
  11745.816  11745.800  0.500  0.786110  64.3682  29.327  5.654764
  11748.457  11748.450  0.500  0.787432  64.2411  29.2305  5.629487
  11751.112  11751.110  0.500  0.788160  64.3482  29.2579  5.622161
  11753.786  11753.790  0.500  0.788158  64.2953  29.2339  5.602356
  11756.503  11756.490  0.500  0.787520  64.2157  29.2163  5.592743
  11759.216  11759.210  0.500  0.786037  64.0977  29.2059  5.601054
  11761.948  11761.950  0.500  0.784099  64.1952  29.3071  5.651067
  11764.699  11764.700  0.500  0.781529  64.1671  29.3697  5.710317
  11767.488  11767.480  0.500  0.779064  64.1391  29.4293  5.765636
  11770.278  11770.270  0.500  0.776414  63.8574  29.3778  5.792611
  11773.093  11773.090  0.500  0.773936  64.0174  29.5245  5.844988
  11775.916  11775.920  0.500  0.771586  63.9632  29.5688  5.872320
  11778.789  11778.770  0.500  0.769411  63.7837  29.5501  5.880404
  11781.650  11781.650  0.500  0.767391  63.9397  29.6823  5.915665
  11784.538  11784.540  0.500  0.765485  63.9106  29.7253  5.929169
  11787.445  11787.450  0.500  0.763710  63.8586  29.754  5.935549
  11790.378  11790.370  0.500  0.761897  63.8117  29.786  5.942306
  11793.306  11793.320  0.500  0.760528  63.7481  29.7971  5.943872
  11796.290  11796.290  0.500  0.759159  63.7272  29.8281  5.941729
  11799.282  11799.270  0.500  0.757945  63.6652  29.8353  5.929783
  11802.293  11802.280  0.500  0.756937  63.6265  29.8473  5.910025
  11805.294  11805.300  0.500  0.756199  63.2934  29.7129  5.856529
  11808.375  11808.350  0.500  0.755564  63.4718  29.8156  5.845507
  11811.428  11811.410  0.500  0.755192  63.4473  29.8152  5.818092
  11814.488  11814.490  0.500  0.755001  63.4105  29.8036  5.795815
  11817.604  11817.590  0.500  0.755022  63.3533  29.7761  5.783114
  11820.716  11820.710  0.500  0.755180  63.3037  29.748  5.783777
  11823.842  11823.850  0.500  0.755445  63.2877  29.7327  5.798237
  11827.025  11827.000  0.500  0.756023  63.2439  29.6949  5.815718
  11830.203  11830.180  0.500  0.756495  62.9449  29.5406  5.819975
  11833.376  11833.370  0.500  0.756975  63.1138  29.6056  5.875287
  11836.607  11836.590  0.500  0.757270  63.0856  29.5837  5.915670
  11839.851  11839.820  0.500  0.757487  63.041  29.5563  5.947905
  11843.079  11843.070  0.500  0.757381  63.0087  29.5443  5.970480
  11846.369  11846.350  0.500  0.757171  62.9547  29.5252  5.977750
  11849.656  11849.640  0.500  0.756576  62.8287  29.4836  5.971119
  11852.944  11852.950  0.500  0.755762  62.8731  29.5285  5.974309
  11856.277  11856.270  0.500  0.754653  62.6252  29.4447  5.947905
  11859.630  11859.620  0.500  0.752997  62.4443  29.4083  5.940444
  11862.991  11862.990  0.500  0.751503  62.5289  29.4922  5.968355
  11866.379  11866.370  0.500  0.749564  62.6613  29.612  6.009627
  11869.774  11869.780  0.500  0.747713  62.5772  29.627  6.024431
  11873.209  11873.200  0.500  0.745729  62.5492  29.6726  6.034024
  11876.676  11876.650  0.500  0.743898  62.4959  29.7017  6.029771
  11880.121  11880.110  0.500  0.741998  62.4434  29.7332  6.021137
  11883.611  11883.590  0.500  0.740323  62.3176  29.723  6.000961
  11887.127  11887.090  0.500  0.738719  62.1438  29.6877  5.977667
  11890.615  11890.610  0.500  0.737389  62.2789  29.7918  5.982111
  11894.185  11894.150  0.500  0.735984  62.2072  29.7993  5.971130
  11897.720  11897.700  0.500  0.734673  62.1641  29.8178  5.973042
  11901.300  11901.280  0.500  0.733525  61.8265  29.6899  5.956903
  11904.901  11904.880  0.500  0.732329  61.9951  29.8065  6.001304
  11908.498  11908.490  0.500  0.731124  61.9859  29.838  6.040399
  11912.147  11912.120  0.500  0.730005  61.9279  29.8435  6.081808
  11915.798  11915.780  0.500  0.729261  61.8332  29.82  6.115199
  11919.464  11919.450  0.500  0.728562  61.6845  29.7691  6.131585
  11923.169  11923.140  0.500  0.727860  61.7689  29.8308  6.160843
  11926.851  11926.850  0.500  0.727436  61.7369  29.8279  6.167719
  11930.604  11930.580  0.500  0.726997  61.6723  29.8098  6.162516
  11934.341  11934.320  0.500  0.726663  61.238  29.6098  6.118927
  11938.099  11938.090  0.500  0.726279  61.535  29.7648  6.150511
  11941.927  11941.880  0.500  0.725985  61.4974  29.7554  6.147888
  11945.696  11945.680  0.500  0.725519  61.4452  29.744  6.148766
  11949.555  11949.510  0.500  0.725006  61.6076  29.8379  6.177119
  11953.372  11953.350  0.500  0.724406  61.5357  29.821  6.188386
  11957.248  11957.210  0.500  0.723602  61.4654  29.8108  6.199101
  11961.120  11961.090  0.500  0.722759  61.4095  29.8089  6.205078
  11965.013  11964.990  0.500  0.721961  61.3387  29.7982  6.198046
  11968.953  11968.910  0.500  0.720951  61.2887  29.8041  6.188843
  11972.870  11972.850  0.500  0.719844  61.2201  29.8037  6.177978
  11976.827  11976.810  0.500  0.718760  61.1421  29.798  6.175056
  11980.800  11980.780  0.500  0.717450  61.0721  29.8029  6.175336
  11984.800  11984.780  0.500  0.716082  61.02  29.8182  6.181007
  11988.809  11988.790  0.500  0.714727  60.9662  29.8323  6.186685
  11992.846  11992.830  0.500  0.713175  60.9034  29.8479  6.191693
  11996.904  11996.880  0.500  0.711526  60.8331  29.8626  6.204462
  12000.978  12000.950  0.500  0.709948  60.796  29.8916  6.227372
  12005.067  12005.040  0.500  0.708192  60.732  29.9126  6.255997
  12009.172  12009.150  0.500  0.706471  60.6623  29.9297  6.292537
  12013.323  12013.280  0.500  0.704731  60.613  29.9575  6.334460
  12017.459  12017.430  0.500  0.703012  60.5511  29.9784  6.372321
  12021.622  12021.590  0.500  0.701423  60.4838  29.9927  6.398752
  12025.801  12025.780  0.500  0.699912  60.4135  30.0031  6.412946
  12030.014  12029.980  0.500  0.698677  60.3237  29.9955  6.414801
  12034.218  12034.210  0.500  0.697557  60.2796  30.0072  6.415936
  12038.463  12038.450  0.500  0.696443  60.2118  30.0068  6.412270
  12042.710  12042.710  0.500  0.695555  60.1086  29.982  6.402262
  12046.999  12046.990  0.500  0.694856  59.3245  29.6116  6.323281
  12051.297  12051.290  0.500  0.694172  59.9028  29.9207  6.387422
  12055.642  12055.610  0.500  0.693437  59.9109  29.9468  6.391645
  12059.959  12059.950  0.500  0.692729  59.8628  29.9439  6.389048
  12064.336  12064.310  0.500  0.691884  59.7847  29.9301  6.386118
  12068.717  12068.690  0.500  0.691099  59.7175  29.92  6.389131
  12073.094  12073.080  0.500  0.690364  59.6526  29.9094  6.392107
  12077.531  12077.500  0.500  0.689450  59.5937  29.9072  6.395598
  12081.953  12081.930  0.500  0.688450  59.5221  29.9012  6.400476
  12086.417  12086.380  0.500  0.687381  59.4522  29.898  6.409926
  12090.864  12090.850  0.500  0.686151  59.341  29.8788  6.421174
  12095.372  12095.340  0.500  0.684746  59.3105  29.9054  6.445092
  12099.865  12099.850  0.500  0.683375  59.2384  29.9101  6.467194
  12104.405  12104.380  0.500  0.681900  59.1722  29.9207  6.487760
  12108.943  12108.930  0.500  0.680508  59.1168  29.9344  6.508572
  12113.516  12113.500  0.500  0.678993  59.0463  29.944  6.526088
  12118.111  12118.080  0.500  0.677433  58.97  29.952  6.545590
  12122.717  12122.690  0.500  0.675927  58.9099  29.9666  6.564533
  12127.358  12127.310  0.500  0.674436  58.8128  29.9618  6.582745
  12131.977  12131.960  0.500  0.672952  58.7742  29.9866  6.604196
  12136.658  12136.620  0.500  0.671334  58.7006  29.9976  6.618218
  12141.310  12141.300  0.500  0.670010  58.6324  30.0024  6.627154
  12146.017  12146.000  0.500  0.668526  58.5317  29.9954  6.628260
  12150.753  12150.720  0.500  0.667117  58.4807  30.0115  6.633871
  12155.474  12155.460  0.500  0.665730  58.3825  30.0027  6.634960
  12160.250  12160.210  0.500  0.664260  58.3141  30.0116  6.639368
  12165.010  12164.990  0.500  0.662970  58.2084  29.9958  6.633893
  12169.846  12169.790  0.500  0.661511  58.1842  30.0272  6.641940
  12174.607  12174.600  0.500  0.660335  58.0965  30.0172  6.641027
  12179.463  12179.430  0.500  0.659223  58.0391  30.0209  6.646068
  12184.310  12184.290  0.500  0.657866  57.9539  30.0176  6.647831
  12189.181  12189.160  0.500  0.656576  57.8694  30.0125  6.653125
  12194.087  12194.050  0.500  0.655423  57.7905  30.0061  6.661685
  12198.998  12198.960  0.500  0.654205  57.7069  29.9992  6.673126
  12203.925  12203.890  0.500  0.653011  57.6559  30.0085  6.690809
  12208.857  12208.830  0.500  0.651892  57.5877  30.0066  6.709105
  12213.844  12213.800  0.500  0.650659  57.4969  29.9962  6.728259
  12218.810  12218.790  0.500  0.649303  57.3905  29.9814  6.743552
  12223.826  12223.790  0.500  0.648040  57.3646  30.0057  6.765908
  12228.858  12228.820  0.500  0.646895  57.2734  29.9923  6.778722
  12233.882  12233.860  0.500  0.645686  56.9392  29.8534  6.761686
  12238.949  12238.920  0.500  0.644278  57.0655  29.9617  6.799425
  12244.027  12244.000  0.500  0.643088  57.0447  29.9865  6.819473
  12249.135  12249.100  0.500  0.641630  56.9692  29.9905  6.833714
  12254.248  12254.220  0.500  0.640156  56.8828  29.9892  6.851364
  12259.397  12259.360  0.500  0.638622  56.8241  30.0042  6.871633
  12264.545  12264.520  0.500  0.637349  55.5288  29.3576  6.737773
  12269.743  12269.700  0.500  0.635711  56.589  29.9672  6.886693
  12274.912  12274.890  0.500  0.634075  56.5705  30.0065  6.901056
  12280.145  12280.110  0.500  0.632650  56.4943  30.0087  6.904503
  12285.383  12285.340  0.500  0.631172  56.3374  29.9697  6.894848
  12290.618  12290.590  0.500  0.629541  55.2468  29.4375  6.769756
  12295.898  12295.860  0.500  0.628091  56.1385  29.9561  6.889532
  12301.175  12301.150  0.500  0.626566  56.1111  29.9871  6.896128
  12306.497  12306.460  0.500  0.625090  56.0433  29.9951  6.902855
  12311.816  12311.790  0.500  0.623657  55.9671  29.9973  6.913444
  12317.180  12317.140  0.500  0.622068  55.8434  29.9786  6.919714
  12322.536  12322.510  0.500  0.620509  54.8484  29.4903  6.821895
  12327.929  12327.890  0.500  0.619162  55.7073  29.9926  6.960100
  12333.341  12333.300  0.500  0.617649  55.6488  30.0064  6.985143
  12338.750  12338.720  0.500  0.616194  55.5652  30.005  7.006539
  12344.218  12344.170  0.500  0.614737  55.4827  30.0041  7.027309
  12349.664  12349.630  0.500  0.613438  55.2576  29.9212  7.026976
  12355.161  12355.110  0.500  0.612011  55.3128  29.9939  7.058249
  12360.643  12360.610  0.500  0.610657  55.2036  29.9752  7.067431
  12366.177  12366.130  0.500  0.609260  55.1004  29.961  7.076553
  12371.709  12371.670  0.500  0.607897  55.038  29.9679  7.092313
  12377.266  12377.220  0.500  0.606427  54.9667  29.9731  7.105557
  12382.822  12382.800  0.500  0.605019  54.818  29.9341  7.110397
  12388.450  12388.400  0.500  0.603535  54.8701  30.0071  7.140562
  12394.055  12394.010  0.500  0.602091  54.7726  29.997  7.150662
  12399.707  12399.650  0.500  0.600682  54.6839  29.9907  7.161267
  12405.330  12405.300  0.500  0.599251  54.5823  29.9778  7.166043
  12411.032  12410.970  0.500  0.597732  54.4715  29.9625  7.173133
  12416.685  12416.660  0.500  0.596305  54.4018  29.9669  7.180992