File: xdidata/Se/Se-K-SeleniumOxide.xdi
# XDI/1.0 BlueSky/1.10.0 BMM/2023-1.0-py310-tiled
# Beamline.name: BMM (06BM) -- Beamline for Materials Measurement (NIST)
# Beamline.xray_source: NSLS-II three-pole wiggler
# Beamline.collimation: paraboloid mirror, 5 nm Rh on 30 nm Pt
# Beamline.focusing: not in use
# Beamline.harmonic_rejection: flat mirror, Pt stripe, pitch = 7.0 mrad relative to beam
# Beamline.software: Bluesky 1.10.0, Ophyd 1.7.0, DataBroker 2.0.0b13, Python 3.10.8, 2023-1.0-py310-tiled
# Detector.I0: 10 cm N2
# Detector.I1: 25 cm N2
# Detector.I2: 25 cm N2
# Element.symbol: Se
# Element.edge: K
# Element.reference: Se
# Element.reference_material: Se metal powder
# Facility.name: NSLS-II
# Facility.energy: 3.0
# Facility.current: 400.8
# Facility.mode: top-off
# Facility.GUP: 301027
# Facility.SAF: 310583
# Facility.cycle: 2023-2
# Mono.name: Si(111)
# Mono.d_spacing: 3.13519
# Mono.encoder_resolution: 0.0000050 deg/ct
# Mono.angle_offset: 16.0754 deg
# Mono.scan_mode: pseudo channel cut
# Mono.scan_type: step
# Mono.direction: forward in energy
# Sample.name: SeO2
# Sample.prep: powder in PEG pellet
# Sample.x: 117.785 mm
# Sample.y: 114.695 mm
# Sample.SDD_position: 205.000 mm
# Scan.experimenters: Bruce Ravel
# Scan.edge_energy: 12657.8
# Scan.start_time: 2023-06-23T19:10:15
# Scan.end_time: 2023-06-23T19:17:53
# Scan.transient_id: 84960
# Scan.uid: 6d06eff7-3330-446d-b10c-36ee6f753758
# Scan.plot_hint: ln(I0/It)  --  ln($5/$6)
# Column.1: energy eV
# Column.2: requested_energy eV
# Column.3: measurement_time seconds
# Column.4: xmu
# Column.5: I0 nA
# Column.6: It nA
# Column.7: Ir nA
# ///////////
# sample courtesy Martin Stennett, University of Sheffield
# -----------
# energy  requested_energy  measurement_time  xmu  I0  It  Ir
  12457.786  12457.800  0.500  -0.126832  53.6979  60.9593  40.1181
  12467.830  12467.800  0.500  -0.128013  53.5574  60.8716  40.0975
  12477.856  12477.800  0.500  -0.129288  53.5001  60.8841  40.1438
  12487.851  12487.800  0.500  -0.130492  53.2838  60.711  40.0621
  12497.870  12497.800  0.500  -0.131662  53.2898  60.7888  40.1515
  12507.877  12507.800  0.500  -0.132894  53.1701  60.7271  40.1462
  12517.846  12517.800  0.500  -0.134125  53.0339  60.6462  40.1259
  12527.844  12527.800  0.500  -0.135160  52.9097  60.5668  40.1133
  12537.859  12537.800  0.500  -0.136312  52.779  60.4868  40.0909
  12547.836  12547.800  0.500  -0.137441  52.6931  60.4566  40.1049
  12557.842  12557.800  0.500  -0.138546  52.5761  60.389  40.0906
  12567.843  12567.800  0.500  -0.139376  52.4663  60.3129  40.0735
  12577.861  12577.800  0.500  -0.140029  52.3503  60.219  40.0427
  12587.853  12587.800  0.500  -0.140991  52.2294  60.1377  40.0142
  12597.855  12597.800  0.500  -0.141661  52.1182  60.0498  39.9752
  12607.852  12607.800  0.500  -0.142034  52.0043  59.941  39.9163
  12617.837  12617.800  0.500  -0.141611  51.9058  59.8021  39.8264
  12627.852  12627.800  0.500  -0.140120  51.703  59.4797  39.5804
  12629.778  12629.800  0.500  -0.139608  51.7606  59.5155  39.5886
  12631.760  12631.800  0.500  -0.138819  51.7332  59.437  39.519
  12633.770  12633.800  0.500  -0.138050  51.6532  59.2995  39.4097
  12635.767  12635.800  0.500  -0.136932  51.6894  59.2749  39.3593
  12637.786  12637.800  0.500  -0.135566  51.6766  59.1792  39.2557
  12639.764  12639.800  0.500  -0.133852  51.6386  59.0344  39.1131
  12641.756  12641.800  0.500  -0.131540  51.5537  58.8013  38.8982
  12643.755  12643.800  0.500  -0.128668  51.61  58.6967  38.737
  12645.798  12645.800  0.500  -0.124719  51.5846  58.4366  38.4344
  12647.792  12647.800  0.500  -0.119357  51.55  58.0851  38.0166
  12648.043  12648.100  0.500  -0.118429  51.5498  58.031  37.9519
  12648.342  12648.400  0.500  -0.117415  51.5366  57.9573  37.8608
  12648.642  12648.700  0.500  -0.116344  51.5535  57.9142  37.7968
  12648.942  12649.000  0.500  -0.115133  51.5268  57.8142  37.6813
  12649.256  12649.300  0.500  -0.113836  51.5359  57.7495  37.591
  12649.542  12649.600  0.500  -0.112572  51.5143  57.6524  37.4792
  12649.849  12649.900  0.500  -0.111183  51.5159  57.5741  37.3699
  12650.156  12650.200  0.500  -0.109783  51.5208  57.499  37.2553
  12650.449  12650.500  0.500  -0.108013  51.5231  57.3999  37.1227
  12650.735  12650.800  0.500  -0.106390  51.5141  57.2969  36.986
  12651.056  12651.100  0.500  -0.104494  51.5108  57.1847  36.8301
  12651.370  12651.400  0.500  -0.102464  51.5138  57.0721  36.6578
  12651.663  12651.700  0.500  -0.100429  51.4986  56.9391  36.4707
  12651.949  12652.000  0.500  -0.098159  51.5019  56.8137  36.2822
  12652.263  12652.300  0.500  -0.095553  51.4988  56.6624  36.0577
  12652.563  12652.600  0.500  -0.092987  51.4919  56.5096  35.8209
  12652.856  12652.900  0.500  -0.090110  51.4933  56.3488  35.5714
  12653.135  12653.200  0.500  -0.087273  51.484  56.179  35.2933
  12653.456  12653.500  0.500  -0.083824  51.4949  55.9975  34.9726
  12653.770  12653.800  0.500  -0.079957  51.463  55.7468  34.5824
  12654.050  12654.100  0.500  -0.076164  51.4677  55.5409  34.2154
  12654.357  12654.400  0.500  -0.071773  51.4606  55.2899  33.7633
  12654.664  12654.700  0.500  -0.066988  51.4718  55.0379  33.2639
  12654.978  12655.000  0.500  -0.061337  51.4596  54.7148  32.6469
  12655.264  12655.300  0.500  -0.055526  51.4582  54.3963  32.0178
  12655.571  12655.600  0.500  -0.048811  51.4636  54.0379  31.2546
  12655.900  12655.900  0.500  -0.040531  51.4553  53.5837  30.2914
  12656.179  12656.200  0.500  -0.032117  51.4396  53.1185  29.3015
  12656.465  12656.500  0.500  -0.022939  51.4366  52.6301  28.212
  12656.779  12656.800  0.500  -0.011343  51.441  52.0278  26.882
  12657.087  12657.100  0.500  0.002317  51.4296  51.3106  25.3912
  12657.380  12657.400  0.500  0.016673  51.4332  50.5828  23.9709
  12657.687  12657.700  0.500  0.034594  51.4277  49.679  22.4015
  12658.002  12658.000  0.500  0.055201  51.4226  48.6609  20.8919
  12658.302  12658.300  0.500  0.079729  51.4155  47.4753  19.4847
  12658.595  12658.600  0.500  0.106606  51.4168  46.2175  18.32
  12658.896  12658.900  0.500  0.139191  51.4064  44.7268  17.2966
  12659.189  12659.200  0.500  0.178913  51.3983  42.9782  16.4167
  12659.496  12659.500  0.500  0.224040  51.4072  41.0889  15.6984
  12659.776  12659.800  0.500  0.277867  51.4004  38.9305  15.0106
  12660.097  12660.100  0.500  0.350753  51.3983  36.1925  14.2098
  12660.405  12660.400  0.500  0.439002  51.4126  33.1446  13.3058
  12660.698  12660.700  0.500  0.544430  51.3928  29.8167  12.2531
  12660.992  12661.000  0.500  0.667696  51.3944  26.3596  11.0808
  12661.299  12661.300  0.500  0.821717  51.3939  22.5967  9.719158
  12661.614  12661.600  0.500  1.009625  51.3863  18.7229  8.234157
  12661.886  12661.900  0.500  1.210489  51.3861  15.3157  6.868253
  12662.180  12662.200  0.500  1.437855  51.3845  12.2005  5.572472
  12662.501  12662.500  0.500  1.713732  51.3929  9.260586  4.311780
  12662.809  12662.800  0.500  1.973891  51.3755  7.136848  3.377733
  12663.081  12663.100  0.500  2.195899  51.3963  5.718277  2.744034
  12663.382  12663.400  0.500  2.361849  51.3659  4.841020  2.346959
  12663.683  12663.700  0.500  2.424685  51.3663  4.546225  2.215819
  12663.990  12664.000  0.500  2.370909  51.3749  4.798203  2.338879
  12664.270  12664.300  0.500  2.238831  51.3631  5.474432  2.659435
  12664.592  12664.600  0.500  2.037654  51.3554  6.693362  3.237319
  12664.899  12664.900  0.500  1.827288  51.3514  8.259822  3.975538
  12665.193  12665.200  0.500  1.633079  51.3482  10.0297  4.807924
  12665.480  12665.500  0.500  1.451698  51.3377  12.0219  5.738516
  12665.773  12665.800  0.500  1.288475  51.3308  14.1514  6.731840
  12666.095  12666.100  0.500  1.145417  51.3242  16.3258  7.740875
  12666.361  12666.400  0.500  1.043041  51.3169  18.0831  8.554399
  12666.689  12666.700  0.500  0.950660  51.3173  19.8334  9.364620
  12667.004  12667.000  0.500  0.883170  51.3203  21.2194  10.0063
  12667.291  12667.300  0.500  0.837804  51.3007  22.1957  10.4576
  12667.585  12667.600  0.500  0.807272  51.3171  22.8912  10.7861
  12667.900  12667.900  0.500  0.784102  51.2979  23.419  11.0332
  12668.200  12668.200  0.500  0.770904  51.2915  23.7272  11.1825
  12668.466  12668.500  0.500  0.764037  51.3073  23.898  11.2655
  12668.781  12668.800  0.500  0.760324  51.2807  23.9745  11.3035
  12669.110  12669.100  0.500  0.759363  51.2766  23.9956  11.3148
  12669.418  12669.400  0.500  0.760248  51.2664  23.9696  11.3041
  12669.698  12669.700  0.500  0.761619  51.2721  23.9394  11.2876
  12669.999  12670.000  0.500  0.763564  51.2663  23.8902  11.2627
  12670.307  12670.300  0.500  0.765600  51.2752  23.8458  11.239
  12670.601  12670.600  0.500  0.767418  51.2574  23.7942  11.212
  12670.901  12670.900  0.500  0.769292  51.2539  23.748  11.1872
  12671.223  12671.200  0.500  0.771012  51.2549  23.7077  11.1637
  12671.517  12671.500  0.500  0.772806  51.2567  23.666  11.1422
  12671.790  12671.800  0.500  0.774724  51.2462  23.6158  11.1174
  12672.091  12672.100  0.500  0.777165  51.2461  23.5582  11.0898
  12672.406  12672.400  0.500  0.779975  51.2327  23.4859  11.0543
  12672.700  12672.700  0.500  0.783189  51.226  23.4076  11.0205
  12673.002  12673.000  0.500  0.786985  51.2317  23.3214  10.9826
  12673.317  12673.300  0.500  0.791372  51.22  23.2141  10.9379
  12673.632  12673.600  0.500  0.795738  51.2164  23.1113  10.8955
  12673.891  12673.900  0.500  0.800054  51.2112  23.0094  10.8553
  12674.206  12674.200  0.500  0.804817  51.2187  22.9035  10.8138
  12674.500  12674.500  0.500  0.809255  51.205  22.7959  10.7737
  12674.780  12674.800  0.500  0.813111  51.2161  22.7131  10.7445
  12675.081  12675.100  0.500  0.816281  51.2022  22.6351  10.7175
  12675.396  12675.400  0.500  0.818805  51.1939  22.5744  10.7011
  12675.705  12675.700  0.500  0.820278  51.1909  22.5399  10.6935
  12675.978  12676.000  0.500  0.820599  51.2  22.5366  10.7025
  12676.286  12676.300  0.500  0.819678  51.1923  22.554  10.7201
  12676.594  12676.600  0.500  0.817660  51.1855  22.5965  10.7508
  12676.874  12676.900  0.500  0.814432  51.1718  22.6635  10.7859
  12677.176  12677.200  0.500  0.810346  51.1838  22.7616  10.8422
  12677.484  12677.500  0.500  0.804431  51.1663  22.8888  10.9076
  12677.792  12677.800  0.500  0.798003  51.1658  23.0363  10.984
  12678.073  12678.100  0.500  0.791307  51.1575  23.1873  11.0596
  12678.395  12678.400  0.500  0.783189  51.1471  23.3715  11.1507
  12678.703  12678.700  0.500  0.775039  51.161  23.5691  11.25
  12678.984  12679.000  0.500  0.767532  51.1625  23.7475  11.336
  12679.292  12679.300  0.500  0.759228  51.1376  23.9338  11.4297
  12679.607  12679.600  0.500  0.750626  51.1318  24.1378  11.5312
  12679.909  12679.900  0.500  0.742800  51.131  24.3271  11.6239
  12680.189  12680.200  0.500  0.735692  51.1306  24.5005  11.7051
  12680.504  12680.500  0.500  0.727846  51.1244  24.6904  11.7988
  12680.820  12680.800  0.500  0.720489  51.1326  24.8768  11.8869
  12681.100  12681.100  0.500  0.714113  51.1139  25.0267  11.9584
  12681.402  12681.400  0.500  0.707561  51.1123  25.1904  12.0377
  12681.710  12681.700  0.500  0.701306  51.1065  25.3456  12.1107
  12682.005  12682.000  0.500  0.695645  51.1041  25.4883  12.1781
  12682.299  12682.300  0.500  0.690186  51.0928  25.6222  12.2415
  12682.608  12682.600  0.500  0.684576  51.1053  25.7726  12.3143
  12682.811  12682.800  0.500  0.680856  51.0972  25.8646  12.3548
  12683.856  12683.790  0.500  0.663726  51.0841  26.3047  12.5642
  12684.824  12684.790  0.500  0.649030  51.0764  26.6901  12.7526
  12685.841  12685.810  0.500  0.635433  51.2143  27.1285  12.9608
  12686.887  12686.860  0.500  0.623238  51.1931  27.45  13.1136
  12687.953  12687.920  0.500  0.612374  51.1881  27.7471  13.2564
  12689.027  12689.000  0.500  0.602912  51.1765  28.0046  13.379
  12690.136  12690.100  0.500  0.593918  51.1677  28.2527  13.4979
  12691.253  12691.220  0.500  0.585090  51.1541  28.4957  13.6131
  12692.404  12692.360  0.500  0.575781  51.1354  28.7516  13.7359
  12693.535  12693.510  0.500  0.566465  51.1287  29.017  13.8604
  12694.715  12694.690  0.500  0.556952  51.1129  29.2853  13.9852
  12695.917  12695.880  0.500  0.548188  51.1108  29.5418  14.0999
  12697.140  12697.100  0.500  0.540617  51.0783  29.7474  14.1881
  12698.363  12698.330  0.500  0.535071  51.0895  29.9194  14.2666
  12699.586  12699.580  0.500  0.531324  51.0561  30.0121  14.3076
  12700.859  12700.850  0.500  0.529638  51.0435  30.0554  14.328
  12702.174  12702.140  0.500  0.529970  51.0196  30.0313  14.3205
  12703.496  12703.450  0.500  0.532160  51.0228  29.9675  14.2991
  12704.819  12704.780  0.500  0.536005  50.9894  29.8329  14.2539
  12706.149  12706.130  0.500  0.541520  50.9833  29.6653  14.1986
  12707.543  12707.500  0.500  0.548453  50.9627  29.4485  14.1191
  12708.902  12708.880  0.500  0.555770  50.9638  29.2344  14.0326
  12710.311  12710.290  0.500  0.563819  50.9456  28.9897  13.9285
  12711.719  12711.710  0.500  0.571958  50.908  28.7334  13.8123
  12713.178  12713.150  0.500  0.580306  50.8955  28.4876  13.6975
  12714.644  12714.610  0.500  0.588574  50.8832  28.2462  13.5854
  12716.124  12716.090  0.500  0.596245  50.8528  28.0136  13.4714
  12717.626  12717.590  0.500  0.603511  50.8394  27.8035  13.3698
  12719.156  12719.110  0.500  0.610667  50.8302  27.6002  13.2752
  12720.673  12720.650  0.500  0.617530  50.815  27.4032  13.1821
  12722.232  12722.210  0.500  0.624259  50.7939  27.2082  13.0904
  12723.784  12723.780  0.500  0.630344  50.787  27.0395  13.0119
  12725.408  12725.380  0.500  0.636351  50.7558  26.861  12.929
  12727.046  12726.990  0.500  0.641836  50.7288  26.6998  12.8508
  12728.671  12728.630  0.500  0.646919  50.7108  26.555  12.7839
  12730.310  12730.280  0.500  0.651355  50.6881  26.4256  12.7223
  12731.970  12731.950  0.500  0.655158  50.6707  26.3163  12.6678
  12733.660  12733.640  0.500  0.658451  50.6381  26.2129  12.6162
  12735.392  12735.350  0.500  0.661297  50.5704  26.1035  12.5575
  12737.118  12737.080  0.500  0.663191  49.9256  25.7219  12.368
  12738.872  12738.830  0.500  0.663200  50.3249  25.9274  12.4653
  12740.620  12740.590  0.500  0.661734  50.5915  26.103  12.5514
  12742.389  12742.380  0.500  0.660701  50.5646  26.1161  12.5601
  12744.195  12744.180  0.500  0.659780  50.5494  26.1323  12.5715
  12746.050  12746.010  0.500  0.658462  50.5213  26.1522  12.5852
  12747.899  12747.850  0.500  0.656733  50.5034  26.1882  12.613
  12749.735  12749.710  0.500  0.653657  50.4926  26.2632  12.6561
  12751.606  12751.590  0.500  0.649309  50.4608  26.361  12.7145
  12753.528  12753.490  0.500  0.644744  50.4541  26.4781  12.7806
  12755.450  12755.410  0.500  0.640376  50.4215  26.5769  12.8404
  12757.394  12757.350  0.500  0.636270  50.3918  26.6705  12.9013
  12759.324  12759.310  0.500  0.632204  50.3657  26.7653  12.9554
  12761.326  12761.280  0.500  0.628331  50.35  26.8608  13.0112
  12763.322  12763.280  0.500  0.624274  50.324  26.956  13.0653
  12765.318  12765.290  0.500  0.620292  50.3003  27.0509  13.1152
  12767.343  12767.320  0.500  0.616307  50.275  27.1452  13.1634
  12769.405  12769.380  0.500  0.612309  50.2557  27.2435  13.2118
  12771.495  12771.450  0.500  0.608320  50.2295  27.3382  13.2567
  12773.579  12773.540  0.500  0.604754  50.2135  27.427  13.3005
  12775.671  12775.650  0.500  0.601126  50.1774  27.507  13.338
  12777.792  12777.780  0.500  0.597908  50.1486  27.5798  13.3745
  12779.943  12779.920  0.500  0.595111  50.136  27.65  13.4081
  12782.115  12782.090  0.500  0.592326  50.1083  27.7119  13.4372
  12784.267  12784.280  0.500  0.590146  50.0845  27.7591  13.4564
  12786.519  12786.480  0.500  0.588139  50.0551  27.7986  13.4677
  12788.723  12788.700  0.500  0.586904  50.0375  27.8231  13.4772
  12790.969  12790.950  0.500  0.585772  50.0149  27.8421  13.4775
  12793.260  12793.210  0.500  0.585237  49.9872  27.8415  13.471
  12795.522  12795.490  0.500  0.584758  49.9606  27.8401  13.4633
  12797.793  12797.790  0.500  0.585087  49.9373  27.8179  13.4532
  12800.136  12800.110  0.500  0.585359  49.9066  27.7933  13.4404
  12802.465  12802.450  0.500  0.586193  49.8826  27.7568  13.425
  12804.824  12804.800  0.500  0.586997  49.8622  27.7231  13.4116
  12807.191  12807.180  0.500  0.588215  49.8292  27.671  13.3953
  12809.581  12809.570  0.500  0.589425  49.7985  27.6205  13.3819
  12812.007  12811.990  0.500  0.590604  49.7656  27.5698  13.3672
  12814.441  12814.420  0.500  0.591996  49.7465  27.5208  13.3582
  12816.876  12816.870  0.500  0.593289  49.7182  27.4696  13.3506
  12819.362  12819.350  0.500  0.594541  49.6939  27.4219  13.3443
  12821.849  12821.840  0.500  0.595889  49.6706  27.3721  13.3419
  12824.373  12824.350  0.500  0.596679  49.6262  27.326  13.3373
  12826.862  12826.870  0.500  0.597548  49.5542  27.2627  13.3222
  12829.424  12829.420  0.500  0.598277  49.579  27.2565  13.3345
  12831.994  12831.990  0.500  0.598526  49.5516  27.2346  13.3325
  12834.579  12834.570  0.500  0.598948  49.5092  27.1998  13.3275
  12837.173  12837.180  0.500  0.599011  49.4988  27.1924  13.3296
  12839.818  12839.800  0.500  0.598826  49.4457  27.1682  13.3223
  12842.471  12842.450  0.500  0.598739  49.4317  27.1629  13.3232
  12845.126  12845.110  0.500  0.598420  49.4042  27.1565  13.3203
  12847.825  12847.790  0.500  0.598623  49.3575  27.1253  13.3033
  12850.481  12850.490  0.500  0.598901  49.3203  27.0973  13.2869
  12853.247  12853.210  0.500  0.597678  49.3114  27.1256  13.2953
  12855.971  12855.950  0.500  0.597156  49.2812  27.1231  13.2898
  12858.732  12858.700  0.500  0.596047  49.265  27.1443  13.2933
  12861.509  12861.480  0.500  0.594288  49.2355  27.1758  13.3019
  12864.287  12864.270  0.500  0.592750  49.2119  27.2046  13.3103
  12867.124  12867.090  0.500  0.591262  49.1633  27.2182  13.3082
  12869.947  12869.920  0.500  0.589674  49.137  27.2468  13.3209
  12872.787  12872.770  0.500  0.587862  49.085  27.2674  13.3274
  12875.671  12875.650  0.500  0.586097  49.027  27.2833  13.3365
  12878.571  12878.540  0.500  0.584077  49.007  27.3273  13.3597
  12881.472  12881.450  0.500  0.582385  49.0203  27.381  13.3902
  12884.411  12884.370  0.500  0.580514  48.9918  27.4163  13.4136
  12887.336  12887.320  0.500  0.578752  48.9507  27.4416  13.4393
  12890.321  12890.290  0.500  0.576959  48.9164  27.4716  13.4617
  12893.278  12893.270  0.500  0.575348  48.8821  27.4966  13.4876
  12896.317  12896.280  0.500  0.573652  48.8517  27.5262  13.5128
  12899.306  12899.300  0.500  0.572133  48.7825  27.529  13.5276
  12902.362  12902.350  0.500  0.570774  48.786  27.5684  13.5612
  12905.426  12905.410  0.500  0.569365  48.7366  27.5793  13.5788
  12908.492  12908.490  0.500  0.568108  48.7037  27.5954  13.5997
  12911.611  12911.590  0.500  0.566822  48.6581  27.605  13.6159
  12914.723  12914.710  0.500  0.565954  48.3736  27.4674  13.56
  12917.874  12917.850  0.500  0.565223  48.5298  27.5762  13.6254
  12921.033  12921.000  0.500  0.564366  48.5753  27.6258  13.6611
  12924.172  12924.180  0.500  0.563509  48.5289  27.6231  13.6683
  12927.401  12927.370  0.500  0.562840  48.3119  27.5179  13.6256
  12930.601  12930.590  0.500  0.562059  48.444  27.6148  13.6797
  12933.854  12933.820  0.500  0.561501  48.4455  27.631  13.6937
  12937.095  12937.070  0.500  0.560951  48.3926  27.616  13.6902
  12940.373  12940.350  0.500  0.560434  47.9635  27.3853  13.5812
  12943.661  12943.640  0.500  0.559836  48.3499  27.6224  13.6987
  12946.950  12946.950  0.500  0.559425  48.2805  27.5941  13.6866
  12950.292  12950.270  0.500  0.558908  48.2448  27.588  13.6815
  12953.628  12953.620  0.500  0.558364  47.8858  27.3976  13.5869
  12957.025  12956.990  0.500  0.557802  48.202  27.594  13.6837
  12960.387  12960.370  0.500  0.557326  48.1351  27.5688  13.6684
  12963.795  12963.780  0.500  0.556532  48.1224  27.5834  13.6748
  12967.241  12967.200  0.500  0.556035  48.0873  27.577  13.6715
  12970.660  12970.650  0.500  0.555285  48.0543  27.5788  13.6732
  12974.132  12974.110  0.500  0.554459  47.9815  27.5598  13.6673
  12977.591  12977.590  0.500  0.553675  47.9687  27.574  13.6773
  12981.125  12981.090  0.500  0.552819  47.9356  27.5786  13.6829
  12984.625  12984.610  0.500  0.551808  47.8974  27.5845  13.6931
  12988.193  12988.150  0.500  0.550991  47.8584  27.5846  13.7017
  12991.726  12991.700  0.500  0.549667  47.7626  27.5658  13.704
  12995.305  12995.280  0.500  0.548650  47.7733  27.6001  13.7314
  12998.908  12998.880  0.500  0.547650  47.7418  27.6095  13.7499
  13002.536  13002.490  0.500  0.546329  47.6992  27.6212  13.768
  13006.150  13006.120  0.500  0.545069  47.6661  27.6369  13.7904
  13009.796  13009.780  0.500  0.543749  47.6256  27.6499  13.8079
  13013.482  13013.450  0.500  0.542551  47.5985  27.6673  13.8337
  13017.169  13017.140  0.500  0.541120  47.5459  27.6763  13.8476
  13020.888  13020.850  0.500  0.539784  47.5167  27.6963  13.8709
  13024.587  13024.580  0.500  0.538484  47.4672  27.7034  13.885
  13028.355  13028.320  0.500  0.537076  47.4237  27.717  13.9002
  13032.103  13032.090  0.500  0.535657  47.3831  27.7326  13.9159
  13035.912  13035.880  0.500  0.534442  47.341  27.7416  13.9285
  13039.708  13039.680  0.500  0.533094  47.3056  27.7583  13.9421
  13043.544  13043.510  0.500  0.531724  47.261  27.7701  13.9548
  13047.368  13047.350  0.500  0.530499  47.2125  27.7757  13.9598
  13051.253  13051.210  0.500  0.529072  47.1681  27.7892  13.9719
  13055.111  13055.090  0.500  0.527879  47.1356  27.8032  13.9808
  13059.015  13058.990  0.500  0.526608  47.0908  27.8121  13.9877
  13062.945  13062.910  0.500  0.525243  47.0493  27.8255  13.9971
  13066.869  13066.850  0.500  0.524162  47.0085  27.8314  14.0047
  13070.841  13070.810  0.500  0.522770  46.9395  27.8293  14.006
  13074.800  13074.780  0.500  0.521570  46.9147  27.848  14.0184
  13078.783  13078.780  0.500  0.520424  46.8714  27.8542  14.0271
  13082.807  13082.790  0.500  0.519260  46.8392  27.8675  14.037
  13086.863  13086.830  0.500  0.518130  46.7917  27.8707  14.0445
  13090.877  13090.880  0.500  0.517049  46.7573  27.8803  14.0568
  13094.975  13094.950  0.500  0.515940  46.6695  27.8589  14.0542
  13099.046  13099.040  0.500  0.514890  46.6699  27.8884  14.0773
  13103.165  13103.150  0.500  0.513753  46.611  27.8848  14.0837
  13107.278  13107.280  0.500  0.512646  46.5433  27.8752  14.0877
  13111.447  13111.430  0.500  0.511428  46.5336  27.9034  14.112
  13115.619  13115.590  0.500  0.510447  46.4855  27.9019  14.1232
  13119.808  13119.780  0.500  0.509316  46.426  27.8977  14.1311
  13123.985  13123.980  0.500  0.508163  46.3975  27.9127  14.1507
  13128.225  13128.210  0.500  0.507013  46.364  27.9246  14.1675
  13132.452  13132.450  0.500  0.505942  46.2842  27.9064  14.1704
  13136.735  13136.710  0.500  0.504728  46.2624  27.9272  14.1912
  13140.991  13140.990  0.500  0.503541  46.2197  27.9346  14.2055
  13145.302  13145.290  0.500  0.502455  46.1766  27.9389  14.2206
  13149.608  13149.610  0.500  0.501147  46.1295  27.9469  14.2328
  13153.986  13153.950  0.500  0.500072  46.0814  27.9478  14.2413
  13158.306  13158.310  0.500  0.498827  46.0308  27.9519  14.2528
  13162.711  13162.690  0.500  0.497496  45.9903  27.9645  14.2664
  13167.082  13167.080  0.500  0.496334  45.9328  27.962  14.2712
  13171.524  13171.500  0.500  0.495088  45.8971  27.9751  14.286
  13175.939  13175.930  0.500  0.493854  45.8417  27.9758  14.294
  13180.418  13180.380  0.500  0.492621  45.8028  27.9866  14.3033
  13184.861  13184.850  0.500  0.491129  45.9251  28.1032  14.3666
  13189.384  13189.340  0.500  0.489920  45.8744  28.1061  14.3749
  13193.879  13193.850  0.500  0.488576  45.8225  28.1121  14.3816
  13198.400  13198.380  0.500  0.487285  45.7769  28.1204  14.392
  13202.932  13202.930  0.500  0.486075  45.7384  28.1307  14.4048
  13207.513  13207.500  0.500  0.484642  45.6751  28.1321  14.4119
  13212.105  13212.080  0.500  0.483481  45.6261  28.1346  14.4216
  13216.722  13216.690  0.500  0.482106  45.5719  28.1398  14.4317
  13221.336  13221.310  0.500  0.480766  45.5189  28.1448  14.4389
  13225.968  13225.960  0.500  0.479519  45.4207  28.1191  14.4349
  13230.656  13230.620  0.500  0.478176  45.4197  28.1563  14.4643
  13235.295  13235.300  0.500  0.476821  45.3642  28.16  14.4759
  13240.028  13240.000  0.500  0.475535  45.3114  28.1634  14.4884
  13244.742  13244.720  0.500  0.474225  45.2523  28.1635  14.4952
  13249.483  13249.460  0.500  0.472892  45.1899  28.1622  14.505
  13254.219  13254.210  0.500  0.471712  45.1244  28.1546  14.5134
  13259.027  13258.990  0.500  0.470471  45.0549  28.1462  14.5199
  13263.794  13263.790  0.500  0.469118  44.9658  28.1285  14.5213
  13268.625  13268.600  0.500  0.467806  44.8315  28.0813  14.5067
  13273.444  13273.430  0.500  0.466520  44.4665  27.8885  14.4161
  13278.313  13278.290  0.500  0.465185  44.2815  27.8096  14.3868
  13283.170  13283.160  0.500  0.463864  44.2497  27.8264  14.4039
  13288.085  13288.050  0.500  0.462694  44.1122  27.7724  14.3868
  13292.964  13292.960  0.500  0.461451  44.0811  27.7873  14.4037
  13297.917  13297.890  0.500  0.460161  44.0509  27.8042  14.4202
  13302.835  13302.830  0.500  0.458836  43.9452  27.7742  14.4125
  13307.842  13307.800  0.500  0.457662  43.9356  27.8008  14.436
  13312.814  13312.790  0.500  0.456369  43.907  27.8186  14.4514
  13317.805  13317.790  0.500  0.455001  43.8679  27.8319  14.4674
  13322.831  13322.820  0.500  0.453665  43.7922  27.821  14.4691
  13327.891  13327.860  0.500  0.452419  43.7129  27.8052  14.4679
  13332.948  13332.920  0.500  0.451086  43.6834  27.8235  14.4838
  13338.032  13338.000  0.500  0.449795  43.6562  27.8421  14.5024
  13343.112  13343.100  0.500  0.448602  43.6211  27.8529  14.515
  13348.274  13348.220  0.500  0.447182  43.5872  27.8709  14.5304
  13353.362  13353.360  0.500  0.445885  43.5405  27.8771  14.5405
  13358.446  13358.520  0.500  0.444592  43.4801  27.8745  14.5502
  13363.831  13363.700  0.500  0.443252  43.4423  27.8876  14.5656
  13368.985  13368.890  0.500  0.441872  43.3648  27.8763  14.5665
  13374.183  13374.110  0.500  0.440736  43.312  27.874  14.5771
  13379.330  13379.340  0.500  0.439517  43.265  27.8777  14.5897
  13384.583  13384.590  0.500  0.438074  43.2152  27.8858  14.602
  13389.871  13389.860  0.500  0.436704  43.1641  27.8911  14.6131
  13395.156  13395.150  0.500  0.435312  43.1133  27.897  14.6272
  13400.484  13400.460  0.500  0.433949  43.0599  27.9005  14.6401
  13405.793  13405.790  0.500  0.432708  43.0052  27.8996  14.6481
  13411.145  13411.140  0.500  0.431341  42.9779  27.92  14.6687
  13416.541  13416.510  0.500  0.429958  42.9296  27.9272  14.6813
  13421.894  13421.890  0.500  0.428633  42.8731  27.9275  14.6934
  13427.315  13427.300  0.500  0.427258  42.7971  27.9163  14.698
  13432.747  13432.720  0.500  0.426033  42.7499  27.9198  14.7082
  13438.193  13438.170  0.500  0.424752  42.693  27.9183  14.7188
  13443.650  13443.630  0.500  0.423407  42.6391  27.9206  14.7307
  13449.143  13449.110  0.500  0.422056  42.5723  27.9145  14.7348
  13454.634  13454.610  0.500  0.420764  42.5295  27.9225  14.7501
  13460.152  13460.130  0.500  0.419433  42.4717  27.9217  14.7591
  13465.691  13465.670  0.500  0.418100  42.4147  27.9215  14.7671
  13471.226  13471.220  0.500  0.416812  42.3126  27.8901  14.7591
  13476.814  13476.800  0.500  0.415381  42.2966  27.9195  14.7832
  13482.414  13482.400  0.500  0.414168  41.9487  27.7235  14.6871
  13488.019  13488.010  0.500  0.412856  42.2315  27.947  14.8134
  13493.661  13493.650  0.500  0.411580  42.1404  27.9223  14.8093
  13499.299  13499.300  0.500  0.410244  42.1  27.9329  14.8255
  13504.958  13504.970  0.500  0.408896  42.0519  27.9386  14.8369
  13510.686  13510.660  0.500  0.407373  41.9899  27.9399  14.844