File: xdidata/Se/Se-K-SeleniumMetal.xdi
# XDI/1.0 BlueSky/1.10.0 BMM/2023-1.0-py310-tiled
# Beamline.name: BMM (06BM) -- Beamline for Materials Measurement (NIST)
# Beamline.xray_source: NSLS-II three-pole wiggler
# Beamline.collimation: paraboloid mirror, 5 nm Rh on 30 nm Pt
# Beamline.focusing: not in use
# Beamline.harmonic_rejection: flat mirror, Pt stripe, pitch = 7.0 mrad relative to beam
# Beamline.software: Bluesky 1.10.0, Ophyd 1.7.0, DataBroker 2.0.0b13, Python 3.10.8, 2023-1.0-py310-tiled
# Detector.I0: 10 cm N2
# Detector.I1: 25 cm N2
# Detector.I2: 25 cm N2
# Element.symbol: Se
# Element.edge: K
# Element.reference: Se
# Element.reference_material: Se metal powder
# Facility.name: NSLS-II
# Facility.energy: 3.0
# Facility.current: 400.1
# Facility.mode: top-off
# Facility.GUP: 301027
# Facility.SAF: 310583
# Facility.cycle: 2023-2
# Mono.name: Si(111)
# Mono.d_spacing: 3.13519
# Mono.encoder_resolution: 0.0000050 deg/ct
# Mono.angle_offset: 16.0754 deg
# Mono.scan_mode: pseudo channel cut
# Mono.scan_type: step
# Mono.direction: forward in energy
# Sample.name: Se metal powder
# Sample.prep: PEG pellet
# Sample.x: 109.138 mm
# Sample.y: 153.150 mm
# Sample.SDD_position: 205.000 mm
# Scan.experimenters: Bruce Ravel
# Scan.edge_energy: 12657.8
# Scan.start_time: 2023-05-28T20:02:13
# Scan.end_time: 2023-05-28T20:10:13
# Scan.transient_id: 78973
# Scan.uid: 5adf3c73-f196-4040-a5ad-152d084f3e95
# Scan.plot_hint: ln(It/Ir)  --  ln($6/$7)
# Column.1: energy eV
# Column.2: requested_energy eV
# Column.3: measurement_time seconds
# Column.4: xmu
# Column.5: I0 nA
# Column.6: It nA
# Column.7: Ir nA
# ///////////
# sample courtesy Martin Stennett, University of Sheffield
# -----------
# energy  requested_energy  measurement_time  xmu  I0  It  Ir
  12457.799  12457.800  0.500  0.449711  54.2546  93.4733  59.6185
  12467.850  12467.800  0.500  0.448663  54.0926  93.219  59.5185
  12477.863  12477.800  0.500  0.447701  54.0022  93.0877  59.492
  12487.906  12487.800  0.500  0.446697  53.7726  92.7279  59.3215
  12497.856  12497.800  0.500  0.445801  53.7683  92.7489  59.3882
  12507.863  12507.800  0.500  0.444777  53.6461  92.5601  59.328
  12517.880  12517.800  0.500  0.443848  53.5204  92.3727  59.2629
  12527.762  12527.800  0.500  0.442887  53.3733  92.1478  59.1754
  12537.777  12537.800  0.500  0.441892  53.2293  91.926  59.0918
  12547.794  12547.800  0.500  0.441036  53.1471  91.8136  59.07
  12557.780  12557.800  0.500  0.440111  53.0136  91.606  58.991
  12567.802  12567.800  0.500  0.439308  52.8919  91.4253  58.922
  12577.819  12577.800  0.500  0.438477  52.7551  91.2142  58.8348
  12587.798  12587.800  0.500  0.437788  52.6436  91.0537  58.7718
  12597.820  12597.800  0.500  0.437178  52.5165  90.8528  58.6779
  12607.817  12607.800  0.500  0.436763  52.3949  90.6651  58.5809
  12617.823  12617.800  0.500  0.436645  52.272  90.4803  58.4684
  12627.838  12627.800  0.500  0.437384  52.082  90.1754  58.2284
  12629.771  12629.800  0.500  0.437767  52.1241  90.2543  58.257
  12631.753  12631.800  0.500  0.438255  52.1035  90.2261  58.2104
  12633.763  12633.800  0.500  0.438712  52.0163  90.0868  58.0939
  12635.747  12635.800  0.500  0.439448  52.0472  90.1443  58.0883
  12637.765  12637.800  0.500  0.440381  52.0274  90.1137  58.0144
  12639.778  12639.800  0.500  0.441670  52.0017  90.0766  57.9158
  12641.777  12641.800  0.500  0.443221  51.913  89.9322  57.7333
  12643.755  12643.800  0.500  0.445552  51.9523  89.9968  57.6403
  12645.763  12645.800  0.500  0.448727  51.9275  89.9514  57.4286
  12647.757  12647.800  0.500  0.453613  51.8998  89.9217  57.1298
  12648.043  12648.100  0.500  0.454513  51.8845  89.8999  57.0646
  12648.342  12648.400  0.500  0.455440  51.8845  89.8892  57.005
  12648.642  12648.700  0.500  0.456478  51.8694  89.8699  56.9335
  12648.942  12649.000  0.500  0.457685  51.8681  89.8658  56.8623
  12649.242  12649.300  0.500  0.458906  51.8639  89.8574  56.7876
  12649.556  12649.600  0.500  0.460435  51.8588  89.8521  56.6975
  12649.842  12649.900  0.500  0.461786  51.8563  89.8448  56.6164
  12650.149  12650.200  0.500  0.463511  51.8502  89.8409  56.5163
  12650.463  12650.500  0.500  0.465301  51.8543  89.8452  56.4179
  12650.763  12650.800  0.500  0.467441  51.8486  89.8372  56.2923
  12651.056  12651.100  0.500  0.469552  51.8479  89.8278  56.1678
  12651.370  12651.400  0.500  0.472064  51.8405  89.8153  56.0191
  12651.663  12651.700  0.500  0.474807  51.837  89.8151  55.8654
  12651.970  12652.000  0.500  0.477865  51.838  89.8209  55.6985
  12652.263  12652.300  0.500  0.481210  51.8267  89.7968  55.4976
  12652.577  12652.600  0.500  0.484978  51.8232  89.7904  55.2849
  12652.877  12652.900  0.500  0.489408  51.8119  89.784  55.0366
  12653.170  12653.200  0.500  0.494135  51.8081  89.7735  54.7707
  12653.477  12653.500  0.500  0.499537  51.8099  89.7804  54.4798
  12653.777  12653.800  0.500  0.505840  51.8083  89.7779  54.1359
  12654.071  12654.100  0.500  0.513042  51.7926  89.749  53.7302
  12654.357  12654.400  0.500  0.520947  51.7955  89.7509  53.3082
  12654.678  12654.700  0.500  0.531132  51.7887  89.737  52.7599
  12654.978  12655.000  0.500  0.543391  51.7869  89.7316  52.1139
  12655.271  12655.300  0.500  0.556789  51.7777  89.7159  51.4113
  12655.564  12655.600  0.500  0.573206  51.7764  89.7292  50.5817
  12655.879  12655.900  0.500  0.594575  51.7688  89.7167  49.5054
  12656.158  12656.200  0.500  0.617086  51.7642  89.7022  48.3956
  12656.465  12656.500  0.500  0.646395  51.7603  89.6899  46.9913
  12656.772  12656.800  0.500  0.682953  51.7552  89.6849  45.3019
  12657.066  12657.100  0.500  0.720877  51.8363  89.8399  43.6914
  12657.359  12657.400  0.500  0.767172  51.9025  89.9553  41.7684
  12657.666  12657.700  0.500  0.816541  51.9057  89.954  39.7559
  12657.974  12658.000  0.500  0.864566  51.9037  89.9607  37.8945
  12658.295  12658.300  0.500  0.913879  51.899  89.9551  36.0689
  12658.581  12658.600  0.500  0.950794  51.8978  89.9525  34.7607
  12658.875  12658.900  0.500  0.977083  51.8961  89.9471  33.8568
  12659.189  12659.200  0.500  0.990807  51.8896  89.9445  33.3943
  12659.490  12659.500  0.500  0.990262  51.8908  89.941  33.4112
  12659.804  12659.800  0.500  0.977033  51.8861  89.9285  33.8514
  12660.083  12660.100  0.500  0.957789  51.8816  89.9294  34.5096
  12660.384  12660.400  0.500  0.931330  51.8796  89.9288  35.4346
  12660.691  12660.700  0.500  0.902757  51.8729  89.9158  36.4564
  12660.985  12661.000  0.500  0.873270  51.8622  89.8917  37.5373
  12661.306  12661.300  0.500  0.843850  51.8639  89.902  38.6625
  12661.600  12661.600  0.500  0.817827  51.851  89.8771  39.6708
  12661.907  12661.900  0.500  0.793346  51.855  89.8804  40.6555
  12662.187  12662.200  0.500  0.773648  51.8489  89.8755  41.462
  12662.501  12662.500  0.500  0.755352  51.8445  89.8637  42.222
  12662.795  12662.800  0.500  0.742995  51.8431  89.8572  42.7439
  12663.088  12663.100  0.500  0.735062  51.8244  89.8405  43.0763
  12663.389  12663.400  0.500  0.731021  51.8253  89.839  43.25
  12663.669  12663.700  0.500  0.730645  51.8177  89.8282  43.2611
  12663.997  12664.000  0.500  0.733727  51.8193  89.8201  43.1241
  12664.277  12664.300  0.500  0.738324  51.8081  89.8107  42.9218
  12664.585  12664.600  0.500  0.744510  51.8036  89.7948  42.6496
  12664.871  12664.900  0.500  0.751056  51.8064  89.8087  42.3778
  12665.186  12665.200  0.500  0.757886  51.797  89.7909  42.0811
  12665.480  12665.500  0.500  0.763667  51.7911  89.7771  41.8321
  12665.794  12665.800  0.500  0.769447  51.7861  89.7763  41.5906
  12666.088  12666.100  0.500  0.773925  51.7816  89.7515  41.3933
  12666.396  12666.400  0.500  0.777486  51.774  89.759  41.2496
  12666.710  12666.700  0.500  0.780177  51.7696  89.7514  41.1353
  12666.997  12667.000  0.500  0.782014  51.7662  89.7437  41.0563
  12667.319  12667.300  0.500  0.782927  51.7598  89.7299  41.0125
  12667.606  12667.600  0.500  0.783343  51.7506  89.7274  40.9943
  12667.914  12667.900  0.500  0.783249  51.7562  89.7285  40.9987
  12668.200  12668.200  0.500  0.782891  51.7449  89.7063  41.0032
  12668.501  12668.500  0.500  0.782681  51.7325  89.6939  41.0061
  12668.802  12668.800  0.500  0.782276  51.7354  89.6885  41.0203
  12669.096  12669.100  0.500  0.782096  51.7283  89.677  41.0224
  12669.411  12669.400  0.500  0.781885  51.7265  89.6694  41.0276
  12669.698  12669.700  0.500  0.781860  51.7249  89.6729  41.0302
  12670.006  12670.000  0.500  0.782062  51.7128  89.6594  41.0158
  12670.286  12670.300  0.500  0.782200  51.709  89.6543  41.0078
  12670.601  12670.600  0.500  0.782556  51.7064  89.6415  40.9873
  12670.887  12670.900  0.500  0.782868  51.7009  89.6385  40.9731
  12671.181  12671.200  0.500  0.783195  51.6957  89.6309  40.9563
  12671.475  12671.500  0.500  0.783408  51.6972  89.6274  40.9459
  12671.790  12671.800  0.500  0.783518  51.6901  89.6125  40.9347
  12672.091  12672.100  0.500  0.783629  51.6853  89.6179  40.9326
  12672.378  12672.400  0.500  0.783602  51.6779  89.5959  40.9236
  12672.679  12672.700  0.500  0.783539  51.6726  89.5911  40.924
  12672.988  12673.000  0.500  0.783305  51.6699  89.5895  40.9329
  12673.310  12673.300  0.500  0.782794  51.6636  89.5771  40.9481
  12673.583  12673.600  0.500  0.782223  51.6601  89.5742  40.9702
  12673.905  12673.900  0.500  0.781528  51.6603  89.5777  41.0002
  12674.206  12674.200  0.500  0.780686  51.6448  89.5504  41.0223
  12674.507  12674.500  0.500  0.779813  51.6482  89.556  41.0607
  12674.815  12674.800  0.500  0.778719  51.6386  89.544  41.1001
  12675.095  12675.100  0.500  0.777855  51.6398  89.5382  41.133
  12675.410  12675.400  0.500  0.776796  51.6285  89.5247  41.1703
  12675.698  12675.700  0.500  0.775809  51.6193  89.5136  41.2059
  12676.013  12676.000  0.500  0.774858  51.6179  89.5068  41.242
  12676.300  12676.300  0.500  0.774120  51.615  89.5027  41.2706
  12676.601  12676.600  0.500  0.773310  51.6076  89.4891  41.2977
  12676.909  12676.900  0.500  0.772653  51.6009  89.4796  41.3205
  12677.190  12677.200  0.500  0.772070  51.598  89.4709  41.3405
  12677.505  12677.500  0.500  0.771509  51.5928  89.4722  41.3643
  12677.785  12677.800  0.500  0.770992  51.5842  89.4545  41.3775
  12678.108  12678.100  0.500  0.770684  51.5835  89.4583  41.392
  12678.374  12678.400  0.500  0.770281  51.5886  89.4582  41.4087
  12678.703  12678.700  0.500  0.769909  51.5732  89.4414  41.4163
  12678.984  12679.000  0.500  0.769624  51.576  89.4419  41.4283
  12679.278  12679.300  0.500  0.769420  51.5703  89.434  41.4331
  12679.579  12679.600  0.500  0.769167  51.5577  89.4135  41.4341
  12679.888  12679.900  0.500  0.769058  51.5576  89.4099  41.437
  12680.189  12680.200  0.500  0.768997  51.5538  89.4013  41.4355
  12680.490  12680.500  0.500  0.768814  51.5429  89.3861  41.436
  12680.813  12680.800  0.500  0.768787  51.5407  89.3792  41.434
  12681.079  12681.100  0.500  0.768850  51.5367  89.3812  41.4323
  12681.409  12681.400  0.500  0.768826  51.5286  89.3648  41.4257
  12681.703  12681.700  0.500  0.768842  51.5291  89.359  41.4223
  12682.005  12682.000  0.500  0.768851  51.5212  89.3573  41.4212
  12682.299  12682.300  0.500  0.768928  51.5288  89.3631  41.4206
  12682.594  12682.600  0.500  0.769028  51.5187  89.3521  41.4114
  12682.811  12682.800  0.500  0.769034  51.5081  89.339  41.4051
  12683.786  12683.790  0.500  0.769106  51.495  89.3104  41.3889
  12684.768  12684.790  0.500  0.769056  51.4814  89.2956  41.3841
  12685.862  12685.810  0.500  0.769003  51.4575  89.2569  41.3684
  12686.851  12686.860  0.500  0.768954  51.4471  89.2324  41.359
  12687.869  12687.920  0.500  0.769002  51.4241  89.1983  41.3412
  12689.048  12689.000  0.500  0.769002  51.4156  89.1858  41.3354
  12690.157  12690.100  0.500  0.769053  51.4032  89.1725  41.3272
  12691.267  12691.220  0.500  0.768991  51.3867  89.1482  41.3184
  12692.418  12692.360  0.500  0.769042  51.3744  89.125  41.3056
  12693.570  12693.510  0.500  0.769216  51.3578  89.1077  41.2904
  12694.750  12694.690  0.500  0.769645  51.3485  89.0834  41.2614
  12695.938  12695.880  0.500  0.770000  51.3356  89.0675  41.2394
  12697.154  12697.100  0.500  0.770600  51.3164  89.0381  41.2011
  12698.377  12698.330  0.500  0.770979  51.3005  89.0057  41.1705
  12699.635  12699.580  0.500  0.771236  51.2814  88.9848  41.1502
  12700.887  12700.850  0.500  0.771298  51.2646  88.9611  41.1367
  12702.167  12702.140  0.500  0.770993  51.258  88.9495  41.1439
  12703.475  12703.450  0.500  0.770311  51.2338  88.9167  41.1568
  12704.819  12704.780  0.500  0.768940  51.2202  88.8947  41.2031
  12706.156  12706.130  0.500  0.767340  51.205  88.8613  41.2535
  12707.522  12707.500  0.500  0.765602  51.1818  88.8301  41.3108
  12708.916  12708.880  0.500  0.764146  51.1612  88.7917  41.3531
  12710.318  12710.290  0.500  0.763095  51.1475  88.771  41.3869
  12711.740  12711.710  0.500  0.762600  51.1307  88.7492  41.3972
  12713.185  12713.150  0.500  0.762304  51.1095  88.7182  41.395
  12714.644  12714.610  0.500  0.762203  51.0945  88.6901  41.3861
  12716.103  12716.090  0.500  0.762126  51.0727  88.66  41.3753
  12717.604  12717.590  0.500  0.762135  51.0524  88.6295  41.3607
  12719.114  12719.110  0.500  0.762092  51.0347  88.5994  41.3483
  12720.680  12720.650  0.500  0.761938  51.0122  88.568  41.3401
  12722.260  12722.210  0.500  0.761653  50.9923  88.5332  41.3357
  12723.791  12723.780  0.500  0.761358  50.9718  88.4961  41.3305
  12725.401  12725.380  0.500  0.761101  50.9512  88.4761  41.3318
  12727.018  12726.990  0.500  0.761064  50.9319  88.4327  41.313
  12728.642  12728.630  0.500  0.760979  50.9106  88.4117  41.3067
  12730.288  12730.280  0.500  0.760886  50.8847  88.3723  41.2922
  12731.963  12731.950  0.500  0.760971  50.8616  88.334  41.2707
  12733.646  12733.640  0.500  0.761160  50.8238  88.2783  41.2369
  12735.378  12735.350  0.500  0.761623  50.7527  88.1524  41.1591
  12737.118  12737.080  0.500  0.762129  50.1223  87.067  40.6318
  12738.858  12738.830  0.500  0.762060  50.4719  87.6756  40.9186
  12740.613  12740.590  0.500  0.762088  50.7618  88.184  41.1547
  12742.396  12742.380  0.500  0.761847  50.7454  88.1626  41.1546
  12744.188  12744.180  0.500  0.761533  50.7256  88.124  41.1495
  12746.029  12746.010  0.500  0.761043  50.6966  88.0849  41.1514
  12747.850  12747.850  0.500  0.760538  50.6747  88.0489  41.1554
  12749.749  12749.710  0.500  0.759729  50.6445  88.0048  41.168
  12751.599  12751.590  0.500  0.759043  50.6276  87.9804  41.1849
  12753.506  12753.490  0.500  0.758116  50.607  87.9407  41.2045
  12755.428  12755.410  0.500  0.757131  50.5812  87.9025  41.2271
  12757.358  12757.350  0.500  0.756129  50.558  87.8644  41.2506
  12759.317  12759.310  0.500  0.755233  50.53  87.8209  41.2672
  12761.262  12761.280  0.500  0.754541  50.506  87.7871  41.2798
  12763.300  12763.280  0.500  0.754060  50.4797  87.7452  41.28
  12765.318  12765.290  0.500  0.753784  50.4573  87.7049  41.2724
  12767.336  12767.320  0.500  0.753530  50.4336  87.6619  41.2626
  12769.398  12769.380  0.500  0.753564  50.4072  87.6261  41.2444
  12771.438  12771.450  0.500  0.753389  50.3825  87.582  41.2308
  12773.537  12773.540  0.500  0.753506  50.3559  87.5536  41.2126
  12775.664  12775.650  0.500  0.753483  50.3258  87.5108  41.1935
  12777.785  12777.780  0.500  0.753348  50.2996  87.4607  41.1754
  12779.936  12779.920  0.500  0.753489  50.2757  87.426  41.1533
  12782.108  12782.090  0.500  0.753619  50.3264  87.5203  41.1923
  12784.274  12784.280  0.500  0.753812  50.3674  87.6035  41.2235
  12786.484  12786.480  0.500  0.754277  50.3501  87.5726  41.1898
  12788.715  12788.700  0.500  0.754607  50.3269  87.5303  41.1564
  12790.955  12790.950  0.500  0.755166  50.3078  87.4979  41.1181
  12793.210  12793.210  0.500  0.755469  50.2764  87.4557  41.0858
  12795.487  12795.490  0.500  0.755861  50.2537  87.4192  41.0526
  12797.779  12797.790  0.500  0.756120  50.2235  87.3794  41.0233
  12800.129  12800.110  0.500  0.756157  50.1933  87.3334  41.0002
  12802.473  12802.450  0.500  0.755980  50.17  87.2917  40.9879
  12804.796  12804.800  0.500  0.755550  50.1357  87.2365  40.9796
  12807.163  12807.180  0.500  0.755089  50.1116  87.2014  40.9819
  12809.588  12809.570  0.500  0.754365  50.0784  87.1546  40.9896
  12811.999  12811.990  0.500  0.753481  50.0493  87.1113  41.0055
  12814.434  12814.420  0.500  0.752240  50.0267  87.072  41.0379
  12816.876  12816.870  0.500  0.750850  49.9915  87.023  41.0718
  12819.333  12819.350  0.500  0.749519  49.9639  86.9744  41.1036
  12821.835  12821.840  0.500  0.748056  49.935  86.9194  41.1377
  12824.380  12824.350  0.500  0.746596  49.9025  86.8687  41.1738
  12826.898  12826.870  0.500  0.745424  49.821  86.739  41.1605
  12829.424  12829.420  0.500  0.744252  49.844  86.7803  41.2284
  12831.994  12831.990  0.500  0.743450  49.8099  86.7305  41.2378
  12834.565  12834.570  0.500  0.742676  49.7612  86.6531  41.2329
  12837.216  12837.180  0.500  0.742056  49.7435  86.6256  41.2454
  12839.796  12839.800  0.500  0.741885  49.703  86.5693  41.2257
  12842.464  12842.450  0.500  0.741752  49.6739  86.5315  41.2131
  12845.126  12845.110  0.500  0.741630  49.6439  86.4861  41.1965
  12847.825  12847.790  0.500  0.741693  49.5981  86.4069  41.1562
  12850.496  12850.490  0.500  0.741910  49.5522  86.3321  41.1117
  12853.211  12853.210  0.500  0.742082  49.5413  86.3173  41.0975
  12855.971  12855.950  0.500  0.742590  49.5081  86.2659  41.0522
  12858.711  12858.700  0.500  0.743026  49.4835  86.2277  41.0161
  12861.487  12861.480  0.500  0.743542  49.4511  86.1725  40.9687
  12864.272  12864.270  0.500  0.744018  49.4151  86.1221  40.9253
  12867.102  12867.090  0.500  0.744465  49.3803  86.0677  40.8811
  12869.933  12869.920  0.500  0.744725  49.34  86.0026  40.8396
  12872.794  12872.770  0.500  0.744864  49.2936  85.9253  40.7972
  12875.642  12875.650  0.500  0.744816  49.2251  85.8171  40.7478
  12878.549  12878.540  0.500  0.744693  49.1913  85.7724  40.7316
  12881.472  12881.450  0.500  0.744304  49.2115  85.81  40.7653
  12884.389  12884.370  0.500  0.743741  49.1729  85.7487  40.7591
  12887.322  12887.320  0.500  0.743131  49.136  85.6952  40.7586
  12890.299  12890.290  0.500  0.742298  49.1005  85.6345  40.7636
  12893.278  12893.270  0.500  0.741389  49.0666  85.5739  40.7718
  12896.302  12896.280  0.500  0.740460  49.0268  85.5173  40.7827
  12899.299  12899.300  0.500  0.739464  48.9545  85.4046  40.7696
  12902.362  12902.350  0.500  0.738459  48.954  85.4104  40.8133
  12905.434  12905.410  0.500  0.737457  48.9172  85.3429  40.822
  12908.500  12908.490  0.500  0.736511  48.8739  85.2729  40.8271
  12911.574  12911.590  0.500  0.735597  48.8261  85.2035  40.8311
  12914.731  12914.710  0.500  0.734773  48.5333  84.6947  40.6208
  12917.874  12917.850  0.500  0.733859  48.6892  84.9767  40.7933
  12921.012  12921.000  0.500  0.733161  48.7357  85.0641  40.8638
  12924.180  12924.180  0.500  0.732421  48.6883  84.9785  40.8529
  12927.401  12927.370  0.500  0.731778  48.473  84.6194  40.7064
  12930.616  12930.590  0.500  0.731242  48.5868  84.8273  40.8283
  12933.818  12933.820  0.500  0.730863  48.5865  84.8272  40.8437
  12937.066  12937.070  0.500  0.730426  48.5279  84.7355  40.8174
  12940.359  12940.350  0.500  0.730198  48.1169  84.0228  40.4833
  12943.631  12943.640  0.500  0.730059  48.469  84.6428  40.7877
  12946.972  12946.950  0.500  0.729904  48.4035  84.5321  40.7407
  12950.292  12950.270  0.500  0.729844  48.3649  84.4707  40.7136
  12953.650  12953.620  0.500  0.729961  47.9556  83.7717  40.3719
  12957.003  12956.990  0.500  0.729989  48.3144  84.4002  40.6737
  12960.387  12960.370  0.500  0.730120  48.2455  84.2906  40.6156
  12963.788  12963.780  0.500  0.730189  48.2375  84.2802  40.6077
  12967.219  12967.200  0.500  0.730164  48.1952  84.2155  40.5776
  12970.653  12970.650  0.500  0.730169  48.1511  84.1484  40.545
  12974.132  12974.110  0.500  0.730049  48.0827  84.0414  40.4983
  12977.613  12977.590  0.500  0.729738  48.0682  84.0155  40.4984
  12981.081  12981.090  0.500  0.729303  48.0326  83.9618  40.4902
  12984.632  12984.610  0.500  0.728880  47.9862  83.901  40.4779
  12988.178  12988.150  0.500  0.728087  47.9463  83.8202  40.4711
  12991.711  12991.700  0.500  0.727514  47.8375  83.6477  40.4109
  12995.290  12995.280  0.500  0.726567  47.8566  83.6875  40.4684
  12998.901  12998.880  0.500  0.725531  47.8232  83.6363  40.4856
  13002.484  13002.490  0.500  0.724585  47.783  83.5692  40.4914
  13006.150  13006.120  0.500  0.723610  47.7407  83.5071  40.5008
  13009.804  13009.780  0.500  0.722609  47.6967  83.4405  40.509
  13013.460  13013.450  0.500  0.721605  47.6508  83.3612  40.5112
  13017.162  13017.140  0.500  0.720654  47.608  83.2938  40.5169
  13020.873  13020.850  0.500  0.719785  47.5691  83.232  40.5221
  13024.602  13024.580  0.500  0.719015  47.5239  83.1675  40.5219
  13028.340  13028.320  0.500  0.718391  47.4777  83.0953  40.512
  13032.110  13032.090  0.500  0.717713  47.4306  83.0206  40.503
  13035.882  13035.880  0.500  0.717136  47.3876  82.9534  40.4936
  13039.701  13039.680  0.500  0.716780  47.3407  82.8781  40.4712
  13043.530  13043.510  0.500  0.716349  47.3004  82.813  40.4568
  13047.360  13047.350  0.500  0.716045  47.2417  82.724  40.4257
  13051.253  13051.210  0.500  0.715731  47.1891  82.6307  40.3928
  13055.133  13055.090  0.500  0.715544  47.163  82.5955  40.3831
  13059.008  13058.990  0.500  0.715334  47.1214  82.5239  40.3566
  13062.952  13062.910  0.500  0.715154  47.0667  82.4432  40.3243
  13066.869  13066.850  0.500  0.714906  47.0243  82.3785  40.3027
  13070.841  13070.810  0.500  0.714699  46.9584  82.27  40.2579
  13074.792  13074.780  0.500  0.714319  46.9187  82.214  40.2458
  13078.798  13078.780  0.500  0.713901  46.8708  82.1351  40.224
  13082.792  13082.790  0.500  0.713641  46.8342  82.0847  40.2098
  13086.870  13086.830  0.500  0.713190  46.7897  82.0093  40.191
  13090.884  13090.880  0.500  0.712697  46.7412  81.9277  40.1708
  13094.975  13094.950  0.500  0.712188  46.6461  81.7758  40.1167
  13099.076  13099.040  0.500  0.711640  46.6425  81.7785  40.1401
  13103.165  13103.150  0.500  0.710902  46.582  81.6754  40.119
  13107.301  13107.280  0.500  0.710264  46.5017  81.5481  40.0821
  13111.470  13111.430  0.500  0.709485  46.5026  81.554  40.1162
  13115.589  13115.590  0.500  0.708855  46.4468  81.4686  40.0994
  13119.816  13119.780  0.500  0.707953  46.387  81.3615  40.0829
  13124.000  13123.980  0.500  0.707266  46.3537  81.3174  40.0887
  13128.232  13128.210  0.500  0.706317  46.2995  81.2352  40.0862
  13132.497  13132.450  0.500  0.705414  46.2276  81.1121  40.0616
  13136.735  13136.710  0.500  0.704678  46.1983  81.0649  40.0678
  13141.013  13140.990  0.500  0.703864  46.1542  80.993  40.0648
  13145.347  13145.290  0.500  0.703184  46.1022  80.9156  40.0537
  13149.623  13149.610  0.500  0.702520  46.0496  80.827  40.0365
  13153.986  13153.950  0.500  0.701769  45.9956  80.7337  40.0203
  13158.328  13158.310  0.500  0.701236  45.9451  80.663  40.0066
  13162.696  13162.690  0.500  0.700583  45.8936  80.5861  39.9945
  13167.098  13167.080  0.500  0.700027  45.8353  80.4905  39.9693
  13171.524  13171.500  0.500  0.699501  45.7912  80.4251  39.9579
  13175.977  13175.930  0.500  0.699136  45.7351  80.3233  39.9218
  13180.441  13180.380  0.500  0.698779  45.6882  80.2539  39.9016
  13184.854  13184.850  0.500  0.698304  45.6334  80.1709  39.8793
  13189.376  13189.340  0.500  0.697895  45.5863  80.0911  39.8559
  13193.879  13193.850  0.500  0.697451  45.5275  79.998  39.8272
  13198.423  13198.380  0.500  0.697020  45.4673  79.9064  39.7988
  13202.955  13202.930  0.500  0.696628  45.4138  79.8149  39.7688
  13207.513  13207.500  0.500  0.696122  45.3643  79.7412  39.7522
  13212.120  13212.080  0.500  0.695601  45.2964  79.6337  39.7193
  13216.745  13216.690  0.500  0.695220  45.2479  79.5545  39.6949
  13221.343  13221.310  0.500  0.694576  45.185  79.4481  39.6673
  13225.998  13225.960  0.500  0.693982  45.0903  79.2931  39.6135
  13230.649  13230.620  0.500  0.693342  45.0714  79.2693  39.6269
  13235.341  13235.300  0.500  0.692636  45.0109  79.1752  39.6078
  13240.028  13240.000  0.500  0.691983  44.9576  79.0912  39.5917
  13244.758  13244.720  0.500  0.691288  44.8934  78.9871  39.567
  13249.513  13249.460  0.500  0.690444  44.8325  78.8804  39.547
  13254.257  13254.210  0.500  0.689705  44.7583  78.7631  39.5173
  13259.004  13258.990  0.500  0.688821  44.689  78.6403  39.4906
  13263.824  13263.790  0.500  0.688207  44.5887  78.4705  39.4296
  13268.625  13268.600  0.500  0.687398  44.4548  78.2481  39.3496
  13273.459  13273.430  0.500  0.686771  44.0712  77.586  39.0411
  13278.336  13278.290  0.500  0.685941  43.8945  77.28  38.9194
  13283.216  13283.160  0.500  0.685240  43.8574  77.227  38.92
  13288.100  13288.050  0.500  0.684557  43.7086  76.9672  38.8156
  13292.995  13292.960  0.500  0.683948  43.6867  76.9396  38.8253
  13297.933  13297.890  0.500  0.683283  43.6396  76.8678  38.8149
  13302.889  13302.830  0.500  0.682752  43.5353  76.6886  38.745
  13307.842  13307.800  0.500  0.682140  43.5199  76.6784  38.7635
  13312.829  13312.790  0.500  0.681554  43.4859  76.6263  38.7599
  13317.813  13317.790  0.500  0.681047  43.449  76.5633  38.7477
  13322.854  13322.820  0.500  0.680453  43.3674  76.423  38.6996
  13327.907  13327.860  0.500  0.679912  43.2758  76.2749  38.6455
  13332.979  13332.920  0.500  0.679372  43.2445  76.2345  38.6459
  13338.056  13338.000  0.500  0.678888  43.2085  76.1774  38.6357
  13343.143  13343.100  0.500  0.678299  43.1708  76.1201  38.6294
  13348.235  13348.220  0.500  0.677622  43.1337  76.0551  38.6225
  13353.432  13353.360  0.500  0.677133  43.0928  75.9943  38.6105
  13358.556  13358.520  0.500  0.676580  43.0149  75.872  38.5697
  13363.753  13363.700  0.500  0.676004  42.9783  75.818  38.5645
  13368.939  13368.890  0.500  0.675348  42.9063  75.6955  38.5274
  13374.152  13374.110  0.500  0.674739  42.8361  75.5834  38.4938
  13379.385  13379.340  0.500  0.674038  42.7931  75.5144  38.4856
  13384.630  13384.590  0.500  0.673305  42.7332  75.4159  38.4636
  13389.887  13389.860  0.500  0.672593  42.6806  75.3294  38.4468
  13395.203  13395.150  0.500  0.671969  42.6235  75.2457  38.4281
  13400.492  13400.460  0.500  0.671233  42.6991  75.3852  38.5277
  13405.848  13405.790  0.500  0.670500  42.6312  75.2755  38.4999
  13411.192  13411.140  0.500  0.669740  42.6147  75.2521  38.5171
  13416.549  13416.510  0.500  0.669052  42.5597  75.1667  38.4999
  13421.997  13421.890  0.500  0.668342  42.4958  75.0625  38.4739
  13427.268  13427.300  0.500  0.667640  42.4272  74.95  38.4432
  13432.716  13432.720  0.500  0.666924  42.3644  74.8442  38.4164
  13438.169  13438.170  0.500  0.666225  42.312  74.7634  38.4018
  13443.626  13443.630  0.500  0.665553  42.243  74.6535  38.3711
  13449.120  13449.110  0.500  0.664780  42.1807  74.5508  38.348
  13454.634  13454.610  0.500  0.664299  42.1314  74.4738  38.3268
  13460.168  13460.130  0.500  0.663573  42.0723  74.3788  38.3057
  13465.707  13465.670  0.500  0.662882  42.012  74.277  38.2797
  13471.250  13471.220  0.500  0.662302  41.9087  74.1098  38.2157
  13476.838  13476.800  0.500  0.661733  41.8795  74.0615  38.2125
  13482.422  13482.400  0.500  0.661101  41.5231  73.436  37.9137
  13488.051  13488.010  0.500  0.660529  41.7975  73.9342  38.1928
  13493.685  13493.650  0.500  0.659816  41.7044  73.7848  38.1428
  13499.339  13499.300  0.500  0.659315  41.6407  73.6762  38.1057
  13505.014  13504.970  0.500  0.658680  41.5999  73.6157  38.0986
  13510.670  13510.660  0.500  0.658042  41.5393  73.514  38.0703