File: xdidata/Data/Pb/Pb-L3-LeadFoil.xdi
# XDI/1.0 BlueSky/1.10.0 BMM/2023-1.0-py310-tiled
# Beamline.name: BMM (06BM) -- Beamline for Materials Measurement (NIST)
# Beamline.xray_source: NSLS-II three-pole wiggler
# Beamline.collimation: paraboloid mirror, 5 nm Rh on 30 nm Pt
# Beamline.focusing: not in use
# Beamline.harmonic_rejection: flat mirror, Pt stripe, pitch = 7.0 mrad relative to beam
# Beamline.software: Bluesky 1.10.0, Ophyd 1.7.0, DataBroker 2.0.0b13, Python 3.10.8, 2023-1.0-py310-tiled
# Detector.I0: 10 cm N2
# Detector.I1: 25 cm N2
# Detector.I2: 25 cm N2
# Element.symbol: Pb
# Element.edge: L3
# Element.reference: Pb
# Element.reference_material: Pb foil
# Facility.name: NSLS-II
# Facility.energy: 3.0
# Facility.current: 399.9
# Facility.mode: top-off
# Facility.GUP: 301027
# Facility.SAF: 310583
# Facility.cycle: 2023-2
# Mono.name: Si(111)
# Mono.d_spacing: 3.13519
# Mono.encoder_resolution: 0.0000050 deg/ct
# Mono.angle_offset: 16.0754 deg
# Mono.scan_mode: pseudo channel cut
# Mono.scan_type: step
# Mono.direction: forward in energy
# Sample.name: Pb foil
# Sample.prep: reference foil
# Sample.x: 109.138 mm
# Sample.y: 153.150 mm
# Sample.SDD_position: 205.000 mm
# Scan.experimenters: Bruce Ravel
# Scan.edge_energy: 13035.2
# Scan.start_time: 2023-05-28T20:23:31
# Scan.end_time: 2023-05-28T20:31:20
# Scan.transient_id: 78987
# Scan.uid: dbc34b1c-5c40-4b98-8fd3-b3d47b5f4ea1
# Scan.plot_hint: ln(It/Ir)  --  ln($6/$7)
# Column.1: energy eV
# Column.2: requested_energy eV
# Column.3: measurement_time seconds
# Column.4: xmu
# Column.5: I0 nA
# Column.6: It nA
# Column.7: Ir nA
# ///////////
# standard reference foil
# -----------
# energy  requested_energy  measurement_time  xmu  I0  It  Ir
  12835.176  12835.200  0.500  0.837345  48.9078  85.1599  36.8621
  12845.198  12845.200  0.500  0.835597  48.8539  85.0911  36.8968
  12855.250  12855.200  0.500  0.833726  48.7193  84.8754  36.8722
  12865.261  12865.200  0.500  0.831991  48.6269  84.7285  36.8723
  12875.288  12875.200  0.500  0.830312  48.4718  84.4841  36.8278
  12885.193  12885.200  0.500  0.828559  48.3943  84.3745  36.8445
  12895.222  12895.200  0.500  0.826850  48.2972  84.2325  36.8454
  12905.223  12905.200  0.500  0.825201  48.1788  84.0514  36.8268
  12915.218  12915.200  0.500  0.823654  47.6704  83.1874  36.5047
  12925.229  12925.200  0.500  0.821898  47.9345  83.6631  36.778
  12935.219  12935.200  0.500  0.820440  47.8621  83.551  36.7823
  12945.239  12945.200  0.500  0.818912  47.7396  83.3687  36.7582
  12955.231  12955.200  0.500  0.817623  47.3791  82.7616  36.5376
  12965.247  12965.200  0.500  0.816583  47.5475  83.07  36.7119
  12975.255  12975.200  0.500  0.815604  47.4041  82.8405  36.6463
  12985.243  12985.200  0.500  0.814991  47.3351  82.7389  36.6238
  12995.253  12995.200  0.500  0.815215  47.2056  82.5431  36.529
  13005.250  13005.200  0.500  0.816883  47.1219  82.4126  36.4105
  13007.176  13007.200  0.500  0.817518  47.0933  82.366  36.3668
  13009.176  13009.200  0.500  0.818191  47.0832  82.3406  36.3311
  13011.185  13011.200  0.500  0.819097  47.0538  82.2981  36.2794
  13013.179  13013.200  0.500  0.820322  47.0564  82.3124  36.2413
  13015.188  13015.200  0.500  0.821680  47.0066  82.2365  36.1587
  13017.169  13017.200  0.500  0.823442  46.9884  82.2053  36.0814
  13019.180  13019.200  0.500  0.825658  46.9713  82.1805  35.9907
  13021.184  13021.200  0.500  0.828344  46.9623  82.1698  35.8895
  13023.189  13023.200  0.500  0.831874  46.9193  82.1022  35.7336
  13025.179  13025.200  0.500  0.836567  46.8995  82.0652  35.5502
  13025.431  13025.500  0.500  0.837358  46.8974  82.064  35.5216
  13025.749  13025.800  0.500  0.838248  46.9038  82.0744  35.4945
  13026.045  13026.100  0.500  0.839188  46.885  82.0414  35.4469
  13026.341  13026.400  0.500  0.840143  46.8736  82.0285  35.4075
  13026.645  13026.700  0.500  0.841192  46.8713  82.0221  35.3676
  13026.948  13027.000  0.500  0.842311  46.8792  82.0402  35.3359
  13027.237  13027.300  0.500  0.843314  46.8872  82.0419  35.3012
  13027.548  13027.600  0.500  0.844478  46.881  82.0359  35.2575
  13027.874  13027.900  0.500  0.845871  46.8667  82.0106  35.1976
  13028.155  13028.200  0.500  0.847181  46.8688  82.0077  35.1503
  13028.444  13028.500  0.500  0.848482  46.8613  81.9997  35.1011
  13028.762  13028.800  0.500  0.850085  46.8495  81.9841  35.0382
  13029.066  13029.100  0.500  0.851633  46.848  81.9831  34.9836
  13029.362  13029.400  0.500  0.853408  46.8402  81.9764  34.9187
  13029.658  13029.700  0.500  0.855240  46.8302  81.9604  34.848
  13029.984  13030.000  0.500  0.857318  46.8408  81.9738  34.7814
  13030.273  13030.300  0.500  0.859438  46.8461  81.9792  34.71
  13030.554  13030.600  0.500  0.861634  46.8215  81.9419  34.6181
  13030.873  13030.900  0.500  0.864227  46.8278  81.9528  34.5331
  13031.184  13031.200  0.500  0.866987  46.8101  81.9229  34.4253
  13031.473  13031.500  0.500  0.869895  46.8146  81.932  34.3291
  13031.777  13031.800  0.500  0.872974  46.8045  81.9134  34.2158
  13032.103  13032.100  0.500  0.876666  46.8156  81.9336  34.0982
  13032.399  13032.400  0.500  0.880325  46.7914  81.8863  33.954
  13032.673  13032.700  0.500  0.884403  46.7917  81.8842  33.8149
  13033.007  13033.000  0.500  0.888953  46.7833  81.8784  33.6591
  13033.295  13033.300  0.500  0.893766  46.7839  81.8802  33.4982
  13033.584  13033.600  0.500  0.899005  46.7716  81.8553  33.313
  13033.911  13033.900  0.500  0.905051  46.776  81.8552  33.1122
  13034.192  13034.200  0.500  0.910854  46.7792  81.8617  32.9232
  13034.481  13034.500  0.500  0.917271  46.7681  81.8502  32.708
  13034.800  13034.800  0.500  0.924385  46.7662  81.8573  32.479
  13035.082  13035.100  0.500  0.931284  46.7654  81.8641  32.2583
  13035.393  13035.400  0.500  0.939196  46.7533  81.835  31.9927
  13035.704  13035.700  0.500  0.947463  46.7527  81.8309  31.7278
  13035.971  13036.000  0.500  0.955240  46.7464  81.8162  31.4763
  13036.282  13036.300  0.500  0.964024  46.7497  81.8228  31.2036
  13036.579  13036.600  0.500  0.972919  46.8749  82.0471  31.012
  13036.876  13036.900  0.500  0.981963  46.8697  82.04  30.7301
  13037.194  13037.200  0.500  0.991910  46.8757  82.0543  30.4313
  13037.476  13037.500  0.500  1.000625  46.8973  82.0837  30.1781
  13037.780  13037.800  0.500  1.010351  46.8671  82.0377  29.8692
  13038.077  13038.100  0.500  1.019890  46.8725  82.0407  29.5867
  13038.373  13038.400  0.500  1.029931  46.8666  82.0407  29.2911
  13038.700  13038.700  0.500  1.040495  46.8584  82.0251  28.9778
  13038.974  13039.000  0.500  1.050074  46.8595  82.0249  28.7015
  13039.286  13039.300  0.500  1.060912  46.871  82.042  28.398
  13039.575  13039.600  0.500  1.071637  46.8554  82.0216  28.0881
  13039.894  13039.900  0.500  1.083707  46.8516  82.0178  27.7498
  13040.205  13040.200  0.500  1.095602  46.8435  82.0018  27.4163
  13040.495  13040.500  0.500  1.107885  46.8425  82.0041  27.0824
  13040.821  13040.800  0.500  1.121090  46.8392  81.9879  26.7218
  13041.088  13041.100  0.500  1.133647  46.8443  82.0048  26.3938
  13041.430  13041.400  0.500  1.148811  46.8355  81.9929  25.9929
  13041.697  13041.700  0.500  1.162477  46.8285  81.9758  25.6347
  13042.001  13042.000  0.500  1.177449  46.8238  81.9685  25.2515
  13042.305  13042.300  0.500  1.192308  46.8252  81.9762  24.8814
  13042.602  13042.600  0.500  1.207854  46.8163  81.9571  24.4919
  13042.914  13042.900  0.500  1.223898  46.799  81.9297  24.094
  13043.196  13043.200  0.500  1.238350  46.7994  81.9275  23.7477
  13043.507  13043.500  0.500  1.254602  46.7952  81.9222  23.3633
  13043.789  13043.800  0.500  1.268136  46.804  81.9396  23.0542
  13044.116  13044.100  0.500  1.284039  46.7854  81.9012  22.6798
  13044.398  13044.400  0.500  1.297768  46.7881  81.916  22.3746
  13044.695  13044.700  0.500  1.311421  46.7814  81.8958  22.0657
  13044.977  13045.000  0.500  1.324512  46.7724  81.8867  21.7764
  13045.274  13045.300  0.500  1.337575  46.7683  81.881  21.4922
  13045.593  13045.600  0.500  1.350283  46.7658  81.8812  21.2209
  13045.868  13045.900  0.500  1.361365  46.7658  81.888  20.9888
  13046.195  13046.200  0.500  1.373564  46.7642  81.8727  20.7304
  13046.484  13046.500  0.500  1.383993  46.7597  81.8733  20.5155
  13046.804  13046.800  0.500  1.394988  46.7605  81.8691  20.2901
  13047.086  13047.100  0.500  1.403938  46.7586  81.8676  20.1089
  13047.405  13047.400  0.500  1.413375  46.7514  81.8556  19.9172
  13047.702  13047.700  0.500  1.421520  46.7412  81.833  19.7501
  13048.007  13048.000  0.500  1.428907  46.7146  81.7793  19.5919
  13048.311  13048.300  0.500  1.435914  46.6987  81.7681  19.4524
  13048.601  13048.600  0.500  1.441208  46.6794  81.7372  19.3424
  13048.920  13048.900  0.500  1.446501  46.6567  81.696  19.2306
  13049.202  13049.200  0.500  1.450278  46.6409  81.6668  19.1513
  13049.514  13049.500  0.500  1.453794  46.635  81.6567  19.0817
  13049.812  13049.800  0.500  1.456249  46.6408  81.6647  19.0368
  13050.109  13050.100  0.500  1.458226  46.6461  81.6797  19.0027
  13050.413  13050.400  0.500  1.459303  46.6485  81.6882  18.9842
  13050.703  13050.700  0.500  1.460205  46.652  81.6948  18.9686
  13051.008  13051.000  0.500  1.460619  46.6759  81.7423  18.9718
  13051.298  13051.300  0.500  1.460701  46.6765  81.738  18.9692
  13051.595  13051.600  0.500  1.460502  46.678  81.7439  18.9744
  13051.892  13051.900  0.500  1.460131  46.6821  81.7396  18.9804
  13052.189  13052.200  0.500  1.459428  46.6716  81.7269  18.9908
  13052.509  13052.500  0.500  1.458862  46.6761  81.7381  19.0042
  13052.791  13052.800  0.500  1.458227  46.6776  81.7368  19.0159
  13053.081  13053.100  0.500  1.457626  46.6617  81.7103  19.0212
  13053.379  13053.400  0.500  1.457025  46.6721  81.7341  19.0382
  13053.706  13053.700  0.500  1.456637  46.65  81.6856  19.0343
  13053.996  13054.000  0.500  1.456484  46.652  81.6987  19.0402
  13054.300  13054.300  0.500  1.456400  46.6516  81.6957  19.0411
  13054.598  13054.600  0.500  1.456506  46.6567  81.7087  19.0421
  13054.910  13054.900  0.500  1.456842  46.6313  81.6659  19.0258
  13055.207  13055.200  0.500  1.457377  46.6316  81.6659  19.0156
  13055.497  13055.500  0.500  1.458295  46.6264  81.6555  18.9957
  13055.825  13055.800  0.500  1.459398  46.6302  81.6587  18.9755
  13056.100  13056.100  0.500  1.460592  46.6242  81.6513  18.9512
  13056.420  13056.400  0.500  1.462261  46.6152  81.6383  18.9166
  13056.702  13056.700  0.500  1.464050  46.6142  81.6355  18.8821
  13057.007  13057.000  0.500  1.466097  46.6062  81.6245  18.841
  13057.305  13057.300  0.500  1.468561  46.6082  81.6225  18.7941
  13057.610  13057.600  0.500  1.471421  46.6218  81.6535  18.7476
  13057.922  13057.900  0.500  1.474525  46.5989  81.6135  18.6803
  13058.197  13058.200  0.500  1.477743  46.6001  81.6146  18.6205
  13058.517  13058.500  0.500  1.481506  46.5902  81.6005  18.5474
  13058.785  13058.800  0.500  1.485194  46.5832  81.5913  18.477
  13059.105  13059.100  0.500  1.489715  46.5802  81.5867  18.3926
  13059.395  13059.400  0.500  1.494068  46.5925  81.6016  18.3161
  13059.693  13059.700  0.500  1.498258  46.5922  81.5993  18.239
  13059.998  13060.000  0.500  1.502962  46.5921  81.606  18.1549
  13060.176  13060.200  0.500  1.505818  46.5704  81.5646  18.094
  13061.188  13061.190  0.500  1.520908  46.5578  81.549  17.8196
  13062.193  13062.190  0.500  1.532985  46.5467  81.5307  17.6017
  13063.228  13063.210  0.500  1.540342  46.5357  81.5055  17.4673
  13064.292  13064.260  0.500  1.542807  46.5191  81.4859  17.4201
  13065.313  13065.320  0.500  1.541492  46.5116  81.4792  17.4416
  13066.378  13066.400  0.500  1.537660  46.4956  81.4541  17.5031
  13067.495  13067.500  0.500  1.532073  46.4946  81.4482  17.5999
  13068.635  13068.620  0.500  1.525894  46.477  81.4192  17.7027
  13069.767  13069.760  0.500  1.521005  46.4579  81.3835  17.7817
  13070.938  13070.910  0.500  1.517944  46.4383  81.3633  17.8318
  13072.100  13072.090  0.500  1.517010  46.3669  81.2379  17.8209
  13073.301  13073.280  0.500  1.517316  46.3615  81.2296  17.8136
  13074.501  13074.500  0.500  1.517904  46.3875  81.2737  17.8128
  13075.732  13075.730  0.500  1.518340  46.381  81.2692  17.8041
  13076.978  13076.980  0.500  1.518380  46.3683  81.2421  17.7974
  13078.261  13078.250  0.500  1.518646  46.3457  81.2108  17.7858
  13079.545  13079.540  0.500  1.519688  46.3361  81.1936  17.7635
  13080.851  13080.850  0.500  1.521723  46.3263  81.1778  17.724
  13082.135  13082.180  0.500  1.525155  46.3055  81.1496  17.6571
  13083.501  13083.530  0.500  1.529761  46.2957  81.1377  17.5734
  13084.876  13084.900  0.500  1.534890  46.2798  81.1049  17.4764
  13086.273  13086.280  0.500  1.539627  46.2612  81.0772  17.3879
  13087.677  13087.690  0.500  1.543145  46.2465  81.0478  17.3206
  13089.090  13089.110  0.500  1.544952  46.2347  81.036  17.2868
  13090.525  13090.550  0.500  1.544451  46.2246  81.0232  17.2927
  13091.998  13092.010  0.500  1.542353  46.1854  80.9585  17.3152
  13093.943  13093.490  0.500  1.538594  46.1061  80.8243  17.3516
  13094.915  13094.990  0.500  1.535819  46.1075  80.8283  17.4007
  13096.539  13096.510  0.500  1.532642  46.1283  80.8623  17.4634
  13098.021  13098.050  0.500  1.529972  46.1131  80.8416  17.5056
  13099.645  13099.610  0.500  1.527668  46.0894  80.8072  17.5385
  13101.195  13101.180  0.500  1.525541  46.0724  80.7698  17.5677
  13102.783  13102.780  0.500  1.523547  46.044  80.7338  17.5949
  13104.408  13104.390  0.500  1.522134  46.0322  80.7151  17.6157
  13106.042  13106.030  0.500  1.521083  45.9894  80.6422  17.6183
  13107.668  13107.680  0.500  1.521017  45.9825  80.6374  17.6184
  13109.347  13109.350  0.500  1.521516  45.9972  80.654  17.6133
  13111.065  13111.040  0.500  1.522771  45.9656  80.6059  17.5807
  13112.767  13112.750  0.500  1.524681  45.9603  80.5961  17.545
  13114.493  13114.480  0.500  1.526902  45.9429  80.5702  17.5005
  13116.227  13116.230  0.500  1.528938  45.9053  80.5155  17.453
  13117.998  13117.990  0.500  1.530259  45.8235  80.3672  17.3979
  13119.770  13119.780  0.500  1.530985  45.8599  80.4391  17.4008
  13121.588  13121.580  0.500  1.530967  45.8489  80.4296  17.3991
  13123.421  13123.410  0.500  1.529933  45.832  80.4003  17.4107
  13125.240  13125.250  0.500  1.528387  45.8152  80.3657  17.4301
  13127.134  13127.110  0.500  1.526252  45.7892  80.3287  17.4593
  13128.992  13128.990  0.500  1.524268  45.7811  80.3175  17.4916
  13130.887  13130.890  0.500  1.522335  45.7546  80.2687  17.5148
  13132.798  13132.810  0.500  1.520906  45.7097  80.1985  17.5245
  13134.733  13134.750  0.500  1.519669  45.7104  80.1957  17.5456
  13136.720  13136.710  0.500  1.519070  45.6984  80.1896  17.5547
  13138.678  13138.680  0.500  1.518481  45.6701  80.1439  17.5551
  13140.689  13140.680  0.500  1.518245  45.6719  80.1445  17.5593
  13142.694  13142.690  0.500  1.517805  45.6291  80.0758  17.552
  13144.729  13144.720  0.500  1.517620  45.6124  80.0505  17.5497
  13146.772  13146.780  0.500  1.517126  45.589  80.0083  17.5491
  13148.846  13148.850  0.500  1.516949  45.5763  79.9948  17.5493
  13150.944  13150.940  0.500  1.516819  45.5399  79.9378  17.539
  13153.057  13153.050  0.500  1.516627  45.5229  79.9138  17.5371
  13155.209  13155.180  0.500  1.516228  45.4933  79.8663  17.5337
  13157.331  13157.320  0.500  1.516020  45.4808  79.8422  17.5321
  13159.507  13159.490  0.500  1.515637  45.5952  80.0514  17.5847
  13161.683  13161.680  0.500  1.515149  45.5533  79.9767  17.5769
  13163.868  13163.880  0.500  1.514657  45.545  79.9698  17.5841
  13166.114  13166.100  0.500  1.513904  45.507  79.9005  17.582
  13168.369  13168.350  0.500  1.513402  45.4575  79.8202  17.5732
  13170.616  13170.610  0.500  1.512851  45.4624  79.8349  17.5861
  13172.902  13172.890  0.500  1.512302  45.464  79.8448  17.5979
  13175.197  13175.190  0.500  1.511696  45.435  79.7907  17.5967
  13177.500  13177.510  0.500  1.511283  45.4029  79.7484  17.5946
  13179.849  13179.850  0.500  1.510834  45.3862  79.7217  17.5966
  13182.215  13182.200  0.500  1.510333  45.3573  79.6753  17.5952
  13184.611  13184.580  0.500  1.509745  45.3257  79.6231  17.594
  13187.001  13186.970  0.500  1.509182  45.3081  79.5883  17.5962
  13189.384  13189.390  0.500  1.508419  45.2812  79.5546  17.6022
  13191.813  13191.820  0.500  1.507751  45.2646  79.5328  17.6091
  13194.274  13194.270  0.500  1.506933  45.241  79.4925  17.6146
  13196.774  13196.750  0.500  1.506024  45.2013  79.4257  17.6158
  13199.275  13199.240  0.500  1.505123  45.1795  79.3941  17.6247
  13201.776  13201.750  0.500  1.504338  45.149  79.3419  17.6269
  13204.271  13204.270  0.500  1.503615  45.1342  79.331  17.6373
  13206.805  13206.820  0.500  1.502814  45.0878  79.248  17.6329
  13209.386  13209.390  0.500  1.502226  45.0569  79.2012  17.6329
  13211.983  13211.970  0.500  1.501649  45.0344  79.1607  17.634
  13214.596  13214.580  0.500  1.501088  45.0055  79.113  17.6333
  13217.195  13217.200  0.500  1.500695  44.9866  79.0878  17.6346
  13219.841  13219.850  0.500  1.500306  44.9478  79.0305  17.6287
  13222.533  13222.510  0.500  1.499962  44.9067  78.9671  17.6206
  13225.197  13225.190  0.500  1.499735  44.859  78.8873  17.6068
  13227.892  13227.890  0.500  1.499404  44.8321  78.8452  17.6032
  13230.603  13230.610  0.500  1.499180  44.8088  78.8032  17.5978
  13233.361  13233.350  0.500  1.498965  44.7826  78.7667  17.5934
  13236.105  13236.100  0.500  1.498606  44.7532  78.7145  17.5881
  13238.896  13238.880  0.500  1.498131  44.7202  78.6651  17.5854
  13241.666  13241.670  0.500  1.497629  44.69  78.6087  17.5816
  13244.505  13244.490  0.500  1.496956  44.6486  78.5496  17.5802
  13247.338  13247.320  0.500  1.496241  44.622  78.5049  17.5828
  13250.188  13250.170  0.500  1.495592  44.5901  78.4597  17.5841
  13253.038  13253.050  0.500  1.494786  44.543  78.3748  17.5792
  13255.967  13255.940  0.500  1.494037  44.5014  78.3107  17.578
  13258.859  13258.850  0.500  1.493225  44.4589  78.2401  17.5764
  13261.790  13261.770  0.500  1.492674  44.413  78.1639  17.569
  13264.723  13264.720  0.500  1.492003  44.3579  78.0693  17.5595
  13267.680  13267.690  0.500  1.491483  44.2635  77.909  17.5325
  13270.699  13270.670  0.500  1.490928  44.1356  77.6918  17.4934
  13273.682  13273.680  0.500  1.490398  43.8336  77.16  17.3828
  13276.720  13276.700  0.500  1.489798  43.6662  76.8746  17.3289
  13279.744  13279.750  0.500  1.489298  43.6959  76.9366  17.3516
  13282.823  13282.810  0.500  1.488786  43.6687  76.8938  17.3508
  13285.904  13285.890  0.500  1.488301  43.5791  76.7368  17.3238
  13289.017  13288.990  0.500  1.487664  43.4959  76.5987  17.3036
  13292.132  13292.110  0.500  1.487059  43.4626  76.5462  17.3022
  13295.255  13295.250  0.500  1.486411  43.4902  76.5987  17.3253
  13298.411  13298.400  0.500  1.485778  43.4434  76.5243  17.3195
  13301.623  13301.580  0.500  1.485089  43.3692  76.3972  17.3026
  13304.774  13304.770  0.500  1.484222  43.3352  76.3402  17.3047
  13308.004  13307.990  0.500  1.483464  43.3389  76.3514  17.3204
  13311.244  13311.220  0.500  1.482483  43.3256  76.3314  17.3328
  13314.477  13314.470  0.500  1.481599  43.3034  76.3026  17.3416
  13317.751  13317.750  0.500  1.480747  43.2704  76.2435  17.3429
  13321.041  13321.040  0.500  1.480010  43.2306  76.1841  17.3422
  13324.380  13324.350  0.500  1.479288  43.1752  76.1026  17.3361
  13327.698  13327.670  0.500  1.478386  43.1326  76.0179  17.3325
  13331.024  13331.020  0.500  1.477496  43.0791  75.9298  17.3278
  13334.415  13334.390  0.500  1.476716  43.0782  75.9338  17.3423
  13337.799  13337.770  0.500  1.475835  43.0584  75.9128  17.3528
  13341.193  13341.180  0.500  1.475085  43.0492  75.9032  17.3635
  13344.620  13344.600  0.500  1.474327  43.0157  75.8548  17.3656
  13348.080  13348.050  0.500  1.473353  43.0012  75.832  17.3773
  13351.534  13351.510  0.500  1.472601  42.9666  75.7701  17.3762
  13354.989  13354.990  0.500  1.471992  42.9509  75.7509  17.3824
  13358.501  13358.490  0.500  1.471063  42.8966  75.6537  17.3762
  13362.030  13362.010  0.500  1.470257  42.8636  75.6129  17.3809
  13365.562  13365.550  0.500  1.469256  42.8211  75.5381  17.3811
  13369.110  13369.100  0.500  1.468466  42.778  75.4729  17.3798
  13372.700  13372.680  0.500  1.467534  42.7341  75.4024  17.3797
  13376.315  13376.280  0.500  1.466463  42.7002  75.3461  17.3854
  13379.893  13379.890  0.500  1.465527  42.6684  75.2911  17.389
  13383.543  13383.520  0.500  1.464694  42.6334  75.2467  17.3932
  13387.188  13387.180  0.500  1.463632  42.6046  75.1926  17.3991
  13390.865  13390.850  0.500  1.462787  42.5742  75.1521  17.4045
  13394.561  13394.540  0.500  1.461795  42.5371  75.0887  17.407
  13398.258  13398.250  0.500  1.460845  42.4884  75.0145  17.4064
  13401.997  13401.980  0.500  1.459791  42.4601  74.9673  17.4138
  13405.730  13405.720  0.500  1.458925  42.4187  74.8957  17.4122
  13409.505  13409.490  0.500  1.457885  42.4031  74.8745  17.4254
  13413.305  13413.280  0.500  1.456963  42.3746  74.8334  17.4319
  13417.107  13417.080  0.500  1.456064  42.3297  74.7587  17.4301
  13420.927  13420.910  0.500  1.455033  42.2921  74.7007  17.4346
  13424.773  13424.750  0.500  1.454171  42.2518  74.6339  17.434
  13428.637  13428.610  0.500  1.453204  42.1518  74.4607  17.4104
  13432.519  13432.490  0.500  1.452221  42.161  74.4837  17.4329
  13436.411  13436.390  0.500  1.451234  42.1241  74.4302  17.4376
  13440.337  13440.310  0.500  1.450248  42.083  74.3612  17.4386
  13444.265  13444.250  0.500  1.449230  42.0453  74.3036  17.4428
  13448.251  13448.210  0.500  1.448321  41.9994  74.228  17.441
  13452.184  13452.180  0.500  1.447128  41.9683  74.1753  17.4494
  13456.206  13456.180  0.500  1.446114  41.9201  74.1056  17.4507
  13460.231  13460.190  0.500  1.445066  41.884  74.041  17.4537
  13464.250  13464.230  0.500  1.443929  41.8403  73.9735  17.4577
  13468.280  13468.280  0.500  1.442969  41.8006  73.9082  17.459
  13472.383  13472.350  0.500  1.441788  41.7476  73.8208  17.459
  13476.465  13476.440  0.500  1.440926  41.7213  73.7744  17.463
  13480.589  13480.550  0.500  1.439950  41.6174  73.593  17.4371
  13484.716  13484.680  0.500  1.438921  41.6195  73.6154  17.4604
  13488.837  13488.830  0.500  1.437941  41.6269  73.636  17.4824
  13493.009  13492.990  0.500  1.436826  41.5462  73.4967  17.4688
  13497.215  13497.180  0.500  1.435873  41.5391  73.4886  17.4835
  13501.384  13501.380  0.500  1.434789  41.4939  73.4187  17.4858
  13505.643  13505.610  0.500  1.433613  41.4565  73.3586  17.4921
  13509.873  13509.850  0.500  1.432742  41.4101  73.2794  17.4884
  13514.129  13514.110  0.500  1.431594  41.3573  73.1933  17.4879
  13518.428  13518.390  0.500  1.430577  41.3095  73.1167  17.4874
  13522.722  13522.690  0.500  1.429545  41.2625  73.0434  17.4879
  13527.027  13527.010  0.500  1.428393  41.2018  72.9394  17.4831
  13531.390  13531.350  0.500  1.427329  41.1626  72.8778  17.487
  13535.725  13535.710  0.500  1.426307  41.0723  72.7246  17.468
  13540.102  13540.090  0.500  1.424891  40.5381  71.7819  17.266
  13544.498  13544.480  0.500  1.424098  41.0811  72.7475  17.5122
  13548.888  13548.900  0.500  1.423029  41.0259  72.6701  17.5122
  13553.346  13553.330  0.500  1.421976  40.9615  72.5489  17.5015
  13557.807  13557.780  0.500  1.420794  40.257  71.3106  17.2231
  13562.263  13562.250  0.500  1.419829  40.9135  72.4871  17.5241
  13566.794  13566.740  0.500  1.418703  40.6319  71.992  17.424
  13571.264  13571.250  0.500  1.417533  40.791  72.2839  17.5152
  13575.809  13575.780  0.500  1.416278  40.129  71.1133  17.2532
  13580.357  13580.330  0.500  1.415198  40.7449  72.2119  17.5387
  13584.900  13584.900  0.500  1.414038  40.6867  72.1198  17.5366
  13589.519  13589.480  0.500  1.412857  40.6106  71.9868  17.5249
  13594.117  13594.090  0.500  1.411891  40.1347  71.1537  17.3389
  13598.726  13598.710  0.500  1.410672  40.5605  71.9122  17.5451
  13603.395  13603.360  0.500  1.409394  40.5043  71.8176  17.5444
  13608.051  13608.020  0.500  1.408199  40.4593  71.751  17.5491
  13612.718  13612.700  0.500  1.407169  40.3957  71.6472  17.5418
  13617.429  13617.400  0.500  1.405837  40.372  71.6123  17.5566
  13622.152  13622.120  0.500  1.404565  40.3051  71.4939  17.5499
  13626.902  13626.860  0.500  1.403483  40.2808  71.4628  17.5612
  13631.639  13631.610  0.500  1.402268  40.2143  71.3477  17.5543
  13636.428  13636.390  0.500  1.400930  40.1878  71.306  17.5675
  13641.204  13641.190  0.500  1.399803  40.138  71.2303  17.5686
  13646.057  13646.000  0.500  1.398666  40.0894  71.15  17.5688
  13650.856  13650.830  0.500  1.397494  40.0036  71.0009  17.5525
  13655.732  13655.690  0.500  1.396114  40.0022  71.0098  17.579
  13660.604  13660.560  0.500  1.395129  39.9585  70.9359  17.578
  13665.495  13665.450  0.500  1.393856  39.9071  70.8563  17.5806
  13670.374  13670.360  0.500  1.392638  39.8618  70.7776  17.5825
  13675.346  13675.290  0.500  1.391191  39.8102  70.6865  17.5853
  13680.264  13680.230  0.500  1.390185  39.7614  70.6058  17.5829
  13685.243  13685.200  0.500  1.388775  39.7143  70.5318  17.5893
  13690.226  13690.190  0.500  1.387666  39.6607  70.448  17.5879
  13695.212  13695.190  0.500  1.386305  39.6112  70.371  17.5926
  13700.276  13700.220  0.500  1.385163  39.5665  70.2992  17.5947
  13705.303  13705.260  0.500  1.384032  39.5176  70.215  17.5935
  13710.350  13710.320  0.500  1.382596  39.4702  70.1392  17.5998
  13715.466  13715.400  0.500  1.381334  39.4209  70.0564  17.6012
  13720.529  13720.500  0.500  1.380185  39.3751  69.9857  17.6036
  13725.686  13725.620  0.500  1.378865  39.3247  69.9065  17.607
  13730.797  13730.760  0.500  1.377607  39.2753  69.8261  17.6088
  13735.970  13735.920  0.500  1.376423  39.2279  69.7473  17.6098
  13741.155  13741.100  0.500  1.375041  39.1761  69.665  17.6133
  13746.320  13746.290  0.500  1.373740  39.1232  69.5763  17.6138
  13751.562  13751.510  0.500  1.372458  39.0657  69.4786  17.6117
  13756.809  13756.740  0.500  1.371167  39.0201  69.4099  17.617
  13762.035  13761.990  0.500  1.369793  38.9696  69.3287  17.6206
  13767.306  13767.260  0.500  1.368482  38.9128  69.2339  17.6195
  13772.573  13772.550  0.500  1.367259  38.9082  69.2336  17.641
  13777.911  13777.860  0.500  1.366015  38.9316  69.2775  17.6742
  13783.236  13783.190  0.500  1.364571  38.8848  69.1995  17.6798
  13788.590  13788.540  0.500  1.363292  38.8371  69.1198  17.682
  13793.957  13793.910  0.500  1.361932  38.7899  69.0499  17.6882
  13799.344  13799.290  0.500  1.360474  38.735  68.9593  17.6908
  13804.761  13804.700  0.500  1.359081  38.6903  68.8784  17.6946
  13810.174  13810.120  0.500  1.357821  38.6424  68.7992  17.6966
  13815.607  13815.570  0.500  1.356474  38.5604  68.6715  17.6876
  13821.087  13821.030  0.500  1.355028  38.535  68.6283  17.702
  13826.580  13826.510  0.500  1.353891  38.4753  68.5365  17.6984
  13832.068  13832.010  0.500  1.352308  38.427  68.4445  17.7027
  13837.578  13837.530  0.500  1.351052  38.3689  68.3579  17.7025
  13843.117  13843.070  0.500  1.349643  38.3177  68.263  17.7029
  13848.678  13848.620  0.500  1.348474  38.2503  68.165  17.6981
  13854.243  13854.200  0.500  1.346933  38.1709  68.0339  17.6913
  13859.837  13859.800  0.500  1.345549  38.131  67.967  17.6984
  13865.470  13865.410  0.500  1.344080  38.0648  67.8483  17.6934
  13871.116  13871.050  0.500  1.342807  37.9858  67.7152  17.6812
  13876.750  13876.700  0.500  1.341467  37.8978  67.5654  17.6658
  13882.405  13882.370  0.500  1.340011  37.751  67.3132  17.6255
  13888.107  13888.060  0.500  1.338516  37.6112  67.0723  17.5887