File: xdidata/Rb/Rb-K-RubidiumCarbonate.xdi
# XDI/1.0 BlueSky/1.10.0 BMM/2023-1.0-py310-tiled
# Beamline.name: BMM (06BM) -- Beamline for Materials Measurement (NIST)
# Beamline.xray_source: NSLS-II three-pole wiggler
# Beamline.collimation: paraboloid mirror, 5 nm Rh on 30 nm Pt
# Beamline.focusing: not in use
# Beamline.harmonic_rejection: flat mirror, Pt stripe, pitch = 7.0 mrad relative to beam
# Beamline.software: Bluesky 1.10.0, Ophyd 1.7.0, DataBroker 2.0.0b13, Python 3.10.8, 2023-1.0-py310-tiled
# Detector.I0: 10 cm N2
# Detector.I1: 25 cm N2
# Detector.I2: 25 cm N2
# Element.symbol: Rb
# Element.edge: K
# Element.reference: Rb
# Element.reference_material: RbCO3
# Facility.name: NSLS-II
# Facility.energy: 3.0
# Facility.current: 400.3
# Facility.mode: top-off
# Facility.GUP: 301027
# Facility.SAF: 310583
# Facility.cycle: 2023-2
# Mono.name: Si(111)
# Mono.d_spacing: 3.13519
# Mono.encoder_resolution: 0.0000050 deg/ct
# Mono.angle_offset: 16.0754 deg
# Mono.scan_mode: pseudo channel cut
# Mono.scan_type: step
# Mono.direction: forward in energy
# Sample.name: RbCO3
# Sample.prep: PEG pellet
# Sample.x: 109.138 mm
# Sample.y: 153.150 mm
# Sample.SDD_position: 205.000 mm
# Scan.experimenters: Bruce Ravel
# Scan.edge_energy: 15199.7
# Scan.start_time: 2023-05-28T21:26:24
# Scan.end_time: 2023-05-28T21:33:50
# Scan.transient_id: 79029
# Scan.uid: 443654f0-7c7c-4ede-a9e6-600d3d982c80
# Scan.plot_hint: ln(It/Ir)  --  ln($6/$7)
# Column.1: energy eV
# Column.2: requested_energy eV
# Column.3: measurement_time seconds
# Column.4: xmu
# Column.5: I0 nA
# Column.6: It nA
# Column.7: Ir nA
# ///////////
# sample courtesy Martin Stennett, University of Sheffield
# -----------
# energy  requested_energy  measurement_time  xmu  I0  It  Ir
  14999.605  14999.700  0.500  0.319689  27.7322  50.3553  36.5769
  15009.632  15009.700  0.500  0.319283  27.6937  50.2991  36.5508
  15019.623  15019.700  0.500  0.318592  27.6312  50.1928  36.4988
  15029.785  15029.700  0.500  0.318013  27.5742  50.0924  36.4469
  15039.675  15039.700  0.500  0.317648  27.5287  50.0169  36.4053
  15049.687  15049.700  0.500  0.317037  27.4906  49.9496  36.3785
  15059.712  15059.700  0.500  0.316708  27.4152  49.827  36.3011
  15069.681  15069.700  0.500  0.316288  27.3626  49.7353  36.2496
  15079.713  15079.700  0.500  0.315922  27.2838  49.5974  36.1623
  15089.689  15089.700  0.500  0.315598  27.2445  49.5363  36.1294
  15099.678  15099.700  0.500  0.315113  27.1828  49.4314  36.0704
  15109.711  15109.700  0.500  0.314786  27.1228  49.3305  36.0085
  15119.727  15119.700  0.500  0.314480  27.081  49.2563  35.9654
  15129.696  15129.700  0.500  0.314262  27.0155  49.1481  35.8943
  15139.729  15139.700  0.500  0.314249  26.9456  49.0239  35.8039
  15149.715  15149.700  0.500  0.314528  26.8976  48.9391  35.7321
  15159.714  15159.700  0.500  0.315229  26.7838  48.745  35.5654
  15169.696  15169.700  0.500  0.316983  26.7989  48.7777  35.5269
  15171.630  15171.700  0.500  0.317371  26.7778  48.7375  35.4839
  15173.654  15173.700  0.500  0.318036  26.7579  48.6999  35.4329
  15175.639  15175.700  0.500  0.318702  26.753  48.695  35.4058
  15177.645  15177.700  0.500  0.319612  26.7521  48.6983  35.376
  15179.661  15179.700  0.500  0.320560  26.7333  48.6669  35.3196
  15181.658  15181.700  0.500  0.321674  26.7351  48.6733  35.2849
  15183.665  15183.700  0.500  0.323016  26.7064  48.6196  35.1988
  15185.633  15185.700  0.500  0.325006  26.7  48.6063  35.1192
  15187.651  15187.700  0.500  0.327372  26.697  48.6065  35.0363
  15189.620  15189.700  0.500  0.330353  26.6697  48.5617  34.8999
  15189.902  15190.000  0.500  0.330873  26.6761  48.5735  34.8902
  15190.215  15190.300  0.500  0.331288  26.6731  48.563  34.8681
  15190.518  15190.600  0.500  0.331994  26.6681  48.5574  34.8395
  15190.831  15190.900  0.500  0.332549  26.6688  48.5577  34.8204
  15191.124  15191.200  0.500  0.333156  26.6762  48.57  34.8081
  15191.417  15191.500  0.500  0.333870  26.6775  48.5747  34.7866
  15191.730  15191.800  0.500  0.334511  26.6722  48.56  34.7538
  15192.053  15192.100  0.500  0.335189  26.6567  48.5333  34.7112
  15192.366  15192.400  0.500  0.335946  26.6562  48.5303  34.6828
  15192.649  15192.700  0.500  0.336822  26.6555  48.5342  34.6552
  15192.942  15193.000  0.500  0.337653  26.6543  48.531  34.6241
  15193.245  15193.300  0.500  0.338600  26.6437  48.5157  34.5804
  15193.568  15193.600  0.500  0.339568  26.6609  48.5423  34.5659
  15193.892  15193.900  0.500  0.340491  26.6421  48.502  34.5054
  15194.174  15194.200  0.500  0.341790  26.6454  48.5172  34.4714
  15194.467  15194.500  0.500  0.342895  26.6389  48.5111  34.4289
  15194.770  15194.800  0.500  0.344119  26.6228  48.4702  34.3579
  15195.074  15195.100  0.500  0.345400  26.6264  48.4766  34.3184
  15195.397  15195.400  0.500  0.347051  26.6221  48.4772  34.2622
  15195.710  15195.700  0.500  0.348401  26.649  48.5246  34.2494
  15195.983  15196.000  0.500  0.349991  26.6232  48.4802  34.1637
  15196.256  15196.300  0.500  0.351677  26.6204  48.468  34.0976
  15196.589  15196.600  0.500  0.353582  26.6347  48.4933  34.0504
  15196.903  15196.900  0.500  0.355799  26.6132  48.4588  33.9509
  15197.196  15197.200  0.500  0.357979  26.6023  48.4388  33.863
  15197.479  15197.500  0.500  0.360214  26.5919  48.4225  33.776
  15197.782  15197.800  0.500  0.362629  26.6036  48.439  33.7061
  15198.065  15198.100  0.500  0.365327  26.6032  48.4421  33.6173
  15198.408  15198.400  0.500  0.368838  26.6038  48.4451  33.5016
  15198.712  15198.700  0.500  0.372064  26.6079  48.4513  33.398
  15198.995  15199.000  0.500  0.375571  26.6202  48.4725  33.2956
  15199.278  15199.300  0.500  0.379462  26.6055  48.4492  33.1504
  15199.581  15199.600  0.500  0.383749  26.5964  48.4318  32.9967
  15199.874  15199.900  0.500  0.388592  26.5937  48.4258  32.8332
  15200.188  15200.200  0.500  0.394409  26.5953  48.43  32.6456
  15200.461  15200.500  0.500  0.400411  26.5938  48.429  32.4496
  15200.774  15200.800  0.500  0.407594  26.588  48.4193  32.2109
  15201.077  15201.100  0.500  0.415961  26.587  48.4134  31.9386
  15201.401  15201.400  0.500  0.426355  26.5905  48.4221  31.6141
  15201.704  15201.700  0.500  0.437619  26.5842  48.4113  31.2529
  15202.008  15202.000  0.500  0.449746  26.6022  48.4483  30.8998
  15202.281  15202.300  0.500  0.464039  26.5811  48.4073  30.4356
  15202.574  15202.600  0.500  0.481190  26.5745  48.3955  29.9107
  15202.878  15202.900  0.500  0.500852  26.5912  48.4254  29.3465
  15203.201  15203.200  0.500  0.525668  26.5669  48.38  28.6003
  15203.484  15203.500  0.500  0.550089  26.5795  48.407  27.9259
  15203.778  15203.800  0.500  0.578408  26.5747  48.4025  27.1437
  15204.071  15204.100  0.500  0.611072  26.5598  48.3725  26.2551
  15204.385  15204.400  0.500  0.648274  26.5563  48.3669  25.2934
  15204.688  15204.700  0.500  0.683456  26.5699  48.3898  24.4305
  15204.971  15205.000  0.500  0.719113  26.5495  48.3573  23.5589
  15205.265  15205.300  0.500  0.753690  26.5608  48.3776  22.7678
  15205.578  15205.600  0.500  0.790710  26.5643  48.3878  21.945
  15205.892  15205.900  0.500  0.824702  26.5556  48.3732  21.2051
  15206.165  15206.200  0.500  0.854354  26.5455  48.3507  20.576
  15206.469  15206.500  0.500  0.881088  26.5324  48.3307  20.0249
  15206.772  15206.800  0.500  0.904833  26.5442  48.349  19.5625
  15207.066  15207.100  0.500  0.924976  26.5604  48.3791  19.1843
  15207.390  15207.400  0.500  0.942990  26.5416  48.3537  18.8319
  15207.693  15207.700  0.500  0.955538  26.5259  48.3246  18.5859
  15208.007  15208.000  0.500  0.965545  26.534  48.3371  18.4056
  15208.280  15208.300  0.500  0.972763  26.542  48.3502  18.2782
  15208.604  15208.600  0.500  0.977813  26.5286  48.3301  18.1785
  15208.898  15208.900  0.500  0.980731  26.5218  48.3177  18.1209
  15209.181  15209.200  0.500  0.982113  26.5347  48.3445  18.1059
  15209.495  15209.500  0.500  0.982474  26.5285  48.3305  18.0941
  15209.789  15209.800  0.500  0.982278  26.5246  48.3212  18.0942
  15210.112  15210.100  0.500  0.981776  26.5198  48.3113  18.0996
  15210.406  15210.400  0.500  0.981628  26.5097  48.2974  18.0971
  15210.700  15210.700  0.500  0.981692  26.5363  48.3459  18.1141
  15211.003  15211.000  0.500  0.982346  26.5397  48.3496  18.1036
  15211.307  15211.300  0.500  0.983881  26.5618  48.388  18.0902
  15211.611  15211.600  0.500  0.986218  26.5979  48.4508  18.0714
  15211.894  15211.900  0.500  0.988966  26.5891  48.4379  18.017
  15212.188  15212.200  0.500  0.992450  26.5797  48.4276  17.9505
  15212.512  15212.500  0.500  0.996262  26.572  48.4141  17.8773
  15212.826  15212.800  0.500  0.999973  26.5875  48.4395  17.8204
  15213.120  15213.100  0.500  1.003362  26.5773  48.4186  17.7524
  15213.403  15213.400  0.500  1.005871  26.572  48.4137  17.7061
  15213.697  15213.700  0.500  1.007189  26.5833  48.4325  17.6897
  15214.001  15214.000  0.500  1.007240  26.564  48.3941  17.6748
  15214.325  15214.300  0.500  1.005571  26.5772  48.4192  17.7135
  15214.599  15214.600  0.500  1.002585  26.5691  48.403  17.7605
  15214.892  15214.900  0.500  0.997461  26.5614  48.3864  17.8456
  15215.206  15215.200  0.500  0.991479  26.5501  48.3708  17.9469
  15215.520  15215.500  0.500  0.983394  26.5494  48.3676  18.0914
  15215.824  15215.800  0.500  0.975368  26.5534  48.378  18.2411
  15216.098  15216.100  0.500  0.966587  26.554  48.3773  18.4017
  15216.402  15216.400  0.500  0.957366  26.5416  48.3515  18.5623
  15216.716  15216.700  0.500  0.947799  26.5424  48.3559  18.7424
  15217.010  15217.000  0.500  0.938636  26.542  48.3543  18.9143
  15217.324  15217.300  0.500  0.930348  26.5393  48.3499  19.07
  15217.577  15217.600  0.500  0.922646  26.5472  48.3594  19.2212
  15217.881  15217.900  0.500  0.914567  26.5509  48.376  19.3838
  15218.216  15218.200  0.500  0.906599  26.5362  48.3471  19.5272
  15218.510  15218.500  0.500  0.900062  26.5341  48.3485  19.6558
  15218.804  15218.800  0.500  0.893919  26.5358  48.3471  19.7764
  15219.067  15219.100  0.500  0.888759  26.5315  48.3439  19.8773
  15219.391  15219.400  0.500  0.883228  26.5337  48.3404  19.9861
  15219.696  15219.700  0.500  0.878202  26.5133  48.3086  20.0736
  15219.989  15220.000  0.500  0.874337  26.5182  48.3142  20.1537
  15220.263  15220.300  0.500  0.870457  26.5165  48.31  20.2303
  15220.598  15220.600  0.500  0.866816  26.5094  48.293  20.2969
  15220.892  15220.900  0.500  0.863445  26.5121  48.3034  20.3699
  15221.186  15221.200  0.500  0.860613  26.5082  48.2953  20.4242
  15221.480  15221.500  0.500  0.858030  26.5056  48.2935  20.4763
  15221.764  15221.800  0.500  0.855592  26.504  48.283  20.5218
  15222.078  15222.100  0.500  0.853224  26.5059  48.289  20.573
  15222.392  15222.400  0.500  0.851145  26.4903  48.2634  20.6049
  15222.697  15222.700  0.500  0.849549  26.4923  48.268  20.6398
  15222.980  15223.000  0.500  0.848227  26.5032  48.2873  20.6753
  15223.275  15223.300  0.500  0.847390  26.4911  48.2651  20.6831
  15223.609  15223.600  0.500  0.846585  26.4901  48.2628  20.6988
  15223.914  15223.900  0.500  0.846356  26.4794  48.2415  20.6944
  15224.197  15224.200  0.500  0.846490  26.4838  48.2516  20.696
  15224.492  15224.500  0.500  0.846936  26.4815  48.2508  20.6864
  15224.705  15224.700  0.500  0.847559  26.4817  48.253  20.6745
  15225.709  15225.690  0.500  0.851263  26.472  48.2299  20.5882
  15226.723  15226.690  0.500  0.857108  26.4739  48.2342  20.47
  15227.748  15227.710  0.500  0.864264  26.4762  48.2423  20.3275
  15228.793  15228.760  0.500  0.873241  26.4636  48.2169  20.1352
  15229.849  15229.820  0.500  0.883050  26.4692  48.2261  19.9425
  15230.905  15230.900  0.500  0.893432  26.451  48.1973  19.7247
  15232.032  15232.000  0.500  0.903996  26.4594  48.2101  19.5226
  15233.128  15233.120  0.500  0.913156  26.4461  48.1943  19.3382
  15234.276  15234.260  0.500  0.920811  26.4358  48.1701  19.1811
  15235.413  15235.410  0.500  0.925348  26.4248  48.1526  19.0874
  15236.612  15236.590  0.500  0.927785  26.4124  48.1284  19.0313
  15237.791  15237.780  0.500  0.928851  26.4111  48.1255  19.0099
  15239.030  15239.000  0.500  0.929737  26.4181  48.1445  19.0006
  15240.260  15240.230  0.500  0.930062  26.3949  48.0992  18.9766
  15241.510  15241.480  0.500  0.928856  26.3988  48.1107  19.004
  15242.771  15242.750  0.500  0.925259  26.3811  48.0763  19.0588
  15244.083  15244.040  0.500  0.919220  26.3688  48.0564  19.1663
  15245.374  15245.350  0.500  0.912570  26.3641  48.0476  19.2907
  15246.707  15246.680  0.500  0.906524  26.3616  48.0483  19.4079
  15248.030  15248.030  0.500  0.901083  26.3401  48.0103  19.4984
  15249.403  15249.400  0.500  0.896241  26.323  47.9766  19.5793
  15250.777  15250.780  0.500  0.892232  26.3258  47.9853  19.6615
  15252.192  15252.190  0.500  0.889077  26.3204  47.9727  19.7185
  15253.628  15253.610  0.500  0.886778  26.3192  47.9679  19.7619
  15255.074  15255.050  0.500  0.884967  26.3233  47.9812  19.8032
  15256.551  15256.510  0.500  0.883476  26.3024  47.9404  19.8158
  15258.007  15257.990  0.500  0.881811  26.3113  47.9523  19.8538
  15259.525  15259.490  0.500  0.880797  26.2799  47.902  19.8531
  15261.003  15261.010  0.500  0.880473  26.27  47.8854  19.8527
  15262.542  15262.550  0.500  0.880950  26.2641  47.8796  19.8408
  15264.112  15264.110  0.500  0.882053  26.2701  47.8903  19.8233
  15265.703  15265.680  0.500  0.883607  26.2437  47.8427  19.7729
  15267.315  15267.280  0.500  0.884848  26.2353  47.827  19.7419
  15268.916  15268.890  0.500  0.886402  26.2229  47.8095  19.704
  15270.549  15270.530  0.500  0.887882  26.2219  47.8059  19.6734
  15272.202  15272.180  0.500  0.889086  26.2042  47.7753  19.6371
  15273.856  15273.850  0.500  0.890162  26.1946  47.7551  19.6077
  15275.531  15275.540  0.500  0.890870  26.1806  47.7359  19.586
  15277.246  15277.250  0.500  0.891167  26.1678  47.7131  19.5708
  15278.952  15278.980  0.500  0.890972  26.1615  47.6957  19.5675
  15280.761  15280.730  0.500  0.890784  26.1529  47.6898  19.5687
  15282.508  15282.490  0.500  0.890180  26.1423  47.6653  19.5705
  15284.287  15284.280  0.500  0.889295  26.1329  47.6501  19.5816
  15286.107  15286.080  0.500  0.887982  26.1115  47.6098  19.5907
  15287.907  15287.910  0.500  0.886561  26.1114  47.6161  19.6212
  15289.779  15289.750  0.500  0.884910  26.1005  47.5995  19.6468
  15291.600  15291.610  0.500  0.882881  26.087  47.5746  19.6764
  15293.504  15293.490  0.500  0.881054  26.0767  47.5553  19.7044
  15295.408  15295.390  0.500  0.878965  26.0876  47.5776  19.7548
  15297.344  15297.310  0.500  0.877117  26.0711  47.5479  19.779
  15299.290  15299.250  0.500  0.875170  26.0311  47.472  19.7859
  15301.236  15301.210  0.500  0.873737  26.0218  47.4603  19.8094
  15303.173  15303.180  0.500  0.872540  26.0264  47.4732  19.8385
  15305.182  15305.180  0.500  0.871384  26.0205  47.461  19.8564
  15307.202  15307.190  0.500  0.870616  26.0068  47.4326  19.8597
  15309.222  15309.220  0.500  0.870412  26.0022  47.4319  19.8635
  15311.305  15311.280  0.500  0.870481  25.9726  47.3714  19.8368
  15313.367  15313.350  0.500  0.870701  25.9661  47.3592  19.8273
  15315.441  15315.440  0.500  0.870895  25.9411  47.3239  19.8087
  15317.545  15317.550  0.500  0.871199  25.9468  47.3325  19.8063
  15319.692  15319.680  0.500  0.871276  25.9406  47.3193  19.7992
  15321.849  15321.820  0.500  0.871445  25.9258  47.297  19.7865
  15324.017  15323.990  0.500  0.871439  25.9153  47.2816  19.7802
  15326.196  15326.180  0.500  0.871237  25.9156  47.2774  19.7824
  15328.417  15328.380  0.500  0.870990  25.8742  47.2105  19.7593
  15330.598  15330.600  0.500  0.870815  25.8681  47.1962  19.7568
  15332.840  15332.850  0.500  0.870472  25.8508  47.1634  19.7499
  15335.094  15335.110  0.500  0.870107  25.8478  47.1564  19.7541
  15337.410  15337.390  0.500  0.869747  25.8285  47.1313  19.7507
  15339.727  15339.690  0.500  0.869470  25.819  47.1125  19.7483
  15342.024  15342.010  0.500  0.869376  25.7895  47.0653  19.7304
  15344.363  15344.350  0.500  0.869295  25.664  46.8364  19.636
  15346.692  15346.700  0.500  0.869645  25.7721  47.0271  19.7091
  15349.104  15349.080  0.500  0.869192  25.779  47.0492  19.7273
  15351.517  15351.470  0.500  0.868309  25.7777  47.0449  19.7429
  15353.921  15353.890  0.500  0.867696  25.7465  46.9919  19.7327
  15356.325  15356.320  0.500  0.866974  25.7319  46.9662  19.7362
  15358.782  15358.770  0.500  0.866200  25.7274  46.9578  19.7479
  15361.281  15361.250  0.500  0.865697  25.7025  46.9144  19.7396
  15363.770  15363.740  0.500  0.865301  25.6967  46.902  19.7422
  15366.281  15366.250  0.500  0.864888  25.6646  46.8474  19.7274
  15368.793  15368.770  0.500  0.864763  25.6682  46.8485  19.7303
  15371.316  15371.320  0.500  0.864442  25.66  46.8404  19.7332
  15373.881  15373.890  0.500  0.864078  25.6361  46.8027  19.7245
  15376.488  15376.470  0.500  0.863701  25.6143  46.761  19.7144
  15379.096  15379.080  0.500  0.863310  25.5962  46.7338  19.7106
  15381.705  15381.700  0.500  0.862934  25.5852  46.7098  19.7079
  15384.347  15384.350  0.500  0.862810  25.5795  46.7071  19.7092
  15386.999  15387.010  0.500  0.862366  25.5392  46.6357  19.6878
  15389.714  15389.690  0.500  0.862197  25.5234  46.6119  19.6811
  15392.400  15392.390  0.500  0.862066  25.5137  46.5877  19.6735
  15395.127  15395.110  0.500  0.861662  25.5061  46.574  19.6756
  15397.835  15397.850  0.500  0.861527  25.4985  46.5563  19.6708
  15400.617  15400.600  0.500  0.861207  25.4791  46.5305  19.6662
  15403.400  15403.380  0.500  0.860793  25.4635  46.5011  19.6619
  15406.173  15406.170  0.500  0.860216  25.4446  46.4689  19.6596
  15409.020  15408.990  0.500  0.859761  25.4347  46.4512  19.6611
  15411.826  15411.820  0.500  0.859076  25.4102  46.4124  19.6581
  15414.655  15414.670  0.500  0.858612  25.3872  46.3635  19.6465
  15417.557  15417.550  0.500  0.858045  25.3733  46.3446  19.6497
  15420.491  15420.440  0.500  0.857542  25.3681  46.3344  19.6552
  15423.365  15423.350  0.500  0.856859  25.33  46.2629  19.6383
  15426.260  15426.270  0.500  0.856259  25.3111  46.2388  19.6399
  15429.229  15429.220  0.500  0.855806  25.3108  46.2389  19.6488
  15432.189  15432.190  0.500  0.855307  25.2935  46.2114  19.6469
  15435.202  15435.170  0.500  0.854673  25.2763  46.1798  19.6459
  15438.206  15438.180  0.500  0.854186  25.2631  46.1548  19.6449
  15441.190  15441.200  0.500  0.853609  25.2394  46.1132  19.6385
  15444.280  15444.250  0.500  0.853237  25.2287  46.0947  19.6379
  15447.329  15447.310  0.500  0.852728  25.2017  46.0524  19.6298
  15450.411  15450.390  0.500  0.852294  25.173  45.9985  19.6154
  15453.504  15453.490  0.500  0.851688  25.0269  45.7299  19.5127
  15456.630  15456.610  0.500  0.851408  25.1628  45.9817  19.6256
  15459.799  15459.750  0.500  0.851114  25.1461  45.9555  19.6202
  15462.928  15462.900  0.500  0.850600  25.1189  45.9108  19.6112
  15466.079  15466.080  0.500  0.850268  25.1159  45.902  19.6139
  15469.305  15469.270  0.500  0.849792  25.1322  45.9351  19.6374
  15472.500  15472.490  0.500  0.849422  25.154  45.9765  19.6624
  15475.760  15475.720  0.500  0.849068  25.1415  45.9591  19.6619
  15479.010  15478.970  0.500  0.848580  25.1038  45.8876  19.6409
  15482.241  15482.250  0.500  0.848228  25.1206  45.9184  19.661
  15485.547  15485.540  0.500  0.847770  25.0877  45.8603  19.6451
  15488.875  15488.850  0.500  0.847385  25.0713  45.837  19.6427
  15492.215  15492.170  0.500  0.847021  25.0528  45.8033  19.6354
  15495.525  15495.520  0.500  0.846468  25.0307  45.7591  19.6273
  15498.931  15498.890  0.500  0.846032  25.016  45.737  19.6264
  15502.266  15502.270  0.500  0.845592  24.9957  45.7004  19.6193
  15505.717  15505.680  0.500  0.845132  24.873  45.4878  19.537
  15509.127  15509.100  0.500  0.844642  24.9547  45.6282  19.6069
  15512.571  15512.550  0.500  0.844270  24.9386  45.6086  19.6058
  15516.017  15516.010  0.500  0.843705  24.9374  45.6  19.6132
  15519.506  15519.490  0.500  0.843316  24.9029  45.5403  19.5952
  15523.028  15522.990  0.500  0.842960  24.8971  45.5409  19.6024
  15526.541  15526.510  0.500  0.842311  24.8672  45.4777  19.5879
  15530.035  15530.050  0.500  0.841828  24.8269  45.414  19.5699
  15533.625  15533.600  0.500  0.841293  24.8165  45.3949  19.5721
  15537.186  15537.180  0.500  0.840932  24.803  45.3689  19.568
  15540.811  15540.780  0.500  0.840324  24.781  45.3318  19.5639
  15544.396  15544.390  0.500  0.839937  24.7621  45.2983  19.557
  15548.025  15548.020  0.500  0.839436  24.7411  45.2694  19.5543
  15551.730  15551.680  0.500  0.838704  24.7236  45.23  19.5516
  15555.373  15555.350  0.500  0.838455  24.6728  45.1407  19.5178
  15559.081  15559.040  0.500  0.837953  24.5953  45.0064  19.4695
  15562.738  15562.750  0.500  0.837556  24.6686  45.1461  19.5377
  15566.535  15566.480  0.500  0.837024  24.6533  45.1169  19.5355
  15570.227  15570.220  0.500  0.836493  24.6232  45.0569  19.5199
  15574.028  15573.990  0.500  0.836127  24.6063  45.0307  19.5157
  15577.777  15577.780  0.500  0.835522  24.5833  44.9911  19.5103
  15581.613  15581.580  0.500  0.834938  24.5569  44.9423  19.5005
  15585.450  15585.410  0.500  0.834391  24.5425  44.9212  19.502
  15589.269  15589.250  0.500  0.833834  24.4954  44.8392  19.4773
  15593.121  15593.110  0.500  0.833371  24.5058  44.8558  19.4935
  15596.997  15596.990  0.500  0.832854  24.4731  44.8002  19.4794
  15600.928  15600.890  0.500  0.832238  24.43  44.728  19.46
  15604.839  15604.810  0.500  0.831830  24.435  44.7386  19.4726
  15608.763  15608.750  0.500  0.831193  24.4106  44.6898  19.4637
  15612.721  15612.710  0.500  0.830545  24.4013  44.6755  19.4701
  15616.724  15616.680  0.500  0.830008  24.3628  44.604  19.4494
  15620.718  15620.680  0.500  0.829705  24.3424  44.5766  19.4433
  15624.704  15624.690  0.500  0.829169  24.3051  44.5079  19.4238
  15628.734  15628.730  0.500  0.828392  24.3063  44.5137  19.4414
  15632.809  15632.780  0.500  0.827911  24.2938  44.4939  19.4421
  15636.887  15636.850  0.500  0.827447  24.2622  44.4335  19.4247
  15640.977  15640.940  0.500  0.826888  24.2449  44.4057  19.4234
  15645.037  15645.050  0.500  0.826196  24.2184  44.3568  19.4155
  15649.207  15649.180  0.500  0.825709  24.1975  44.3247  19.4109
  15653.379  15653.330  0.500  0.825177  24.1798  44.2906  19.4062
  15657.510  15657.490  0.500  0.824694  24.1548  44.2455  19.3959
  15661.708  15661.680  0.500  0.823981  24.1317  44.2044  19.3916
  15665.929  15665.880  0.500  0.823315  24.1018  44.1579  19.3842
  15670.153  15670.110  0.500  0.823055  24.0232  44.0144  19.3262
  15674.401  15674.350  0.500  0.822324  24.0706  44.1016  19.3786
  15678.662  15678.610  0.500  0.821698  24.0421  44.0505  19.3683
  15682.925  15682.890  0.500  0.821165  23.9977  43.9697  19.3431
  15687.222  15687.190  0.500  0.820641  23.9955  43.9718  19.3542
  15691.587  15691.510  0.500  0.820007  23.9777  43.9396  19.3523
  15695.944  15695.850  0.500  0.819451  23.9291  43.8579  19.327
  15700.292  15700.210  0.500  0.818856  23.9186  43.8411  19.3311
  15704.653  15704.590  0.500  0.818320  23.9001  43.8076  19.3267
  15709.049  15708.980  0.500  0.817476  23.8705  43.7511  19.3181
  15713.470  15713.400  0.500  0.816912  23.8352  43.6897  19.3019
  15717.882  15717.830  0.500  0.816419  23.835  43.6917  19.3122
  15722.339  15722.280  0.500  0.815929  23.8076  43.6526  19.3044
  15726.800  15726.750  0.500  0.815231  23.7833  43.6008  19.295
  15731.328  15731.240  0.500  0.814724  23.7577  43.5615  19.2874
  15735.826  15735.750  0.500  0.814012  23.7401  43.5294  19.2869
  15740.337  15740.280  0.500  0.813365  23.7186  43.4914  19.2825
  15744.862  15744.830  0.500  0.812628  23.6975  43.458  19.2819
  15749.422  15749.400  0.500  0.812307  23.6722  43.4101  19.2668
  15754.039  15753.980  0.500  0.811665  23.646  43.3665  19.2599
  15758.659  15758.590  0.500  0.810874  23.6273  43.3385  19.2626
  15763.249  15763.210  0.500  0.810367  23.5959  43.2771  19.2451
  15767.874  15767.860  0.500  0.809763  23.5774  43.2475  19.2435
  15772.579  15772.520  0.500  0.809108  23.5338  43.1648  19.2194
  15777.242  15777.200  0.500  0.808496  23.5262  43.1599  19.2289
  15781.952  15781.900  0.500  0.807916  23.5043  43.1208  19.2227
  15786.654  15786.620  0.500  0.807275  23.4769  43.0731  19.2137
  15791.391  15791.360  0.500  0.806602  23.4525  43.0268  19.206
  15796.186  15796.110  0.500  0.805998  23.4201  42.9748  19.1943
  15800.973  15800.890  0.500  0.805322  23.4  42.933  19.1886
  15805.697  15805.690  0.500  0.804662  23.37  42.8861  19.1803
  15810.545  15810.500  0.500  0.804148  23.3471  42.8451  19.1719
  15815.352  15815.330  0.500  0.803451  23.313  42.786  19.1588
  15820.260  15820.190  0.500  0.802848  23.2978  42.7547  19.1563
  15825.094  15825.060  0.500  0.802193  23.273  42.7131  19.1502
  15829.976  15829.950  0.500  0.801666  23.2535  42.6827  19.1467
  15834.871  15834.860  0.500  0.801028  23.2184  42.6257  19.1333
  15839.836  15839.790  0.500  0.800262  23.1905  42.5736  19.1246
  15844.781  15844.730  0.500  0.799632  23.1633  42.5259  19.1151
  15849.752  15849.700  0.500  0.798942  23.1438  42.4861  19.1104
  15854.715  15854.690  0.500  0.798297  23.1097  42.4305  19.0978
  15859.713  15859.690  0.500  0.797574  23.0847  42.3857  19.0914
  15864.793  15864.720  0.500  0.797177  23.0667  42.3575  19.0863
  15869.798  15869.760  0.500  0.796479  23.0427  42.3128  19.0794
  15874.873  15874.820  0.500  0.795815  23.0091  42.254  19.0656
  15879.929  15879.900  0.500  0.795113  22.9913  42.2232  19.065
  15885.054  15885.000  0.500  0.794507  22.9618  42.1705  19.0528
  15890.139  15890.120  0.500  0.793861  22.93  42.1178  19.0413
  15895.282  15895.260  0.500  0.793174  22.9106  42.0821  19.0382
  15900.451  15900.420  0.500  0.792538  22.8739  42.014  19.0195
  15905.645  15905.600  0.500  0.791849  22.8417  41.9613  19.0087
  15910.921  15910.790  0.500  0.791142  22.7456  41.789  18.9441
  15916.011  15916.010  0.500  0.790704  22.7991  41.8876  18.9971
  15921.249  15921.240  0.500  0.789969  22.7686  41.8365  18.9879
  15926.501  15926.490  0.500  0.789120  22.744  41.7846  18.9804
  15931.779  15931.760  0.500  0.788506  22.7162  41.7444  18.9738
  15937.072  15937.050  0.500  0.787650  22.6826  41.681  18.9612
  15942.357  15942.360  0.500  0.787178  22.654  41.6372  18.9502
  15947.702  15947.690  0.500  0.786415  22.5945  41.5238  18.913
  15953.105  15953.040  0.500  0.785838  22.606  41.5512  18.9364
  15958.446  15958.410  0.500  0.785107  22.5876  41.5164  18.9344
  15963.812  15963.790  0.500  0.784512  22.5483  41.4504  18.9156
  15969.238  15969.200  0.500  0.783767  22.5224  41.4057  18.9092
  15974.701  15974.620  0.500  0.783014  22.4887  41.3467  18.8965
  15980.113  15980.070  0.500  0.782472  22.4552  41.2905  18.8811
  15985.538  15985.530  0.500  0.781787  22.2385  40.8855  18.7087
  15991.058  15991.010  0.500  0.781078  22.4216  41.2321  18.8807
  15996.547  15996.510  0.500  0.780396  22.3858  41.1636  18.8622
  16002.085  16002.030  0.500  0.779765  22.3628  41.1231  18.8555
  16007.594  16007.570  0.500  0.779116  22.3348  41.077  18.8466
  16013.162  16013.120  0.500  0.778391  22.3085  41.0278  18.8377
  16018.745  16018.700  0.500  0.777665  22.2692  40.9555  18.8182
  16024.344  16024.300  0.500  0.777113  22.0554  40.5686  18.6506
  16029.946  16029.910  0.500  0.776240  22.173  40.7922  18.7698
  16035.575  16035.550  0.500  0.775779  22.1885  40.8188  18.7908
  16041.254  16041.200  0.500  0.774920  22.1583  40.7656  18.7824
  16046.902  16046.870  0.500  0.774364  22.1323  40.7208  18.7722
  16052.577  16052.560  0.500  0.773469  22.1063  40.6748  18.7677