File: xdidata/Ru/Ru-K-RuO2.xdi
# XDI/1.0 BlueSky/1.13.0a3 BMM/2024-2.0-py310-tiled
# Beamline.name: BMM (06BM) -- Beamline for Materials Measurement (NIST)
# Beamline.collimation: paraboloid mirror, 5 nm Rh on 30 nm Pt
# Beamline.xray_source: NSLS-II three-pole wiggler
# Beamline.focusing: not in use
# Beamline.harmonic_rejection: flat mirror, Pt stripe, pitch = 7.0 mrad relative to beam
# Beamline.software: Bluesky 1.13.0a4, Ophyd 1.9.0, DataBroker 2.0.0b45, Python 3.11.6, 2024-2.3-py311-tiled
# Detector.I0: 25 cm N2, NSLS2 IC
# Detector.It: 25 cm N2, NSLS2 IC
# Detector.Ir: 25 cm N2, NSLS2 IC
# Element.edge: K
# Element.symbol: Ru
# Element.reference: Ru
# Element.reference_material: RuO2
# Facility.name: NSLS-II
# Facility.energy: 3.0
# Facility.GUP: 316837
# Facility.SAF: 314472
# Facility.cycle: 2024-3
# Facility.current: 399.1
# Facility.mode: top-off
# Mono.name: Si(311)
# Mono.d_spacing: 1.63761
# Mono.encoder_resolution: 5e-06
# Mono.angle_offset: 16.0018
# Mono.direction: forward
# Mono.scan_type: step
# Mono.scan_mode: pseudo channel cut
# Sample.name: powder in PEG pellet
# Sample.prep: standard from reference wheel
# Sample.SDD_position: 205.0
# Sample.x: 81.363
# Sample.y: 170.212
# Scan.edge_energy: 22117.2
# Scan.experimenters: Bruce Ravel
# Scan.start_time: 2024-11-08T07:59:34
# Scan.end_time: 2024-11-08T08:09:45
# Scan.uid: b46d66fd-36ab-4c25-9588-32225de610c4
# Scan.transient_id: 3689
# Scan.plot_hint: ln(It/Ir)  --  ln($6/$7)
# Column.1: energy eV
# Column.2: requested_energy eV
# Column.3: measurement_time seconds
# Column.4: xmu
# Column.5: I0 nA
# Column.6: Itrans nA
# Column.7: Irefer nA
# //////////////////////////////////////////////////////////
#
# ----------------------------------------------------------
# energy requested_energy measurement_time xmu I0 It Ir
21917.3 21917.2 1.000000 -2.713427 10.0992 14.3077 0.948734
21927.4 21927.2 1.000000 -2.713987 10.0061 14.1793 0.939690
21937.3 21937.2 1.000000 -2.713373 9.920053 14.0598 0.932344
21947.3 21947.2 1.000000 -2.712721 9.831417 13.9345 0.924635
21957.3 21957.2 1.000000 -2.711824 9.736983 13.803 0.916734
21967.3 21967.2 1.000000 -2.711573 9.602794 13.6238 0.905058
21977.2 21977.2 1.000000 -2.711849 9.247316 13.031 0.865441
21987.2 21987.2 1.000000 -2.711437 9.572778 13.5819 0.902399
21997.3 21997.2 1.000000 -2.710566 9.465593 13.4299 0.893078
22007.2 22007.2 1.000000 -2.709935 9.376888 13.3057 0.885375
22017.3 22017.2 1.000000 -2.709640 9.289037 13.1855 0.877638
22027.2 22027.2 1.000000 -2.709657 9.205309 13.0676 0.869775
22037.3 22037.2 1.000000 -2.708892 9.119126 12.9502 0.862622
22047.3 22047.2 1.000000 -2.709296 9.036003 12.835 0.854601
22057.2 22057.2 1.000000 -2.710398 8.950206 12.7167 0.845795
22067.3 22067.2 1.000000 -2.709756 8.865880 12.5992 0.838513
22077.3 22077.2 1.000000 -2.711258 8.785155 12.487 0.829797
22087.2 22087.2 1.000000 -2.713705 8.703800 12.3743 0.820299
22089.2 22089.2 1.000000 -2.713986 8.685636 12.3508 0.818513
22091.2 22091.2 1.000000 -2.715393 8.669520 12.3259 0.815715
22093.2 22093.2 1.000000 -2.716034 8.652427 12.3059 0.813872
22095.2 22095.2 1.000000 -2.716316 8.636937 12.2849 0.812252
22097.2 22097.2 1.000000 -2.717875 8.621884 12.2615 0.809441
22099.2 22099.2 1.000000 -2.718630 8.603381 12.2373 0.807236
22101.2 22101.2 1.000000 -2.720000 8.588230 12.2132 0.804540
22103.2 22103.2 1.000000 -2.721901 8.570694 12.1906 0.801528
22105.2 22105.2 1.000000 -2.724039 8.552587 12.1692 0.798414
22107.2 22107.2 1.000000 -2.726520 8.534986 12.146 0.794916
22107.7 22107.7 1.000000 -2.726421 8.530719 12.1354 0.794302
22108.2 22108.2 1.000000 -2.728231 8.523502 12.13 0.792512
22108.6 22108.7 1.000000 -2.728379 8.517185 12.1229 0.791931
22109.1 22109.2 1.000000 -2.729807 8.514608 12.1199 0.790603
22109.7 22109.7 1.000000 -2.731206 8.512162 12.1188 0.789429
22110.1 22110.2 1.000000 -2.731273 8.506803 12.1122 0.788946
22110.7 22110.7 1.000000 -2.732760 8.505325 12.1068 0.787422
22111.1 22111.2 1.000000 -2.733147 8.501490 12.104 0.786933
22111.7 22111.7 1.000000 -2.734849 8.494667 12.099 0.785270
22112.2 22112.2 1.000000 -2.737062 8.493784 12.0971 0.783412
22112.7 22112.7 1.000000 -2.737610 8.491849 12.0927 0.782696
22113.2 22113.2 1.000000 -2.739796 8.484951 12.0867 0.780604
22113.7 22113.7 1.000000 -2.741258 8.481115 12.0824 0.779186
22114.2 22114.2 1.000000 -2.742823 8.476886 12.0744 0.777453
22114.7 22114.7 1.000000 -2.745311 8.472636 12.0696 0.775211
22115.2 22115.2 1.000000 -2.748459 8.464983 12.06 0.772162
22115.7 22115.7 1.000000 -2.750493 8.459722 12.0544 0.770229
22116.2 22116.2 1.000000 -2.753918 8.457512 12.0523 0.767464
22116.7 22116.7 1.000000 -2.757577 8.451445 12.0431 0.764075
22117.2 22117.2 1.000000 -2.761280 8.445840 12.0393 0.761014
22117.7 22117.7 1.000000 -2.764891 8.443181 12.0343 0.757957
22118.2 22118.2 1.000000 -2.771216 8.438674 12.0339 0.753154
22118.7 22118.7 1.000000 -2.776353 8.432629 12.0241 0.748682
22119.2 22119.2 1.000000 -2.782952 8.428800 12.0187 0.743421
22119.7 22119.7 1.000000 -2.789955 8.423959 12.0135 0.737918
22120.2 22120.2 1.000000 -2.796343 8.418404 12.0098 0.732990
22120.7 22120.7 1.000000 -2.803955 8.414913 12.0012 0.726915
22121.2 22121.2 1.000000 -2.810620 8.407337 11.9966 0.721806
22121.7 22121.7 1.000000 -2.817869 8.402802 11.9887 0.716122
22122.1 22122.2 1.000000 -2.824230 8.399126 11.9823 0.711204
22122.7 22122.7 1.000000 -2.831461 8.393384 11.9772 0.705774
22123.2 22123.2 1.000000 -2.836594 8.388184 11.9724 0.701881
22123.7 22123.7 1.000000 -2.841611 8.383199 11.963 0.697822
22124.2 22124.2 1.000000 -2.848722 8.375817 11.9582 0.692596
22124.7 22124.7 1.000000 -2.854197 8.371186 11.95 0.688348
22125.2 22125.2 1.000000 -2.862966 8.365314 11.9414 0.681843
22125.7 22125.7 1.000000 -2.871920 8.359075 11.9361 0.675464
22126.2 22126.2 1.000000 -2.881942 8.353983 11.9257 0.668150
22126.7 22126.7 1.000000 -2.894520 8.350872 11.9258 0.659799
22127.2 22127.2 1.000000 -2.907509 8.346639 11.9212 0.651036
22127.7 22127.7 1.000000 -2.924787 8.340837 11.9139 0.639493
22128.2 22128.2 1.000000 -2.942835 8.332936 11.9026 0.627460
22128.7 22128.7 1.000000 -2.962108 8.327356 11.8958 0.615127
22129.2 22129.2 1.000000 -2.985961 8.324304 11.8915 0.600414
22129.7 22129.7 1.000000 -3.008096 8.318967 11.8866 0.587028
22130.2 22130.2 1.000000 -3.034190 8.316098 11.8825 0.571708
22130.7 22130.7 1.000000 -3.059691 8.310488 11.8762 0.557021
22131.2 22131.2 1.000000 -3.086825 8.305089 11.8734 0.541979
22131.7 22131.7 1.000000 -3.114664 8.299155 11.8647 0.526714
22132.2 22132.2 1.000000 -3.141599 8.295935 11.8602 0.512521
22132.7 22132.7 1.000000 -3.170714 8.292103 11.8556 0.497624
22133.2 22133.2 1.000000 -3.198161 8.286962 11.8474 0.483814
22133.7 22133.7 1.000000 -3.226008 8.311931 11.8846 0.472005
22134.2 22134.2 1.000000 -3.254291 8.306938 11.8779 0.458583
22134.7 22134.7 1.000000 -3.281796 8.300676 11.8744 0.446010
22135.2 22135.2 1.000000 -3.309000 8.295391 11.8664 0.433748
22135.7 22135.7 1.000000 -3.336324 8.289353 11.8578 0.421752
22136.2 22136.2 1.000000 -3.362893 8.283784 11.8488 0.410384
22136.7 22136.7 1.000000 -3.386590 8.278519 11.8417 0.400531
22137.2 22137.2 1.000000 -3.409705 8.275250 11.842 0.391391
22137.7 22137.7 1.000000 -3.430859 8.270091 11.8316 0.382861
22138.2 22138.2 1.000000 -3.450702 8.262968 11.8263 0.375169
22138.7 22138.7 1.000000 -3.468732 8.260246 11.8176 0.368194
22139.2 22139.2 1.000000 -3.483738 8.253550 11.8155 0.362646
22139.7 22139.7 1.000000 -3.497367 8.250423 11.8058 0.357443
22140.2 22140.2 1.000000 -3.507264 8.244304 11.8042 0.353876
22140.7 22140.7 1.000000 -3.516772 8.240410 11.7957 0.350274
22141.2 22141.2 1.000000 -3.523733 8.235430 11.7899 0.347675
22141.7 22141.7 1.000000 -3.528354 8.232391 11.7853 0.345935
22142.2 22142.2 1.000000 -3.530433 8.224283 11.7752 0.344922
22143.2 22143.2 1.000000 -3.533199 8.214168 11.763 0.343612
22144.2 22144.2 1.000000 -3.529095 8.207344 11.7505 0.344658
22145.2 22145.2 1.000000 -3.523234 8.195962 11.7363 0.346266
22146.3 22146.3 1.000000 -3.516440 8.186261 11.7268 0.348345
22147.3 22147.3 1.000000 -3.510352 8.176712 11.7128 0.350055
22148.4 22148.4 1.000000 -3.506310 8.168246 11.6981 0.351030
22149.5 22149.5 1.000000 -3.504712 8.158703 11.6875 0.351274
22150.6 22150.6 1.000000 -3.504499 8.150367 11.676 0.351001
22151.8 22151.8 1.000000 -3.505769 8.140564 11.6615 0.350120
22152.9 22152.9 1.000000 -3.504314 8.132005 11.6523 0.350353
22154.2 22154.1 1.000000 -3.500863 8.120880 11.638 0.351134
22155.3 22155.3 1.000000 -3.490794 8.112564 11.6253 0.354301
22156.5 22156.5 1.000000 -3.473342 8.103003 11.6129 0.360155
22157.7 22157.7 1.000000 -3.451229 8.091122 11.5954 0.367650
22159 22159 1.000000 -3.425523 8.079054 11.5786 0.376679
22160.2 22160.2 1.000000 -3.401514 8.068286 11.5657 0.385402
22161.5 22161.5 1.000000 -3.380003 8.059208 11.5552 0.393424
22162.8 22162.8 1.000000 -3.362341 8.048769 11.5385 0.399854
22164.2 22164.2 1.000000 -3.348845 8.033920 11.517 0.404532
22165.6 22165.5 1.000000 -3.340954 8.022325 11.501 0.407173
22166.9 22166.9 1.000000 -3.332843 8.010686 11.4862 0.409959
22168.3 22168.3 1.000000 -3.328924 7.999472 11.4707 0.411014
22169.7 22169.7 1.000000 -3.325630 7.987928 11.4551 0.411809
22171.1 22171.1 1.000000 -3.321148 7.975765 11.438 0.413040
22172.5 22172.5 1.000000 -3.317827 7.965033 11.4206 0.413785
22174 22174 1.000000 -3.318552 7.952827 11.4064 0.412970
22175.5 22175.5 1.000000 -3.317829 7.936367 11.3855 0.412511
22177 22177 1.000000 -3.318654 7.924979 11.3661 0.411469
22178.5 22178.5 1.000000 -3.322642 7.911174 11.346 0.409107
22180.1 22180 1.000000 -3.325693 7.897873 11.3293 0.407262
22181.6 22181.6 1.000000 -3.329706 7.881820 11.3078 0.404859
22183.2 22183.2 1.000000 -3.335079 7.862381 11.2797 0.401691
22184.8 22184.8 1.000000 -3.339998 7.856772 11.2688 0.399332
22186.4 22186.4 1.000000 -3.344288 7.845080 11.2563 0.397183
22188.1 22188 1.000000 -3.348729 7.829892 11.2331 0.394608
22189.7 22189.7 1.000000 -3.354471 7.816220 11.2159 0.391749
22191.3 22191.3 1.000000 -3.359647 7.802396 11.1973 0.389080
22193 22193 1.000000 -3.366025 7.789738 11.179 0.385972
22194.7 22194.8 1.000000 -3.373211 7.778560 11.1613 0.382602
22196.5 22196.5 1.000000 -3.377583 7.764442 11.1397 0.380196
22198.3 22198.2 1.000000 -3.385529 7.747062 11.117 0.376417
22200 22200 1.000000 -3.393324 7.732796 11.1005 0.372941
22201.8 22201.8 1.000000 -3.398327 7.718476 11.08 0.370395
22203.6 22203.6 1.000000 -3.404347 7.700862 11.0566 0.367395
22205.4 22205.4 1.000000 -3.410524 7.672607 11.013 0.363691
22207.3 22207.2 1.000000 -3.414560 7.654615 10.9876 0.361392
22209.1 22209.1 1.000000 -3.417806 7.657128 10.9888 0.360259
22211 22211 1.000000 -3.418437 7.642204 10.9706 0.359435
22212.9 22212.9 1.000000 -3.418898 7.626935 10.9499 0.358594
22214.8 22214.8 1.000000 -3.417374 7.611005 10.9277 0.358410
22216.7 22216.8 1.000000 -3.414497 7.594263 10.9027 0.358620
22218.7 22218.7 1.000000 -3.411709 7.581053 10.8852 0.359047
22220.7 22220.7 1.000000 -3.408683 7.563051 10.8591 0.359269
22222.7 22222.7 1.000000 -3.403629 7.547566 10.8342 0.360262
22224.7 22224.7 1.000000 -3.398737 7.525888 10.8058 0.361082
22226.7 22226.7 1.000000 -3.395348 7.512626 10.7884 0.361723
22228.7 22228.8 1.000000 -3.390114 7.493495 10.7655 0.362849
22230.8 22230.8 1.000000 -3.384085 7.477782 10.7401 0.364183
22232.9 22232.9 1.000000 -3.378177 7.460547 10.7144 0.365463
22235 22235 1.000000 -3.374381 7.439496 10.6864 0.365893
22237.1 22237.2 1.000000 -3.370034 7.420961 10.6589 0.366542
22239.3 22239.3 1.000000 -3.366204 7.404606 10.6362 0.367167
22241.7 22241.5 1.000000 -3.361630 7.378205 10.6014 0.367642
22243.6 22243.7 1.000000 -3.358544 7.391431 10.6184 0.369369
22246.2 22245.9 1.000000 -3.355933 7.351702 10.5617 0.368358
22248.1 22248.1 1.000000 -3.355155 7.315660 10.5136 0.366966
22250.5 22250.3 1.000000 -3.353005 7.337172 10.5413 0.368723
22252.5 22252.6 1.000000 -3.351520 7.325628 10.5243 0.368677
22254.8 22254.9 1.000000 -3.350709 7.305463 10.5 0.368123
22257.1 22257.2 1.000000 -3.351072 7.288992 10.4742 0.367088
22259.5 22259.5 1.000000 -3.350434 7.272204 10.4513 0.366519
22261.8 22261.8 1.000000 -3.350852 7.254690 10.4266 0.365498
22264.1 22264.2 1.000000 -3.351419 7.237551 10.4025 0.364448
22266.5 22266.6 1.000000 -3.350560 7.219236 10.3775 0.363883
22268.9 22269 1.000000 -3.350284 7.198202 10.3498 0.363014
22271.4 22271.4 1.000000 -3.350047 7.180019 10.3179 0.361981
22273.8 22273.8 1.000000 -3.352165 7.160128 10.2953 0.360423
22276.3 22276.3 1.000000 -3.351695 7.142816 10.2678 0.359627
22278.7 22278.8 1.000000 -3.352622 7.126675 10.2454 0.358511
22281.2 22281.2 1.000000 -3.352291 7.106461 10.2181 0.357677
22283.7 22283.8 1.000000 -3.353259 7.085577 10.188 0.356278
22286.2 22286.3 1.000000 -3.355183 7.067297 10.1623 0.354694
22288.8 22288.8 1.000000 -3.356398 7.046283 10.1331 0.353247
22291.4 22291.4 1.000000 -3.358057 7.027432 10.1037 0.351638
22294 22294 1.000000 -3.358774 7.005294 10.0741 0.350354
22296.6 22296.6 1.000000 -3.359794 6.986742 10.0473 0.349068
22299.2 22299.2 1.000000 -3.363415 6.966424 10.018 0.346790
22301.8 22301.8 1.000000 -3.364318 6.946164 9.991614 0.345566
22304.5 22304.5 1.000000 -3.366320 6.926527 9.961174 0.343824
22307.2 22307.2 1.000000 -3.368640 6.907912 9.935313 0.342137
22309.9 22309.9 1.000000 -3.366296 6.887478 9.905577 0.341913
22312.6 22312.6 1.000000 -3.365937 6.865434 9.875252 0.340989
22315.4 22315.3 1.000000 -3.365048 6.844883 9.844200 0.340219
22318.1 22318.1 1.000000 -3.361568 6.824055 9.816802 0.340455
22320.9 22320.9 1.000000 -3.357655 6.797780 9.782749 0.340604
22323.7 22323.7 1.000000 -3.354655 6.781461 9.755989 0.340693
22326.5 22326.5 1.000000 -3.351195 6.760071 9.726282 0.340833
22329.3 22329.3 1.000000 -3.347956 6.733079 9.685258 0.340496
22332.2 22332.2 1.000000 -3.343142 6.718725 9.667907 0.341527
22335.1 22335 1.000000 -3.341130 6.685215 9.621386 0.340568
22338 22337.9 1.000000 -3.337432 6.671154 9.599444 0.341050
22340.9 22340.8 1.000000 -3.335148 6.657030 9.581135 0.341178
22343.8 22343.8 1.000000 -3.335582 6.634510 9.549027 0.339887
22346.7 22346.7 1.000000 -3.332619 6.613402 9.518058 0.339790
22349.7 22349.7 1.000000 -3.333290 6.592558 9.489991 0.338560
22352.7 22352.7 1.000000 -3.330403 6.571548 9.458150 0.338400
22355.7 22355.7 1.000000 -3.330315 6.550052 9.426249 0.337288
22358.7 22358.7 1.000000 -3.330295 6.527655 9.396547 0.336232
22361.8 22361.8 1.000000 -3.330979 6.501834 9.360041 0.334697
22364.8 22364.8 1.000000 -3.331026 6.483950 9.331638 0.333666
22367.9 22367.9 1.000000 -3.331353 6.453124 9.291266 0.332114
22371 22371 1.000000 -3.330753 6.438053 9.266675 0.331433
22374.1 22374.1 1.000000 -3.331984 6.415891 9.238636 0.330024
22377.3 22377.2 1.000000 -3.331664 6.394672 9.206087 0.328966
22380.4 22380.4 1.000000 -3.330897 6.372380 9.174579 0.328092
22383.6 22383.6 1.000000 -3.329343 6.349412 9.144670 0.327531
22386.8 22386.8 1.000000 -3.328192 6.323875 9.106627 0.326544
22390 22390 1.000000 -3.327373 6.299900 9.072201 0.325577
22393.2 22393.2 1.000000 -3.326698 6.277276 9.039835 0.324634
22396.5 22396.5 1.000000 -3.325564 6.253830 9.008013 0.323858
22399.8 22399.8 1.000000 -3.323382 6.231271 8.975402 0.323391
22403 22403 1.000000 -3.323290 6.208245 8.940307 0.322156
22406.4 22406.3 1.000000 -3.323906 6.183337 8.904424 0.320665
22409.7 22409.7 1.000000 -3.324329 6.160962 8.874272 0.319444
22413.1 22413 1.000000 -3.324077 6.137356 8.843683 0.318423
22416.4 22416.4 1.000000 -3.325644 6.115241 8.812522 0.316805
22419.8 22419.8 1.000000 -3.325389 6.089772 8.775488 0.315554
22423.2 22423.2 1.000000 -3.325123 6.066880 8.739525 0.314344
22426.6 22426.6 1.000000 -3.325505 6.041621 8.704789 0.312975
22430.1 22430 1.000000 -3.326510 6.017122 8.670357 0.311424
22433.6 22433.5 1.000000 -3.324853 5.993101 8.635403 0.310683
22437 22437 1.000000 -3.323384 5.971950 8.604091 0.310011
22440.5 22440.5 1.000000 -3.323878 5.936537 8.556207 0.308134
22444 22444 1.000000 -3.322444 5.918408 8.529521 0.307614
22447.6 22447.5 1.000000 -3.321865 5.888649 8.484410 0.306164
22451.1 22451.1 1.000000 -3.320103 5.869438 8.458418 0.305764
22454.7 22454.7 1.000000 -3.318541 5.846294 8.424999 0.305032
22458.3 22458.3 1.000000 -3.318519 5.819012 8.389145 0.303741
22461.9 22461.9 1.000000 -3.314728 5.793901 8.350532 0.303491
22465.5 22465.5 1.000000 -3.313758 5.786412 8.342139 0.303480
22469.2 22469.2 1.000000 -3.314594 5.760492 8.304086 0.301844
22472.8 22472.8 1.000000 -3.311223 5.694776 8.209048 0.299397
22476.5 22476.5 1.000000 -3.310821 5.710412 8.233121 0.300395
22480.3 22480.2 1.000000 -3.310206 5.685589 8.197077 0.299264
22484 22484 1.000000 -3.309113 5.657350 8.156740 0.298117
22487.7 22487.7 1.000000 -3.308205 5.624967 8.109343 0.296654
22491.5 22491.5 1.000000 -3.308179 5.604635 8.083189 0.295705
22495.3 22495.3 1.000000 -3.308276 5.580719 8.045502 0.294298
22499.1 22499.1 1.000000 -3.306854 5.550436 8.003493 0.293178
22502.9 22502.9 1.000000 -3.309432 5.527774 7.970261 0.291209
22506.8 22506.8 1.000000 -3.308163 5.501769 7.932749 0.290206
22510.6 22510.6 1.000000 -3.305436 5.475374 7.896360 0.289664
22514.5 22514.5 1.000000 -3.306303 5.450801 7.860444 0.288096
22518.4 22518.4 1.000000 -3.304650 5.423276 7.819850 0.287083
22522.3 22522.3 1.000000 -3.303605 5.396491 7.782926 0.286026
22526.3 22526.2 1.000000 -3.304001 5.370337 7.745294 0.284530
22530.2 22530.2 1.000000 -3.301615 5.339784 7.703540 0.283672
22534.2 22534.2 1.000000 -3.300760 5.312810 7.665051 0.282496
22538.2 22538.2 1.000000 -3.301354 5.286657 7.624268 0.280827
22542.2 22542.2 1.000000 -3.301070 5.260948 7.588550 0.279591
22546.3 22546.2 1.000000 -3.301007 5.226842 7.540072 0.277822
22550.3 22550.3 1.000000 -3.301189 5.137341 7.408007 0.272906
22554.4 22554.3 1.000000 -3.301427 5.178811 7.472476 0.275216
22558.5 22558.4 1.000000 -3.300651 5.151545 7.432250 0.273947
22562.6 22562.5 1.000000 -3.299255 5.120267 7.386393 0.272637
22566.7 22566.7 1.000000 -3.298507 5.097963 7.354526 0.271663
22570.9 22570.8 1.000000 -3.298625 5.071408 7.314907 0.270168
22575 22575 1.000000 -3.298593 5.036577 7.269174 0.268488
22579.2 22579.2 1.000000 -3.296893 5.012515 7.234436 0.267659
22583.4 22583.4 1.000000 -3.297393 4.989922 7.200561 0.266273
22587.6 22587.6 1.000000 -3.294841 4.958585 7.155355 0.265277
22591.9 22591.8 1.000000 -3.293461 4.931530 7.115745 0.264173
22596.1 22596.1 1.000000 -3.293528 4.901771 7.074519 0.262625
22600.4 22600.4 1.000000 -3.291513 4.876956 7.039206 0.261841
22604.7 22604.7 1.000000 -3.291300 4.847866 6.997515 0.260346
22609 22609 1.000000 -3.290106 4.820087 6.955055 0.259075
22613.4 22613.3 1.000000 -3.287149 4.790977 6.913502 0.258290
22617.8 22617.7 1.000000 -3.287493 4.761908 6.871436 0.256630
22622.1 22622.1 1.000000 -3.286278 4.733797 6.832601 0.255490
22626.5 22626.5 1.000000 -3.286039 4.709161 6.796991 0.254219
22630.9 22630.9 1.000000 -3.285002 4.677123 6.750864 0.252756
22635.4 22635.3 1.000000 -3.285023 4.646932 6.708184 0.251153
22639.8 22639.8 1.000000 -3.285191 4.617010 6.666422 0.249547
22644.2 22644.2 1.000000 -3.286249 4.588243 6.625870 0.247767
22648.8 22648.7 1.000000 -3.283210 4.559177 6.583647 0.246937
22653.3 22653.2 1.000000 -3.282673 4.531287 6.539297 0.245405
22657.8 22657.8 1.000000 -3.282925 4.504955 6.504190 0.244027
22662.4 22662.3 1.000000 -3.283307 4.475688 6.460337 0.242289
22667 22666.9 1.000000 -3.280875 4.444265 6.416491 0.241230
22671.5 22671.5 1.000000 -3.280279 4.409687 6.367575 0.239534
22676.1 22676.1 1.000000 -3.280852 4.387041 6.334449 0.238151
22680.7 22680.7 1.000000 -3.277865 4.357044 6.290845 0.237219
22685.4 22685.4 1.000000 -3.276468 4.326739 6.248456 0.235950
22690.1 22690 1.000000 -3.275582 4.296029 6.206806 0.234585
22694.7 22694.7 1.000000 -3.273896 4.266394 6.161265 0.233257
22699.4 22699.4 1.000000 -3.274055 4.236690 6.117540 0.231565
22704.2 22704.1 1.000000 -3.274969 4.198491 6.063844 0.229323
22708.9 22708.9 1.000000 -3.273776 4.173691 6.028313 0.228251
22713.7 22713.6 1.000000 -3.273558 4.143768 5.988266 0.226784
22718.5 22718.4 1.000000 -3.274648 4.114689 5.945370 0.224914
22723.2 22723.2 1.000000 -3.272318 4.084591 5.901830 0.223788
22728 22728 1.000000 -3.271671 4.053049 5.857862 0.222265
22732.9 22732.8 1.000000 -3.270505 4.022714 5.813802 0.220850
22737.8 22737.7 1.000000 -3.270900 3.989597 5.763168 0.218840
22742.6 22742.6 1.000000 -3.271573 3.964218 5.728040 0.217360
22747.5 22747.5 1.000000 -3.270356 3.933119 5.684804 0.215982
22752.4 22752.4 1.000000 -3.270026 3.901443 5.637558 0.214258
22757.4 22757.3 1.000000 -3.269092 3.791449 5.476682 0.208338
22762.3 22762.2 1.000000 -3.268100 3.843448 5.554015 0.211490
22767.3 22767.2 1.000000 -3.265689 3.812605 5.511902 0.210393
22772.2 22772.2 1.000000 -3.266264 3.780704 5.464384 0.208459
22777.3 22777.2 1.000000 -3.263150 3.749807 5.420584 0.207433
22782.3 22782.2 1.000000 -3.263049 3.718074 5.374762 0.205700
22787.3 22787.3 1.000000 -3.263328 3.682020 5.319116 0.203514
22792.4 22792.3 1.000000 -3.261271 3.660810 5.291889 0.202889
22797.4 22797.4 1.000000 -3.259680 3.629039 5.245395 0.201427
22802.5 22802.5 1.000000 -3.260538 3.598718 5.203808 0.199658
22807.7 22807.6 1.000000 -3.258859 3.567078 5.157691 0.198221
22812.8 22812.8 1.000000 -3.257344 3.535745 5.111562 0.196746
22817.9 22817.9 1.000000 -3.256110 3.506271 5.069414 0.195365
22823.1 22823.1 1.000000 -3.257410 3.474616 5.023233 0.193334
22828.4 22828.3 1.000000 -3.254595 3.442650 4.978226 0.192142
22833.5 22833.5 1.000000 -3.255483 3.402780 4.918504 0.189668
22838.8 22838.7 1.000000 -3.255627 3.383601 4.893846 0.188690
22844.1 22844 1.000000 -3.253687 3.348719 4.842440 0.187071
22849.3 22849.3 1.000000 -3.253491 3.314877 4.793190 0.185205
22854.6 22854.5 1.000000 -3.252464 3.297483 4.766496 0.184362
22859.9 22859.9 1.000000 -3.252563 3.265890 4.723120 0.182666
22865.3 22865.2 1.000000 -3.251014 3.222601 4.659372 0.180480
22870.6 22870.5 1.000000 -3.250180 3.212120 4.645590 0.180097
22875.9 22875.9 1.000000 -3.249659 3.185996 4.609227 0.178780
22881.4 22881.3 1.000000 -3.247739 3.153402 4.562362 0.177302
22886.8 22886.7 1.000000 -3.244785 3.125224 4.520603 0.176199
22892.2 22892.1 1.000000 -3.248462 3.094758 4.477623 0.173883
22897.6 22897.6 1.000000 -3.245543 3.062088 4.429316 0.172510
22903.1 22903 1.000000 -3.244098 3.036556 4.392796 0.171335
22908.6 22908.5 1.000000 -3.244582 3.004892 4.347821 0.169499
22914 22914 1.000000 -3.243195 2.976423 4.307097 0.168145
22919.6 22919.5 1.000000 -3.241731 2.945925 4.262772 0.166658
22925.2 22925.1 1.000000 -3.237714 2.917197 4.221107 0.165693
22930.7 22930.6 1.000000 -3.242293 2.888187 4.178806 0.163283
22936.3 22936.2 1.000000 -3.240654 2.857487 4.137531 0.161936
22941.9 22941.8 1.000000 -3.239040 2.826812 4.091335 0.160387
22947.4 22947.4 1.000000 -3.238548 2.798186 4.049841 0.158838
22953.1 22953 1.000000 -3.237861 2.768352 4.007003 0.157266
22958.8 22958.7 1.000000 -3.237783 2.739715 3.965575 0.155652
22964.4 22964.4 1.000000 -3.236316 2.706964 3.917800 0.154003
22970 22970.1 1.000000 -3.234636 2.678824 3.877414 0.152671